ExperimentName	HCPID	RunNumber	Subject	Session	RandomSeed	Group	Laptop.RefreshRate	ScannerD2.RefreshRate	StudioVersion	RuntimeVersion	RuntimeVersionExpected	ExperimentVersion	triggercode	Allowed	Target	Nontarget	FontStyle	RunTrialNumber[Session]	TrialsPerRun[Session]	TotalRespGreater200[Session]	ConsecRTLess200[Session]	ConsecNonResp[Session]	StimuliDir	ACC_2_Back_Body	Avg_RT_For_Correct_Trials_2_Back_Body	ACC_0_Back_Body	Avg_RT_For_Correct_Trials_0_Back_Body	ACC_2_Back_Face	Avg_RT_For_Correct_Trials_2_Back_Face	ACC_0_Back_Face	Avg_RT_For_Correct_Trials_0_Back_Face	ACC_2_Back_Place	Avg_RT_For_Correct_Trials_2_Back_Place	ACC_0_Back_Place	Avg_RT_For_Correct_Trials_0_Back_Place	ACC_2_Back_Tools	Avg_RT_For_Correct_Trials_2_Back_Tools	ACC_0_Back_Tools	Avg_RT_For_Correct_Trials_0_Back_Tools	ExpInstrucFeelFreeToRest.OnsetDelay	ExpInstrucFeelFreeToRest.OnsetTime	ExpInstrucFeelFreeToRest.DurationError	ExpInstrucFeelFreeToRest.StartTime	ExpInstrucFeelFreeToRest.OnsetToOnsetTime	FeelFreeToRest.OnsetDelay	FeelFreeToRest.OnsetTime	FeelFreeToRest.DurationError	FeelFreeToRest.StartTime	FeelFreeToRest.OnsetToOnsetTime	SessionSelectionList	Procedure[Block]	Stimulus[Block]	RunNumberFilterValue	SessionSelectionList.Cycle	SessionSelectionList.Sample	Running[Block]	IntroButtonMap.OnsetDelay	IntroButtonMap.OnsetTime	IntroButtonMap.DurationError	IntroButtonMap.OnsetToOnsetTime	GetReady.OnsetDelay	GetReady.OnsetTime	GetReady.DurationError	GetReady.OnsetToOnsetTime	Cue2Back.OnsetDelay	Cue2Back.OnsetTime	Cue2Back.DurationError	Cue2Back.OnsetToOnsetTime	Run1Block1	TargetType	CorrectResponse	StimType	BlockType	RunTrialNumber[Block]	TrialsPerRun[Block]	TotalRespGreater200[Block]	ConsecRTLess200[Block]	ConsecNonResp[Block]	ControlAcc	ConsecSameResp	ExperimenterWindow.OnsetDelay	ExperimenterWindow.OnsetTime	ExperimenterWindow.DurationError	ExperimenterWindow.OnsetToOnsetTime	Stim.OnsetDelay	Stim.OnsetTime	Stim.DurationError	Stim.RTTime	Stim.ACC	Stim.RT	Stim.RESP	Stim.CRESP	Stim.OnsetToOnsetTime	Fix.OnsetDelay	Fix.OnsetTime	Fix.DurationError	Fix.OnsetToOnsetTime	CueTarget.OnsetDelay	CueTarget.OnsetTime	CueTarget.DurationError	CueTarget.OnsetToOnsetTime	Run1Block2	Fix15sec.OnsetDelay	Fix15sec.OnsetTime	Fix15sec.DurationError	Fix15sec.OnsetToOnsetTime	Run1Block3	Run1Block4	Run1Block5	Run1Block6	Run1Block7	Run1Block8	Block	Procedure[Trial]	Stimulus[Trial]	ReadyList	Running[Trial]	ReadyList.Cycle	ReadyList.Sample	SyncSlide.OnsetDelay	SyncSlide.OnsetTime	SyncSlide.DurationError	SyncSlide.FinishTime	SyncSlide.OnsetToOnsetTime	Trial
WM080112	148335_fnca	1	1	1	1204002848	1	75.031	75.031	2.0.10.147	2.0.10.242	2.0.10.242	1.0.0.439	7	234	2	3	Verdana	1	80	0	0	0	WM Stimuli\	0.4	1470.75	0.9	854.888888888889	0.6	1256.16666666667	0.9	867.666666666667	0.9	839.444444444444	0.6	753.166666666667	0.5	977.6	1	649.1	13	537240	2	537228	27	40	537267	-999999	537243	0	1	TRSyncPROC	""	1	2	1	SessionSelectionList	116	28407	-999999	0	35	214278	-999999	0																																																	1	InitialTR	4	1	ReadyList	1	1	21	244026	-22	246004	0	1
WM080112	148335_fnca	1	1	1	1204002848	1	75.031	75.031	2.0.10.147	2.0.10.242	2.0.10.242	1.0.0.439	7	234	2	3	Verdana	1	80	0	0	0	WM Stimuli\	0.4	1470.75	0.9	854.888888888889	0.6	1256.16666666667	0.9	867.666666666667	0.9	839.444444444444	0.6	753.166666666667	0.5	977.6	1	649.1	13	537240	2	537228	27	40	537267	-999999	537243	0	1	TRSyncPROC	""	1	2	1	SessionSelectionList	116	28407	-999999	0	35	214278	-999999	0																																																	1	InitialTR	3	2	ReadyList	1	2	7	246012	-8	248004	0	2
WM080112	148335_fnca	1	1	1	1204002848	1	75.031	75.031	2.0.10.147	2.0.10.242	2.0.10.242	1.0.0.439	7	234	2	3	Verdana	1	80	0	0	0	WM Stimuli\	0.4	1470.75	0.9	854.888888888889	0.6	1256.16666666667	0.9	867.666666666667	0.9	839.444444444444	0.6	753.166666666667	0.5	977.6	1	649.1	13	537240	2	537228	27	40	537267	-999999	537243	0	1	TRSyncPROC	""	1	2	1	SessionSelectionList	116	28407	-999999	0	35	214278	-999999	0																																																	1	InitialTR	2	3	ReadyList	1	3	6	248011	-7	250004	0	3
WM080112	148335_fnca	1	1	1	1204002848	1	75.031	75.031	2.0.10.147	2.0.10.242	2.0.10.242	1.0.0.439	7	234	2	3	Verdana	1	80	0	0	0	WM Stimuli\	0.4	1470.75	0.9	854.888888888889	0.6	1256.16666666667	0.9	867.666666666667	0.9	839.444444444444	0.6	753.166666666667	0.5	977.6	1	649.1	13	537240	2	537228	27	40	537267	-999999	537243	0	1	TRSyncPROC	""	1	2	1	SessionSelectionList	116	28407	-999999	0	35	214278	-999999	0																																																	1	InitialTR	1	4	ReadyList	1	4	5	250010	-6	252004	0	4
WM080112	148335_fnca	1	1	1	1204002848	1	75.031	75.031	2.0.10.147	2.0.10.242	2.0.10.242	1.0.0.439	7	234	2	3	Verdana	1	80	0	0	0	WM Stimuli\	0.4	1470.75	0.9	854.888888888889	0.6	1256.16666666667	0.9	867.666666666667	0.9	839.444444444444	0.6	753.166666666667	0.5	977.6	1	649.1	13	537240	2	537228	27	40	537267	-999999	537243	0	2	Cue2BackPROC	""	1	2	2	SessionSelectionList									5	252010	-6	0																																													2												
WM080112	148335_fnca	1	1	1	1204002848	1	75.031	75.031	2.0.10.147	2.0.10.242	2.0.10.242	1.0.0.439	7	234	2	3	Verdana	1	80	0	0	0	WM Stimuli\	0.4	1470.75	0.9	854.888888888889	0.6	1256.16666666667	0.9	867.666666666667	0.9	839.444444444444	0.6	753.166666666667	0.5	977.6	1	649.1	13	537240	2	537228	27	40	537267	-999999	537243	0	3	TrialsPROC	BP_002_BP10_BA.png	1	2	3	SessionSelectionList													1	nonlure	3	Body	2-Back	2	80	0	0	1	0	0	53	256634	3	14	76	254581	-1	0	0	0	""	3	2053	67	256648	-68	0																3												
WM080112	148335_fnca	1	1	1	1204002848	1	75.031	75.031	2.0.10.147	2.0.10.242	2.0.10.242	1.0.0.439	7	234	2	3	Verdana	1	80	0	0	0	WM Stimuli\	0.4	1470.75	0.9	854.888888888889	0.6	1256.16666666667	0.9	867.666666666667	0.9	839.444444444444	0.6	753.166666666667	0.5	977.6	1	649.1	13	537240	2	537228	27	40	537267	-999999	537243	0	3	TrialsPROC	BP_001_BP1_BA.png	1	2	4	SessionSelectionList													2	nonlure	3	Body	2-Back	3	80	1	0	0	0	1	39	259180	2	13	60	257141	-1	258441	1	1300	3	3	2039	52	259193	-53	0																4												
WM080112	148335_fnca	1	1	1	1204002848	1	75.031	75.031	2.0.10.147	2.0.10.242	2.0.10.242	1.0.0.439	7	234	2	3	Verdana	1	80	0	0	0	WM Stimuli\	0.4	1470.75	0.9	854.888888888889	0.6	1256.16666666667	0.9	867.666666666667	0.9	839.444444444444	0.6	753.166666666667	0.5	977.6	1	649.1	13	537240	2	537228	27	40	537267	-999999	537243	0	3	TrialsPROC	BP_006_BP2_BA.png	1	2	5	SessionSelectionList													3	nonlure	3	Body	2-Back	4	80	2	0	0	0	1	40	261739	1	13	58	259699	-1	260997	0	1298	2	3	2040	53	261752	-54	0																5												
WM080112	148335_fnca	1	1	1	1204002848	1	75.031	75.031	2.0.10.147	2.0.10.242	2.0.10.242	1.0.0.439	7	234	2	3	Verdana	1	80	0	0	0	WM Stimuli\	0.4	1470.75	0.9	854.888888888889	0.6	1256.16666666667	0.9	867.666666666667	0.9	839.444444444444	0.6	753.166666666667	0.5	977.6	1	649.1	13	537240	2	537228	27	40	537267	-999999	537243	0	3	TrialsPROC	BP_001_BP1_BA.png	1	2	6	SessionSelectionList													4	target	2	Body	2-Back	5	80	3	0	0	0	1	39	264311	1	14	73	262272	-1	263307	0	1035	3	2	2039	53	264325	-54	0																6												
WM080112	148335_fnca	1	1	1	1204002848	1	75.031	75.031	2.0.10.147	2.0.10.242	2.0.10.242	1.0.0.439	7	234	2	3	Verdana	1	80	0	0	0	WM Stimuli\	0.4	1470.75	0.9	854.888888888889	0.6	1256.16666666667	0.9	867.666666666667	0.9	839.444444444444	0.6	753.166666666667	0.5	977.6	1	649.1	13	537240	2	537228	27	40	537267	-999999	537243	0	3	TrialsPROC	BP_005_BP19_BA.png	1	2	7	SessionSelectionList													5	nonlure	3	Body	2-Back	6	80	3	0	1	0	1	39	266883	2	14	72	264844	-1	0	0	0	""	3	2039	53	266897	-54	0																7												
WM080112	148335_fnca	1	1	1	1204002848	1	75.031	75.031	2.0.10.147	2.0.10.242	2.0.10.242	1.0.0.439	7	234	2	3	Verdana	1	80	0	0	0	WM Stimuli\	0.4	1470.75	0.9	854.888888888889	0.6	1256.16666666667	0.9	867.666666666667	0.9	839.444444444444	0.6	753.166666666667	0.5	977.6	1	649.1	13	537240	2	537228	27	40	537267	-999999	537243	0	3	TrialsPROC	BP_003_BP16_BA.png	1	2	8	SessionSelectionList													6	nonlure	3	Body	2-Back	7	80	4	0	0	0	1	39	269442	1	14	59	267403	-1	268555	1	1152	3	3	2039	53	269456	-54	0																8												
WM080112	148335_fnca	1	1	1	1204002848	1	75.031	75.031	2.0.10.147	2.0.10.242	2.0.10.242	1.0.0.439	7	234	2	3	Verdana	1	80	0	0	0	WM Stimuli\	0.4	1470.75	0.9	854.888888888889	0.6	1256.16666666667	0.9	867.666666666667	0.9	839.444444444444	0.6	753.166666666667	0.5	977.6	1	649.1	13	537240	2	537228	27	40	537267	-999999	537243	0	3	TrialsPROC	BP_006_BP2_BA.png	1	2	9	SessionSelectionList													7	lure	3	Body	2-Back	8	80	5	0	0	0	1	39	272001	1	14	59	269962	-1	271694	0	1732	2	3	2039	53	272015	-54	0																9												
WM080112	148335_fnca	1	1	1	1204002848	1	75.031	75.031	2.0.10.147	2.0.10.242	2.0.10.242	1.0.0.439	7	234	2	3	Verdana	1	80	0	0	0	WM Stimuli\	0.4	1470.75	0.9	854.888888888889	0.6	1256.16666666667	0.9	867.666666666667	0.9	839.444444444444	0.6	753.166666666667	0.5	977.6	1	649.1	13	537240	2	537228	27	40	537267	-999999	537243	0	3	TrialsPROC	BP_004_BP18_BA.png	1	2	10	SessionSelectionList													8	nonlure	3	Body	2-Back	9	80	5	0	1	0	1	39	274560	1	14	59	272521	-1	0	0	0	""	3	2039	53	274574	-54	0																10												
WM080112	148335_fnca	1	1	1	1204002848	1	75.031	75.031	2.0.10.147	2.0.10.242	2.0.10.242	1.0.0.439	7	234	2	3	Verdana	1	80	0	0	0	WM Stimuli\	0.4	1470.75	0.9	854.888888888889	0.6	1256.16666666667	0.9	867.666666666667	0.9	839.444444444444	0.6	753.166666666667	0.5	977.6	1	649.1	13	537240	2	537228	27	40	537267	-999999	537243	0	3	TrialsPROC	BP_005_BP19_BA.png	1	2	11	SessionSelectionList													9	lure	3	Body	2-Back	10	80	6	0	0	0	1	39	277119	1	14	59	275080	-1	277004	1	1924	3	3	2039	53	277133	-54	0																11												
WM080112	148335_fnca	1	1	1	1204002848	1	75.031	75.031	2.0.10.147	2.0.10.242	2.0.10.242	1.0.0.439	7	234	2	3	Verdana	1	80	0	0	0	WM Stimuli\	0.4	1470.75	0.9	854.888888888889	0.6	1256.16666666667	0.9	867.666666666667	0.9	839.444444444444	0.6	753.166666666667	0.5	977.6	1	649.1	13	537240	2	537228	27	40	537267	-999999	537243	0	3	TrialsPROC	BP_004_BP18_BA.png	1	2	12	SessionSelectionList													10	target	2	Body	2-Back	11	80	7	0	0	0	1	39	279678	1	14	59	277639	-1	279146	1	1507	2	2	2039	53	279692	-54	0																12												
WM080112	148335_fnca	1	1	1	1204002848	1	75.031	75.031	2.0.10.147	2.0.10.242	2.0.10.242	1.0.0.439	7	234	2	3	Verdana	1	80	0	0	0	WM Stimuli\	0.4	1470.75	0.9	854.888888888889	0.6	1256.16666666667	0.9	867.666666666667	0.9	839.444444444444	0.6	753.166666666667	0.5	977.6	1	649.1	13	537240	2	537228	27	40	537267	-999999	537243	0	4	Cue0BackPROC	FC_001_M1.png	1	2	13	SessionSelectionList																																										19	280158	-20	0												13												
WM080112	148335_fnca	1	1	1	1204002848	1	75.031	75.031	2.0.10.147	2.0.10.242	2.0.10.242	1.0.0.439	7	234	2	3	Verdana	1	80	0	0	0	WM Stimuli\	0.4	1470.75	0.9	854.888888888889	0.6	1256.16666666667	0.9	867.666666666667	0.9	839.444444444444	0.6	753.166666666667	0.5	977.6	1	649.1	13	537240	2	537228	27	40	537267	-999999	537243	0	5	TrialsPROC	FC_005_M3.png	1	2	14	SessionSelectionList														nonlure	3	Face	0-Back	12	80	8	0	0	100	1	40	284743	1	13	64	282703	-1	283799	1	1096	3	3	2040	53	284756	-54	0					1											14												
WM080112	148335_fnca	1	1	1	1204002848	1	75.031	75.031	2.0.10.147	2.0.10.242	2.0.10.242	1.0.0.439	7	234	2	3	Verdana	1	80	0	0	0	WM Stimuli\	0.4	1470.75	0.9	854.888888888889	0.6	1256.16666666667	0.9	867.666666666667	0.9	839.444444444444	0.6	753.166666666667	0.5	977.6	1	649.1	13	537240	2	537228	27	40	537267	-999999	537243	0	5	TrialsPROC	FC_001_M1.png	1	2	15	SessionSelectionList														target	2	Face	0-Back	13	80	9	0	0	100	1	39	287315	1	14	73	285276	-1	285904	1	628	2	2	2039	53	287329	-54	0					2											15												
WM080112	148335_fnca	1	1	1	1204002848	1	75.031	75.031	2.0.10.147	2.0.10.242	2.0.10.242	1.0.0.439	7	234	2	3	Verdana	1	80	0	0	0	WM Stimuli\	0.4	1470.75	0.9	854.888888888889	0.6	1256.16666666667	0.9	867.666666666667	0.9	839.444444444444	0.6	753.166666666667	0.5	977.6	1	649.1	13	537240	2	537228	27	40	537267	-999999	537243	0	5	TrialsPROC	FC_003_M2.png	1	2	16	SessionSelectionList														nonlure	3	Face	0-Back	14	80	9	0	1	67	1	39	289887	2	14	72	287848	-1	0	0	0	""	3	2039	53	289901	-54	0					3											16												
WM080112	148335_fnca	1	1	1	1204002848	1	75.031	75.031	2.0.10.147	2.0.10.242	2.0.10.242	1.0.0.439	7	234	2	3	Verdana	1	80	0	0	0	WM Stimuli\	0.4	1470.75	0.9	854.888888888889	0.6	1256.16666666667	0.9	867.666666666667	0.9	839.444444444444	0.6	753.166666666667	0.5	977.6	1	649.1	13	537240	2	537228	27	40	537267	-999999	537243	0	5	TrialsPROC	FC_004_F2.png	1	2	17	SessionSelectionList														nonlure	3	Face	0-Back	15	80	10	0	0	75	1	39	292459	2	14	72	290420	-1	291844	1	1424	3	3	2039	53	292473	-54	0					4											17												
WM080112	148335_fnca	1	1	1	1204002848	1	75.031	75.031	2.0.10.147	2.0.10.242	2.0.10.242	1.0.0.439	7	234	2	3	Verdana	1	80	0	0	0	WM Stimuli\	0.4	1470.75	0.9	854.888888888889	0.6	1256.16666666667	0.9	867.666666666667	0.9	839.444444444444	0.6	753.166666666667	0.5	977.6	1	649.1	13	537240	2	537228	27	40	537267	-999999	537243	0	5	TrialsPROC	FC_004_F2.png	1	2	18	SessionSelectionList														lure	3	Face	0-Back	16	80	11	0	0	80	2	39	295032	1	13	73	292993	-1	294320	1	1327	3	3	2039	52	295045	-53	0					5											18												
WM080112	148335_fnca	1	1	1	1204002848	1	75.031	75.031	2.0.10.147	2.0.10.242	2.0.10.242	1.0.0.439	7	234	2	3	Verdana	1	80	0	0	0	WM Stimuli\	0.4	1470.75	0.9	854.888888888889	0.6	1256.16666666667	0.9	867.666666666667	0.9	839.444444444444	0.6	753.166666666667	0.5	977.6	1	649.1	13	537240	2	537228	27	40	537267	-999999	537243	0	5	TrialsPROC	FC_001_M1.png	1	2	19	SessionSelectionList														target	2	Face	0-Back	17	80	12	0	0	83	1	39	297604	1	14	72	295565	-1	295978	1	413	2	2	2039	53	297618	-54	0					6											19												
WM080112	148335_fnca	1	1	1	1204002848	1	75.031	75.031	2.0.10.147	2.0.10.242	2.0.10.242	1.0.0.439	7	234	2	3	Verdana	1	80	0	0	0	WM Stimuli\	0.4	1470.75	0.9	854.888888888889	0.6	1256.16666666667	0.9	867.666666666667	0.9	839.444444444444	0.6	753.166666666667	0.5	977.6	1	649.1	13	537240	2	537228	27	40	537267	-999999	537243	0	5	TrialsPROC	FC_006_F3.png	1	2	20	SessionSelectionList														nonlure	3	Face	0-Back	18	80	13	0	0	86	1	39	300176	3	14	72	298137	-1	298968	1	831	3	3	2039	53	300190	-54	0					7											20												
WM080112	148335_fnca	1	1	1	1204002848	1	75.031	75.031	2.0.10.147	2.0.10.242	2.0.10.242	1.0.0.439	7	234	2	3	Verdana	1	80	0	0	0	WM Stimuli\	0.4	1470.75	0.9	854.888888888889	0.6	1256.16666666667	0.9	867.666666666667	0.9	839.444444444444	0.6	753.166666666667	0.5	977.6	1	649.1	13	537240	2	537228	27	40	537267	-999999	537243	0	5	TrialsPROC	FC_006_F3.png	1	2	21	SessionSelectionList														lure	3	Face	0-Back	19	80	14	0	0	88	2	40	302749	1	13	72	300709	-1	301304	1	595	3	3	2040	53	302762	-54	0					8											21												
WM080112	148335_fnca	1	1	1	1204002848	1	75.031	75.031	2.0.10.147	2.0.10.242	2.0.10.242	1.0.0.439	7	234	2	3	Verdana	1	80	0	0	0	WM Stimuli\	0.4	1470.75	0.9	854.888888888889	0.6	1256.16666666667	0.9	867.666666666667	0.9	839.444444444444	0.6	753.166666666667	0.5	977.6	1	649.1	13	537240	2	537228	27	40	537267	-999999	537243	0	5	TrialsPROC	FC_003_M2.png	1	2	22	SessionSelectionList														lure	3	Face	0-Back	20	80	15	0	0	89	3	39	305321	1	14	73	303282	-1	304063	1	781	3	3	2039	53	305335	-54	0					9											22												
WM080112	148335_fnca	1	1	1	1204002848	1	75.031	75.031	2.0.10.147	2.0.10.242	2.0.10.242	1.0.0.439	7	234	2	3	Verdana	1	80	0	0	0	WM Stimuli\	0.4	1470.75	0.9	854.888888888889	0.6	1256.16666666667	0.9	867.666666666667	0.9	839.444444444444	0.6	753.166666666667	0.5	977.6	1	649.1	13	537240	2	537228	27	40	537267	-999999	537243	0	5	TrialsPROC	FC_002_F1.png	1	2	23	SessionSelectionList														nonlure	3	Face	0-Back	21	80	16	0	0	90	4	39	307893	2	14	72	305854	-1	306568	1	714	3	3	2039	53	307907	-54	0					10											23												
WM080112	148335_fnca	1	1	1	1204002848	1	75.031	75.031	2.0.10.147	2.0.10.242	2.0.10.242	1.0.0.439	7	234	2	3	Verdana	1	80	0	0	0	WM Stimuli\	0.4	1470.75	0.9	854.888888888889	0.6	1256.16666666667	0.9	867.666666666667	0.9	839.444444444444	0.6	753.166666666667	0.5	977.6	1	649.1	13	537240	2	537228	27	40	537267	-999999	537243	0	6	Fix15secPROC	""	1	2	24	SessionSelectionList																																															6	308360	-7	0							24												
WM080112	148335_fnca	1	1	1	1204002848	1	75.031	75.031	2.0.10.147	2.0.10.242	2.0.10.242	1.0.0.439	7	234	2	3	Verdana	1	80	0	0	0	WM Stimuli\	0.4	1470.75	0.9	854.888888888889	0.6	1256.16666666667	0.9	867.666666666667	0.9	839.444444444444	0.6	753.166666666667	0.5	977.6	1	649.1	13	537240	2	537228	27	40	537267	-999999	537243	0	7	Cue2BackPROC	""	1	2	25	SessionSelectionList									13	323367	-14	0																																													25												
WM080112	148335_fnca	1	1	1	1204002848	1	75.031	75.031	2.0.10.147	2.0.10.242	2.0.10.242	1.0.0.439	7	234	2	3	Verdana	1	80	0	0	0	WM Stimuli\	0.4	1470.75	0.9	854.888888888889	0.6	1256.16666666667	0.9	867.666666666667	0.9	839.444444444444	0.6	753.166666666667	0.5	977.6	1	649.1	13	537240	2	537228	27	40	537267	-999999	537243	0	8	TrialsPROC	TO_001_TOOL1_BA.png	1	2	26	SessionSelectionList														nonlure	3	Tools	2-Back	22	80	17	0	0	90	5	40	327952	1	13	58	325912	-1	327244	1	1332	3	3	2040	53	327965	-54	0										1						26												
WM080112	148335_fnca	1	1	1	1204002848	1	75.031	75.031	2.0.10.147	2.0.10.242	2.0.10.242	1.0.0.439	7	234	2	3	Verdana	1	80	0	0	0	WM Stimuli\	0.4	1470.75	0.9	854.888888888889	0.6	1256.16666666667	0.9	867.666666666667	0.9	839.444444444444	0.6	753.166666666667	0.5	977.6	1	649.1	13	537240	2	537228	27	40	537267	-999999	537243	0	8	TrialsPROC	TO_002_TOOL2_BA.png	1	2	27	SessionSelectionList														nonlure	3	Tools	2-Back	23	80	18	0	0	90	6	40	330511	1	13	59	328471	-1	329160	1	689	3	3	2040	53	330524	-54	0										2						27												
WM080112	148335_fnca	1	1	1	1204002848	1	75.031	75.031	2.0.10.147	2.0.10.242	2.0.10.242	1.0.0.439	7	234	2	3	Verdana	1	80	0	0	0	WM Stimuli\	0.4	1470.75	0.9	854.888888888889	0.6	1256.16666666667	0.9	867.666666666667	0.9	839.444444444444	0.6	753.166666666667	0.5	977.6	1	649.1	13	537240	2	537228	27	40	537267	-999999	537243	0	8	TrialsPROC	TO_004_TOOL4_BA.png	1	2	28	SessionSelectionList														nonlure	3	Tools	2-Back	24	80	19	0	0	90	7	40	333070	1	13	59	331030	-1	332533	1	1503	3	3	2040	53	333083	-54	0										3						28												
WM080112	148335_fnca	1	1	1	1204002848	1	75.031	75.031	2.0.10.147	2.0.10.242	2.0.10.242	1.0.0.439	7	234	2	3	Verdana	1	80	0	0	0	WM Stimuli\	0.4	1470.75	0.9	854.888888888889	0.6	1256.16666666667	0.9	867.666666666667	0.9	839.444444444444	0.6	753.166666666667	0.5	977.6	1	649.1	13	537240	2	537228	27	40	537267	-999999	537243	0	8	TrialsPROC	TO_002_TOOL2_BA.png	1	2	29	SessionSelectionList														target	2	Tools	2-Back	25	80	19	0	1	90	7	40	335629	1	13	59	333589	-1	0	0	0	""	2	2040	53	335642	-54	0										4						29												
WM080112	148335_fnca	1	1	1	1204002848	1	75.031	75.031	2.0.10.147	2.0.10.242	2.0.10.242	1.0.0.439	7	234	2	3	Verdana	1	80	0	0	0	WM Stimuli\	0.4	1470.75	0.9	854.888888888889	0.6	1256.16666666667	0.9	867.666666666667	0.9	839.444444444444	0.6	753.166666666667	0.5	977.6	1	649.1	13	537240	2	537228	27	40	537267	-999999	537243	0	8	TrialsPROC	TO_001_TOOL1_BA.png	1	2	30	SessionSelectionList														lure	3	Tools	2-Back	26	80	19	1	0	90	1	40	338188	1	13	59	336148	-1	336253	1	105	3	3	2040	53	338201	-54	0										5						30												
WM080112	148335_fnca	1	1	1	1204002848	1	75.031	75.031	2.0.10.147	2.0.10.242	2.0.10.242	1.0.0.439	7	234	2	3	Verdana	1	80	0	0	0	WM Stimuli\	0.4	1470.75	0.9	854.888888888889	0.6	1256.16666666667	0.9	867.666666666667	0.9	839.444444444444	0.6	753.166666666667	0.5	977.6	1	649.1	13	537240	2	537228	27	40	537267	-999999	537243	0	8	TrialsPROC	TO_004_TOOL4_BA.png	1	2	31	SessionSelectionList														lure	3	Tools	2-Back	27	80	20	0	0	90	1	39	340746	2	14	59	338707	-1	339853	0	1146	2	3	2039	53	340760	-54	0										6						31												
WM080112	148335_fnca	1	1	1	1204002848	1	75.031	75.031	2.0.10.147	2.0.10.242	2.0.10.242	1.0.0.439	7	234	2	3	Verdana	1	80	0	0	0	WM Stimuli\	0.4	1470.75	0.9	854.888888888889	0.6	1256.16666666667	0.9	867.666666666667	0.9	839.444444444444	0.6	753.166666666667	0.5	977.6	1	649.1	13	537240	2	537228	27	40	537267	-999999	537243	0	8	TrialsPROC	TO_006_TOOL6_BA.png	1	2	32	SessionSelectionList														nonlure	3	Tools	2-Back	28	80	20	0	1	90	1	39	343305	2	14	59	341266	-1	0	0	0	""	3	2039	53	343319	-54	0										7						32												
WM080112	148335_fnca	1	1	1	1204002848	1	75.031	75.031	2.0.10.147	2.0.10.242	2.0.10.242	1.0.0.439	7	234	2	3	Verdana	1	80	0	0	0	WM Stimuli\	0.4	1470.75	0.9	854.888888888889	0.6	1256.16666666667	0.9	867.666666666667	0.9	839.444444444444	0.6	753.166666666667	0.5	977.6	1	649.1	13	537240	2	537228	27	40	537267	-999999	537243	0	8	TrialsPROC	TO_005_TOOL5_BA.png	1	2	33	SessionSelectionList														nonlure	3	Tools	2-Back	29	80	20	0	2	90	1	39	345864	3	14	59	343825	-1	0	0	0	""	3	2039	53	345878	-54	0										8						33												
WM080112	148335_fnca	1	1	1	1204002848	1	75.031	75.031	2.0.10.147	2.0.10.242	2.0.10.242	1.0.0.439	7	234	2	3	Verdana	1	80	0	0	0	WM Stimuli\	0.4	1470.75	0.9	854.888888888889	0.6	1256.16666666667	0.9	867.666666666667	0.9	839.444444444444	0.6	753.166666666667	0.5	977.6	1	649.1	13	537240	2	537228	27	40	537267	-999999	537243	0	8	TrialsPROC	TO_006_TOOL6_BA.png	1	2	34	SessionSelectionList														target	2	Tools	2-Back	30	80	21	0	0	90	1	39	348423	2	14	59	346384	-1	346655	0	271	3	2	2039	53	348437	-54	0										9						34												
WM080112	148335_fnca	1	1	1	1204002848	1	75.031	75.031	2.0.10.147	2.0.10.242	2.0.10.242	1.0.0.439	7	234	2	3	Verdana	1	80	0	0	0	WM Stimuli\	0.4	1470.75	0.9	854.888888888889	0.6	1256.16666666667	0.9	867.666666666667	0.9	839.444444444444	0.6	753.166666666667	0.5	977.6	1	649.1	13	537240	2	537228	27	40	537267	-999999	537243	0	8	TrialsPROC	TO_003_TOOL3_BA.png	1	2	35	SessionSelectionList														nonlure	3	Tools	2-Back	31	80	22	0	0	90	2	39	350982	2	14	59	348943	-1	350202	1	1259	3	3	2039	53	350996	-54	0										10						35												
WM080112	148335_fnca	1	1	1	1204002848	1	75.031	75.031	2.0.10.147	2.0.10.242	2.0.10.242	1.0.0.439	7	234	2	3	Verdana	1	80	0	0	0	WM Stimuli\	0.4	1470.75	0.9	854.888888888889	0.6	1256.16666666667	0.9	867.666666666667	0.9	839.444444444444	0.6	753.166666666667	0.5	977.6	1	649.1	13	537240	2	537228	27	40	537267	-999999	537243	0	9	Cue0BackPROC	BP_007_BP20_BA.png	1	2	36	SessionSelectionList																																										19	351462	-20	0												36												
WM080112	148335_fnca	1	1	1	1204002848	1	75.031	75.031	2.0.10.147	2.0.10.242	2.0.10.242	1.0.0.439	7	234	2	3	Verdana	1	80	0	0	0	WM Stimuli\	0.4	1470.75	0.9	854.888888888889	0.6	1256.16666666667	0.9	867.666666666667	0.9	839.444444444444	0.6	753.166666666667	0.5	977.6	1	649.1	13	537240	2	537228	27	40	537267	-999999	537243	0	10	TrialsPROC	BP_007_BP20_BA.png	1	2	37	SessionSelectionList														target	2	Body	0-Back	32	80	22	0	1	82	2	40	356034	1	13	51	353994	-1	0	0	0	""	2	2040	53	356047	-54	0											1					37												
WM080112	148335_fnca	1	1	1	1204002848	1	75.031	75.031	2.0.10.147	2.0.10.242	2.0.10.242	1.0.0.439	7	234	2	3	Verdana	1	80	0	0	0	WM Stimuli\	0.4	1470.75	0.9	854.888888888889	0.6	1256.16666666667	0.9	867.666666666667	0.9	839.444444444444	0.6	753.166666666667	0.5	977.6	1	649.1	13	537240	2	537228	27	40	537267	-999999	537243	0	10	TrialsPROC	BP_011_BP4_BA.png	1	2	38	SessionSelectionList														nonlure	3	Body	0-Back	33	80	23	0	0	83	1	39	358593	1	13	60	356554	-1	357442	1	888	3	3	2039	52	358606	-53	0											2					38												
WM080112	148335_fnca	1	1	1	1204002848	1	75.031	75.031	2.0.10.147	2.0.10.242	2.0.10.242	1.0.0.439	7	234	2	3	Verdana	1	80	0	0	0	WM Stimuli\	0.4	1470.75	0.9	854.888888888889	0.6	1256.16666666667	0.9	867.666666666667	0.9	839.444444444444	0.6	753.166666666667	0.5	977.6	1	649.1	13	537240	2	537228	27	40	537267	-999999	537243	0	10	TrialsPROC	BP_010_BP3_BA.png	1	2	39	SessionSelectionList														nonlure	3	Body	0-Back	34	80	24	0	0	85	2	40	361152	1	13	58	359112	-1	359874	1	762	3	3	2040	53	361165	-54	0											3					39												
WM080112	148335_fnca	1	1	1	1204002848	1	75.031	75.031	2.0.10.147	2.0.10.242	2.0.10.242	1.0.0.439	7	234	2	3	Verdana	1	80	0	0	0	WM Stimuli\	0.4	1470.75	0.9	854.888888888889	0.6	1256.16666666667	0.9	867.666666666667	0.9	839.444444444444	0.6	753.166666666667	0.5	977.6	1	649.1	13	537240	2	537228	27	40	537267	-999999	537243	0	10	TrialsPROC	BP_008_BP21_BA.png	1	2	40	SessionSelectionList														nonlure	3	Body	0-Back	35	80	25	0	0	86	3	39	363710	2	14	59	361671	-1	362590	1	919	3	3	2039	53	363724	-54	0											4					40												
WM080112	148335_fnca	1	1	1	1204002848	1	75.031	75.031	2.0.10.147	2.0.10.242	2.0.10.242	1.0.0.439	7	234	2	3	Verdana	1	80	0	0	0	WM Stimuli\	0.4	1470.75	0.9	854.888888888889	0.6	1256.16666666667	0.9	867.666666666667	0.9	839.444444444444	0.6	753.166666666667	0.5	977.6	1	649.1	13	537240	2	537228	27	40	537267	-999999	537243	0	10	TrialsPROC	BP_011_BP4_BA.png	1	2	41	SessionSelectionList														lure	3	Body	0-Back	36	80	26	0	0	87	4	38	366269	2	14	60	364231	-1	365355	1	1124	3	3	2038	52	366283	-53	0											5					41												
WM080112	148335_fnca	1	1	1	1204002848	1	75.031	75.031	2.0.10.147	2.0.10.242	2.0.10.242	1.0.0.439	7	234	2	3	Verdana	1	80	0	0	0	WM Stimuli\	0.4	1470.75	0.9	854.888888888889	0.6	1256.16666666667	0.9	867.666666666667	0.9	839.444444444444	0.6	753.166666666667	0.5	977.6	1	649.1	13	537240	2	537228	27	40	537267	-999999	537243	0	10	TrialsPROC	BP_009_BP22_BA.png	1	2	42	SessionSelectionList														nonlure	3	Body	0-Back	37	80	27	0	0	88	5	39	368828	2	14	58	366789	-1	367503	1	714	3	3	2039	53	368842	-54	0											6					42												
WM080112	148335_fnca	1	1	1	1204002848	1	75.031	75.031	2.0.10.147	2.0.10.242	2.0.10.242	1.0.0.439	7	234	2	3	Verdana	1	80	0	0	0	WM Stimuli\	0.4	1470.75	0.9	854.888888888889	0.6	1256.16666666667	0.9	867.666666666667	0.9	839.444444444444	0.6	753.166666666667	0.5	977.6	1	649.1	13	537240	2	537228	27	40	537267	-999999	537243	0	10	TrialsPROC	BP_009_BP22_BA.png	1	2	43	SessionSelectionList														lure	3	Body	0-Back	38	80	28	0	0	88	6	39	371387	2	14	59	369348	-1	370517	1	1169	3	3	2039	53	371401	-54	0											7					43												
WM080112	148335_fnca	1	1	1	1204002848	1	75.031	75.031	2.0.10.147	2.0.10.242	2.0.10.242	1.0.0.439	7	234	2	3	Verdana	1	80	0	0	0	WM Stimuli\	0.4	1470.75	0.9	854.888888888889	0.6	1256.16666666667	0.9	867.666666666667	0.9	839.444444444444	0.6	753.166666666667	0.5	977.6	1	649.1	13	537240	2	537228	27	40	537267	-999999	537243	0	10	TrialsPROC	BP_008_BP21_BA.png	1	2	44	SessionSelectionList														lure	3	Body	0-Back	39	80	29	0	0	89	7	39	373946	2	14	59	371907	-1	372740	1	833	3	3	2039	53	373960	-54	0											8					44												
WM080112	148335_fnca	1	1	1	1204002848	1	75.031	75.031	2.0.10.147	2.0.10.242	2.0.10.242	1.0.0.439	7	234	2	3	Verdana	1	80	0	0	0	WM Stimuli\	0.4	1470.75	0.9	854.888888888889	0.6	1256.16666666667	0.9	867.666666666667	0.9	839.444444444444	0.6	753.166666666667	0.5	977.6	1	649.1	13	537240	2	537228	27	40	537267	-999999	537243	0	10	TrialsPROC	BP_007_BP20_BA.png	1	2	45	SessionSelectionList														target	2	Body	0-Back	40	80	30	0	0	89	1	39	376505	2	14	59	374466	-1	375023	1	557	2	2	2039	53	376519	-54	0											9					45												
WM080112	148335_fnca	1	1	1	1204002848	1	75.031	75.031	2.0.10.147	2.0.10.242	2.0.10.242	1.0.0.439	7	234	2	3	Verdana	1	80	0	0	0	WM Stimuli\	0.4	1470.75	0.9	854.888888888889	0.6	1256.16666666667	0.9	867.666666666667	0.9	839.444444444444	0.6	753.166666666667	0.5	977.6	1	649.1	13	537240	2	537228	27	40	537267	-999999	537243	0	10	TrialsPROC	BP_012_BP5_BA.png	1	2	46	SessionSelectionList														nonlure	3	Body	0-Back	41	80	31	0	0	90	1	39	379064	2	14	59	377025	-1	377753	1	728	3	3	2039	53	379078	-54	0											10					46												
WM080112	148335_fnca	1	1	1	1204002848	1	75.031	75.031	2.0.10.147	2.0.10.242	2.0.10.242	1.0.0.439	7	234	2	3	Verdana	1	80	0	0	0	WM Stimuli\	0.4	1470.75	0.9	854.888888888889	0.6	1256.16666666667	0.9	867.666666666667	0.9	839.444444444444	0.6	753.166666666667	0.5	977.6	1	649.1	13	537240	2	537228	27	40	537267	-999999	537243	0	11	Fix15secPROC	""	1	2	47	SessionSelectionList																																															6	379531	-7	0							47												
WM080112	148335_fnca	1	1	1	1204002848	1	75.031	75.031	2.0.10.147	2.0.10.242	2.0.10.242	1.0.0.439	7	234	2	3	Verdana	1	80	0	0	0	WM Stimuli\	0.4	1470.75	0.9	854.888888888889	0.6	1256.16666666667	0.9	867.666666666667	0.9	839.444444444444	0.6	753.166666666667	0.5	977.6	1	649.1	13	537240	2	537228	27	40	537267	-999999	537243	0	12	Cue0BackPROC	PL_001_92012.png	1	2	48	SessionSelectionList																																										13	394538	-14	0												48												
WM080112	148335_fnca	1	1	1	1204002848	1	75.031	75.031	2.0.10.147	2.0.10.242	2.0.10.242	1.0.0.439	7	234	2	3	Verdana	1	80	0	0	0	WM Stimuli\	0.4	1470.75	0.9	854.888888888889	0.6	1256.16666666667	0.9	867.666666666667	0.9	839.444444444444	0.6	753.166666666667	0.5	977.6	1	649.1	13	537240	2	537228	27	40	537267	-999999	537243	0	13	TrialsPROC	PL_003_92016.png	1	2	49	SessionSelectionList														nonlure	3	Place	0-Back	42	80	31	0	1	86	1	39	399136	2	14	72	397097	-1	0	0	0	""	3	2039	53	399150	-54	0												1				49												
WM080112	148335_fnca	1	1	1	1204002848	1	75.031	75.031	2.0.10.147	2.0.10.242	2.0.10.242	1.0.0.439	7	234	2	3	Verdana	1	80	0	0	0	WM Stimuli\	0.4	1470.75	0.9	854.888888888889	0.6	1256.16666666667	0.9	867.666666666667	0.9	839.444444444444	0.6	753.166666666667	0.5	977.6	1	649.1	13	537240	2	537228	27	40	537267	-999999	537243	0	13	TrialsPROC	PL_003_92016.png	1	2	50	SessionSelectionList														lure	3	Place	0-Back	43	80	31	0	2	82	1	39	401708	2	14	72	399669	-1	0	0	0	""	3	2039	53	401722	-54	0												2				50												
WM080112	148335_fnca	1	1	1	1204002848	1	75.031	75.031	2.0.10.147	2.0.10.242	2.0.10.242	1.0.0.439	7	234	2	3	Verdana	1	80	0	0	0	WM Stimuli\	0.4	1470.75	0.9	854.888888888889	0.6	1256.16666666667	0.9	867.666666666667	0.9	839.444444444444	0.6	753.166666666667	0.5	977.6	1	649.1	13	537240	2	537228	27	40	537267	-999999	537243	0	13	TrialsPROC	PL_006_92025.png	1	2	51	SessionSelectionList														nonlure	3	Place	0-Back	44	80	32	0	0	83	1	40	404281	1	13	72	402241	-1	402835	1	594	3	3	2040	53	404294	-54	0												3				51												
WM080112	148335_fnca	1	1	1	1204002848	1	75.031	75.031	2.0.10.147	2.0.10.242	2.0.10.242	1.0.0.439	7	234	2	3	Verdana	1	80	0	0	0	WM Stimuli\	0.4	1470.75	0.9	854.888888888889	0.6	1256.16666666667	0.9	867.666666666667	0.9	839.444444444444	0.6	753.166666666667	0.5	977.6	1	649.1	13	537240	2	537228	27	40	537267	-999999	537243	0	13	TrialsPROC	PL_001_92012.png	1	2	52	SessionSelectionList														target	2	Place	0-Back	45	80	33	0	0	79	2	39	406853	1	14	73	404814	-1	405663	0	849	3	2	2039	53	406867	-54	0												4				52												
WM080112	148335_fnca	1	1	1	1204002848	1	75.031	75.031	2.0.10.147	2.0.10.242	2.0.10.242	1.0.0.439	7	234	2	3	Verdana	1	80	0	0	0	WM Stimuli\	0.4	1470.75	0.9	854.888888888889	0.6	1256.16666666667	0.9	867.666666666667	0.9	839.444444444444	0.6	753.166666666667	0.5	977.6	1	649.1	13	537240	2	537228	27	40	537267	-999999	537243	0	13	TrialsPROC	PL_004_92023.png	1	2	53	SessionSelectionList														nonlure	3	Place	0-Back	46	80	34	0	0	80	3	39	409425	2	14	72	407386	-1	407965	1	579	3	3	2039	53	409439	-54	0												5				53												
WM080112	148335_fnca	1	1	1	1204002848	1	75.031	75.031	2.0.10.147	2.0.10.242	2.0.10.242	1.0.0.439	7	234	2	3	Verdana	1	80	0	0	0	WM Stimuli\	0.4	1470.75	0.9	854.888888888889	0.6	1256.16666666667	0.9	867.666666666667	0.9	839.444444444444	0.6	753.166666666667	0.5	977.6	1	649.1	13	537240	2	537228	27	40	537267	-999999	537243	0	13	TrialsPROC	PL_005_92024.png	1	2	54	SessionSelectionList														nonlure	3	Place	0-Back	47	80	35	0	0	81	4	40	411998	1	13	72	409958	-1	410905	1	947	3	3	2040	53	412011	-54	0												6				54												
WM080112	148335_fnca	1	1	1	1204002848	1	75.031	75.031	2.0.10.147	2.0.10.242	2.0.10.242	1.0.0.439	7	234	2	3	Verdana	1	80	0	0	0	WM Stimuli\	0.4	1470.75	0.9	854.888888888889	0.6	1256.16666666667	0.9	867.666666666667	0.9	839.444444444444	0.6	753.166666666667	0.5	977.6	1	649.1	13	537240	2	537228	27	40	537267	-999999	537243	0	13	TrialsPROC	PL_001_92012.png	1	2	55	SessionSelectionList														target	2	Place	0-Back	48	80	36	0	0	78	5	39	414570	1	14	73	412531	-1	413362	0	831	3	2	2039	53	414584	-54	0												7				55												
WM080112	148335_fnca	1	1	1	1204002848	1	75.031	75.031	2.0.10.147	2.0.10.242	2.0.10.242	1.0.0.439	7	234	2	3	Verdana	1	80	0	0	0	WM Stimuli\	0.4	1470.75	0.9	854.888888888889	0.6	1256.16666666667	0.9	867.666666666667	0.9	839.444444444444	0.6	753.166666666667	0.5	977.6	1	649.1	13	537240	2	537228	27	40	537267	-999999	537243	0	13	TrialsPROC	PL_002_92014.png	1	2	56	SessionSelectionList														nonlure	3	Place	0-Back	49	80	37	0	0	79	6	39	417142	2	14	72	415103	-1	415707	1	604	3	3	2039	53	417156	-54	0												8				56												
WM080112	148335_fnca	1	1	1	1204002848	1	75.031	75.031	2.0.10.147	2.0.10.242	2.0.10.242	1.0.0.439	7	234	2	3	Verdana	1	80	0	0	0	WM Stimuli\	0.4	1470.75	0.9	854.888888888889	0.6	1256.16666666667	0.9	867.666666666667	0.9	839.444444444444	0.6	753.166666666667	0.5	977.6	1	649.1	13	537240	2	537228	27	40	537267	-999999	537243	0	13	TrialsPROC	PL_004_92023.png	1	2	57	SessionSelectionList														lure	3	Place	0-Back	50	80	38	0	0	79	7	39	419714	2	14	72	417675	-1	418802	1	1127	3	3	2039	53	419728	-54	0												9				57												
WM080112	148335_fnca	1	1	1	1204002848	1	75.031	75.031	2.0.10.147	2.0.10.242	2.0.10.242	1.0.0.439	7	234	2	3	Verdana	1	80	0	0	0	WM Stimuli\	0.4	1470.75	0.9	854.888888888889	0.6	1256.16666666667	0.9	867.666666666667	0.9	839.444444444444	0.6	753.166666666667	0.5	977.6	1	649.1	13	537240	2	537228	27	40	537267	-999999	537243	0	13	TrialsPROC	PL_006_92025.png	1	2	58	SessionSelectionList														lure	3	Place	0-Back	51	80	39	0	0	80	8	40	422287	1	13	72	420247	-1	420915	1	668	3	3	2040	53	422300	-54	0												10				58												
WM080112	148335_fnca	1	1	1	1204002848	1	75.031	75.031	2.0.10.147	2.0.10.242	2.0.10.242	1.0.0.439	7	234	2	3	Verdana	1	80	0	0	0	WM Stimuli\	0.4	1470.75	0.9	854.888888888889	0.6	1256.16666666667	0.9	867.666666666667	0.9	839.444444444444	0.6	753.166666666667	0.5	977.6	1	649.1	13	537240	2	537228	27	40	537267	-999999	537243	0	14	Cue2BackPROC	""	1	2	59	SessionSelectionList									6	422753	-7	0																																													59												
WM080112	148335_fnca	1	1	1	1204002848	1	75.031	75.031	2.0.10.147	2.0.10.242	2.0.10.242	1.0.0.439	7	234	2	3	Verdana	1	80	0	0	0	WM Stimuli\	0.4	1470.75	0.9	854.888888888889	0.6	1256.16666666667	0.9	867.666666666667	0.9	839.444444444444	0.6	753.166666666667	0.5	977.6	1	649.1	13	537240	2	537228	27	40	537267	-999999	537243	0	15	TrialsPROC	FC_010_F5.png	1	2	60	SessionSelectionList														nonlure	3	Face	2-Back	52	80	39	0	1	80	8	39	427351	2	14	65	425312	-1	0	0	0	""	3	2039	53	427365	-54	0													1			60												
WM080112	148335_fnca	1	1	1	1204002848	1	75.031	75.031	2.0.10.147	2.0.10.242	2.0.10.242	1.0.0.439	7	234	2	3	Verdana	1	80	0	0	0	WM Stimuli\	0.4	1470.75	0.9	854.888888888889	0.6	1256.16666666667	0.9	867.666666666667	0.9	839.444444444444	0.6	753.166666666667	0.5	977.6	1	649.1	13	537240	2	537228	27	40	537267	-999999	537243	0	15	TrialsPROC	FC_012_F6.png	1	2	61	SessionSelectionList														nonlure	3	Face	2-Back	53	80	40	0	0	80	1	40	429924	1	13	72	427884	-1	429212	1	1328	3	3	2040	53	429937	-54	0													2			61												
WM080112	148335_fnca	1	1	1	1204002848	1	75.031	75.031	2.0.10.147	2.0.10.242	2.0.10.242	1.0.0.439	7	234	2	3	Verdana	1	80	0	0	0	WM Stimuli\	0.4	1470.75	0.9	854.888888888889	0.6	1256.16666666667	0.9	867.666666666667	0.9	839.444444444444	0.6	753.166666666667	0.5	977.6	1	649.1	13	537240	2	537228	27	40	537267	-999999	537243	0	15	TrialsPROC	FC_010_F5.png	1	2	62	SessionSelectionList														target	2	Face	2-Back	54	80	41	0	0	80	2	39	432496	1	14	73	430457	-1	431357	0	900	3	2	2039	53	432510	-54	0													3			62												
WM080112	148335_fnca	1	1	1	1204002848	1	75.031	75.031	2.0.10.147	2.0.10.242	2.0.10.242	1.0.0.439	7	234	2	3	Verdana	1	80	0	0	0	WM Stimuli\	0.4	1470.75	0.9	854.888888888889	0.6	1256.16666666667	0.9	867.666666666667	0.9	839.444444444444	0.6	753.166666666667	0.5	977.6	1	649.1	13	537240	2	537228	27	40	537267	-999999	537243	0	15	TrialsPROC	FC_008_F4.png	1	2	63	SessionSelectionList														nonlure	3	Face	2-Back	55	80	42	0	0	80	3	39	435068	2	14	72	433029	-1	433795	1	766	3	3	2039	53	435082	-54	0													4			63												
WM080112	148335_fnca	1	1	1	1204002848	1	75.031	75.031	2.0.10.147	2.0.10.242	2.0.10.242	1.0.0.439	7	234	2	3	Verdana	1	80	0	0	0	WM Stimuli\	0.4	1470.75	0.9	854.888888888889	0.6	1256.16666666667	0.9	867.666666666667	0.9	839.444444444444	0.6	753.166666666667	0.5	977.6	1	649.1	13	537240	2	537228	27	40	537267	-999999	537243	0	15	TrialsPROC	FC_012_F6.png	1	2	64	SessionSelectionList														lure	3	Face	2-Back	56	80	43	0	0	80	1	39	437640	2	14	72	435601	-1	436060	0	459	2	3	2039	53	437654	-54	0													5			64												
WM080112	148335_fnca	1	1	1	1204002848	1	75.031	75.031	2.0.10.147	2.0.10.242	2.0.10.242	1.0.0.439	7	234	2	3	Verdana	1	80	0	0	0	WM Stimuli\	0.4	1470.75	0.9	854.888888888889	0.6	1256.16666666667	0.9	867.666666666667	0.9	839.444444444444	0.6	753.166666666667	0.5	977.6	1	649.1	13	537240	2	537228	27	40	537267	-999999	537243	0	15	TrialsPROC	FC_008_F4.png	1	2	65	SessionSelectionList														target	2	Face	2-Back	57	80	44	0	0	80	1	39	440213	1	13	73	438174	-1	440163	0	1989	3	2	2039	52	440226	-53	0													6			65												
WM080112	148335_fnca	1	1	1	1204002848	1	75.031	75.031	2.0.10.147	2.0.10.242	2.0.10.242	1.0.0.439	7	234	2	3	Verdana	1	80	0	0	0	WM Stimuli\	0.4	1470.75	0.9	854.888888888889	0.6	1256.16666666667	0.9	867.666666666667	0.9	839.444444444444	0.6	753.166666666667	0.5	977.6	1	649.1	13	537240	2	537228	27	40	537267	-999999	537243	0	15	TrialsPROC	FC_007_M4.png	1	2	66	SessionSelectionList														nonlure	3	Face	2-Back	58	80	45	0	0	80	2	39	442785	1	14	72	440746	-1	442433	1	1687	3	3	2039	53	442799	-54	0													7			66												
WM080112	148335_fnca	1	1	1	1204002848	1	75.031	75.031	2.0.10.147	2.0.10.242	2.0.10.242	1.0.0.439	7	234	2	3	Verdana	1	80	0	0	0	WM Stimuli\	0.4	1470.75	0.9	854.888888888889	0.6	1256.16666666667	0.9	867.666666666667	0.9	839.444444444444	0.6	753.166666666667	0.5	977.6	1	649.1	13	537240	2	537228	27	40	537267	-999999	537243	0	15	TrialsPROC	FC_007_M4.png	1	2	67	SessionSelectionList														lure	3	Face	2-Back	59	80	46	0	0	80	3	39	445357	2	14	72	443318	-1	444333	1	1015	3	3	2039	53	445371	-54	0													8			67												
WM080112	148335_fnca	1	1	1	1204002848	1	75.031	75.031	2.0.10.147	2.0.10.242	2.0.10.242	1.0.0.439	7	234	2	3	Verdana	1	80	0	0	0	WM Stimuli\	0.4	1470.75	0.9	854.888888888889	0.6	1256.16666666667	0.9	867.666666666667	0.9	839.444444444444	0.6	753.166666666667	0.5	977.6	1	649.1	13	537240	2	537228	27	40	537267	-999999	537243	0	15	TrialsPROC	FC_009_M5.png	1	2	68	SessionSelectionList														nonlure	3	Face	2-Back	60	80	47	0	0	80	4	40	447930	1	13	72	445890	-1	447823	1	1933	3	3	2040	53	447943	-54	0													9			68												
WM080112	148335_fnca	1	1	1	1204002848	1	75.031	75.031	2.0.10.147	2.0.10.242	2.0.10.242	1.0.0.439	7	234	2	3	Verdana	1	80	0	0	0	WM Stimuli\	0.4	1470.75	0.9	854.888888888889	0.6	1256.16666666667	0.9	867.666666666667	0.9	839.444444444444	0.6	753.166666666667	0.5	977.6	1	649.1	13	537240	2	537228	27	40	537267	-999999	537243	0	15	TrialsPROC	FC_011_M6.png	1	2	69	SessionSelectionList														nonlure	3	Face	2-Back	61	80	48	0	0	80	5	39	450502	1	14	73	448463	-1	449271	1	808	3	3	2039	53	450516	-54	0													10			69												
WM080112	148335_fnca	1	1	1	1204002848	1	75.031	75.031	2.0.10.147	2.0.10.242	2.0.10.242	1.0.0.439	7	234	2	3	Verdana	1	80	0	0	0	WM Stimuli\	0.4	1470.75	0.9	854.888888888889	0.6	1256.16666666667	0.9	867.666666666667	0.9	839.444444444444	0.6	753.166666666667	0.5	977.6	1	649.1	13	537240	2	537228	27	40	537267	-999999	537243	0	16	Fix15secPROC	""	1	2	70	SessionSelectionList																																															6	450969	-7	0							70												
WM080112	148335_fnca	1	1	1	1204002848	1	75.031	75.031	2.0.10.147	2.0.10.242	2.0.10.242	1.0.0.439	7	234	2	3	Verdana	1	80	0	0	0	WM Stimuli\	0.4	1470.75	0.9	854.888888888889	0.6	1256.16666666667	0.9	867.666666666667	0.9	839.444444444444	0.6	753.166666666667	0.5	977.6	1	649.1	13	537240	2	537228	27	40	537267	-999999	537243	0	17	Cue0BackPROC	TO_007_TOOL7_BA.png	1	2	71	SessionSelectionList																																										13	465976	-14	0												71												
WM080112	148335_fnca	1	1	1	1204002848	1	75.031	75.031	2.0.10.147	2.0.10.242	2.0.10.242	1.0.0.439	7	234	2	3	Verdana	1	80	0	0	0	WM Stimuli\	0.4	1470.75	0.9	854.888888888889	0.6	1256.16666666667	0.9	867.666666666667	0.9	839.444444444444	0.6	753.166666666667	0.5	977.6	1	649.1	13	537240	2	537228	27	40	537267	-999999	537243	0	18	TrialsPROC	TO_010_TOOL10_BA.png	1	2	72	SessionSelectionList														nonlure	3	Tools	0-Back	62	80	49	0	0	81	6	39	470560	2	14	58	468521	-1	469361	1	840	3	3	2039	53	470574	-54	0														1		72												
WM080112	148335_fnca	1	1	1	1204002848	1	75.031	75.031	2.0.10.147	2.0.10.242	2.0.10.242	1.0.0.439	7	234	2	3	Verdana	1	80	0	0	0	WM Stimuli\	0.4	1470.75	0.9	854.888888888889	0.6	1256.16666666667	0.9	867.666666666667	0.9	839.444444444444	0.6	753.166666666667	0.5	977.6	1	649.1	13	537240	2	537228	27	40	537267	-999999	537243	0	18	TrialsPROC	TO_009_TOOL9_BA.png	1	2	73	SessionSelectionList														nonlure	3	Tools	0-Back	63	80	50	0	0	81	7	39	473119	2	14	59	471080	-1	471539	1	459	3	3	2039	53	473133	-54	0														2		73												
WM080112	148335_fnca	1	1	1	1204002848	1	75.031	75.031	2.0.10.147	2.0.10.242	2.0.10.242	1.0.0.439	7	234	2	3	Verdana	1	80	0	0	0	WM Stimuli\	0.4	1470.75	0.9	854.888888888889	0.6	1256.16666666667	0.9	867.666666666667	0.9	839.444444444444	0.6	753.166666666667	0.5	977.6	1	649.1	13	537240	2	537228	27	40	537267	-999999	537243	0	18	TrialsPROC	TO_009_TOOL9_BA.png	1	2	74	SessionSelectionList														lure	3	Tools	0-Back	64	80	51	0	0	82	8	39	475678	2	14	59	473639	-1	474480	1	841	3	3	2039	53	475692	-54	0														3		74												
WM080112	148335_fnca	1	1	1	1204002848	1	75.031	75.031	2.0.10.147	2.0.10.242	2.0.10.242	1.0.0.439	7	234	2	3	Verdana	1	80	0	0	0	WM Stimuli\	0.4	1470.75	0.9	854.888888888889	0.6	1256.16666666667	0.9	867.666666666667	0.9	839.444444444444	0.6	753.166666666667	0.5	977.6	1	649.1	13	537240	2	537228	27	40	537267	-999999	537243	0	18	TrialsPROC	TO_008_TOOL8_BA.png	1	2	75	SessionSelectionList														nonlure	3	Tools	0-Back	65	80	52	0	0	82	9	39	478237	2	14	59	476198	-1	476979	1	781	3	3	2039	53	478251	-54	0														4		75												
WM080112	148335_fnca	1	1	1	1204002848	1	75.031	75.031	2.0.10.147	2.0.10.242	2.0.10.242	1.0.0.439	7	234	2	3	Verdana	1	80	0	0	0	WM Stimuli\	0.4	1470.75	0.9	854.888888888889	0.6	1256.16666666667	0.9	867.666666666667	0.9	839.444444444444	0.6	753.166666666667	0.5	977.6	1	649.1	13	537240	2	537228	27	40	537267	-999999	537243	0	18	TrialsPROC	TO_011_TOOL11_BA.png	1	2	76	SessionSelectionList														nonlure	3	Tools	0-Back	66	80	53	0	0	83	10	39	480796	2	14	59	478757	-1	479401	1	644	3	3	2039	53	480810	-54	0														5		76												
WM080112	148335_fnca	1	1	1	1204002848	1	75.031	75.031	2.0.10.147	2.0.10.242	2.0.10.242	1.0.0.439	7	234	2	3	Verdana	1	80	0	0	0	WM Stimuli\	0.4	1470.75	0.9	854.888888888889	0.6	1256.16666666667	0.9	867.666666666667	0.9	839.444444444444	0.6	753.166666666667	0.5	977.6	1	649.1	13	537240	2	537228	27	40	537267	-999999	537243	0	18	TrialsPROC	TO_012_TOOL12_BA.png	1	2	77	SessionSelectionList														nonlure	3	Tools	0-Back	67	80	54	0	0	83	11	39	483355	2	14	59	481316	-1	481810	1	494	3	3	2039	53	483369	-54	0														6		77												
WM080112	148335_fnca	1	1	1	1204002848	1	75.031	75.031	2.0.10.147	2.0.10.242	2.0.10.242	1.0.0.439	7	234	2	3	Verdana	1	80	0	0	0	WM Stimuli\	0.4	1470.75	0.9	854.888888888889	0.6	1256.16666666667	0.9	867.666666666667	0.9	839.444444444444	0.6	753.166666666667	0.5	977.6	1	649.1	13	537240	2	537228	27	40	537267	-999999	537243	0	18	TrialsPROC	TO_010_TOOL10_BA.png	1	2	78	SessionSelectionList														lure	3	Tools	0-Back	68	80	55	0	0	84	12	39	485914	2	14	59	483875	-1	484630	1	755	3	3	2039	53	485928	-54	0														7		78												
WM080112	148335_fnca	1	1	1	1204002848	1	75.031	75.031	2.0.10.147	2.0.10.242	2.0.10.242	1.0.0.439	7	234	2	3	Verdana	1	80	0	0	0	WM Stimuli\	0.4	1470.75	0.9	854.888888888889	0.6	1256.16666666667	0.9	867.666666666667	0.9	839.444444444444	0.6	753.166666666667	0.5	977.6	1	649.1	13	537240	2	537228	27	40	537267	-999999	537243	0	18	TrialsPROC	TO_007_TOOL7_BA.png	1	2	79	SessionSelectionList														target	2	Tools	0-Back	69	80	56	0	0	84	1	39	488473	1	14	59	486434	-1	486918	1	484	2	2	2039	53	488487	-54	0														8		79												
WM080112	148335_fnca	1	1	1	1204002848	1	75.031	75.031	2.0.10.147	2.0.10.242	2.0.10.242	1.0.0.439	7	234	2	3	Verdana	1	80	0	0	0	WM Stimuli\	0.4	1470.75	0.9	854.888888888889	0.6	1256.16666666667	0.9	867.666666666667	0.9	839.444444444444	0.6	753.166666666667	0.5	977.6	1	649.1	13	537240	2	537228	27	40	537267	-999999	537243	0	18	TrialsPROC	TO_008_TOOL8_BA.png	1	2	80	SessionSelectionList														lure	3	Tools	0-Back	70	80	57	0	0	85	1	39	491032	2	14	59	488993	-1	489598	1	605	3	3	2039	53	491046	-54	0														9		80												
WM080112	148335_fnca	1	1	1	1204002848	1	75.031	75.031	2.0.10.147	2.0.10.242	2.0.10.242	1.0.0.439	7	234	2	3	Verdana	1	80	0	0	0	WM Stimuli\	0.4	1470.75	0.9	854.888888888889	0.6	1256.16666666667	0.9	867.666666666667	0.9	839.444444444444	0.6	753.166666666667	0.5	977.6	1	649.1	13	537240	2	537228	27	40	537267	-999999	537243	0	18	TrialsPROC	TO_007_TOOL7_BA.png	1	2	81	SessionSelectionList														target	2	Tools	0-Back	71	80	58	0	0	85	1	39	493591	1	14	59	491552	-1	492140	1	588	2	2	2039	53	493605	-54	0														10		81												
WM080112	148335_fnca	1	1	1	1204002848	1	75.031	75.031	2.0.10.147	2.0.10.242	2.0.10.242	1.0.0.439	7	234	2	3	Verdana	1	80	0	0	0	WM Stimuli\	0.4	1470.75	0.9	854.888888888889	0.6	1256.16666666667	0.9	867.666666666667	0.9	839.444444444444	0.6	753.166666666667	0.5	977.6	1	649.1	13	537240	2	537228	27	40	537267	-999999	537243	0	19	Cue2BackPROC	""	1	2	82	SessionSelectionList									6	494058	-7	0																																													82												
WM080112	148335_fnca	1	1	1	1204002848	1	75.031	75.031	2.0.10.147	2.0.10.242	2.0.10.242	1.0.0.439	7	234	2	3	Verdana	1	80	0	0	0	WM Stimuli\	0.4	1470.75	0.9	854.888888888889	0.6	1256.16666666667	0.9	867.666666666667	0.9	839.444444444444	0.6	753.166666666667	0.5	977.6	1	649.1	13	537240	2	537228	27	40	537267	-999999	537243	0	20	TrialsPROC	PL_007_92026.png	1	2	83	SessionSelectionList														nonlure	3	Place	2-Back	72	80	59	0	0	85	1	40	498656	1	13	64	496616	-1	497376	1	760	3	3	2040	53	498669	-54	0															1	83												
WM080112	148335_fnca	1	1	1	1204002848	1	75.031	75.031	2.0.10.147	2.0.10.242	2.0.10.242	1.0.0.439	7	234	2	3	Verdana	1	80	0	0	0	WM Stimuli\	0.4	1470.75	0.9	854.888888888889	0.6	1256.16666666667	0.9	867.666666666667	0.9	839.444444444444	0.6	753.166666666667	0.5	977.6	1	649.1	13	537240	2	537228	27	40	537267	-999999	537243	0	20	TrialsPROC	PL_007_92026.png	1	2	84	SessionSelectionList														lure	3	Place	2-Back	73	80	60	0	0	85	2	39	501228	1	14	73	499189	-1	499512	1	323	3	3	2039	53	501242	-54	0															2	84												
WM080112	148335_fnca	1	1	1	1204002848	1	75.031	75.031	2.0.10.147	2.0.10.242	2.0.10.242	1.0.0.439	7	234	2	3	Verdana	1	80	0	0	0	WM Stimuli\	0.4	1470.75	0.9	854.888888888889	0.6	1256.16666666667	0.9	867.666666666667	0.9	839.444444444444	0.6	753.166666666667	0.5	977.6	1	649.1	13	537240	2	537228	27	40	537267	-999999	537243	0	20	TrialsPROC	PL_010_92038.png	1	2	85	SessionSelectionList														nonlure	3	Place	2-Back	74	80	61	0	0	85	3	39	503800	2	14	72	501761	-1	502848	1	1087	3	3	2039	53	503814	-54	0															3	85												
WM080112	148335_fnca	1	1	1	1204002848	1	75.031	75.031	2.0.10.147	2.0.10.242	2.0.10.242	1.0.0.439	7	234	2	3	Verdana	1	80	0	0	0	WM Stimuli\	0.4	1470.75	0.9	854.888888888889	0.6	1256.16666666667	0.9	867.666666666667	0.9	839.444444444444	0.6	753.166666666667	0.5	977.6	1	649.1	13	537240	2	537228	27	40	537267	-999999	537243	0	20	TrialsPROC	PL_009_92037.png	1	2	86	SessionSelectionList														nonlure	3	Place	2-Back	75	80	62	0	0	85	4	40	506373	1	13	72	504333	-1	505211	1	878	3	3	2040	53	506386	-54	0															4	86												
WM080112	148335_fnca	1	1	1	1204002848	1	75.031	75.031	2.0.10.147	2.0.10.242	2.0.10.242	1.0.0.439	7	234	2	3	Verdana	1	80	0	0	0	WM Stimuli\	0.4	1470.75	0.9	854.888888888889	0.6	1256.16666666667	0.9	867.666666666667	0.9	839.444444444444	0.6	753.166666666667	0.5	977.6	1	649.1	13	537240	2	537228	27	40	537267	-999999	537243	0	20	TrialsPROC	PL_010_92038.png	1	2	87	SessionSelectionList														target	2	Place	2-Back	76	80	63	0	0	85	1	39	508945	2	14	73	506906	-1	507913	1	1007	2	2	2039	53	508959	-54	0															5	87												
WM080112	148335_fnca	1	1	1	1204002848	1	75.031	75.031	2.0.10.147	2.0.10.242	2.0.10.242	1.0.0.439	7	234	2	3	Verdana	1	80	0	0	0	WM Stimuli\	0.4	1470.75	0.9	854.888888888889	0.6	1256.16666666667	0.9	867.666666666667	0.9	839.444444444444	0.6	753.166666666667	0.5	977.6	1	649.1	13	537240	2	537228	27	40	537267	-999999	537243	0	20	TrialsPROC	PL_009_92037.png	1	2	88	SessionSelectionList														target	2	Place	2-Back	77	80	64	0	0	85	1	39	511504	1	14	59	509465	-1	510408	0	943	3	2	2039	53	511518	-54	0															6	88												
WM080112	148335_fnca	1	1	1	1204002848	1	75.031	75.031	2.0.10.147	2.0.10.242	2.0.10.242	1.0.0.439	7	234	2	3	Verdana	1	80	0	0	0	WM Stimuli\	0.4	1470.75	0.9	854.888888888889	0.6	1256.16666666667	0.9	867.666666666667	0.9	839.444444444444	0.6	753.166666666667	0.5	977.6	1	649.1	13	537240	2	537228	27	40	537267	-999999	537243	0	20	TrialsPROC	PL_008_92033.png	1	2	89	SessionSelectionList														nonlure	3	Place	2-Back	78	80	65	0	0	85	2	39	514076	1	14	72	512037	-1	512642	1	605	3	3	2039	53	514090	-54	0															7	89												
WM080112	148335_fnca	1	1	1	1204002848	1	75.031	75.031	2.0.10.147	2.0.10.242	2.0.10.242	1.0.0.439	7	234	2	3	Verdana	1	80	0	0	0	WM Stimuli\	0.4	1470.75	0.9	854.888888888889	0.6	1256.16666666667	0.9	867.666666666667	0.9	839.444444444444	0.6	753.166666666667	0.5	977.6	1	649.1	13	537240	2	537228	27	40	537267	-999999	537243	0	20	TrialsPROC	PL_012_92047.png	1	2	90	SessionSelectionList														nonlure	3	Place	2-Back	79	80	66	0	0	85	3	39	516635	1	14	59	514596	-1	515197	1	601	3	3	2039	53	516649	-54	0															8	90												
WM080112	148335_fnca	1	1	1	1204002848	1	75.031	75.031	2.0.10.147	2.0.10.242	2.0.10.242	1.0.0.439	7	234	2	3	Verdana	1	80	0	0	0	WM Stimuli\	0.4	1470.75	0.9	854.888888888889	0.6	1256.16666666667	0.9	867.666666666667	0.9	839.444444444444	0.6	753.166666666667	0.5	977.6	1	649.1	13	537240	2	537228	27	40	537267	-999999	537243	0	20	TrialsPROC	PL_012_92047.png	1	2	91	SessionSelectionList														lure	3	Place	2-Back	80	80	67	0	0	85	4	39	519207	2	14	72	517168	-1	518136	1	968	3	3	2039	53	519221	-54	0															9	91												
WM080112	148335_fnca	1	1	1	1204002848	1	75.031	75.031	2.0.10.147	2.0.10.242	2.0.10.242	1.0.0.439	7	234	2	3	Verdana	1	80	0	0	0	WM Stimuli\	0.4	1470.75	0.9	854.888888888889	0.6	1256.16666666667	0.9	867.666666666667	0.9	839.444444444444	0.6	753.166666666667	0.5	977.6	1	649.1	13	537240	2	537228	27	40	537267	-999999	537243	0	20	TrialsPROC	PL_011_92044.png	1	2	92	SessionSelectionList														nonlure	3	Place	2-Back	80	80	68	0	0	85	5	39	521766	2	14	59	519727	-1	521053	1	1326	3	3	2039	53	521780	-54	0															10	92												
WM080112	148335_fnca	1	1	1	1204002848	1	75.031	75.031	2.0.10.147	2.0.10.242	2.0.10.242	1.0.0.439	7	234	2	3	Verdana	1	80	0	0	0	WM Stimuli\	0.4	1470.75	0.9	854.888888888889	0.6	1256.16666666667	0.9	867.666666666667	0.9	839.444444444444	0.6	753.166666666667	0.5	977.6	1	649.1	13	537240	2	537228	27	40	537267	-999999	537243	0	21	Fix15secPROC	""	1	2	93	SessionSelectionList																																															6	522233	-7	0							93												
