ExperimentName	HCPID	RunNumber	Subject	Session	RandomSeed	Group	Laptop.RefreshRate	ScannerD2.RefreshRate	StudioVersion	RuntimeVersion	RuntimeVersionExpected	ExperimentVersion	triggercode	Allowed	Target	Nontarget	FontStyle	RunTrialNumber[Session]	TrialsPerRun[Session]	TotalRespGreater200[Session]	ConsecRTLess200[Session]	ConsecNonResp[Session]	StimuliDir	ACC_2_Back_Body	Avg_RT_For_Correct_Trials_2_Back_Body	ACC_0_Back_Body	Avg_RT_For_Correct_Trials_0_Back_Body	ACC_2_Back_Face	Avg_RT_For_Correct_Trials_2_Back_Face	ACC_0_Back_Face	Avg_RT_For_Correct_Trials_0_Back_Face	ACC_2_Back_Place	Avg_RT_For_Correct_Trials_2_Back_Place	ACC_0_Back_Place	Avg_RT_For_Correct_Trials_0_Back_Place	ACC_2_Back_Tools	Avg_RT_For_Correct_Trials_2_Back_Tools	ACC_0_Back_Tools	Avg_RT_For_Correct_Trials_0_Back_Tools	ExpInstrucFeelFreeToRest.OnsetDelay	ExpInstrucFeelFreeToRest.OnsetTime	ExpInstrucFeelFreeToRest.DurationError	ExpInstrucFeelFreeToRest.StartTime	ExpInstrucFeelFreeToRest.OnsetToOnsetTime	FeelFreeToRest.OnsetDelay	FeelFreeToRest.OnsetTime	FeelFreeToRest.DurationError	FeelFreeToRest.StartTime	FeelFreeToRest.OnsetToOnsetTime	SessionSelectionList	Procedure[Block]	Stimulus[Block]	RunNumberFilterValue	SessionSelectionList.Cycle	SessionSelectionList.Sample	Running[Block]	IntroButtonMap.OnsetDelay	IntroButtonMap.OnsetTime	IntroButtonMap.DurationError	IntroButtonMap.OnsetToOnsetTime	GetReady.OnsetDelay	GetReady.OnsetTime	GetReady.DurationError	GetReady.OnsetToOnsetTime	Cue2Back.OnsetDelay	Cue2Back.OnsetTime	Cue2Back.DurationError	Cue2Back.OnsetToOnsetTime	Run1Block1	TargetType	CorrectResponse	StimType	BlockType	RunTrialNumber[Block]	TrialsPerRun[Block]	TotalRespGreater200[Block]	ConsecRTLess200[Block]	ConsecNonResp[Block]	ControlAcc	ConsecSameResp	ExperimenterWindow.OnsetDelay	ExperimenterWindow.OnsetTime	ExperimenterWindow.DurationError	ExperimenterWindow.OnsetToOnsetTime	Stim.OnsetDelay	Stim.OnsetTime	Stim.DurationError	Stim.RTTime	Stim.ACC	Stim.RT	Stim.RESP	Stim.CRESP	Stim.OnsetToOnsetTime	Fix.OnsetDelay	Fix.OnsetTime	Fix.DurationError	Fix.OnsetToOnsetTime	CueTarget.OnsetDelay	CueTarget.OnsetTime	CueTarget.DurationError	CueTarget.OnsetToOnsetTime	Run1Block2	Fix15sec.OnsetDelay	Fix15sec.OnsetTime	Fix15sec.DurationError	Fix15sec.OnsetToOnsetTime	Run1Block3	Run1Block4	Run1Block5	Run1Block6	Run1Block7	Run1Block8	Block	Procedure[Trial]	Stimulus[Trial]	ReadyList	Running[Trial]	ReadyList.Cycle	ReadyList.Sample	SyncSlide.OnsetDelay	SyncSlide.OnsetTime	SyncSlide.DurationError	SyncSlide.FinishTime	SyncSlide.OnsetToOnsetTime	Trial
WM080112	139637_fnca	1	1	1	1470184087	1	75.031	75.031	2.0.10.147	2.0.10.242	2.0.10.242	1.0.0.439	7	234	2	3	Verdana	1	80	0	0	0	WM Stimuli\	0.9	1150.33333333333	0.8	1071.375	1	1172	1	814.6	0.5	998.6	1	721.4	0.8	1318.875	0.8	792.625	12	404360	3	404349	27	39	404387	-999999	404363	0	1	TRSyncPROC	""	1	2	1	SessionSelectionList	101	16175	-999999	0	28	96756	-999999	0																																																	1	InitialTR	4	1	ReadyList	1	1	22	111122	-23	113099	0	1
WM080112	139637_fnca	1	1	1	1470184087	1	75.031	75.031	2.0.10.147	2.0.10.242	2.0.10.242	1.0.0.439	7	234	2	3	Verdana	1	80	0	0	0	WM Stimuli\	0.9	1150.33333333333	0.8	1071.375	1	1172	1	814.6	0.5	998.6	1	721.4	0.8	1318.875	0.8	792.625	12	404360	3	404349	27	39	404387	-999999	404363	0	1	TRSyncPROC	""	1	2	1	SessionSelectionList	101	16175	-999999	0	28	96756	-999999	0																																																	1	InitialTR	3	2	ReadyList	1	2	9	113109	-10	115099	0	2
WM080112	139637_fnca	1	1	1	1470184087	1	75.031	75.031	2.0.10.147	2.0.10.242	2.0.10.242	1.0.0.439	7	234	2	3	Verdana	1	80	0	0	0	WM Stimuli\	0.9	1150.33333333333	0.8	1071.375	1	1172	1	814.6	0.5	998.6	1	721.4	0.8	1318.875	0.8	792.625	12	404360	3	404349	27	39	404387	-999999	404363	0	1	TRSyncPROC	""	1	2	1	SessionSelectionList	101	16175	-999999	0	28	96756	-999999	0																																																	1	InitialTR	2	3	ReadyList	1	3	7	115107	-8	117099	0	3
WM080112	139637_fnca	1	1	1	1470184087	1	75.031	75.031	2.0.10.147	2.0.10.242	2.0.10.242	1.0.0.439	7	234	2	3	Verdana	1	80	0	0	0	WM Stimuli\	0.9	1150.33333333333	0.8	1071.375	1	1172	1	814.6	0.5	998.6	1	721.4	0.8	1318.875	0.8	792.625	12	404360	3	404349	27	39	404387	-999999	404363	0	1	TRSyncPROC	""	1	2	1	SessionSelectionList	101	16175	-999999	0	28	96756	-999999	0																																																	1	InitialTR	1	4	ReadyList	1	4	7	117107	-8	119099	0	4
WM080112	139637_fnca	1	1	1	1470184087	1	75.031	75.031	2.0.10.147	2.0.10.242	2.0.10.242	1.0.0.439	7	234	2	3	Verdana	1	80	0	0	0	WM Stimuli\	0.9	1150.33333333333	0.8	1071.375	1	1172	1	814.6	0.5	998.6	1	721.4	0.8	1318.875	0.8	792.625	12	404360	3	404349	27	39	404387	-999999	404363	0	2	Cue2BackPROC	""	1	2	2	SessionSelectionList									19	119119	-20	0																																													2												
WM080112	139637_fnca	1	1	1	1470184087	1	75.031	75.031	2.0.10.147	2.0.10.242	2.0.10.242	1.0.0.439	7	234	2	3	Verdana	1	80	0	0	0	WM Stimuli\	0.9	1150.33333333333	0.8	1071.375	1	1172	1	814.6	0.5	998.6	1	721.4	0.8	1318.875	0.8	792.625	12	404360	3	404349	27	39	404387	-999999	404363	0	3	TrialsPROC	BP_002_BP10_BA.png	1	2	3	SessionSelectionList													1	nonlure	3	Body	2-Back	2	80	1	0	0	0	1	53	123731	3	13	78	121678	-1	122879	1	1201	3	3	2053	66	123744	-67	0																3												
WM080112	139637_fnca	1	1	1	1470184087	1	75.031	75.031	2.0.10.147	2.0.10.242	2.0.10.242	1.0.0.439	7	234	2	3	Verdana	1	80	0	0	0	WM Stimuli\	0.9	1150.33333333333	0.8	1071.375	1	1172	1	814.6	0.5	998.6	1	721.4	0.8	1318.875	0.8	792.625	12	404360	3	404349	27	39	404387	-999999	404363	0	3	TrialsPROC	BP_001_BP1_BA.png	1	2	4	SessionSelectionList													2	nonlure	3	Body	2-Back	3	80	2	0	0	0	2	40	126290	2	13	72	124250	-1	125089	1	839	3	3	2040	53	126303	-54	0																4												
WM080112	139637_fnca	1	1	1	1470184087	1	75.031	75.031	2.0.10.147	2.0.10.242	2.0.10.242	1.0.0.439	7	234	2	3	Verdana	1	80	0	0	0	WM Stimuli\	0.9	1150.33333333333	0.8	1071.375	1	1172	1	814.6	0.5	998.6	1	721.4	0.8	1318.875	0.8	792.625	12	404360	3	404349	27	39	404387	-999999	404363	0	3	TrialsPROC	BP_006_BP2_BA.png	1	2	5	SessionSelectionList													3	nonlure	3	Body	2-Back	4	80	3	0	0	0	1	39	128848	2	14	59	126809	-1	128493	0	1684	2	3	2039	53	128862	-54	0																5												
WM080112	139637_fnca	1	1	1	1470184087	1	75.031	75.031	2.0.10.147	2.0.10.242	2.0.10.242	1.0.0.439	7	234	2	3	Verdana	1	80	0	0	0	WM Stimuli\	0.9	1150.33333333333	0.8	1071.375	1	1172	1	814.6	0.5	998.6	1	721.4	0.8	1318.875	0.8	792.625	12	404360	3	404349	27	39	404387	-999999	404363	0	3	TrialsPROC	BP_001_BP1_BA.png	1	2	6	SessionSelectionList													4	target	2	Body	2-Back	5	80	4	0	0	0	2	39	131421	1	13	73	129382	-1	130693	1	1311	2	2	2039	52	131434	-53	0																6												
WM080112	139637_fnca	1	1	1	1470184087	1	75.031	75.031	2.0.10.147	2.0.10.242	2.0.10.242	1.0.0.439	7	234	2	3	Verdana	1	80	0	0	0	WM Stimuli\	0.9	1150.33333333333	0.8	1071.375	1	1172	1	814.6	0.5	998.6	1	721.4	0.8	1318.875	0.8	792.625	12	404360	3	404349	27	39	404387	-999999	404363	0	3	TrialsPROC	BP_005_BP19_BA.png	1	2	7	SessionSelectionList													5	nonlure	3	Body	2-Back	6	80	5	0	0	0	1	39	133993	1	14	72	131954	-1	132944	1	990	3	3	2039	53	134007	-54	0																7												
WM080112	139637_fnca	1	1	1	1470184087	1	75.031	75.031	2.0.10.147	2.0.10.242	2.0.10.242	1.0.0.439	7	234	2	3	Verdana	1	80	0	0	0	WM Stimuli\	0.9	1150.33333333333	0.8	1071.375	1	1172	1	814.6	0.5	998.6	1	721.4	0.8	1318.875	0.8	792.625	12	404360	3	404349	27	39	404387	-999999	404363	0	3	TrialsPROC	BP_003_BP16_BA.png	1	2	8	SessionSelectionList													6	nonlure	3	Body	2-Back	7	80	6	0	0	0	2	39	136552	1	14	59	134513	-1	135665	1	1152	3	3	2039	53	136566	-54	0																8												
WM080112	139637_fnca	1	1	1	1470184087	1	75.031	75.031	2.0.10.147	2.0.10.242	2.0.10.242	1.0.0.439	7	234	2	3	Verdana	1	80	0	0	0	WM Stimuli\	0.9	1150.33333333333	0.8	1071.375	1	1172	1	814.6	0.5	998.6	1	721.4	0.8	1318.875	0.8	792.625	12	404360	3	404349	27	39	404387	-999999	404363	0	3	TrialsPROC	BP_006_BP2_BA.png	1	2	9	SessionSelectionList													7	lure	3	Body	2-Back	8	80	7	0	0	0	3	39	139111	1	14	59	137072	-1	138205	1	1133	3	3	2039	53	139125	-54	0																9												
WM080112	139637_fnca	1	1	1	1470184087	1	75.031	75.031	2.0.10.147	2.0.10.242	2.0.10.242	1.0.0.439	7	234	2	3	Verdana	1	80	0	0	0	WM Stimuli\	0.9	1150.33333333333	0.8	1071.375	1	1172	1	814.6	0.5	998.6	1	721.4	0.8	1318.875	0.8	792.625	12	404360	3	404349	27	39	404387	-999999	404363	0	3	TrialsPROC	BP_004_BP18_BA.png	1	2	10	SessionSelectionList													8	nonlure	3	Body	2-Back	9	80	8	0	0	0	4	39	141670	1	14	59	139631	-1	140631	1	1000	3	3	2039	53	141684	-54	0																10												
WM080112	139637_fnca	1	1	1	1470184087	1	75.031	75.031	2.0.10.147	2.0.10.242	2.0.10.242	1.0.0.439	7	234	2	3	Verdana	1	80	0	0	0	WM Stimuli\	0.9	1150.33333333333	0.8	1071.375	1	1172	1	814.6	0.5	998.6	1	721.4	0.8	1318.875	0.8	792.625	12	404360	3	404349	27	39	404387	-999999	404363	0	3	TrialsPROC	BP_005_BP19_BA.png	1	2	11	SessionSelectionList													9	lure	3	Body	2-Back	10	80	9	0	0	0	5	39	144229	1	13	59	142190	-1	143763	1	1573	3	3	2039	52	144242	-53	0																11												
WM080112	139637_fnca	1	1	1	1470184087	1	75.031	75.031	2.0.10.147	2.0.10.242	2.0.10.242	1.0.0.439	7	234	2	3	Verdana	1	80	0	0	0	WM Stimuli\	0.9	1150.33333333333	0.8	1071.375	1	1172	1	814.6	0.5	998.6	1	721.4	0.8	1318.875	0.8	792.625	12	404360	3	404349	27	39	404387	-999999	404363	0	3	TrialsPROC	BP_004_BP18_BA.png	1	2	12	SessionSelectionList													10	target	2	Body	2-Back	11	80	10	0	0	0	1	40	146788	1	13	58	144748	-1	145902	1	1154	2	2	2040	53	146801	-54	0																12												
WM080112	139637_fnca	1	1	1	1470184087	1	75.031	75.031	2.0.10.147	2.0.10.242	2.0.10.242	1.0.0.439	7	234	2	3	Verdana	1	80	0	0	0	WM Stimuli\	0.9	1150.33333333333	0.8	1071.375	1	1172	1	814.6	0.5	998.6	1	721.4	0.8	1318.875	0.8	792.625	12	404360	3	404349	27	39	404387	-999999	404363	0	4	Cue0BackPROC	FC_001_M1.png	1	2	13	SessionSelectionList																																										19	147267	-20	0												13												
WM080112	139637_fnca	1	1	1	1470184087	1	75.031	75.031	2.0.10.147	2.0.10.242	2.0.10.242	1.0.0.439	7	234	2	3	Verdana	1	80	0	0	0	WM Stimuli\	0.9	1150.33333333333	0.8	1071.375	1	1172	1	814.6	0.5	998.6	1	721.4	0.8	1318.875	0.8	792.625	12	404360	3	404349	27	39	404387	-999999	404363	0	5	TrialsPROC	FC_005_M3.png	1	2	14	SessionSelectionList														nonlure	3	Face	0-Back	12	80	11	0	0	100	1	39	151852	2	14	65	149813	-1	150674	1	861	3	3	2039	53	151866	-54	0					1											14												
WM080112	139637_fnca	1	1	1	1470184087	1	75.031	75.031	2.0.10.147	2.0.10.242	2.0.10.242	1.0.0.439	7	234	2	3	Verdana	1	80	0	0	0	WM Stimuli\	0.9	1150.33333333333	0.8	1071.375	1	1172	1	814.6	0.5	998.6	1	721.4	0.8	1318.875	0.8	792.625	12	404360	3	404349	27	39	404387	-999999	404363	0	5	TrialsPROC	FC_001_M1.png	1	2	15	SessionSelectionList														target	2	Face	0-Back	13	80	12	0	0	100	1	39	154424	2	14	72	152385	-1	153125	1	740	2	2	2039	53	154438	-54	0					2											15												
WM080112	139637_fnca	1	1	1	1470184087	1	75.031	75.031	2.0.10.147	2.0.10.242	2.0.10.242	1.0.0.439	7	234	2	3	Verdana	1	80	0	0	0	WM Stimuli\	0.9	1150.33333333333	0.8	1071.375	1	1172	1	814.6	0.5	998.6	1	721.4	0.8	1318.875	0.8	792.625	12	404360	3	404349	27	39	404387	-999999	404363	0	5	TrialsPROC	FC_003_M2.png	1	2	16	SessionSelectionList														nonlure	3	Face	0-Back	14	80	13	0	0	100	1	39	156997	1	13	73	154958	-1	155572	1	614	3	3	2039	52	157010	-53	0					3											16												
WM080112	139637_fnca	1	1	1	1470184087	1	75.031	75.031	2.0.10.147	2.0.10.242	2.0.10.242	1.0.0.439	7	234	2	3	Verdana	1	80	0	0	0	WM Stimuli\	0.9	1150.33333333333	0.8	1071.375	1	1172	1	814.6	0.5	998.6	1	721.4	0.8	1318.875	0.8	792.625	12	404360	3	404349	27	39	404387	-999999	404363	0	5	TrialsPROC	FC_004_F2.png	1	2	17	SessionSelectionList														nonlure	3	Face	0-Back	15	80	14	0	0	100	2	39	159569	1	14	72	157530	-1	158119	1	589	3	3	2039	53	159583	-54	0					4											17												
WM080112	139637_fnca	1	1	1	1470184087	1	75.031	75.031	2.0.10.147	2.0.10.242	2.0.10.242	1.0.0.439	7	234	2	3	Verdana	1	80	0	0	0	WM Stimuli\	0.9	1150.33333333333	0.8	1071.375	1	1172	1	814.6	0.5	998.6	1	721.4	0.8	1318.875	0.8	792.625	12	404360	3	404349	27	39	404387	-999999	404363	0	5	TrialsPROC	FC_004_F2.png	1	2	18	SessionSelectionList														lure	3	Face	0-Back	16	80	15	0	0	100	3	39	162141	2	14	72	160102	-1	160573	1	471	3	3	2039	53	162155	-54	0					5											18												
WM080112	139637_fnca	1	1	1	1470184087	1	75.031	75.031	2.0.10.147	2.0.10.242	2.0.10.242	1.0.0.439	7	234	2	3	Verdana	1	80	0	0	0	WM Stimuli\	0.9	1150.33333333333	0.8	1071.375	1	1172	1	814.6	0.5	998.6	1	721.4	0.8	1318.875	0.8	792.625	12	404360	3	404349	27	39	404387	-999999	404363	0	5	TrialsPROC	FC_001_M1.png	1	2	19	SessionSelectionList														target	2	Face	0-Back	17	80	16	0	0	100	1	39	164713	2	14	72	162674	-1	163296	1	622	2	2	2039	53	164727	-54	0					6											19												
WM080112	139637_fnca	1	1	1	1470184087	1	75.031	75.031	2.0.10.147	2.0.10.242	2.0.10.242	1.0.0.439	7	234	2	3	Verdana	1	80	0	0	0	WM Stimuli\	0.9	1150.33333333333	0.8	1071.375	1	1172	1	814.6	0.5	998.6	1	721.4	0.8	1318.875	0.8	792.625	12	404360	3	404349	27	39	404387	-999999	404363	0	5	TrialsPROC	FC_006_F3.png	1	2	20	SessionSelectionList														nonlure	3	Face	0-Back	18	80	17	0	0	100	1	39	167286	1	14	73	165247	-1	165740	1	493	3	3	2039	53	167300	-54	0					7											20												
WM080112	139637_fnca	1	1	1	1470184087	1	75.031	75.031	2.0.10.147	2.0.10.242	2.0.10.242	1.0.0.439	7	234	2	3	Verdana	1	80	0	0	0	WM Stimuli\	0.9	1150.33333333333	0.8	1071.375	1	1172	1	814.6	0.5	998.6	1	721.4	0.8	1318.875	0.8	792.625	12	404360	3	404349	27	39	404387	-999999	404363	0	5	TrialsPROC	FC_006_F3.png	1	2	21	SessionSelectionList														lure	3	Face	0-Back	19	80	18	0	0	100	2	39	169858	1	14	72	167819	-1	168315	1	496	3	3	2039	53	169872	-54	0					8											21												
WM080112	139637_fnca	1	1	1	1470184087	1	75.031	75.031	2.0.10.147	2.0.10.242	2.0.10.242	1.0.0.439	7	234	2	3	Verdana	1	80	0	0	0	WM Stimuli\	0.9	1150.33333333333	0.8	1071.375	1	1172	1	814.6	0.5	998.6	1	721.4	0.8	1318.875	0.8	792.625	12	404360	3	404349	27	39	404387	-999999	404363	0	5	TrialsPROC	FC_003_M2.png	1	2	22	SessionSelectionList														lure	3	Face	0-Back	20	80	19	0	0	100	3	39	172430	2	14	72	170391	-1	172182	1	1791	3	3	2039	53	172444	-54	0					9											22												
WM080112	139637_fnca	1	1	1	1470184087	1	75.031	75.031	2.0.10.147	2.0.10.242	2.0.10.242	1.0.0.439	7	234	2	3	Verdana	1	80	0	0	0	WM Stimuli\	0.9	1150.33333333333	0.8	1071.375	1	1172	1	814.6	0.5	998.6	1	721.4	0.8	1318.875	0.8	792.625	12	404360	3	404349	27	39	404387	-999999	404363	0	5	TrialsPROC	FC_002_F1.png	1	2	23	SessionSelectionList														nonlure	3	Face	0-Back	21	80	20	0	0	100	4	40	175003	1	13	72	172963	-1	174432	1	1469	3	3	2040	53	175016	-54	0					10											23												
WM080112	139637_fnca	1	1	1	1470184087	1	75.031	75.031	2.0.10.147	2.0.10.242	2.0.10.242	1.0.0.439	7	234	2	3	Verdana	1	80	0	0	0	WM Stimuli\	0.9	1150.33333333333	0.8	1071.375	1	1172	1	814.6	0.5	998.6	1	721.4	0.8	1318.875	0.8	792.625	12	404360	3	404349	27	39	404387	-999999	404363	0	6	Fix15secPROC	""	1	2	24	SessionSelectionList																																															6	175469	-7	0							24												
WM080112	139637_fnca	1	1	1	1470184087	1	75.031	75.031	2.0.10.147	2.0.10.242	2.0.10.242	1.0.0.439	7	234	2	3	Verdana	1	80	0	0	0	WM Stimuli\	0.9	1150.33333333333	0.8	1071.375	1	1172	1	814.6	0.5	998.6	1	721.4	0.8	1318.875	0.8	792.625	12	404360	3	404349	27	39	404387	-999999	404363	0	7	Cue2BackPROC	""	1	2	25	SessionSelectionList									13	190476	-14	0																																													25												
WM080112	139637_fnca	1	1	1	1470184087	1	75.031	75.031	2.0.10.147	2.0.10.242	2.0.10.242	1.0.0.439	7	234	2	3	Verdana	1	80	0	0	0	WM Stimuli\	0.9	1150.33333333333	0.8	1071.375	1	1172	1	814.6	0.5	998.6	1	721.4	0.8	1318.875	0.8	792.625	12	404360	3	404349	27	39	404387	-999999	404363	0	8	TrialsPROC	TO_001_TOOL1_BA.png	1	2	26	SessionSelectionList														nonlure	3	Tools	2-Back	22	80	21	0	0	100	5	39	195061	1	14	59	193022	-1	194953	1	1931	3	3	2039	53	195075	-54	0										1						26												
WM080112	139637_fnca	1	1	1	1470184087	1	75.031	75.031	2.0.10.147	2.0.10.242	2.0.10.242	1.0.0.439	7	234	2	3	Verdana	1	80	0	0	0	WM Stimuli\	0.9	1150.33333333333	0.8	1071.375	1	1172	1	814.6	0.5	998.6	1	721.4	0.8	1318.875	0.8	792.625	12	404360	3	404349	27	39	404387	-999999	404363	0	8	TrialsPROC	TO_002_TOOL2_BA.png	1	2	27	SessionSelectionList														nonlure	3	Tools	2-Back	23	80	22	0	0	100	6	39	197620	1	14	59	195581	-1	196405	1	824	3	3	2039	53	197634	-54	0										2						27												
WM080112	139637_fnca	1	1	1	1470184087	1	75.031	75.031	2.0.10.147	2.0.10.242	2.0.10.242	1.0.0.439	7	234	2	3	Verdana	1	80	0	0	0	WM Stimuli\	0.9	1150.33333333333	0.8	1071.375	1	1172	1	814.6	0.5	998.6	1	721.4	0.8	1318.875	0.8	792.625	12	404360	3	404349	27	39	404387	-999999	404363	0	8	TrialsPROC	TO_004_TOOL4_BA.png	1	2	28	SessionSelectionList														nonlure	3	Tools	2-Back	24	80	23	0	0	100	7	39	200179	1	14	59	198140	-1	199789	1	1649	3	3	2039	53	200193	-54	0										3						28												
WM080112	139637_fnca	1	1	1	1470184087	1	75.031	75.031	2.0.10.147	2.0.10.242	2.0.10.242	1.0.0.439	7	234	2	3	Verdana	1	80	0	0	0	WM Stimuli\	0.9	1150.33333333333	0.8	1071.375	1	1172	1	814.6	0.5	998.6	1	721.4	0.8	1318.875	0.8	792.625	12	404360	3	404349	27	39	404387	-999999	404363	0	8	TrialsPROC	TO_002_TOOL2_BA.png	1	2	29	SessionSelectionList														target	2	Tools	2-Back	25	80	24	0	0	100	8	40	202738	1	13	58	200698	-1	202493	0	1795	3	2	2040	53	202751	-54	0										4						29												
WM080112	139637_fnca	1	1	1	1470184087	1	75.031	75.031	2.0.10.147	2.0.10.242	2.0.10.242	1.0.0.439	7	234	2	3	Verdana	1	80	0	0	0	WM Stimuli\	0.9	1150.33333333333	0.8	1071.375	1	1172	1	814.6	0.5	998.6	1	721.4	0.8	1318.875	0.8	792.625	12	404360	3	404349	27	39	404387	-999999	404363	0	8	TrialsPROC	TO_001_TOOL1_BA.png	1	2	30	SessionSelectionList														lure	3	Tools	2-Back	26	80	25	0	0	100	9	40	205297	1	13	59	203257	-1	204630	1	1373	3	3	2040	53	205310	-54	0										5						30												
WM080112	139637_fnca	1	1	1	1470184087	1	75.031	75.031	2.0.10.147	2.0.10.242	2.0.10.242	1.0.0.439	7	234	2	3	Verdana	1	80	0	0	0	WM Stimuli\	0.9	1150.33333333333	0.8	1071.375	1	1172	1	814.6	0.5	998.6	1	721.4	0.8	1318.875	0.8	792.625	12	404360	3	404349	27	39	404387	-999999	404363	0	8	TrialsPROC	TO_004_TOOL4_BA.png	1	2	31	SessionSelectionList														lure	3	Tools	2-Back	27	80	26	0	0	100	1	40	207856	1	13	59	205816	-1	206505	0	689	2	3	2040	53	207869	-54	0										6						31												
WM080112	139637_fnca	1	1	1	1470184087	1	75.031	75.031	2.0.10.147	2.0.10.242	2.0.10.242	1.0.0.439	7	234	2	3	Verdana	1	80	0	0	0	WM Stimuli\	0.9	1150.33333333333	0.8	1071.375	1	1172	1	814.6	0.5	998.6	1	721.4	0.8	1318.875	0.8	792.625	12	404360	3	404349	27	39	404387	-999999	404363	0	8	TrialsPROC	TO_006_TOOL6_BA.png	1	2	32	SessionSelectionList														nonlure	3	Tools	2-Back	28	80	27	0	0	100	1	39	210414	2	14	59	208375	-1	209604	1	1229	3	3	2039	53	210428	-54	0										7						32												
WM080112	139637_fnca	1	1	1	1470184087	1	75.031	75.031	2.0.10.147	2.0.10.242	2.0.10.242	1.0.0.439	7	234	2	3	Verdana	1	80	0	0	0	WM Stimuli\	0.9	1150.33333333333	0.8	1071.375	1	1172	1	814.6	0.5	998.6	1	721.4	0.8	1318.875	0.8	792.625	12	404360	3	404349	27	39	404387	-999999	404363	0	8	TrialsPROC	TO_005_TOOL5_BA.png	1	2	33	SessionSelectionList														nonlure	3	Tools	2-Back	29	80	28	0	0	100	2	39	212973	2	14	59	210934	-1	212790	1	1856	3	3	2039	53	212987	-54	0										8						33												
WM080112	139637_fnca	1	1	1	1470184087	1	75.031	75.031	2.0.10.147	2.0.10.242	2.0.10.242	1.0.0.439	7	234	2	3	Verdana	1	80	0	0	0	WM Stimuli\	0.9	1150.33333333333	0.8	1071.375	1	1172	1	814.6	0.5	998.6	1	721.4	0.8	1318.875	0.8	792.625	12	404360	3	404349	27	39	404387	-999999	404363	0	8	TrialsPROC	TO_006_TOOL6_BA.png	1	2	34	SessionSelectionList														target	2	Tools	2-Back	30	80	29	0	0	100	1	39	215532	2	14	59	213493	-1	214385	1	892	2	2	2039	53	215546	-54	0										9						34												
WM080112	139637_fnca	1	1	1	1470184087	1	75.031	75.031	2.0.10.147	2.0.10.242	2.0.10.242	1.0.0.439	7	234	2	3	Verdana	1	80	0	0	0	WM Stimuli\	0.9	1150.33333333333	0.8	1071.375	1	1172	1	814.6	0.5	998.6	1	721.4	0.8	1318.875	0.8	792.625	12	404360	3	404349	27	39	404387	-999999	404363	0	8	TrialsPROC	TO_003_TOOL3_BA.png	1	2	35	SessionSelectionList														nonlure	3	Tools	2-Back	31	80	30	0	0	100	1	39	218091	2	14	59	216052	-1	216849	1	797	3	3	2039	53	218105	-54	0										10						35												
WM080112	139637_fnca	1	1	1	1470184087	1	75.031	75.031	2.0.10.147	2.0.10.242	2.0.10.242	1.0.0.439	7	234	2	3	Verdana	1	80	0	0	0	WM Stimuli\	0.9	1150.33333333333	0.8	1071.375	1	1172	1	814.6	0.5	998.6	1	721.4	0.8	1318.875	0.8	792.625	12	404360	3	404349	27	39	404387	-999999	404363	0	9	Cue0BackPROC	BP_007_BP20_BA.png	1	2	36	SessionSelectionList																																										19	218571	-20	0												36												
WM080112	139637_fnca	1	1	1	1470184087	1	75.031	75.031	2.0.10.147	2.0.10.242	2.0.10.242	1.0.0.439	7	234	2	3	Verdana	1	80	0	0	0	WM Stimuli\	0.9	1150.33333333333	0.8	1071.375	1	1172	1	814.6	0.5	998.6	1	721.4	0.8	1318.875	0.8	792.625	12	404360	3	404349	27	39	404387	-999999	404363	0	10	TrialsPROC	BP_007_BP20_BA.png	1	2	37	SessionSelectionList														target	2	Body	0-Back	32	80	31	0	0	100	1	39	223142	2	14	51	221103	-1	222925	1	1822	2	2	2039	53	223156	-54	0											1					37												
WM080112	139637_fnca	1	1	1	1470184087	1	75.031	75.031	2.0.10.147	2.0.10.242	2.0.10.242	1.0.0.439	7	234	2	3	Verdana	1	80	0	0	0	WM Stimuli\	0.9	1150.33333333333	0.8	1071.375	1	1172	1	814.6	0.5	998.6	1	721.4	0.8	1318.875	0.8	792.625	12	404360	3	404349	27	39	404387	-999999	404363	0	10	TrialsPROC	BP_011_BP4_BA.png	1	2	38	SessionSelectionList														nonlure	3	Body	0-Back	33	80	32	0	0	100	1	39	225715	1	14	73	223676	-1	224327	1	651	3	3	2039	53	225729	-54	0											2					38												
WM080112	139637_fnca	1	1	1	1470184087	1	75.031	75.031	2.0.10.147	2.0.10.242	2.0.10.242	1.0.0.439	7	234	2	3	Verdana	1	80	0	0	0	WM Stimuli\	0.9	1150.33333333333	0.8	1071.375	1	1172	1	814.6	0.5	998.6	1	721.4	0.8	1318.875	0.8	792.625	12	404360	3	404349	27	39	404387	-999999	404363	0	10	TrialsPROC	BP_010_BP3_BA.png	1	2	39	SessionSelectionList														nonlure	3	Body	0-Back	34	80	33	0	0	100	2	39	228274	1	13	59	226235	-1	227180	1	945	3	3	2039	52	228287	-53	0											3					39												
WM080112	139637_fnca	1	1	1	1470184087	1	75.031	75.031	2.0.10.147	2.0.10.242	2.0.10.242	1.0.0.439	7	234	2	3	Verdana	1	80	0	0	0	WM Stimuli\	0.9	1150.33333333333	0.8	1071.375	1	1172	1	814.6	0.5	998.6	1	721.4	0.8	1318.875	0.8	792.625	12	404360	3	404349	27	39	404387	-999999	404363	0	10	TrialsPROC	BP_008_BP21_BA.png	1	2	40	SessionSelectionList														nonlure	3	Body	0-Back	35	80	34	0	0	100	3	40	230833	1	13	58	228793	-1	229606	1	813	3	3	2040	53	230846	-54	0											4					40												
WM080112	139637_fnca	1	1	1	1470184087	1	75.031	75.031	2.0.10.147	2.0.10.242	2.0.10.242	1.0.0.439	7	234	2	3	Verdana	1	80	0	0	0	WM Stimuli\	0.9	1150.33333333333	0.8	1071.375	1	1172	1	814.6	0.5	998.6	1	721.4	0.8	1318.875	0.8	792.625	12	404360	3	404349	27	39	404387	-999999	404363	0	10	TrialsPROC	BP_011_BP4_BA.png	1	2	41	SessionSelectionList														lure	3	Body	0-Back	36	80	34	0	1	93	3	39	233405	1	14	73	231366	-1	0	0	0	""	3	2039	53	233419	-54	0											5					41												
WM080112	139637_fnca	1	1	1	1470184087	1	75.031	75.031	2.0.10.147	2.0.10.242	2.0.10.242	1.0.0.439	7	234	2	3	Verdana	1	80	0	0	0	WM Stimuli\	0.9	1150.33333333333	0.8	1071.375	1	1172	1	814.6	0.5	998.6	1	721.4	0.8	1318.875	0.8	792.625	12	404360	3	404349	27	39	404387	-999999	404363	0	10	TrialsPROC	BP_009_BP22_BA.png	1	2	42	SessionSelectionList														nonlure	3	Body	0-Back	37	80	35	0	0	94	1	39	235964	1	14	59	233925	-1	234789	1	864	3	3	2039	53	235978	-54	0											6					42												
WM080112	139637_fnca	1	1	1	1470184087	1	75.031	75.031	2.0.10.147	2.0.10.242	2.0.10.242	1.0.0.439	7	234	2	3	Verdana	1	80	0	0	0	WM Stimuli\	0.9	1150.33333333333	0.8	1071.375	1	1172	1	814.6	0.5	998.6	1	721.4	0.8	1318.875	0.8	792.625	12	404360	3	404349	27	39	404387	-999999	404363	0	10	TrialsPROC	BP_009_BP22_BA.png	1	2	43	SessionSelectionList														lure	3	Body	0-Back	38	80	36	0	0	94	2	39	238523	1	14	59	236484	-1	237431	1	947	3	3	2039	53	238537	-54	0											7					43												
WM080112	139637_fnca	1	1	1	1470184087	1	75.031	75.031	2.0.10.147	2.0.10.242	2.0.10.242	1.0.0.439	7	234	2	3	Verdana	1	80	0	0	0	WM Stimuli\	0.9	1150.33333333333	0.8	1071.375	1	1172	1	814.6	0.5	998.6	1	721.4	0.8	1318.875	0.8	792.625	12	404360	3	404349	27	39	404387	-999999	404363	0	10	TrialsPROC	BP_008_BP21_BA.png	1	2	44	SessionSelectionList														lure	3	Body	0-Back	39	80	37	0	0	94	3	39	241082	1	13	59	239043	-1	240264	1	1221	3	3	2039	52	241095	-53	0											8					44												
WM080112	139637_fnca	1	1	1	1470184087	1	75.031	75.031	2.0.10.147	2.0.10.242	2.0.10.242	1.0.0.439	7	234	2	3	Verdana	1	80	0	0	0	WM Stimuli\	0.9	1150.33333333333	0.8	1071.375	1	1172	1	814.6	0.5	998.6	1	721.4	0.8	1318.875	0.8	792.625	12	404360	3	404349	27	39	404387	-999999	404363	0	10	TrialsPROC	BP_007_BP20_BA.png	1	2	45	SessionSelectionList														target	2	Body	0-Back	40	80	38	0	0	89	4	40	243641	1	13	58	241601	-1	242620	0	1019	3	2	2040	53	243654	-54	0											9					45												
WM080112	139637_fnca	1	1	1	1470184087	1	75.031	75.031	2.0.10.147	2.0.10.242	2.0.10.242	1.0.0.439	7	234	2	3	Verdana	1	80	0	0	0	WM Stimuli\	0.9	1150.33333333333	0.8	1071.375	1	1172	1	814.6	0.5	998.6	1	721.4	0.8	1318.875	0.8	792.625	12	404360	3	404349	27	39	404387	-999999	404363	0	10	TrialsPROC	BP_012_BP5_BA.png	1	2	46	SessionSelectionList														nonlure	3	Body	0-Back	41	80	39	0	0	90	5	39	246200	1	13	60	244161	-1	245469	1	1308	3	3	2039	52	246213	-53	0											10					46												
WM080112	139637_fnca	1	1	1	1470184087	1	75.031	75.031	2.0.10.147	2.0.10.242	2.0.10.242	1.0.0.439	7	234	2	3	Verdana	1	80	0	0	0	WM Stimuli\	0.9	1150.33333333333	0.8	1071.375	1	1172	1	814.6	0.5	998.6	1	721.4	0.8	1318.875	0.8	792.625	12	404360	3	404349	27	39	404387	-999999	404363	0	11	Fix15secPROC	""	1	2	47	SessionSelectionList																																															5	246666	-6	0							47												
WM080112	139637_fnca	1	1	1	1470184087	1	75.031	75.031	2.0.10.147	2.0.10.242	2.0.10.242	1.0.0.439	7	234	2	3	Verdana	1	80	0	0	0	WM Stimuli\	0.9	1150.33333333333	0.8	1071.375	1	1172	1	814.6	0.5	998.6	1	721.4	0.8	1318.875	0.8	792.625	12	404360	3	404349	27	39	404387	-999999	404363	0	12	Cue0BackPROC	PL_001_92012.png	1	2	48	SessionSelectionList																																										12	261673	-13	0												48												
WM080112	139637_fnca	1	1	1	1470184087	1	75.031	75.031	2.0.10.147	2.0.10.242	2.0.10.242	1.0.0.439	7	234	2	3	Verdana	1	80	0	0	0	WM Stimuli\	0.9	1150.33333333333	0.8	1071.375	1	1172	1	814.6	0.5	998.6	1	721.4	0.8	1318.875	0.8	792.625	12	404360	3	404349	27	39	404387	-999999	404363	0	13	TrialsPROC	PL_003_92016.png	1	2	49	SessionSelectionList														nonlure	3	Place	0-Back	42	80	40	0	0	90	6	39	266271	2	14	71	264232	-1	265017	1	785	3	3	2039	53	266285	-54	0												1				49												
WM080112	139637_fnca	1	1	1	1470184087	1	75.031	75.031	2.0.10.147	2.0.10.242	2.0.10.242	1.0.0.439	7	234	2	3	Verdana	1	80	0	0	0	WM Stimuli\	0.9	1150.33333333333	0.8	1071.375	1	1172	1	814.6	0.5	998.6	1	721.4	0.8	1318.875	0.8	792.625	12	404360	3	404349	27	39	404387	-999999	404363	0	13	TrialsPROC	PL_003_92016.png	1	2	50	SessionSelectionList														lure	3	Place	0-Back	43	80	41	0	0	91	7	39	268843	2	14	72	266804	-1	267559	1	755	3	3	2039	53	268857	-54	0												2				50												
WM080112	139637_fnca	1	1	1	1470184087	1	75.031	75.031	2.0.10.147	2.0.10.242	2.0.10.242	1.0.0.439	7	234	2	3	Verdana	1	80	0	0	0	WM Stimuli\	0.9	1150.33333333333	0.8	1071.375	1	1172	1	814.6	0.5	998.6	1	721.4	0.8	1318.875	0.8	792.625	12	404360	3	404349	27	39	404387	-999999	404363	0	13	TrialsPROC	PL_006_92025.png	1	2	51	SessionSelectionList														nonlure	3	Place	0-Back	44	80	42	0	0	91	8	39	271416	1	13	73	269377	-1	269996	1	619	3	3	2039	52	271429	-53	0												3				51												
WM080112	139637_fnca	1	1	1	1470184087	1	75.031	75.031	2.0.10.147	2.0.10.242	2.0.10.242	1.0.0.439	7	234	2	3	Verdana	1	80	0	0	0	WM Stimuli\	0.9	1150.33333333333	0.8	1071.375	1	1172	1	814.6	0.5	998.6	1	721.4	0.8	1318.875	0.8	792.625	12	404360	3	404349	27	39	404387	-999999	404363	0	13	TrialsPROC	PL_001_92012.png	1	2	52	SessionSelectionList														target	2	Place	0-Back	45	80	43	0	0	92	1	39	273988	1	14	72	271949	-1	272535	1	586	2	2	2039	53	274002	-54	0												4				52												
WM080112	139637_fnca	1	1	1	1470184087	1	75.031	75.031	2.0.10.147	2.0.10.242	2.0.10.242	1.0.0.439	7	234	2	3	Verdana	1	80	0	0	0	WM Stimuli\	0.9	1150.33333333333	0.8	1071.375	1	1172	1	814.6	0.5	998.6	1	721.4	0.8	1318.875	0.8	792.625	12	404360	3	404349	27	39	404387	-999999	404363	0	13	TrialsPROC	PL_004_92023.png	1	2	53	SessionSelectionList														nonlure	3	Place	0-Back	46	80	44	0	0	92	1	39	276560	2	14	72	274521	-1	275254	1	733	3	3	2039	53	276574	-54	0												5				53												
WM080112	139637_fnca	1	1	1	1470184087	1	75.031	75.031	2.0.10.147	2.0.10.242	2.0.10.242	1.0.0.439	7	234	2	3	Verdana	1	80	0	0	0	WM Stimuli\	0.9	1150.33333333333	0.8	1071.375	1	1172	1	814.6	0.5	998.6	1	721.4	0.8	1318.875	0.8	792.625	12	404360	3	404349	27	39	404387	-999999	404363	0	13	TrialsPROC	PL_005_92024.png	1	2	54	SessionSelectionList														nonlure	3	Place	0-Back	47	80	45	0	0	92	2	39	279132	2	14	72	277093	-1	277853	1	760	3	3	2039	53	279146	-54	0												6				54												
WM080112	139637_fnca	1	1	1	1470184087	1	75.031	75.031	2.0.10.147	2.0.10.242	2.0.10.242	1.0.0.439	7	234	2	3	Verdana	1	80	0	0	0	WM Stimuli\	0.9	1150.33333333333	0.8	1071.375	1	1172	1	814.6	0.5	998.6	1	721.4	0.8	1318.875	0.8	792.625	12	404360	3	404349	27	39	404387	-999999	404363	0	13	TrialsPROC	PL_001_92012.png	1	2	55	SessionSelectionList														target	2	Place	0-Back	48	80	46	0	0	93	1	39	281705	1	13	73	279666	-1	280283	1	617	2	2	2039	52	281718	-53	0												7				55												
WM080112	139637_fnca	1	1	1	1470184087	1	75.031	75.031	2.0.10.147	2.0.10.242	2.0.10.242	1.0.0.439	7	234	2	3	Verdana	1	80	0	0	0	WM Stimuli\	0.9	1150.33333333333	0.8	1071.375	1	1172	1	814.6	0.5	998.6	1	721.4	0.8	1318.875	0.8	792.625	12	404360	3	404349	27	39	404387	-999999	404363	0	13	TrialsPROC	PL_002_92014.png	1	2	56	SessionSelectionList														nonlure	3	Place	0-Back	49	80	47	0	0	93	1	39	284277	1	14	72	282238	-1	282861	1	623	3	3	2039	53	284291	-54	0												8				56												
WM080112	139637_fnca	1	1	1	1470184087	1	75.031	75.031	2.0.10.147	2.0.10.242	2.0.10.242	1.0.0.439	7	234	2	3	Verdana	1	80	0	0	0	WM Stimuli\	0.9	1150.33333333333	0.8	1071.375	1	1172	1	814.6	0.5	998.6	1	721.4	0.8	1318.875	0.8	792.625	12	404360	3	404349	27	39	404387	-999999	404363	0	13	TrialsPROC	PL_004_92023.png	1	2	57	SessionSelectionList														lure	3	Place	0-Back	50	80	48	0	0	93	2	39	286849	2	14	72	284810	-1	285361	1	551	3	3	2039	53	286863	-54	0												9				57												
WM080112	139637_fnca	1	1	1	1470184087	1	75.031	75.031	2.0.10.147	2.0.10.242	2.0.10.242	1.0.0.439	7	234	2	3	Verdana	1	80	0	0	0	WM Stimuli\	0.9	1150.33333333333	0.8	1071.375	1	1172	1	814.6	0.5	998.6	1	721.4	0.8	1318.875	0.8	792.625	12	404360	3	404349	27	39	404387	-999999	404363	0	13	TrialsPROC	PL_006_92025.png	1	2	58	SessionSelectionList														lure	3	Place	0-Back	51	80	49	0	0	93	3	39	289421	2	14	72	287382	-1	288567	1	1185	3	3	2039	53	289435	-54	0												10				58												
WM080112	139637_fnca	1	1	1	1470184087	1	75.031	75.031	2.0.10.147	2.0.10.242	2.0.10.242	1.0.0.439	7	234	2	3	Verdana	1	80	0	0	0	WM Stimuli\	0.9	1150.33333333333	0.8	1071.375	1	1172	1	814.6	0.5	998.6	1	721.4	0.8	1318.875	0.8	792.625	12	404360	3	404349	27	39	404387	-999999	404363	0	14	Cue2BackPROC	""	1	2	59	SessionSelectionList									6	289888	-7	0																																													59												
WM080112	139637_fnca	1	1	1	1470184087	1	75.031	75.031	2.0.10.147	2.0.10.242	2.0.10.242	1.0.0.439	7	234	2	3	Verdana	1	80	0	0	0	WM Stimuli\	0.9	1150.33333333333	0.8	1071.375	1	1172	1	814.6	0.5	998.6	1	721.4	0.8	1318.875	0.8	792.625	12	404360	3	404349	27	39	404387	-999999	404363	0	15	TrialsPROC	FC_010_F5.png	1	2	60	SessionSelectionList														nonlure	3	Face	2-Back	52	80	50	0	0	93	4	39	294486	1	14	65	292447	-1	294305	1	1858	3	3	2039	53	294500	-54	0													1			60												
WM080112	139637_fnca	1	1	1	1470184087	1	75.031	75.031	2.0.10.147	2.0.10.242	2.0.10.242	1.0.0.439	7	234	2	3	Verdana	1	80	0	0	0	WM Stimuli\	0.9	1150.33333333333	0.8	1071.375	1	1172	1	814.6	0.5	998.6	1	721.4	0.8	1318.875	0.8	792.625	12	404360	3	404349	27	39	404387	-999999	404363	0	15	TrialsPROC	FC_012_F6.png	1	2	61	SessionSelectionList														nonlure	3	Face	2-Back	53	80	51	0	0	93	5	39	297058	2	14	72	295019	-1	296255	1	1236	3	3	2039	53	297072	-54	0													2			61												
WM080112	139637_fnca	1	1	1	1470184087	1	75.031	75.031	2.0.10.147	2.0.10.242	2.0.10.242	1.0.0.439	7	234	2	3	Verdana	1	80	0	0	0	WM Stimuli\	0.9	1150.33333333333	0.8	1071.375	1	1172	1	814.6	0.5	998.6	1	721.4	0.8	1318.875	0.8	792.625	12	404360	3	404349	27	39	404387	-999999	404363	0	15	TrialsPROC	FC_010_F5.png	1	2	62	SessionSelectionList														target	2	Face	2-Back	54	80	52	0	0	93	1	40	299631	1	13	72	297591	-1	298232	1	641	2	2	2040	53	299644	-54	0													3			62												
WM080112	139637_fnca	1	1	1	1470184087	1	75.031	75.031	2.0.10.147	2.0.10.242	2.0.10.242	1.0.0.439	7	234	2	3	Verdana	1	80	0	0	0	WM Stimuli\	0.9	1150.33333333333	0.8	1071.375	1	1172	1	814.6	0.5	998.6	1	721.4	0.8	1318.875	0.8	792.625	12	404360	3	404349	27	39	404387	-999999	404363	0	15	TrialsPROC	FC_008_F4.png	1	2	63	SessionSelectionList														nonlure	3	Face	2-Back	55	80	53	0	0	93	1	39	302203	1	14	73	300164	-1	301098	1	934	3	3	2039	53	302217	-54	0													4			63												
WM080112	139637_fnca	1	1	1	1470184087	1	75.031	75.031	2.0.10.147	2.0.10.242	2.0.10.242	1.0.0.439	7	234	2	3	Verdana	1	80	0	0	0	WM Stimuli\	0.9	1150.33333333333	0.8	1071.375	1	1172	1	814.6	0.5	998.6	1	721.4	0.8	1318.875	0.8	792.625	12	404360	3	404349	27	39	404387	-999999	404363	0	15	TrialsPROC	FC_012_F6.png	1	2	64	SessionSelectionList														lure	3	Face	2-Back	56	80	54	0	0	93	2	39	304775	1	14	72	302736	-1	304477	1	1741	3	3	2039	53	304789	-54	0													5			64												
WM080112	139637_fnca	1	1	1	1470184087	1	75.031	75.031	2.0.10.147	2.0.10.242	2.0.10.242	1.0.0.439	7	234	2	3	Verdana	1	80	0	0	0	WM Stimuli\	0.9	1150.33333333333	0.8	1071.375	1	1172	1	814.6	0.5	998.6	1	721.4	0.8	1318.875	0.8	792.625	12	404360	3	404349	27	39	404387	-999999	404363	0	15	TrialsPROC	FC_008_F4.png	1	2	65	SessionSelectionList														target	2	Face	2-Back	57	80	55	0	0	93	1	39	307347	2	14	72	305308	-1	306604	1	1296	2	2	2039	53	307361	-54	0													6			65												
WM080112	139637_fnca	1	1	1	1470184087	1	75.031	75.031	2.0.10.147	2.0.10.242	2.0.10.242	1.0.0.439	7	234	2	3	Verdana	1	80	0	0	0	WM Stimuli\	0.9	1150.33333333333	0.8	1071.375	1	1172	1	814.6	0.5	998.6	1	721.4	0.8	1318.875	0.8	792.625	12	404360	3	404349	27	39	404387	-999999	404363	0	15	TrialsPROC	FC_007_M4.png	1	2	66	SessionSelectionList														nonlure	3	Face	2-Back	58	80	56	0	0	93	1	40	309920	1	13	72	307880	-1	308815	1	935	3	3	2040	53	309933	-54	0													7			66												
WM080112	139637_fnca	1	1	1	1470184087	1	75.031	75.031	2.0.10.147	2.0.10.242	2.0.10.242	1.0.0.439	7	234	2	3	Verdana	1	80	0	0	0	WM Stimuli\	0.9	1150.33333333333	0.8	1071.375	1	1172	1	814.6	0.5	998.6	1	721.4	0.8	1318.875	0.8	792.625	12	404360	3	404349	27	39	404387	-999999	404363	0	15	TrialsPROC	FC_007_M4.png	1	2	67	SessionSelectionList														lure	3	Face	2-Back	59	80	57	0	0	93	2	39	312492	1	14	73	310453	-1	311617	1	1164	3	3	2039	53	312506	-54	0													8			67												
WM080112	139637_fnca	1	1	1	1470184087	1	75.031	75.031	2.0.10.147	2.0.10.242	2.0.10.242	1.0.0.439	7	234	2	3	Verdana	1	80	0	0	0	WM Stimuli\	0.9	1150.33333333333	0.8	1071.375	1	1172	1	814.6	0.5	998.6	1	721.4	0.8	1318.875	0.8	792.625	12	404360	3	404349	27	39	404387	-999999	404363	0	15	TrialsPROC	FC_009_M5.png	1	2	68	SessionSelectionList														nonlure	3	Face	2-Back	60	80	58	0	0	93	3	39	315064	2	14	72	313025	-1	314015	1	990	3	3	2039	53	315078	-54	0													9			68												
WM080112	139637_fnca	1	1	1	1470184087	1	75.031	75.031	2.0.10.147	2.0.10.242	2.0.10.242	1.0.0.439	7	234	2	3	Verdana	1	80	0	0	0	WM Stimuli\	0.9	1150.33333333333	0.8	1071.375	1	1172	1	814.6	0.5	998.6	1	721.4	0.8	1318.875	0.8	792.625	12	404360	3	404349	27	39	404387	-999999	404363	0	15	TrialsPROC	FC_011_M6.png	1	2	69	SessionSelectionList														nonlure	3	Face	2-Back	61	80	59	0	0	93	4	39	317636	2	14	72	315597	-1	316522	1	925	3	3	2039	53	317650	-54	0													10			69												
WM080112	139637_fnca	1	1	1	1470184087	1	75.031	75.031	2.0.10.147	2.0.10.242	2.0.10.242	1.0.0.439	7	234	2	3	Verdana	1	80	0	0	0	WM Stimuli\	0.9	1150.33333333333	0.8	1071.375	1	1172	1	814.6	0.5	998.6	1	721.4	0.8	1318.875	0.8	792.625	12	404360	3	404349	27	39	404387	-999999	404363	0	16	Fix15secPROC	""	1	2	70	SessionSelectionList																																															6	318103	-7	0							70												
WM080112	139637_fnca	1	1	1	1470184087	1	75.031	75.031	2.0.10.147	2.0.10.242	2.0.10.242	1.0.0.439	7	234	2	3	Verdana	1	80	0	0	0	WM Stimuli\	0.9	1150.33333333333	0.8	1071.375	1	1172	1	814.6	0.5	998.6	1	721.4	0.8	1318.875	0.8	792.625	12	404360	3	404349	27	39	404387	-999999	404363	0	17	Cue0BackPROC	TO_007_TOOL7_BA.png	1	2	71	SessionSelectionList																																										13	333110	-14	0												71												
WM080112	139637_fnca	1	1	1	1470184087	1	75.031	75.031	2.0.10.147	2.0.10.242	2.0.10.242	1.0.0.439	7	234	2	3	Verdana	1	80	0	0	0	WM Stimuli\	0.9	1150.33333333333	0.8	1071.375	1	1172	1	814.6	0.5	998.6	1	721.4	0.8	1318.875	0.8	792.625	12	404360	3	404349	27	39	404387	-999999	404363	0	18	TrialsPROC	TO_010_TOOL10_BA.png	1	2	72	SessionSelectionList														nonlure	3	Tools	0-Back	62	80	60	0	0	94	5	39	337695	1	13	59	335656	-1	336489	1	833	3	3	2039	52	337708	-53	0														1		72												
WM080112	139637_fnca	1	1	1	1470184087	1	75.031	75.031	2.0.10.147	2.0.10.242	2.0.10.242	1.0.0.439	7	234	2	3	Verdana	1	80	0	0	0	WM Stimuli\	0.9	1150.33333333333	0.8	1071.375	1	1172	1	814.6	0.5	998.6	1	721.4	0.8	1318.875	0.8	792.625	12	404360	3	404349	27	39	404387	-999999	404363	0	18	TrialsPROC	TO_009_TOOL9_BA.png	1	2	73	SessionSelectionList														nonlure	3	Tools	0-Back	63	80	61	0	0	94	6	40	340254	1	13	58	338214	-1	338769	1	555	3	3	2040	53	340267	-54	0														2		73												
WM080112	139637_fnca	1	1	1	1470184087	1	75.031	75.031	2.0.10.147	2.0.10.242	2.0.10.242	1.0.0.439	7	234	2	3	Verdana	1	80	0	0	0	WM Stimuli\	0.9	1150.33333333333	0.8	1071.375	1	1172	1	814.6	0.5	998.6	1	721.4	0.8	1318.875	0.8	792.625	12	404360	3	404349	27	39	404387	-999999	404363	0	18	TrialsPROC	TO_009_TOOL9_BA.png	1	2	74	SessionSelectionList														lure	3	Tools	0-Back	64	80	62	0	0	94	7	39	342813	1	13	60	340774	-1	341595	1	821	3	3	2039	52	342826	-53	0														3		74												
WM080112	139637_fnca	1	1	1	1470184087	1	75.031	75.031	2.0.10.147	2.0.10.242	2.0.10.242	1.0.0.439	7	234	2	3	Verdana	1	80	0	0	0	WM Stimuli\	0.9	1150.33333333333	0.8	1071.375	1	1172	1	814.6	0.5	998.6	1	721.4	0.8	1318.875	0.8	792.625	12	404360	3	404349	27	39	404387	-999999	404363	0	18	TrialsPROC	TO_008_TOOL8_BA.png	1	2	75	SessionSelectionList														nonlure	3	Tools	0-Back	65	80	63	0	0	94	8	40	345372	1	13	58	343332	-1	344396	1	1064	3	3	2040	53	345385	-54	0														4		75												
WM080112	139637_fnca	1	1	1	1470184087	1	75.031	75.031	2.0.10.147	2.0.10.242	2.0.10.242	1.0.0.439	7	234	2	3	Verdana	1	80	0	0	0	WM Stimuli\	0.9	1150.33333333333	0.8	1071.375	1	1172	1	814.6	0.5	998.6	1	721.4	0.8	1318.875	0.8	792.625	12	404360	3	404349	27	39	404387	-999999	404363	0	18	TrialsPROC	TO_011_TOOL11_BA.png	1	2	76	SessionSelectionList														nonlure	3	Tools	0-Back	66	80	64	0	0	94	9	39	347930	2	14	59	345891	-1	346551	1	660	3	3	2039	53	347944	-54	0														5		76												
WM080112	139637_fnca	1	1	1	1470184087	1	75.031	75.031	2.0.10.147	2.0.10.242	2.0.10.242	1.0.0.439	7	234	2	3	Verdana	1	80	0	0	0	WM Stimuli\	0.9	1150.33333333333	0.8	1071.375	1	1172	1	814.6	0.5	998.6	1	721.4	0.8	1318.875	0.8	792.625	12	404360	3	404349	27	39	404387	-999999	404363	0	18	TrialsPROC	TO_012_TOOL12_BA.png	1	2	77	SessionSelectionList														nonlure	3	Tools	0-Back	67	80	65	0	0	94	10	39	350489	2	14	59	348450	-1	349124	1	674	3	3	2039	53	350503	-54	0														6		77												
WM080112	139637_fnca	1	1	1	1470184087	1	75.031	75.031	2.0.10.147	2.0.10.242	2.0.10.242	1.0.0.439	7	234	2	3	Verdana	1	80	0	0	0	WM Stimuli\	0.9	1150.33333333333	0.8	1071.375	1	1172	1	814.6	0.5	998.6	1	721.4	0.8	1318.875	0.8	792.625	12	404360	3	404349	27	39	404387	-999999	404363	0	18	TrialsPROC	TO_010_TOOL10_BA.png	1	2	78	SessionSelectionList														lure	3	Tools	0-Back	68	80	66	0	0	92	1	39	353048	2	14	59	351009	-1	351855	0	846	2	3	2039	53	353062	-54	0														7		78												
WM080112	139637_fnca	1	1	1	1470184087	1	75.031	75.031	2.0.10.147	2.0.10.242	2.0.10.242	1.0.0.439	7	234	2	3	Verdana	1	80	0	0	0	WM Stimuli\	0.9	1150.33333333333	0.8	1071.375	1	1172	1	814.6	0.5	998.6	1	721.4	0.8	1318.875	0.8	792.625	12	404360	3	404349	27	39	404387	-999999	404363	0	18	TrialsPROC	TO_007_TOOL7_BA.png	1	2	79	SessionSelectionList														target	2	Tools	0-Back	69	80	67	0	0	89	1	39	355607	2	14	59	353568	-1	354820	0	1252	3	2	2039	53	355621	-54	0														8		79												
WM080112	139637_fnca	1	1	1	1470184087	1	75.031	75.031	2.0.10.147	2.0.10.242	2.0.10.242	1.0.0.439	7	234	2	3	Verdana	1	80	0	0	0	WM Stimuli\	0.9	1150.33333333333	0.8	1071.375	1	1172	1	814.6	0.5	998.6	1	721.4	0.8	1318.875	0.8	792.625	12	404360	3	404349	27	39	404387	-999999	404363	0	18	TrialsPROC	TO_008_TOOL8_BA.png	1	2	80	SessionSelectionList														lure	3	Tools	0-Back	70	80	68	0	0	90	2	39	358166	3	14	59	356127	-1	356919	1	792	3	3	2039	53	358180	-54	0														9		80												
WM080112	139637_fnca	1	1	1	1470184087	1	75.031	75.031	2.0.10.147	2.0.10.242	2.0.10.242	1.0.0.439	7	234	2	3	Verdana	1	80	0	0	0	WM Stimuli\	0.9	1150.33333333333	0.8	1071.375	1	1172	1	814.6	0.5	998.6	1	721.4	0.8	1318.875	0.8	792.625	12	404360	3	404349	27	39	404387	-999999	404363	0	18	TrialsPROC	TO_007_TOOL7_BA.png	1	2	81	SessionSelectionList														target	2	Tools	0-Back	71	80	69	0	0	90	1	39	360725	2	14	59	358686	-1	359628	1	942	2	2	2039	53	360739	-54	0														10		81												
WM080112	139637_fnca	1	1	1	1470184087	1	75.031	75.031	2.0.10.147	2.0.10.242	2.0.10.242	1.0.0.439	7	234	2	3	Verdana	1	80	0	0	0	WM Stimuli\	0.9	1150.33333333333	0.8	1071.375	1	1172	1	814.6	0.5	998.6	1	721.4	0.8	1318.875	0.8	792.625	12	404360	3	404349	27	39	404387	-999999	404363	0	19	Cue2BackPROC	""	1	2	82	SessionSelectionList									6	361192	-7	0																																													82												
WM080112	139637_fnca	1	1	1	1470184087	1	75.031	75.031	2.0.10.147	2.0.10.242	2.0.10.242	1.0.0.439	7	234	2	3	Verdana	1	80	0	0	0	WM Stimuli\	0.9	1150.33333333333	0.8	1071.375	1	1172	1	814.6	0.5	998.6	1	721.4	0.8	1318.875	0.8	792.625	12	404360	3	404349	27	39	404387	-999999	404363	0	20	TrialsPROC	PL_007_92026.png	1	2	83	SessionSelectionList														nonlure	3	Place	2-Back	72	80	69	0	1	90	1	39	365790	1	13	65	363751	-1	0	0	0	""	3	2039	52	365803	-53	0															1	83												
WM080112	139637_fnca	1	1	1	1470184087	1	75.031	75.031	2.0.10.147	2.0.10.242	2.0.10.242	1.0.0.439	7	234	2	3	Verdana	1	80	0	0	0	WM Stimuli\	0.9	1150.33333333333	0.8	1071.375	1	1172	1	814.6	0.5	998.6	1	721.4	0.8	1318.875	0.8	792.625	12	404360	3	404349	27	39	404387	-999999	404363	0	20	TrialsPROC	PL_007_92026.png	1	2	84	SessionSelectionList														lure	3	Place	2-Back	73	80	70	0	0	90	1	39	368362	1	14	72	366323	-1	367509	0	1186	2	3	2039	53	368376	-54	0															2	84												
WM080112	139637_fnca	1	1	1	1470184087	1	75.031	75.031	2.0.10.147	2.0.10.242	2.0.10.242	1.0.0.439	7	234	2	3	Verdana	1	80	0	0	0	WM Stimuli\	0.9	1150.33333333333	0.8	1071.375	1	1172	1	814.6	0.5	998.6	1	721.4	0.8	1318.875	0.8	792.625	12	404360	3	404349	27	39	404387	-999999	404363	0	20	TrialsPROC	PL_010_92038.png	1	2	85	SessionSelectionList														nonlure	3	Place	2-Back	74	80	70	0	1	90	1	39	370934	2	14	72	368895	-1	0	0	0	""	3	2039	53	370948	-54	0															3	85												
WM080112	139637_fnca	1	1	1	1470184087	1	75.031	75.031	2.0.10.147	2.0.10.242	2.0.10.242	1.0.0.439	7	234	2	3	Verdana	1	80	0	0	0	WM Stimuli\	0.9	1150.33333333333	0.8	1071.375	1	1172	1	814.6	0.5	998.6	1	721.4	0.8	1318.875	0.8	792.625	12	404360	3	404349	27	39	404387	-999999	404363	0	20	TrialsPROC	PL_009_92037.png	1	2	86	SessionSelectionList														nonlure	3	Place	2-Back	75	80	71	0	0	90	1	39	373493	2	14	59	371454	-1	372844	1	1390	3	3	2039	53	373507	-54	0															4	86												
WM080112	139637_fnca	1	1	1	1470184087	1	75.031	75.031	2.0.10.147	2.0.10.242	2.0.10.242	1.0.0.439	7	234	2	3	Verdana	1	80	0	0	0	WM Stimuli\	0.9	1150.33333333333	0.8	1071.375	1	1172	1	814.6	0.5	998.6	1	721.4	0.8	1318.875	0.8	792.625	12	404360	3	404349	27	39	404387	-999999	404363	0	20	TrialsPROC	PL_010_92038.png	1	2	87	SessionSelectionList														target	2	Place	2-Back	76	80	72	0	0	90	2	39	376052	2	14	59	374013	-1	375219	0	1206	3	2	2039	53	376066	-54	0															5	87												
WM080112	139637_fnca	1	1	1	1470184087	1	75.031	75.031	2.0.10.147	2.0.10.242	2.0.10.242	1.0.0.439	7	234	2	3	Verdana	1	80	0	0	0	WM Stimuli\	0.9	1150.33333333333	0.8	1071.375	1	1172	1	814.6	0.5	998.6	1	721.4	0.8	1318.875	0.8	792.625	12	404360	3	404349	27	39	404387	-999999	404363	0	20	TrialsPROC	PL_009_92037.png	1	2	88	SessionSelectionList														target	2	Place	2-Back	77	80	73	0	0	90	3	39	378624	2	14	72	376585	-1	377770	0	1185	3	2	2039	53	378638	-54	0															6	88												
WM080112	139637_fnca	1	1	1	1470184087	1	75.031	75.031	2.0.10.147	2.0.10.242	2.0.10.242	1.0.0.439	7	234	2	3	Verdana	1	80	0	0	0	WM Stimuli\	0.9	1150.33333333333	0.8	1071.375	1	1172	1	814.6	0.5	998.6	1	721.4	0.8	1318.875	0.8	792.625	12	404360	3	404349	27	39	404387	-999999	404363	0	20	TrialsPROC	PL_008_92033.png	1	2	89	SessionSelectionList														nonlure	3	Place	2-Back	78	80	74	0	0	90	4	40	381197	1	13	72	379157	-1	379790	1	633	3	3	2040	53	381210	-54	0															7	89												
WM080112	139637_fnca	1	1	1	1470184087	1	75.031	75.031	2.0.10.147	2.0.10.242	2.0.10.242	1.0.0.439	7	234	2	3	Verdana	1	80	0	0	0	WM Stimuli\	0.9	1150.33333333333	0.8	1071.375	1	1172	1	814.6	0.5	998.6	1	721.4	0.8	1318.875	0.8	792.625	12	404360	3	404349	27	39	404387	-999999	404363	0	20	TrialsPROC	PL_012_92047.png	1	2	90	SessionSelectionList														nonlure	3	Place	2-Back	79	80	75	0	0	90	5	39	383769	1	14	73	381730	-1	382627	1	897	3	3	2039	53	383783	-54	0															8	90												
WM080112	139637_fnca	1	1	1	1470184087	1	75.031	75.031	2.0.10.147	2.0.10.242	2.0.10.242	1.0.0.439	7	234	2	3	Verdana	1	80	0	0	0	WM Stimuli\	0.9	1150.33333333333	0.8	1071.375	1	1172	1	814.6	0.5	998.6	1	721.4	0.8	1318.875	0.8	792.625	12	404360	3	404349	27	39	404387	-999999	404363	0	20	TrialsPROC	PL_012_92047.png	1	2	91	SessionSelectionList														lure	3	Place	2-Back	80	80	76	0	0	90	6	39	386328	1	14	59	384289	-1	385254	1	965	3	3	2039	53	386342	-54	0															9	91												
WM080112	139637_fnca	1	1	1	1470184087	1	75.031	75.031	2.0.10.147	2.0.10.242	2.0.10.242	1.0.0.439	7	234	2	3	Verdana	1	80	0	0	0	WM Stimuli\	0.9	1150.33333333333	0.8	1071.375	1	1172	1	814.6	0.5	998.6	1	721.4	0.8	1318.875	0.8	792.625	12	404360	3	404349	27	39	404387	-999999	404363	0	20	TrialsPROC	PL_011_92044.png	1	2	92	SessionSelectionList														nonlure	3	Place	2-Back	80	80	77	0	0	90	7	39	388887	1	13	59	386848	-1	387956	1	1108	3	3	2039	52	388900	-53	0															10	92												
WM080112	139637_fnca	1	1	1	1470184087	1	75.031	75.031	2.0.10.147	2.0.10.242	2.0.10.242	1.0.0.439	7	234	2	3	Verdana	1	80	0	0	0	WM Stimuli\	0.9	1150.33333333333	0.8	1071.375	1	1172	1	814.6	0.5	998.6	1	721.4	0.8	1318.875	0.8	792.625	12	404360	3	404349	27	39	404387	-999999	404363	0	21	Fix15secPROC	""	1	2	93	SessionSelectionList																																															6	389354	-7	0							93												
