ExperimentName	HCPID	RunNumber	Subject	Session	RandomSeed	Group	Laptop.RefreshRate	ScannerD2.RefreshRate	StudioVersion	RuntimeVersion	RuntimeVersionExpected	ExperimentVersion	triggercode	Allowed	Target	Nontarget	FontStyle	RunTrialNumber[Session]	TrialsPerRun[Session]	TotalRespGreater200[Session]	ConsecRTLess200[Session]	ConsecNonResp[Session]	StimuliDir	ACC_2_Back_Body	Avg_RT_For_Correct_Trials_2_Back_Body	ACC_0_Back_Body	Avg_RT_For_Correct_Trials_0_Back_Body	ACC_2_Back_Face	Avg_RT_For_Correct_Trials_2_Back_Face	ACC_0_Back_Face	Avg_RT_For_Correct_Trials_0_Back_Face	ACC_2_Back_Place	Avg_RT_For_Correct_Trials_2_Back_Place	ACC_0_Back_Place	Avg_RT_For_Correct_Trials_0_Back_Place	ACC_2_Back_Tools	Avg_RT_For_Correct_Trials_2_Back_Tools	ACC_0_Back_Tools	Avg_RT_For_Correct_Trials_0_Back_Tools	ExpInstrucFeelFreeToRest.OnsetDelay	ExpInstrucFeelFreeToRest.OnsetTime	ExpInstrucFeelFreeToRest.DurationError	ExpInstrucFeelFreeToRest.StartTime	ExpInstrucFeelFreeToRest.OnsetToOnsetTime	FeelFreeToRest.OnsetDelay	FeelFreeToRest.OnsetTime	FeelFreeToRest.DurationError	FeelFreeToRest.StartTime	FeelFreeToRest.OnsetToOnsetTime	SessionSelectionList	Procedure[Block]	Stimulus[Block]	RunNumberFilterValue	SessionSelectionList.Cycle	SessionSelectionList.Sample	Running[Block]	IntroButtonMap.OnsetDelay	IntroButtonMap.OnsetTime	IntroButtonMap.DurationError	IntroButtonMap.OnsetToOnsetTime	GetReady.OnsetDelay	GetReady.OnsetTime	GetReady.DurationError	GetReady.OnsetToOnsetTime	Cue2Back.OnsetDelay	Cue2Back.OnsetTime	Cue2Back.DurationError	Cue2Back.OnsetToOnsetTime	Run1Block1	TargetType	CorrectResponse	StimType	BlockType	RunTrialNumber[Block]	TrialsPerRun[Block]	TotalRespGreater200[Block]	ConsecRTLess200[Block]	ConsecNonResp[Block]	ControlAcc	ConsecSameResp	ExperimenterWindow.OnsetDelay	ExperimenterWindow.OnsetTime	ExperimenterWindow.DurationError	ExperimenterWindow.OnsetToOnsetTime	Stim.OnsetDelay	Stim.OnsetTime	Stim.DurationError	Stim.RTTime	Stim.ACC	Stim.RT	Stim.RESP	Stim.CRESP	Stim.OnsetToOnsetTime	Fix.OnsetDelay	Fix.OnsetTime	Fix.DurationError	Fix.OnsetToOnsetTime	CueTarget.OnsetDelay	CueTarget.OnsetTime	CueTarget.DurationError	CueTarget.OnsetToOnsetTime	Run1Block2	Fix15sec.OnsetDelay	Fix15sec.OnsetTime	Fix15sec.DurationError	Fix15sec.OnsetToOnsetTime	Run1Block3	Run1Block4	Run1Block5	Run1Block6	Run1Block7	Run1Block8	Block	Procedure[Trial]	Stimulus[Trial]	ReadyList	Running[Trial]	ReadyList.Cycle	ReadyList.Sample	SyncSlide.OnsetDelay	SyncSlide.OnsetTime	SyncSlide.DurationError	SyncSlide.FinishTime	SyncSlide.OnsetToOnsetTime	Trial
WM080112	199655_fnca	2	1	1	-1923017089	1	75.030	75.030	2.0.10.147	2.0.10.242	2.0.10.242	1.0.0.439	7	234	2	3	Verdana	1	80	0	0	0	WM Stimuli\	1	1004.9	1	972.3	1	915.5	1	528.8	1	952	1	657.9	0.9	876.333333333333	1	726.1	13	320676	3	320664	27	40	320703	-999999	320679	0	22	TRSyncPROC	""	2	2	1	SessionSelectionList	102	10041	-999999	0	40	11001	-999999	0																																																	1	InitialTR	4	1	ReadyList	1	1	22	27234	-23	29211	0	1
WM080112	199655_fnca	2	1	1	-1923017089	1	75.030	75.030	2.0.10.147	2.0.10.242	2.0.10.242	1.0.0.439	7	234	2	3	Verdana	1	80	0	0	0	WM Stimuli\	1	1004.9	1	972.3	1	915.5	1	528.8	1	952	1	657.9	0.9	876.333333333333	1	726.1	13	320676	3	320664	27	40	320703	-999999	320679	0	22	TRSyncPROC	""	2	2	1	SessionSelectionList	102	10041	-999999	0	40	11001	-999999	0																																																	1	InitialTR	3	2	ReadyList	1	2	21	29233	-22	31211	0	2
WM080112	199655_fnca	2	1	1	-1923017089	1	75.030	75.030	2.0.10.147	2.0.10.242	2.0.10.242	1.0.0.439	7	234	2	3	Verdana	1	80	0	0	0	WM Stimuli\	1	1004.9	1	972.3	1	915.5	1	528.8	1	952	1	657.9	0.9	876.333333333333	1	726.1	13	320676	3	320664	27	40	320703	-999999	320679	0	22	TRSyncPROC	""	2	2	1	SessionSelectionList	102	10041	-999999	0	40	11001	-999999	0																																																	1	InitialTR	2	3	ReadyList	1	3	7	31219	-8	33211	0	3
WM080112	199655_fnca	2	1	1	-1923017089	1	75.030	75.030	2.0.10.147	2.0.10.242	2.0.10.242	1.0.0.439	7	234	2	3	Verdana	1	80	0	0	0	WM Stimuli\	1	1004.9	1	972.3	1	915.5	1	528.8	1	952	1	657.9	0.9	876.333333333333	1	726.1	13	320676	3	320664	27	40	320703	-999999	320679	0	22	TRSyncPROC	""	2	2	1	SessionSelectionList	102	10041	-999999	0	40	11001	-999999	0																																																	1	InitialTR	1	4	ReadyList	1	4	6	33218	-7	35211	0	4
WM080112	199655_fnca	2	1	1	-1923017089	1	75.030	75.030	2.0.10.147	2.0.10.242	2.0.10.242	1.0.0.439	7	234	2	3	Verdana	1	80	0	0	0	WM Stimuli\	1	1004.9	1	972.3	1	915.5	1	528.8	1	952	1	657.9	0.9	876.333333333333	1	726.1	13	320676	3	320664	27	40	320703	-999999	320679	0	23	Cue2BackPROC	""	2	2	2	SessionSelectionList									5	35217	-6	0																																													2												
WM080112	199655_fnca	2	1	1	-1923017089	1	75.030	75.030	2.0.10.147	2.0.10.242	2.0.10.242	1.0.0.439	7	234	2	3	Verdana	1	80	0	0	0	WM Stimuli\	1	1004.9	1	972.3	1	915.5	1	528.8	1	952	1	657.9	0.9	876.333333333333	1	726.1	13	320676	3	320664	27	40	320703	-999999	320679	0	24	TrialsPROC	TO_014_TOOL14_BA.png	2	2	3	SessionSelectionList														nonlure	3	Tools	2-Back	2	80	1	0	0	0	1	53	39842	3	14	77	37789	-1	38639	1	850	3	3	2053	67	39856	-68	0																3												
WM080112	199655_fnca	2	1	1	-1923017089	1	75.030	75.030	2.0.10.147	2.0.10.242	2.0.10.242	1.0.0.439	7	234	2	3	Verdana	1	80	0	0	0	WM Stimuli\	1	1004.9	1	972.3	1	915.5	1	528.8	1	952	1	657.9	0.9	876.333333333333	1	726.1	13	320676	3	320664	27	40	320703	-999999	320679	0	24	TrialsPROC	TO_013_TOOL13_BA.png	2	2	4	SessionSelectionList														nonlure	3	Tools	2-Back	3	80	2	0	0	0	2	40	42388	2	13	59	40348	-1	41484	1	1136	3	3	2040	53	42401	-54	0																4												
WM080112	199655_fnca	2	1	1	-1923017089	1	75.030	75.030	2.0.10.147	2.0.10.242	2.0.10.242	1.0.0.439	7	234	2	3	Verdana	1	80	0	0	0	WM Stimuli\	1	1004.9	1	972.3	1	915.5	1	528.8	1	952	1	657.9	0.9	876.333333333333	1	726.1	13	320676	3	320664	27	40	320703	-999999	320679	0	24	TrialsPROC	TO_016_TOOL16_BA.png	2	2	5	SessionSelectionList														nonlure	3	Tools	2-Back	4	80	3	0	0	0	3	39	44947	1	13	60	42908	-1	43506	1	598	3	3	2039	52	44960	-53	0																5												
WM080112	199655_fnca	2	1	1	-1923017089	1	75.030	75.030	2.0.10.147	2.0.10.242	2.0.10.242	1.0.0.439	7	234	2	3	Verdana	1	80	0	0	0	WM Stimuli\	1	1004.9	1	972.3	1	915.5	1	528.8	1	952	1	657.9	0.9	876.333333333333	1	726.1	13	320676	3	320664	27	40	320703	-999999	320679	0	24	TrialsPROC	TO_014_TOOL14_BA.png	2	2	6	SessionSelectionList														lure	3	Tools	2-Back	5	80	4	0	0	0	1	39	47519	1	14	72	45480	-1	46401	0	921	2	3	2039	53	47533	-54	0																6												
WM080112	199655_fnca	2	1	1	-1923017089	1	75.030	75.030	2.0.10.147	2.0.10.242	2.0.10.242	1.0.0.439	7	234	2	3	Verdana	1	80	0	0	0	WM Stimuli\	1	1004.9	1	972.3	1	915.5	1	528.8	1	952	1	657.9	0.9	876.333333333333	1	726.1	13	320676	3	320664	27	40	320703	-999999	320679	0	24	TrialsPROC	TO_016_TOOL16_BA.png	2	2	7	SessionSelectionList														target	2	Tools	2-Back	6	80	5	0	0	0	2	39	50078	2	14	59	48039	-1	48893	1	854	2	2	2039	53	50092	-54	0																7												
WM080112	199655_fnca	2	1	1	-1923017089	1	75.030	75.030	2.0.10.147	2.0.10.242	2.0.10.242	1.0.0.439	7	234	2	3	Verdana	1	80	0	0	0	WM Stimuli\	1	1004.9	1	972.3	1	915.5	1	528.8	1	952	1	657.9	0.9	876.333333333333	1	726.1	13	320676	3	320664	27	40	320703	-999999	320679	0	24	TrialsPROC	TO_018_TOOL18_BA.png	2	2	8	SessionSelectionList														nonlure	3	Tools	2-Back	7	80	6	0	0	0	1	39	52637	1	14	59	50598	-1	51832	1	1234	3	3	2039	53	52651	-54	0																8												
WM080112	199655_fnca	2	1	1	-1923017089	1	75.030	75.030	2.0.10.147	2.0.10.242	2.0.10.242	1.0.0.439	7	234	2	3	Verdana	1	80	0	0	0	WM Stimuli\	1	1004.9	1	972.3	1	915.5	1	528.8	1	952	1	657.9	0.9	876.333333333333	1	726.1	13	320676	3	320664	27	40	320703	-999999	320679	0	24	TrialsPROC	TO_017_TOOL17_BA.png	2	2	9	SessionSelectionList														nonlure	3	Tools	2-Back	8	80	7	0	0	0	2	39	55196	1	14	59	53157	-1	53851	1	694	3	3	2039	53	55210	-54	0																9												
WM080112	199655_fnca	2	1	1	-1923017089	1	75.030	75.030	2.0.10.147	2.0.10.242	2.0.10.242	1.0.0.439	7	234	2	3	Verdana	1	80	0	0	0	WM Stimuli\	1	1004.9	1	972.3	1	915.5	1	528.8	1	952	1	657.9	0.9	876.333333333333	1	726.1	13	320676	3	320664	27	40	320703	-999999	320679	0	24	TrialsPROC	TO_018_TOOL18_BA.png	2	2	10	SessionSelectionList														target	2	Tools	2-Back	9	80	8	0	0	0	1	39	57755	1	14	59	55716	-1	56186	1	470	2	2	2039	53	57769	-54	0																10												
WM080112	199655_fnca	2	1	1	-1923017089	1	75.030	75.030	2.0.10.147	2.0.10.242	2.0.10.242	1.0.0.439	7	234	2	3	Verdana	1	80	0	0	0	WM Stimuli\	1	1004.9	1	972.3	1	915.5	1	528.8	1	952	1	657.9	0.9	876.333333333333	1	726.1	13	320676	3	320664	27	40	320703	-999999	320679	0	24	TrialsPROC	TO_015_TOOL15_BA.png	2	2	11	SessionSelectionList														nonlure	3	Tools	2-Back	10	80	9	0	0	0	1	39	60314	2	13	59	58275	-1	59159	1	884	3	3	2039	52	60327	-53	0																11												
WM080112	199655_fnca	2	1	1	-1923017089	1	75.030	75.030	2.0.10.147	2.0.10.242	2.0.10.242	1.0.0.439	7	234	2	3	Verdana	1	80	0	0	0	WM Stimuli\	1	1004.9	1	972.3	1	915.5	1	528.8	1	952	1	657.9	0.9	876.333333333333	1	726.1	13	320676	3	320664	27	40	320703	-999999	320679	0	24	TrialsPROC	TO_017_TOOL17_BA.png	2	2	12	SessionSelectionList														lure	3	Tools	2-Back	11	80	10	0	0	0	2	39	62873	2	13	59	60834	-1	62001	1	1167	3	3	2039	52	62886	-53	0																12												
WM080112	199655_fnca	2	1	1	-1923017089	1	75.030	75.030	2.0.10.147	2.0.10.242	2.0.10.242	1.0.0.439	7	234	2	3	Verdana	1	80	0	0	0	WM Stimuli\	1	1004.9	1	972.3	1	915.5	1	528.8	1	952	1	657.9	0.9	876.333333333333	1	726.1	13	320676	3	320664	27	40	320703	-999999	320679	0	25	Cue0BackPROC	BP_013_BP7_BA.png	2	2	13	SessionSelectionList																																										19	63353	-20	0												13												
WM080112	199655_fnca	2	1	1	-1923017089	1	75.030	75.030	2.0.10.147	2.0.10.242	2.0.10.242	1.0.0.439	7	234	2	3	Verdana	1	80	0	0	0	WM Stimuli\	1	1004.9	1	972.3	1	915.5	1	528.8	1	952	1	657.9	0.9	876.333333333333	1	726.1	13	320676	3	320664	27	40	320703	-999999	320679	0	26	TrialsPROC	BP_015_H10-T_BA.png	2	2	14	SessionSelectionList														nonlure	3	Body	0-Back	12	80	11	0	0	100	3	39	67937	2	14	64	65898	-1	66740	1	842	3	3	2039	53	67951	-54	0																14												
WM080112	199655_fnca	2	1	1	-1923017089	1	75.030	75.030	2.0.10.147	2.0.10.242	2.0.10.242	1.0.0.439	7	234	2	3	Verdana	1	80	0	0	0	WM Stimuli\	1	1004.9	1	972.3	1	915.5	1	528.8	1	952	1	657.9	0.9	876.333333333333	1	726.1	13	320676	3	320664	27	40	320703	-999999	320679	0	26	TrialsPROC	BP_018_H13-T_BA.png	2	2	15	SessionSelectionList														nonlure	3	Body	0-Back	13	80	12	0	0	100	4	39	70510	1	13	73	68471	-1	69207	1	736	3	3	2039	52	70523	-53	0																15												
WM080112	199655_fnca	2	1	1	-1923017089	1	75.030	75.030	2.0.10.147	2.0.10.242	2.0.10.242	1.0.0.439	7	234	2	3	Verdana	1	80	0	0	0	WM Stimuli\	1	1004.9	1	972.3	1	915.5	1	528.8	1	952	1	657.9	0.9	876.333333333333	1	726.1	13	320676	3	320664	27	40	320703	-999999	320679	0	26	TrialsPROC	BP_014_BP9_BA.png	2	2	16	SessionSelectionList														nonlure	3	Body	0-Back	14	80	13	0	0	100	5	39	73069	2	13	59	71030	-1	72497	1	1467	3	3	2039	52	73082	-53	0																16												
WM080112	199655_fnca	2	1	1	-1923017089	1	75.030	75.030	2.0.10.147	2.0.10.242	2.0.10.242	1.0.0.439	7	234	2	3	Verdana	1	80	0	0	0	WM Stimuli\	1	1004.9	1	972.3	1	915.5	1	528.8	1	952	1	657.9	0.9	876.333333333333	1	726.1	13	320676	3	320664	27	40	320703	-999999	320679	0	26	TrialsPROC	BP_018_H13-T_BA.png	2	2	17	SessionSelectionList														lure	3	Body	0-Back	15	80	14	0	0	100	6	39	75628	2	13	59	73589	-1	75143	1	1554	3	3	2039	52	75641	-53	0																17												
WM080112	199655_fnca	2	1	1	-1923017089	1	75.030	75.030	2.0.10.147	2.0.10.242	2.0.10.242	1.0.0.439	7	234	2	3	Verdana	1	80	0	0	0	WM Stimuli\	1	1004.9	1	972.3	1	915.5	1	528.8	1	952	1	657.9	0.9	876.333333333333	1	726.1	13	320676	3	320664	27	40	320703	-999999	320679	0	26	TrialsPROC	BP_013_BP7_BA.png	2	2	18	SessionSelectionList														target	2	Body	0-Back	16	80	15	0	0	100	1	40	78187	1	13	58	76147	-1	76779	1	632	2	2	2040	53	78200	-54	0																18												
WM080112	199655_fnca	2	1	1	-1923017089	1	75.030	75.030	2.0.10.147	2.0.10.242	2.0.10.242	1.0.0.439	7	234	2	3	Verdana	1	80	0	0	0	WM Stimuli\	1	1004.9	1	972.3	1	915.5	1	528.8	1	952	1	657.9	0.9	876.333333333333	1	726.1	13	320676	3	320664	27	40	320703	-999999	320679	0	26	TrialsPROC	BP_015_H10-T_BA.png	2	2	19	SessionSelectionList														lure	3	Body	0-Back	17	80	16	0	0	100	1	39	80746	1	13	60	78707	-1	79222	1	515	3	3	2039	52	80759	-53	0																19												
WM080112	199655_fnca	2	1	1	-1923017089	1	75.030	75.030	2.0.10.147	2.0.10.242	2.0.10.242	1.0.0.439	7	234	2	3	Verdana	1	80	0	0	0	WM Stimuli\	1	1004.9	1	972.3	1	915.5	1	528.8	1	952	1	657.9	0.9	876.333333333333	1	726.1	13	320676	3	320664	27	40	320703	-999999	320679	0	26	TrialsPROC	BP_016_H11-T_BA.png	2	2	20	SessionSelectionList														nonlure	3	Body	0-Back	18	80	17	0	0	100	2	39	83318	1	14	72	81279	-1	81998	1	719	3	3	2039	53	83332	-54	0																20												
WM080112	199655_fnca	2	1	1	-1923017089	1	75.030	75.030	2.0.10.147	2.0.10.242	2.0.10.242	1.0.0.439	7	234	2	3	Verdana	1	80	0	0	0	WM Stimuli\	1	1004.9	1	972.3	1	915.5	1	528.8	1	952	1	657.9	0.9	876.333333333333	1	726.1	13	320676	3	320664	27	40	320703	-999999	320679	0	26	TrialsPROC	BP_013_BP7_BA.png	2	2	21	SessionSelectionList														target	2	Body	0-Back	19	80	18	0	0	100	1	39	85877	2	14	59	83838	-1	84598	1	760	2	2	2039	53	85891	-54	0																21												
WM080112	199655_fnca	2	1	1	-1923017089	1	75.030	75.030	2.0.10.147	2.0.10.242	2.0.10.242	1.0.0.439	7	234	2	3	Verdana	1	80	0	0	0	WM Stimuli\	1	1004.9	1	972.3	1	915.5	1	528.8	1	952	1	657.9	0.9	876.333333333333	1	726.1	13	320676	3	320664	27	40	320703	-999999	320679	0	26	TrialsPROC	BP_017_H12-T_BA.png	2	2	22	SessionSelectionList														nonlure	3	Body	0-Back	20	80	19	0	0	100	1	39	88436	2	14	59	86397	-1	87881	1	1484	3	3	2039	53	88450	-54	0																22												
WM080112	199655_fnca	2	1	1	-1923017089	1	75.030	75.030	2.0.10.147	2.0.10.242	2.0.10.242	1.0.0.439	7	234	2	3	Verdana	1	80	0	0	0	WM Stimuli\	1	1004.9	1	972.3	1	915.5	1	528.8	1	952	1	657.9	0.9	876.333333333333	1	726.1	13	320676	3	320664	27	40	320703	-999999	320679	0	26	TrialsPROC	BP_014_BP9_BA.png	2	2	23	SessionSelectionList														lure	3	Body	0-Back	21	80	20	0	0	100	2	39	90995	1	14	59	88956	-1	89970	1	1014	3	3	2039	53	91009	-54	0																23												
WM080112	199655_fnca	2	1	1	-1923017089	1	75.030	75.030	2.0.10.147	2.0.10.242	2.0.10.242	1.0.0.439	7	234	2	3	Verdana	1	80	0	0	0	WM Stimuli\	1	1004.9	1	972.3	1	915.5	1	528.8	1	952	1	657.9	0.9	876.333333333333	1	726.1	13	320676	3	320664	27	40	320703	-999999	320679	0	27	Fix15secPROC	""	2	2	24	SessionSelectionList																																															6	91462	-7	0							24												
WM080112	199655_fnca	2	1	1	-1923017089	1	75.030	75.030	2.0.10.147	2.0.10.242	2.0.10.242	1.0.0.439	7	234	2	3	Verdana	1	80	0	0	0	WM Stimuli\	1	1004.9	1	972.3	1	915.5	1	528.8	1	952	1	657.9	0.9	876.333333333333	1	726.1	13	320676	3	320664	27	40	320703	-999999	320679	0	28	Cue2BackPROC	""	2	2	25	SessionSelectionList									13	106469	-14	0																																													25												
WM080112	199655_fnca	2	1	1	-1923017089	1	75.030	75.030	2.0.10.147	2.0.10.242	2.0.10.242	1.0.0.439	7	234	2	3	Verdana	1	80	0	0	0	WM Stimuli\	1	1004.9	1	972.3	1	915.5	1	528.8	1	952	1	657.9	0.9	876.333333333333	1	726.1	13	320676	3	320664	27	40	320703	-999999	320679	0	29	TrialsPROC	FC_015_M8.png	2	2	26	SessionSelectionList														nonlure	3	Face	2-Back	22	80	21	0	0	100	3	39	111067	2	14	72	109028	-1	109875	1	847	3	3	2039	53	111081	-54	0																26												
WM080112	199655_fnca	2	1	1	-1923017089	1	75.030	75.030	2.0.10.147	2.0.10.242	2.0.10.242	1.0.0.439	7	234	2	3	Verdana	1	80	0	0	0	WM Stimuli\	1	1004.9	1	972.3	1	915.5	1	528.8	1	952	1	657.9	0.9	876.333333333333	1	726.1	13	320676	3	320664	27	40	320703	-999999	320679	0	29	TrialsPROC	FC_018_F9.png	2	2	27	SessionSelectionList														nonlure	3	Face	2-Back	23	80	22	0	0	100	4	39	113639	2	14	72	111600	-1	112230	1	630	3	3	2039	53	113653	-54	0																27												
WM080112	199655_fnca	2	1	1	-1923017089	1	75.030	75.030	2.0.10.147	2.0.10.242	2.0.10.242	1.0.0.439	7	234	2	3	Verdana	1	80	0	0	0	WM Stimuli\	1	1004.9	1	972.3	1	915.5	1	528.8	1	952	1	657.9	0.9	876.333333333333	1	726.1	13	320676	3	320664	27	40	320703	-999999	320679	0	29	TrialsPROC	FC_018_F9.png	2	2	28	SessionSelectionList														lure	3	Face	2-Back	24	80	23	0	0	100	5	39	116211	3	14	72	114172	-1	115027	1	855	3	3	2039	53	116225	-54	0																28												
WM080112	199655_fnca	2	1	1	-1923017089	1	75.030	75.030	2.0.10.147	2.0.10.242	2.0.10.242	1.0.0.439	7	234	2	3	Verdana	1	80	0	0	0	WM Stimuli\	1	1004.9	1	972.3	1	915.5	1	528.8	1	952	1	657.9	0.9	876.333333333333	1	726.1	13	320676	3	320664	27	40	320703	-999999	320679	0	29	TrialsPROC	FC_017_M9.png	2	2	29	SessionSelectionList														nonlure	3	Face	2-Back	25	80	24	0	0	100	6	39	118784	2	13	73	116745	-1	117778	1	1033	3	3	2039	52	118797	-53	0																29												
WM080112	199655_fnca	2	1	1	-1923017089	1	75.030	75.030	2.0.10.147	2.0.10.242	2.0.10.242	1.0.0.439	7	234	2	3	Verdana	1	80	0	0	0	WM Stimuli\	1	1004.9	1	972.3	1	915.5	1	528.8	1	952	1	657.9	0.9	876.333333333333	1	726.1	13	320676	3	320664	27	40	320703	-999999	320679	0	29	TrialsPROC	FC_017_M9.png	2	2	30	SessionSelectionList														lure	3	Face	2-Back	26	80	25	0	0	100	7	39	121356	2	14	72	119317	-1	120233	1	916	3	3	2039	53	121370	-54	0																30												
WM080112	199655_fnca	2	1	1	-1923017089	1	75.030	75.030	2.0.10.147	2.0.10.242	2.0.10.242	1.0.0.439	7	234	2	3	Verdana	1	80	0	0	0	WM Stimuli\	1	1004.9	1	972.3	1	915.5	1	528.8	1	952	1	657.9	0.9	876.333333333333	1	726.1	13	320676	3	320664	27	40	320703	-999999	320679	0	29	TrialsPROC	FC_016_F8.png	2	2	31	SessionSelectionList														nonlure	3	Face	2-Back	27	80	26	0	0	100	8	39	123928	2	14	72	121889	-1	123240	1	1351	3	3	2039	53	123942	-54	0																31												
WM080112	199655_fnca	2	1	1	-1923017089	1	75.030	75.030	2.0.10.147	2.0.10.242	2.0.10.242	1.0.0.439	7	234	2	3	Verdana	1	80	0	0	0	WM Stimuli\	1	1004.9	1	972.3	1	915.5	1	528.8	1	952	1	657.9	0.9	876.333333333333	1	726.1	13	320676	3	320664	27	40	320703	-999999	320679	0	29	TrialsPROC	FC_013_M7.png	2	2	32	SessionSelectionList														nonlure	3	Face	2-Back	28	80	27	0	0	100	9	40	126501	1	13	72	124461	-1	125581	1	1120	3	3	2040	53	126514	-54	0																32												
WM080112	199655_fnca	2	1	1	-1923017089	1	75.030	75.030	2.0.10.147	2.0.10.242	2.0.10.242	1.0.0.439	7	234	2	3	Verdana	1	80	0	0	0	WM Stimuli\	1	1004.9	1	972.3	1	915.5	1	528.8	1	952	1	657.9	0.9	876.333333333333	1	726.1	13	320676	3	320664	27	40	320703	-999999	320679	0	29	TrialsPROC	FC_014_F7.png	2	2	33	SessionSelectionList														nonlure	3	Face	2-Back	29	80	28	0	0	100	10	39	129073	2	14	73	127034	-1	127835	1	801	3	3	2039	53	129087	-54	0																33												
WM080112	199655_fnca	2	1	1	-1923017089	1	75.030	75.030	2.0.10.147	2.0.10.242	2.0.10.242	1.0.0.439	7	234	2	3	Verdana	1	80	0	0	0	WM Stimuli\	1	1004.9	1	972.3	1	915.5	1	528.8	1	952	1	657.9	0.9	876.333333333333	1	726.1	13	320676	3	320664	27	40	320703	-999999	320679	0	29	TrialsPROC	FC_013_M7.png	2	2	34	SessionSelectionList														target	2	Face	2-Back	30	80	29	0	0	100	1	39	131645	2	14	72	129606	-1	130291	1	685	2	2	2039	53	131659	-54	0																34												
WM080112	199655_fnca	2	1	1	-1923017089	1	75.030	75.030	2.0.10.147	2.0.10.242	2.0.10.242	1.0.0.439	7	234	2	3	Verdana	1	80	0	0	0	WM Stimuli\	1	1004.9	1	972.3	1	915.5	1	528.8	1	952	1	657.9	0.9	876.333333333333	1	726.1	13	320676	3	320664	27	40	320703	-999999	320679	0	29	TrialsPROC	FC_014_F7.png	2	2	35	SessionSelectionList														target	2	Face	2-Back	31	80	30	0	0	100	2	40	134218	2	13	72	132178	-1	133095	1	917	2	2	2040	53	134231	-54	0																35												
WM080112	199655_fnca	2	1	1	-1923017089	1	75.030	75.030	2.0.10.147	2.0.10.242	2.0.10.242	1.0.0.439	7	234	2	3	Verdana	1	80	0	0	0	WM Stimuli\	1	1004.9	1	972.3	1	915.5	1	528.8	1	952	1	657.9	0.9	876.333333333333	1	726.1	13	320676	3	320664	27	40	320703	-999999	320679	0	30	Cue0BackPROC	TO_019_TOOL19_BA.png	2	2	36	SessionSelectionList																																										19	134697	-20	0												36												
WM080112	199655_fnca	2	1	1	-1923017089	1	75.030	75.030	2.0.10.147	2.0.10.242	2.0.10.242	1.0.0.439	7	234	2	3	Verdana	1	80	0	0	0	WM Stimuli\	1	1004.9	1	972.3	1	915.5	1	528.8	1	952	1	657.9	0.9	876.333333333333	1	726.1	13	320676	3	320664	27	40	320703	-999999	320679	0	31	TrialsPROC	TO_019_TOOL19_BA.png	2	2	37	SessionSelectionList														target	2	Tools	0-Back	32	80	31	0	0	100	3	39	139269	2	14	52	137230	-1	138312	1	1082	2	2	2039	53	139283	-54	0																37												
WM080112	199655_fnca	2	1	1	-1923017089	1	75.030	75.030	2.0.10.147	2.0.10.242	2.0.10.242	1.0.0.439	7	234	2	3	Verdana	1	80	0	0	0	WM Stimuli\	1	1004.9	1	972.3	1	915.5	1	528.8	1	952	1	657.9	0.9	876.333333333333	1	726.1	13	320676	3	320664	27	40	320703	-999999	320679	0	31	TrialsPROC	TO_024_TOOL24_BA.png	2	2	38	SessionSelectionList														nonlure	3	Tools	0-Back	33	80	32	0	0	100	1	39	141828	2	14	59	139789	-1	140377	1	588	3	3	2039	53	141842	-54	0																38												
WM080112	199655_fnca	2	1	1	-1923017089	1	75.030	75.030	2.0.10.147	2.0.10.242	2.0.10.242	1.0.0.439	7	234	2	3	Verdana	1	80	0	0	0	WM Stimuli\	1	1004.9	1	972.3	1	915.5	1	528.8	1	952	1	657.9	0.9	876.333333333333	1	726.1	13	320676	3	320664	27	40	320703	-999999	320679	0	31	TrialsPROC	TO_019_TOOL19_BA.png	2	2	39	SessionSelectionList														target	2	Tools	0-Back	34	80	33	0	0	100	1	39	144387	1	14	59	142348	-1	143129	1	781	2	2	2039	53	144401	-54	0																39												
WM080112	199655_fnca	2	1	1	-1923017089	1	75.030	75.030	2.0.10.147	2.0.10.242	2.0.10.242	1.0.0.439	7	234	2	3	Verdana	1	80	0	0	0	WM Stimuli\	1	1004.9	1	972.3	1	915.5	1	528.8	1	952	1	657.9	0.9	876.333333333333	1	726.1	13	320676	3	320664	27	40	320703	-999999	320679	0	31	TrialsPROC	TO_023_TOOL23_BA.png	2	2	40	SessionSelectionList														nonlure	3	Tools	0-Back	35	80	34	0	0	100	1	39	146959	3	14	72	144920	-1	145442	1	522	3	3	2039	53	146973	-54	0																40												
WM080112	199655_fnca	2	1	1	-1923017089	1	75.030	75.030	2.0.10.147	2.0.10.242	2.0.10.242	1.0.0.439	7	234	2	3	Verdana	1	80	0	0	0	WM Stimuli\	1	1004.9	1	972.3	1	915.5	1	528.8	1	952	1	657.9	0.9	876.333333333333	1	726.1	13	320676	3	320664	27	40	320703	-999999	320679	0	31	TrialsPROC	TO_020_TOOL20_BA.png	2	2	41	SessionSelectionList														nonlure	3	Tools	0-Back	36	80	35	0	0	100	2	39	149518	2	14	59	147479	-1	147951	1	472	3	3	2039	53	149532	-54	0																41												
WM080112	199655_fnca	2	1	1	-1923017089	1	75.030	75.030	2.0.10.147	2.0.10.242	2.0.10.242	1.0.0.439	7	234	2	3	Verdana	1	80	0	0	0	WM Stimuli\	1	1004.9	1	972.3	1	915.5	1	528.8	1	952	1	657.9	0.9	876.333333333333	1	726.1	13	320676	3	320664	27	40	320703	-999999	320679	0	31	TrialsPROC	TO_020_TOOL20_BA.png	2	2	42	SessionSelectionList														lure	3	Tools	0-Back	37	80	36	0	0	100	3	39	152077	3	14	59	150038	-1	150745	1	707	3	3	2039	53	152091	-54	0																42												
WM080112	199655_fnca	2	1	1	-1923017089	1	75.030	75.030	2.0.10.147	2.0.10.242	2.0.10.242	1.0.0.439	7	234	2	3	Verdana	1	80	0	0	0	WM Stimuli\	1	1004.9	1	972.3	1	915.5	1	528.8	1	952	1	657.9	0.9	876.333333333333	1	726.1	13	320676	3	320664	27	40	320703	-999999	320679	0	31	TrialsPROC	TO_022_TOOL22_BA.png	2	2	43	SessionSelectionList														nonlure	3	Tools	0-Back	38	80	37	0	0	100	4	39	154636	3	14	59	152597	-1	153248	1	651	3	3	2039	53	154650	-54	0																43												
WM080112	199655_fnca	2	1	1	-1923017089	1	75.030	75.030	2.0.10.147	2.0.10.242	2.0.10.242	1.0.0.439	7	234	2	3	Verdana	1	80	0	0	0	WM Stimuli\	1	1004.9	1	972.3	1	915.5	1	528.8	1	952	1	657.9	0.9	876.333333333333	1	726.1	13	320676	3	320664	27	40	320703	-999999	320679	0	31	TrialsPROC	TO_022_TOOL22_BA.png	2	2	44	SessionSelectionList														lure	3	Tools	0-Back	39	80	38	0	0	100	5	39	157195	3	14	59	155156	-1	155816	1	660	3	3	2039	53	157209	-54	0																44												
WM080112	199655_fnca	2	1	1	-1923017089	1	75.030	75.030	2.0.10.147	2.0.10.242	2.0.10.242	1.0.0.439	7	234	2	3	Verdana	1	80	0	0	0	WM Stimuli\	1	1004.9	1	972.3	1	915.5	1	528.8	1	952	1	657.9	0.9	876.333333333333	1	726.1	13	320676	3	320664	27	40	320703	-999999	320679	0	31	TrialsPROC	TO_021_TOOL21_BA.png	2	2	45	SessionSelectionList														nonlure	3	Tools	0-Back	40	80	39	0	0	100	6	39	159754	3	14	59	157715	-1	158564	1	849	3	3	2039	53	159768	-54	0																45												
WM080112	199655_fnca	2	1	1	-1923017089	1	75.030	75.030	2.0.10.147	2.0.10.242	2.0.10.242	1.0.0.439	7	234	2	3	Verdana	1	80	0	0	0	WM Stimuli\	1	1004.9	1	972.3	1	915.5	1	528.8	1	952	1	657.9	0.9	876.333333333333	1	726.1	13	320676	3	320664	27	40	320703	-999999	320679	0	31	TrialsPROC	TO_021_TOOL21_BA.png	2	2	46	SessionSelectionList														lure	3	Tools	0-Back	41	80	40	0	0	100	7	39	162313	3	14	59	160274	-1	161223	1	949	3	3	2039	53	162327	-54	0																46												
WM080112	199655_fnca	2	1	1	-1923017089	1	75.030	75.030	2.0.10.147	2.0.10.242	2.0.10.242	1.0.0.439	7	234	2	3	Verdana	1	80	0	0	0	WM Stimuli\	1	1004.9	1	972.3	1	915.5	1	528.8	1	952	1	657.9	0.9	876.333333333333	1	726.1	13	320676	3	320664	27	40	320703	-999999	320679	0	32	Fix15secPROC	""	2	2	47	SessionSelectionList																																															6	162780	-7	0							47												
WM080112	199655_fnca	2	1	1	-1923017089	1	75.030	75.030	2.0.10.147	2.0.10.242	2.0.10.242	1.0.0.439	7	234	2	3	Verdana	1	80	0	0	0	WM Stimuli\	1	1004.9	1	972.3	1	915.5	1	528.8	1	952	1	657.9	0.9	876.333333333333	1	726.1	13	320676	3	320664	27	40	320703	-999999	320679	0	33	Cue2BackPROC	""	2	2	48	SessionSelectionList									13	177787	-14	0																																													48												
WM080112	199655_fnca	2	1	1	-1923017089	1	75.030	75.030	2.0.10.147	2.0.10.242	2.0.10.242	1.0.0.439	7	234	2	3	Verdana	1	80	0	0	0	WM Stimuli\	1	1004.9	1	972.3	1	915.5	1	528.8	1	952	1	657.9	0.9	876.333333333333	1	726.1	13	320676	3	320664	27	40	320703	-999999	320679	0	34	TrialsPROC	BP_020_H17-T_BA.png	2	2	49	SessionSelectionList														nonlure	3	Body	2-Back	42	80	41	0	0	100	8	39	182385	1	14	72	180346	-1	181754	1	1408	3	3	2039	53	182399	-54	0																49												
WM080112	199655_fnca	2	1	1	-1923017089	1	75.030	75.030	2.0.10.147	2.0.10.242	2.0.10.242	1.0.0.439	7	234	2	3	Verdana	1	80	0	0	0	WM Stimuli\	1	1004.9	1	972.3	1	915.5	1	528.8	1	952	1	657.9	0.9	876.333333333333	1	726.1	13	320676	3	320664	27	40	320703	-999999	320679	0	34	TrialsPROC	BP_019_H14-T_BA.png	2	2	50	SessionSelectionList														nonlure	3	Body	2-Back	43	80	42	0	0	100	9	39	184957	3	14	72	182918	-1	184164	1	1246	3	3	2039	53	184971	-54	0																50												
WM080112	199655_fnca	2	1	1	-1923017089	1	75.030	75.030	2.0.10.147	2.0.10.242	2.0.10.242	1.0.0.439	7	234	2	3	Verdana	1	80	0	0	0	WM Stimuli\	1	1004.9	1	972.3	1	915.5	1	528.8	1	952	1	657.9	0.9	876.333333333333	1	726.1	13	320676	3	320664	27	40	320703	-999999	320679	0	34	TrialsPROC	BP_020_H17-T_BA.png	2	2	51	SessionSelectionList														target	2	Body	2-Back	44	80	43	0	0	100	1	39	187516	3	14	59	185477	-1	186164	1	687	2	2	2039	53	187530	-54	0																51												
WM080112	199655_fnca	2	1	1	-1923017089	1	75.030	75.030	2.0.10.147	2.0.10.242	2.0.10.242	1.0.0.439	7	234	2	3	Verdana	1	80	0	0	0	WM Stimuli\	1	1004.9	1	972.3	1	915.5	1	528.8	1	952	1	657.9	0.9	876.333333333333	1	726.1	13	320676	3	320664	27	40	320703	-999999	320679	0	34	TrialsPROC	BP_019_H14-T_BA.png	2	2	52	SessionSelectionList														target	2	Body	2-Back	45	80	44	0	0	100	2	40	190089	2	13	72	188049	-1	189060	1	1011	2	2	2040	53	190102	-54	0																52												
WM080112	199655_fnca	2	1	1	-1923017089	1	75.030	75.030	2.0.10.147	2.0.10.242	2.0.10.242	1.0.0.439	7	234	2	3	Verdana	1	80	0	0	0	WM Stimuli\	1	1004.9	1	972.3	1	915.5	1	528.8	1	952	1	657.9	0.9	876.333333333333	1	726.1	13	320676	3	320664	27	40	320703	-999999	320679	0	34	TrialsPROC	BP_024_H3-T_BA.png	2	2	53	SessionSelectionList														nonlure	3	Body	2-Back	46	80	45	0	0	100	1	39	192661	2	14	73	190622	-1	191884	1	1262	3	3	2039	53	192675	-54	0																53												
WM080112	199655_fnca	2	1	1	-1923017089	1	75.030	75.030	2.0.10.147	2.0.10.242	2.0.10.242	1.0.0.439	7	234	2	3	Verdana	1	80	0	0	0	WM Stimuli\	1	1004.9	1	972.3	1	915.5	1	528.8	1	952	1	657.9	0.9	876.333333333333	1	726.1	13	320676	3	320664	27	40	320703	-999999	320679	0	34	TrialsPROC	BP_024_H3-T_BA.png	2	2	54	SessionSelectionList														lure	3	Body	2-Back	47	80	46	0	0	100	2	39	195220	2	14	59	193181	-1	194151	1	970	3	3	2039	53	195234	-54	0																54												
WM080112	199655_fnca	2	1	1	-1923017089	1	75.030	75.030	2.0.10.147	2.0.10.242	2.0.10.242	1.0.0.439	7	234	2	3	Verdana	1	80	0	0	0	WM Stimuli\	1	1004.9	1	972.3	1	915.5	1	528.8	1	952	1	657.9	0.9	876.333333333333	1	726.1	13	320676	3	320664	27	40	320703	-999999	320679	0	34	TrialsPROC	BP_025_H5-T_BA.png	2	2	55	SessionSelectionList														nonlure	3	Body	2-Back	48	80	47	0	0	100	3	39	197779	1	14	59	195740	-1	196744	1	1004	3	3	2039	53	197793	-54	0																55												
WM080112	199655_fnca	2	1	1	-1923017089	1	75.030	75.030	2.0.10.147	2.0.10.242	2.0.10.242	1.0.0.439	7	234	2	3	Verdana	1	80	0	0	0	WM Stimuli\	1	1004.9	1	972.3	1	915.5	1	528.8	1	952	1	657.9	0.9	876.333333333333	1	726.1	13	320676	3	320664	27	40	320703	-999999	320679	0	34	TrialsPROC	BP_023_H25-T_BA.png	2	2	56	SessionSelectionList														nonlure	3	Body	2-Back	49	80	48	0	0	100	4	39	200351	2	14	72	198312	-1	199065	1	753	3	3	2039	53	200365	-54	0																56												
WM080112	199655_fnca	2	1	1	-1923017089	1	75.030	75.030	2.0.10.147	2.0.10.242	2.0.10.242	1.0.0.439	7	234	2	3	Verdana	1	80	0	0	0	WM Stimuli\	1	1004.9	1	972.3	1	915.5	1	528.8	1	952	1	657.9	0.9	876.333333333333	1	726.1	13	320676	3	320664	27	40	320703	-999999	320679	0	34	TrialsPROC	BP_022_H24-T_BA.png	2	2	57	SessionSelectionList														nonlure	3	Body	2-Back	50	80	49	0	0	100	5	39	202910	3	14	59	200871	-1	201640	1	769	3	3	2039	53	202924	-54	0																57												
WM080112	199655_fnca	2	1	1	-1923017089	1	75.030	75.030	2.0.10.147	2.0.10.242	2.0.10.242	1.0.0.439	7	234	2	3	Verdana	1	80	0	0	0	WM Stimuli\	1	1004.9	1	972.3	1	915.5	1	528.8	1	952	1	657.9	0.9	876.333333333333	1	726.1	13	320676	3	320664	27	40	320703	-999999	320679	0	34	TrialsPROC	BP_022_H24-T_BA.png	2	2	58	SessionSelectionList														lure	3	Body	2-Back	51	80	50	0	0	100	6	39	205469	2	14	59	203430	-1	204369	1	939	3	3	2039	53	205483	-54	0																58												
WM080112	199655_fnca	2	1	1	-1923017089	1	75.030	75.030	2.0.10.147	2.0.10.242	2.0.10.242	1.0.0.439	7	234	2	3	Verdana	1	80	0	0	0	WM Stimuli\	1	1004.9	1	972.3	1	915.5	1	528.8	1	952	1	657.9	0.9	876.333333333333	1	726.1	13	320676	3	320664	27	40	320703	-999999	320679	0	35	Cue2BackPROC	""	2	2	59	SessionSelectionList									6	205936	-7	0																																													59												
WM080112	199655_fnca	2	1	1	-1923017089	1	75.030	75.030	2.0.10.147	2.0.10.242	2.0.10.242	1.0.0.439	7	234	2	3	Verdana	1	80	0	0	0	WM Stimuli\	1	1004.9	1	972.3	1	915.5	1	528.8	1	952	1	657.9	0.9	876.333333333333	1	726.1	13	320676	3	320664	27	40	320703	-999999	320679	0	36	TrialsPROC	PL_019_SCENE_05.png	2	2	60	SessionSelectionList														nonlure	3	Place	2-Back	52	80	51	0	0	100	7	39	210534	1	13	65	208495	-1	209631	1	1136	3	3	2039	52	210547	-53	0																60												
WM080112	199655_fnca	2	1	1	-1923017089	1	75.030	75.030	2.0.10.147	2.0.10.242	2.0.10.242	1.0.0.439	7	234	2	3	Verdana	1	80	0	0	0	WM Stimuli\	1	1004.9	1	972.3	1	915.5	1	528.8	1	952	1	657.9	0.9	876.333333333333	1	726.1	13	320676	3	320664	27	40	320703	-999999	320679	0	36	TrialsPROC	PL_017_SCENE_03.png	2	2	61	SessionSelectionList														nonlure	3	Place	2-Back	53	80	52	0	0	100	8	39	213106	1	14	72	211067	-1	212164	1	1097	3	3	2039	53	213120	-54	0																61												
WM080112	199655_fnca	2	1	1	-1923017089	1	75.030	75.030	2.0.10.147	2.0.10.242	2.0.10.242	1.0.0.439	7	234	2	3	Verdana	1	80	0	0	0	WM Stimuli\	1	1004.9	1	972.3	1	915.5	1	528.8	1	952	1	657.9	0.9	876.333333333333	1	726.1	13	320676	3	320664	27	40	320703	-999999	320679	0	36	TrialsPROC	PL_017_SCENE_03.png	2	2	62	SessionSelectionList														lure	3	Place	2-Back	54	80	53	0	0	100	9	39	215678	2	14	72	213639	-1	214457	1	818	3	3	2039	53	215692	-54	0																62												
WM080112	199655_fnca	2	1	1	-1923017089	1	75.030	75.030	2.0.10.147	2.0.10.242	2.0.10.242	1.0.0.439	7	234	2	3	Verdana	1	80	0	0	0	WM Stimuli\	1	1004.9	1	972.3	1	915.5	1	528.8	1	952	1	657.9	0.9	876.333333333333	1	726.1	13	320676	3	320664	27	40	320703	-999999	320679	0	36	TrialsPROC	PL_016_SCENE_02.png	2	2	63	SessionSelectionList														nonlure	3	Place	2-Back	55	80	54	0	0	100	10	39	218251	2	13	73	216212	-1	216887	1	675	3	3	2039	52	218264	-53	0																63												
WM080112	199655_fnca	2	1	1	-1923017089	1	75.030	75.030	2.0.10.147	2.0.10.242	2.0.10.242	1.0.0.439	7	234	2	3	Verdana	1	80	0	0	0	WM Stimuli\	1	1004.9	1	972.3	1	915.5	1	528.8	1	952	1	657.9	0.9	876.333333333333	1	726.1	13	320676	3	320664	27	40	320703	-999999	320679	0	36	TrialsPROC	PL_015_SCENE_01.png	2	2	64	SessionSelectionList														nonlure	3	Place	2-Back	56	80	55	0	0	100	11	39	220823	1	14	72	218784	-1	219469	1	685	3	3	2039	53	220837	-54	0																64												
WM080112	199655_fnca	2	1	1	-1923017089	1	75.030	75.030	2.0.10.147	2.0.10.242	2.0.10.242	1.0.0.439	7	234	2	3	Verdana	1	80	0	0	0	WM Stimuli\	1	1004.9	1	972.3	1	915.5	1	528.8	1	952	1	657.9	0.9	876.333333333333	1	726.1	13	320676	3	320664	27	40	320703	-999999	320679	0	36	TrialsPROC	PL_016_SCENE_02.png	2	2	65	SessionSelectionList														target	2	Place	2-Back	57	80	56	0	0	100	1	39	223395	2	14	72	221356	-1	222205	1	849	2	2	2039	53	223409	-54	0																65												
WM080112	199655_fnca	2	1	1	-1923017089	1	75.030	75.030	2.0.10.147	2.0.10.242	2.0.10.242	1.0.0.439	7	234	2	3	Verdana	1	80	0	0	0	WM Stimuli\	1	1004.9	1	972.3	1	915.5	1	528.8	1	952	1	657.9	0.9	876.333333333333	1	726.1	13	320676	3	320664	27	40	320703	-999999	320679	0	36	TrialsPROC	PL_015_SCENE_01.png	2	2	66	SessionSelectionList														target	2	Place	2-Back	58	80	57	0	0	100	2	40	225968	2	13	72	223928	-1	225046	1	1118	2	2	2040	53	225981	-54	0																66												
WM080112	199655_fnca	2	1	1	-1923017089	1	75.030	75.030	2.0.10.147	2.0.10.242	2.0.10.242	1.0.0.439	7	234	2	3	Verdana	1	80	0	0	0	WM Stimuli\	1	1004.9	1	972.3	1	915.5	1	528.8	1	952	1	657.9	0.9	876.333333333333	1	726.1	13	320676	3	320664	27	40	320703	-999999	320679	0	36	TrialsPROC	PL_020_SCENE_06.png	2	2	67	SessionSelectionList														nonlure	3	Place	2-Back	59	80	58	0	0	100	1	39	228540	1	14	73	226501	-1	227463	1	962	3	3	2039	53	228554	-54	0																67												
WM080112	199655_fnca	2	1	1	-1923017089	1	75.030	75.030	2.0.10.147	2.0.10.242	2.0.10.242	1.0.0.439	7	234	2	3	Verdana	1	80	0	0	0	WM Stimuli\	1	1004.9	1	972.3	1	915.5	1	528.8	1	952	1	657.9	0.9	876.333333333333	1	726.1	13	320676	3	320664	27	40	320703	-999999	320679	0	36	TrialsPROC	PL_020_SCENE_06.png	2	2	68	SessionSelectionList														lure	3	Place	2-Back	60	80	59	0	0	100	2	39	231112	2	14	72	229073	-1	230014	1	941	3	3	2039	53	231126	-54	0																68												
WM080112	199655_fnca	2	1	1	-1923017089	1	75.030	75.030	2.0.10.147	2.0.10.242	2.0.10.242	1.0.0.439	7	234	2	3	Verdana	1	80	0	0	0	WM Stimuli\	1	1004.9	1	972.3	1	915.5	1	528.8	1	952	1	657.9	0.9	876.333333333333	1	726.1	13	320676	3	320664	27	40	320703	-999999	320679	0	36	TrialsPROC	PL_018_SCENE_04.png	2	2	69	SessionSelectionList														nonlure	3	Place	2-Back	61	80	60	0	0	100	3	40	233685	1	13	72	231645	-1	232884	1	1239	3	3	2040	53	233698	-54	0																69												
WM080112	199655_fnca	2	1	1	-1923017089	1	75.030	75.030	2.0.10.147	2.0.10.242	2.0.10.242	1.0.0.439	7	234	2	3	Verdana	1	80	0	0	0	WM Stimuli\	1	1004.9	1	972.3	1	915.5	1	528.8	1	952	1	657.9	0.9	876.333333333333	1	726.1	13	320676	3	320664	27	40	320703	-999999	320679	0	37	Fix15secPROC	""	2	2	70	SessionSelectionList																																															6	234151	-7	0							70												
WM080112	199655_fnca	2	1	1	-1923017089	1	75.030	75.030	2.0.10.147	2.0.10.242	2.0.10.242	1.0.0.439	7	234	2	3	Verdana	1	80	0	0	0	WM Stimuli\	1	1004.9	1	972.3	1	915.5	1	528.8	1	952	1	657.9	0.9	876.333333333333	1	726.1	13	320676	3	320664	27	40	320703	-999999	320679	0	38	Cue0BackPROC	FC_020_F10.png	2	2	71	SessionSelectionList																																										40	249185	-41	0												71												
WM080112	199655_fnca	2	1	1	-1923017089	1	75.030	75.030	2.0.10.147	2.0.10.242	2.0.10.242	1.0.0.439	7	234	2	3	Verdana	1	80	0	0	0	WM Stimuli\	1	1004.9	1	972.3	1	915.5	1	528.8	1	952	1	657.9	0.9	876.333333333333	1	726.1	13	320676	3	320664	27	40	320703	-999999	320679	0	39	TrialsPROC	FC_024_F12.png	2	2	72	SessionSelectionList														nonlure	3	Face	0-Back	62	80	61	0	0	100	4	39	253770	2	14	86	251731	-1	252626	1	895	3	3	2039	53	253784	-54	0																72												
WM080112	199655_fnca	2	1	1	-1923017089	1	75.030	75.030	2.0.10.147	2.0.10.242	2.0.10.242	1.0.0.439	7	234	2	3	Verdana	1	80	0	0	0	WM Stimuli\	1	1004.9	1	972.3	1	915.5	1	528.8	1	952	1	657.9	0.9	876.333333333333	1	726.1	13	320676	3	320664	27	40	320703	-999999	320679	0	39	TrialsPROC	FC_023_M12.png	2	2	73	SessionSelectionList														nonlure	3	Face	0-Back	63	80	62	0	0	100	5	39	256355	2	14	85	254316	-1	254818	1	502	3	3	2039	53	256369	-54	0																73												
WM080112	199655_fnca	2	1	1	-1923017089	1	75.030	75.030	2.0.10.147	2.0.10.242	2.0.10.242	1.0.0.439	7	234	2	3	Verdana	1	80	0	0	0	WM Stimuli\	1	1004.9	1	972.3	1	915.5	1	528.8	1	952	1	657.9	0.9	876.333333333333	1	726.1	13	320676	3	320664	27	40	320703	-999999	320679	0	39	TrialsPROC	FC_020_F10.png	2	2	74	SessionSelectionList														target	2	Face	0-Back	64	80	63	0	0	100	1	39	258928	2	13	73	256889	-1	257330	1	441	2	2	2039	52	258941	-53	0																74												
WM080112	199655_fnca	2	1	1	-1923017089	1	75.030	75.030	2.0.10.147	2.0.10.242	2.0.10.242	1.0.0.439	7	234	2	3	Verdana	1	80	0	0	0	WM Stimuli\	1	1004.9	1	972.3	1	915.5	1	528.8	1	952	1	657.9	0.9	876.333333333333	1	726.1	13	320676	3	320664	27	40	320703	-999999	320679	0	39	TrialsPROC	FC_024_F12.png	2	2	75	SessionSelectionList														lure	3	Face	0-Back	65	80	64	0	0	100	1	39	261500	3	14	72	259461	-1	260039	1	578	3	3	2039	53	261514	-54	0																75												
WM080112	199655_fnca	2	1	1	-1923017089	1	75.030	75.030	2.0.10.147	2.0.10.242	2.0.10.242	1.0.0.439	7	234	2	3	Verdana	1	80	0	0	0	WM Stimuli\	1	1004.9	1	972.3	1	915.5	1	528.8	1	952	1	657.9	0.9	876.333333333333	1	726.1	13	320676	3	320664	27	40	320703	-999999	320679	0	39	TrialsPROC	FC_020_F10.png	2	2	76	SessionSelectionList														target	2	Face	0-Back	66	80	65	0	0	100	1	39	264072	2	14	72	262033	-1	262524	1	491	2	2	2039	53	264086	-54	0																76												
WM080112	199655_fnca	2	1	1	-1923017089	1	75.030	75.030	2.0.10.147	2.0.10.242	2.0.10.242	1.0.0.439	7	234	2	3	Verdana	1	80	0	0	0	WM Stimuli\	1	1004.9	1	972.3	1	915.5	1	528.8	1	952	1	657.9	0.9	876.333333333333	1	726.1	13	320676	3	320664	27	40	320703	-999999	320679	0	39	TrialsPROC	FC_022_F11.png	2	2	77	SessionSelectionList														nonlure	3	Face	0-Back	67	80	66	0	0	100	1	39	266658	2	14	86	264619	-1	265117	1	498	3	3	2039	53	266672	-54	0																77												
WM080112	199655_fnca	2	1	1	-1923017089	1	75.030	75.030	2.0.10.147	2.0.10.242	2.0.10.242	1.0.0.439	7	234	2	3	Verdana	1	80	0	0	0	WM Stimuli\	1	1004.9	1	972.3	1	915.5	1	528.8	1	952	1	657.9	0.9	876.333333333333	1	726.1	13	320676	3	320664	27	40	320703	-999999	320679	0	39	TrialsPROC	FC_023_M12.png	2	2	78	SessionSelectionList														lure	3	Face	0-Back	68	80	67	0	0	100	2	39	269230	2	14	72	267191	-1	267751	1	560	3	3	2039	53	269244	-54	0																78												
WM080112	199655_fnca	2	1	1	-1923017089	1	75.030	75.030	2.0.10.147	2.0.10.242	2.0.10.242	1.0.0.439	7	234	2	3	Verdana	1	80	0	0	0	WM Stimuli\	1	1004.9	1	972.3	1	915.5	1	528.8	1	952	1	657.9	0.9	876.333333333333	1	726.1	13	320676	3	320664	27	40	320703	-999999	320679	0	39	TrialsPROC	FC_021_M11.png	2	2	79	SessionSelectionList														nonlure	3	Face	0-Back	69	80	68	0	0	100	3	39	271816	2	14	86	269777	-1	270249	1	472	3	3	2039	53	271830	-54	0																79												
WM080112	199655_fnca	2	1	1	-1923017089	1	75.030	75.030	2.0.10.147	2.0.10.242	2.0.10.242	1.0.0.439	7	234	2	3	Verdana	1	80	0	0	0	WM Stimuli\	1	1004.9	1	972.3	1	915.5	1	528.8	1	952	1	657.9	0.9	876.333333333333	1	726.1	13	320676	3	320664	27	40	320703	-999999	320679	0	39	TrialsPROC	FC_021_M11.png	2	2	80	SessionSelectionList														lure	3	Face	0-Back	70	80	69	0	0	100	4	39	274388	3	14	72	272349	-1	272743	1	394	3	3	2039	53	274402	-54	0																80												
WM080112	199655_fnca	2	1	1	-1923017089	1	75.030	75.030	2.0.10.147	2.0.10.242	2.0.10.242	1.0.0.439	7	234	2	3	Verdana	1	80	0	0	0	WM Stimuli\	1	1004.9	1	972.3	1	915.5	1	528.8	1	952	1	657.9	0.9	876.333333333333	1	726.1	13	320676	3	320664	27	40	320703	-999999	320679	0	39	TrialsPROC	FC_019_M10.png	2	2	81	SessionSelectionList														nonlure	3	Face	0-Back	71	80	70	0	0	100	5	39	276974	2	14	86	274935	-1	275392	1	457	3	3	2039	53	276988	-54	0																81												
WM080112	199655_fnca	2	1	1	-1923017089	1	75.030	75.030	2.0.10.147	2.0.10.242	2.0.10.242	1.0.0.439	7	234	2	3	Verdana	1	80	0	0	0	WM Stimuli\	1	1004.9	1	972.3	1	915.5	1	528.8	1	952	1	657.9	0.9	876.333333333333	1	726.1	13	320676	3	320664	27	40	320703	-999999	320679	0	40	Cue0BackPROC	PL_021_SCENE_07.png	2	2	82	SessionSelectionList																																										19	277454	-20	0												82												
WM080112	199655_fnca	2	1	1	-1923017089	1	75.030	75.030	2.0.10.147	2.0.10.242	2.0.10.242	1.0.0.439	7	234	2	3	Verdana	1	80	0	0	0	WM Stimuli\	1	1004.9	1	972.3	1	915.5	1	528.8	1	952	1	657.9	0.9	876.333333333333	1	726.1	13	320676	3	320664	27	40	320703	-999999	320679	0	41	TrialsPROC	PL_025_SCENE_18.png	2	2	83	SessionSelectionList														nonlure	3	Place	0-Back	72	80	71	0	0	100	6	39	282052	1	14	78	280013	-1	280659	1	646	3	3	2039	53	282066	-54	0																83												
WM080112	199655_fnca	2	1	1	-1923017089	1	75.030	75.030	2.0.10.147	2.0.10.242	2.0.10.242	1.0.0.439	7	234	2	3	Verdana	1	80	0	0	0	WM Stimuli\	1	1004.9	1	972.3	1	915.5	1	528.8	1	952	1	657.9	0.9	876.333333333333	1	726.1	13	320676	3	320664	27	40	320703	-999999	320679	0	41	TrialsPROC	PL_026_SCENE_24.png	2	2	84	SessionSelectionList														nonlure	3	Place	0-Back	73	80	72	0	0	100	7	39	284624	2	14	72	282585	-1	283166	1	581	3	3	2039	53	284638	-54	0																84												
WM080112	199655_fnca	2	1	1	-1923017089	1	75.030	75.030	2.0.10.147	2.0.10.242	2.0.10.242	1.0.0.439	7	234	2	3	Verdana	1	80	0	0	0	WM Stimuli\	1	1004.9	1	972.3	1	915.5	1	528.8	1	952	1	657.9	0.9	876.333333333333	1	726.1	13	320676	3	320664	27	40	320703	-999999	320679	0	41	TrialsPROC	PL_025_SCENE_18.png	2	2	85	SessionSelectionList														lure	3	Place	0-Back	74	80	73	0	0	100	8	40	287197	1	13	72	285157	-1	285755	1	598	3	3	2040	53	287210	-54	0																85												
WM080112	199655_fnca	2	1	1	-1923017089	1	75.030	75.030	2.0.10.147	2.0.10.242	2.0.10.242	1.0.0.439	7	234	2	3	Verdana	1	80	0	0	0	WM Stimuli\	1	1004.9	1	972.3	1	915.5	1	528.8	1	952	1	657.9	0.9	876.333333333333	1	726.1	13	320676	3	320664	27	40	320703	-999999	320679	0	41	TrialsPROC	PL_022_SCENE_08.png	2	2	86	SessionSelectionList														nonlure	3	Place	0-Back	75	80	74	0	0	100	9	39	289769	2	14	73	287730	-1	288254	1	524	3	3	2039	53	289783	-54	0																86												
WM080112	199655_fnca	2	1	1	-1923017089	1	75.030	75.030	2.0.10.147	2.0.10.242	2.0.10.242	1.0.0.439	7	234	2	3	Verdana	1	80	0	0	0	WM Stimuli\	1	1004.9	1	972.3	1	915.5	1	528.8	1	952	1	657.9	0.9	876.333333333333	1	726.1	13	320676	3	320664	27	40	320703	-999999	320679	0	41	TrialsPROC	PL_026_SCENE_24.png	2	2	87	SessionSelectionList														lure	3	Place	0-Back	76	80	75	0	0	100	10	39	292341	2	14	72	290302	-1	291198	1	896	3	3	2039	53	292355	-54	0																87												
WM080112	199655_fnca	2	1	1	-1923017089	1	75.030	75.030	2.0.10.147	2.0.10.242	2.0.10.242	1.0.0.439	7	234	2	3	Verdana	1	80	0	0	0	WM Stimuli\	1	1004.9	1	972.3	1	915.5	1	528.8	1	952	1	657.9	0.9	876.333333333333	1	726.1	13	320676	3	320664	27	40	320703	-999999	320679	0	41	TrialsPROC	PL_021_SCENE_07.png	2	2	88	SessionSelectionList														target	2	Place	0-Back	77	80	76	0	0	100	1	39	294913	3	14	72	292874	-1	293579	1	705	2	2	2039	53	294927	-54	0																88												
WM080112	199655_fnca	2	1	1	-1923017089	1	75.030	75.030	2.0.10.147	2.0.10.242	2.0.10.242	1.0.0.439	7	234	2	3	Verdana	1	80	0	0	0	WM Stimuli\	1	1004.9	1	972.3	1	915.5	1	528.8	1	952	1	657.9	0.9	876.333333333333	1	726.1	13	320676	3	320664	27	40	320703	-999999	320679	0	41	TrialsPROC	PL_021_SCENE_07.png	2	2	89	SessionSelectionList														target	2	Place	0-Back	78	80	77	0	0	100	2	39	297486	1	13	73	295447	-1	295989	1	542	2	2	2039	52	297499	-53	0																89												
WM080112	199655_fnca	2	1	1	-1923017089	1	75.030	75.030	2.0.10.147	2.0.10.242	2.0.10.242	1.0.0.439	7	234	2	3	Verdana	1	80	0	0	0	WM Stimuli\	1	1004.9	1	972.3	1	915.5	1	528.8	1	952	1	657.9	0.9	876.333333333333	1	726.1	13	320676	3	320664	27	40	320703	-999999	320679	0	41	TrialsPROC	PL_023_SCENE_09.png	2	2	90	SessionSelectionList														nonlure	3	Place	0-Back	79	80	78	0	0	100	1	39	300058	3	14	72	298019	-1	298835	1	816	3	3	2039	53	300072	-54	0																90												
WM080112	199655_fnca	2	1	1	-1923017089	1	75.030	75.030	2.0.10.147	2.0.10.242	2.0.10.242	1.0.0.439	7	234	2	3	Verdana	1	80	0	0	0	WM Stimuli\	1	1004.9	1	972.3	1	915.5	1	528.8	1	952	1	657.9	0.9	876.333333333333	1	726.1	13	320676	3	320664	27	40	320703	-999999	320679	0	41	TrialsPROC	PL_024_SCENE_10.png	2	2	91	SessionSelectionList														nonlure	3	Place	0-Back	80	80	79	0	0	100	2	39	302630	2	14	72	300591	-1	301284	1	693	3	3	2039	53	302644	-54	0																91												
WM080112	199655_fnca	2	1	1	-1923017089	1	75.030	75.030	2.0.10.147	2.0.10.242	2.0.10.242	1.0.0.439	7	234	2	3	Verdana	1	80	0	0	0	WM Stimuli\	1	1004.9	1	972.3	1	915.5	1	528.8	1	952	1	657.9	0.9	876.333333333333	1	726.1	13	320676	3	320664	27	40	320703	-999999	320679	0	41	TrialsPROC	PL_022_SCENE_08.png	2	2	92	SessionSelectionList														lure	3	Place	0-Back	80	80	80	0	0	100	3	40	305203	2	13	72	303163	-1	303741	1	578	3	3	2040	53	305216	-54	0																92												
WM080112	199655_fnca	2	1	1	-1923017089	1	75.030	75.030	2.0.10.147	2.0.10.242	2.0.10.242	1.0.0.439	7	234	2	3	Verdana	1	80	0	0	0	WM Stimuli\	1	1004.9	1	972.3	1	915.5	1	528.8	1	952	1	657.9	0.9	876.333333333333	1	726.1	13	320676	3	320664	27	40	320703	-999999	320679	0	42	Fix15secPROC	""	2	2	93	SessionSelectionList																																															6	305669	-7	0							93												
