ExperimentName	HCPID	RunNumber	Subject	Session	RandomSeed	Group	Laptop.RefreshRate	ScannerD2.RefreshRate	StudioVersion	RuntimeVersion	RuntimeVersionExpected	ExperimentVersion	triggercode	Allowed	Target	Nontarget	FontStyle	RunTrialNumber[Session]	TrialsPerRun[Session]	TotalRespGreater200[Session]	ConsecRTLess200[Session]	ConsecNonResp[Session]	StimuliDir	ACC_2_Back_Body	Avg_RT_For_Correct_Trials_2_Back_Body	ACC_0_Back_Body	Avg_RT_For_Correct_Trials_0_Back_Body	ACC_2_Back_Face	Avg_RT_For_Correct_Trials_2_Back_Face	ACC_0_Back_Face	Avg_RT_For_Correct_Trials_0_Back_Face	ACC_2_Back_Place	Avg_RT_For_Correct_Trials_2_Back_Place	ACC_0_Back_Place	Avg_RT_For_Correct_Trials_0_Back_Place	ACC_2_Back_Tools	Avg_RT_For_Correct_Trials_2_Back_Tools	ACC_0_Back_Tools	Avg_RT_For_Correct_Trials_0_Back_Tools	ExpInstrucFeelFreeToRest.OnsetDelay	ExpInstrucFeelFreeToRest.OnsetTime	ExpInstrucFeelFreeToRest.DurationError	ExpInstrucFeelFreeToRest.StartTime	ExpInstrucFeelFreeToRest.OnsetToOnsetTime	FeelFreeToRest.OnsetDelay	FeelFreeToRest.OnsetTime	FeelFreeToRest.DurationError	FeelFreeToRest.StartTime	FeelFreeToRest.OnsetToOnsetTime	SessionSelectionList	Procedure[Block]	Stimulus[Block]	RunNumberFilterValue	SessionSelectionList.Cycle	SessionSelectionList.Sample	Running[Block]	IntroButtonMap.OnsetDelay	IntroButtonMap.OnsetTime	IntroButtonMap.DurationError	IntroButtonMap.OnsetToOnsetTime	GetReady.OnsetDelay	GetReady.OnsetTime	GetReady.DurationError	GetReady.OnsetToOnsetTime	Cue2Back.OnsetDelay	Cue2Back.OnsetTime	Cue2Back.DurationError	Cue2Back.OnsetToOnsetTime	Run1Block1	TargetType	CorrectResponse	StimType	BlockType	RunTrialNumber[Block]	TrialsPerRun[Block]	TotalRespGreater200[Block]	ConsecRTLess200[Block]	ConsecNonResp[Block]	ControlAcc	ConsecSameResp	ExperimenterWindow.OnsetDelay	ExperimenterWindow.OnsetTime	ExperimenterWindow.DurationError	ExperimenterWindow.OnsetToOnsetTime	Stim.OnsetDelay	Stim.OnsetTime	Stim.DurationError	Stim.RTTime	Stim.ACC	Stim.RT	Stim.RESP	Stim.CRESP	Stim.OnsetToOnsetTime	Fix.OnsetDelay	Fix.OnsetTime	Fix.DurationError	Fix.OnsetToOnsetTime	CueTarget.OnsetDelay	CueTarget.OnsetTime	CueTarget.DurationError	CueTarget.OnsetToOnsetTime	Run1Block2	Fix15sec.OnsetDelay	Fix15sec.OnsetTime	Fix15sec.DurationError	Fix15sec.OnsetToOnsetTime	Run1Block3	Run1Block4	Run1Block5	Run1Block6	Run1Block7	Run1Block8	Block	Procedure[Trial]	Stimulus[Trial]	ReadyList	Running[Trial]	ReadyList.Cycle	ReadyList.Sample	SyncSlide.OnsetDelay	SyncSlide.OnsetTime	SyncSlide.DurationError	SyncSlide.FinishTime	SyncSlide.OnsetToOnsetTime	Trial
WM080112	123117_fnca	2	1	1	1084428779	1	75.031	75.031	2.0.10.147	2.0.10.242	2.0.10.242	1.0.0.439	7	234	2	3	Verdana	1	80	0	0	0	WM Stimuli\	0.9	824.777777777778	1	683.9	1	780.8	0.7	660.142857142857	0.9	873	1	1097.4	0.8	946	0.7	1133.14285714286	13	321450	2	321438	27	40	321477	-999999	321453	0	22	TRSyncPROC	""	2	2	1	SessionSelectionList	101	7605	-999999	0	41	15256	-999999	0																																																	1	InitialTR	4	1	ReadyList	1	1	16	28183	-17	30166	0	1
WM080112	123117_fnca	2	1	1	1084428779	1	75.031	75.031	2.0.10.147	2.0.10.242	2.0.10.242	1.0.0.439	7	234	2	3	Verdana	1	80	0	0	0	WM Stimuli\	0.9	824.777777777778	1	683.9	1	780.8	0.7	660.142857142857	0.9	873	1	1097.4	0.8	946	0.7	1133.14285714286	13	321450	2	321438	27	40	321477	-999999	321453	0	22	TRSyncPROC	""	2	2	1	SessionSelectionList	101	7605	-999999	0	41	15256	-999999	0																																																	1	InitialTR	3	2	ReadyList	1	2	16	30183	-17	32166	0	2
WM080112	123117_fnca	2	1	1	1084428779	1	75.031	75.031	2.0.10.147	2.0.10.242	2.0.10.242	1.0.0.439	7	234	2	3	Verdana	1	80	0	0	0	WM Stimuli\	0.9	824.777777777778	1	683.9	1	780.8	0.7	660.142857142857	0.9	873	1	1097.4	0.8	946	0.7	1133.14285714286	13	321450	2	321438	27	40	321477	-999999	321453	0	22	TRSyncPROC	""	2	2	1	SessionSelectionList	101	7605	-999999	0	41	15256	-999999	0																																																	1	InitialTR	2	3	ReadyList	1	3	15	32182	-16	34166	0	3
WM080112	123117_fnca	2	1	1	1084428779	1	75.031	75.031	2.0.10.147	2.0.10.242	2.0.10.242	1.0.0.439	7	234	2	3	Verdana	1	80	0	0	0	WM Stimuli\	0.9	824.777777777778	1	683.9	1	780.8	0.7	660.142857142857	0.9	873	1	1097.4	0.8	946	0.7	1133.14285714286	13	321450	2	321438	27	40	321477	-999999	321453	0	22	TRSyncPROC	""	2	2	1	SessionSelectionList	101	7605	-999999	0	41	15256	-999999	0																																																	1	InitialTR	1	4	ReadyList	1	4	14	34181	-15	36166	0	4
WM080112	123117_fnca	2	1	1	1084428779	1	75.031	75.031	2.0.10.147	2.0.10.242	2.0.10.242	1.0.0.439	7	234	2	3	Verdana	1	80	0	0	0	WM Stimuli\	0.9	824.777777777778	1	683.9	1	780.8	0.7	660.142857142857	0.9	873	1	1097.4	0.8	946	0.7	1133.14285714286	13	321450	2	321438	27	40	321477	-999999	321453	0	23	Cue2BackPROC	""	2	2	2	SessionSelectionList									13	36180	-14	0																																													2												
WM080112	123117_fnca	2	1	1	1084428779	1	75.031	75.031	2.0.10.147	2.0.10.242	2.0.10.242	1.0.0.439	7	234	2	3	Verdana	1	80	0	0	0	WM Stimuli\	0.9	824.777777777778	1	683.9	1	780.8	0.7	660.142857142857	0.9	873	1	1097.4	0.8	946	0.7	1133.14285714286	13	321450	2	321438	27	40	321477	-999999	321453	0	24	TrialsPROC	TO_014_TOOL14_BA.png	2	2	3	SessionSelectionList														nonlure	3	Tools	2-Back	2	80	1	0	0	0	1	53	40792	3	13	72	38739	-1	40211	1	1472	3	3	2053	66	40805	-67	0																3												
WM080112	123117_fnca	2	1	1	1084428779	1	75.031	75.031	2.0.10.147	2.0.10.242	2.0.10.242	1.0.0.439	7	234	2	3	Verdana	1	80	0	0	0	WM Stimuli\	0.9	824.777777777778	1	683.9	1	780.8	0.7	660.142857142857	0.9	873	1	1097.4	0.8	946	0.7	1133.14285714286	13	321450	2	321438	27	40	321477	-999999	321453	0	24	TrialsPROC	TO_013_TOOL13_BA.png	2	2	4	SessionSelectionList														nonlure	3	Tools	2-Back	3	80	2	0	0	0	2	39	43337	2	14	59	41298	-1	41925	1	627	3	3	2039	53	43351	-54	0																4												
WM080112	123117_fnca	2	1	1	1084428779	1	75.031	75.031	2.0.10.147	2.0.10.242	2.0.10.242	1.0.0.439	7	234	2	3	Verdana	1	80	0	0	0	WM Stimuli\	0.9	824.777777777778	1	683.9	1	780.8	0.7	660.142857142857	0.9	873	1	1097.4	0.8	946	0.7	1133.14285714286	13	321450	2	321438	27	40	321477	-999999	321453	0	24	TrialsPROC	TO_016_TOOL16_BA.png	2	2	5	SessionSelectionList														nonlure	3	Tools	2-Back	4	80	3	0	0	0	3	39	45896	2	14	59	43857	-1	44456	1	599	3	3	2039	53	45910	-54	0																5												
WM080112	123117_fnca	2	1	1	1084428779	1	75.031	75.031	2.0.10.147	2.0.10.242	2.0.10.242	1.0.0.439	7	234	2	3	Verdana	1	80	0	0	0	WM Stimuli\	0.9	824.777777777778	1	683.9	1	780.8	0.7	660.142857142857	0.9	873	1	1097.4	0.8	946	0.7	1133.14285714286	13	321450	2	321438	27	40	321477	-999999	321453	0	24	TrialsPROC	TO_014_TOOL14_BA.png	2	2	6	SessionSelectionList														lure	3	Tools	2-Back	5	80	4	0	0	0	1	39	48468	2	14	72	46429	-1	47241	0	812	2	3	2039	53	48482	-54	0																6												
WM080112	123117_fnca	2	1	1	1084428779	1	75.031	75.031	2.0.10.147	2.0.10.242	2.0.10.242	1.0.0.439	7	234	2	3	Verdana	1	80	0	0	0	WM Stimuli\	0.9	824.777777777778	1	683.9	1	780.8	0.7	660.142857142857	0.9	873	1	1097.4	0.8	946	0.7	1133.14285714286	13	321450	2	321438	27	40	321477	-999999	321453	0	24	TrialsPROC	TO_016_TOOL16_BA.png	2	2	7	SessionSelectionList														target	2	Tools	2-Back	6	80	5	0	0	0	2	39	51027	2	14	59	48988	-1	50624	1	1636	2	2	2039	53	51041	-54	0																7												
WM080112	123117_fnca	2	1	1	1084428779	1	75.031	75.031	2.0.10.147	2.0.10.242	2.0.10.242	1.0.0.439	7	234	2	3	Verdana	1	80	0	0	0	WM Stimuli\	0.9	824.777777777778	1	683.9	1	780.8	0.7	660.142857142857	0.9	873	1	1097.4	0.8	946	0.7	1133.14285714286	13	321450	2	321438	27	40	321477	-999999	321453	0	24	TrialsPROC	TO_018_TOOL18_BA.png	2	2	8	SessionSelectionList														nonlure	3	Tools	2-Back	7	80	6	0	0	0	1	39	53586	2	14	59	51547	-1	52412	1	865	3	3	2039	53	53600	-54	0																8												
WM080112	123117_fnca	2	1	1	1084428779	1	75.031	75.031	2.0.10.147	2.0.10.242	2.0.10.242	1.0.0.439	7	234	2	3	Verdana	1	80	0	0	0	WM Stimuli\	0.9	824.777777777778	1	683.9	1	780.8	0.7	660.142857142857	0.9	873	1	1097.4	0.8	946	0.7	1133.14285714286	13	321450	2	321438	27	40	321477	-999999	321453	0	24	TrialsPROC	TO_017_TOOL17_BA.png	2	2	9	SessionSelectionList														nonlure	3	Tools	2-Back	8	80	7	0	0	0	2	39	56145	2	14	59	54106	-1	55010	1	904	3	3	2039	53	56159	-54	0																9												
WM080112	123117_fnca	2	1	1	1084428779	1	75.031	75.031	2.0.10.147	2.0.10.242	2.0.10.242	1.0.0.439	7	234	2	3	Verdana	1	80	0	0	0	WM Stimuli\	0.9	824.777777777778	1	683.9	1	780.8	0.7	660.142857142857	0.9	873	1	1097.4	0.8	946	0.7	1133.14285714286	13	321450	2	321438	27	40	321477	-999999	321453	0	24	TrialsPROC	TO_018_TOOL18_BA.png	2	2	10	SessionSelectionList														target	2	Tools	2-Back	9	80	8	0	0	0	3	39	58704	2	14	59	56665	-1	57863	0	1198	3	2	2039	53	58718	-54	0																10												
WM080112	123117_fnca	2	1	1	1084428779	1	75.031	75.031	2.0.10.147	2.0.10.242	2.0.10.242	1.0.0.439	7	234	2	3	Verdana	1	80	0	0	0	WM Stimuli\	0.9	824.777777777778	1	683.9	1	780.8	0.7	660.142857142857	0.9	873	1	1097.4	0.8	946	0.7	1133.14285714286	13	321450	2	321438	27	40	321477	-999999	321453	0	24	TrialsPROC	TO_015_TOOL15_BA.png	2	2	11	SessionSelectionList														nonlure	3	Tools	2-Back	10	80	9	0	0	0	4	39	61263	2	14	59	59224	-1	60048	1	824	3	3	2039	53	61277	-54	0																11												
WM080112	123117_fnca	2	1	1	1084428779	1	75.031	75.031	2.0.10.147	2.0.10.242	2.0.10.242	1.0.0.439	7	234	2	3	Verdana	1	80	0	0	0	WM Stimuli\	0.9	824.777777777778	1	683.9	1	780.8	0.7	660.142857142857	0.9	873	1	1097.4	0.8	946	0.7	1133.14285714286	13	321450	2	321438	27	40	321477	-999999	321453	0	24	TrialsPROC	TO_017_TOOL17_BA.png	2	2	12	SessionSelectionList														lure	3	Tools	2-Back	11	80	10	0	0	0	5	39	63822	2	14	59	61783	-1	62424	1	641	3	3	2039	53	63836	-54	0																12												
WM080112	123117_fnca	2	1	1	1084428779	1	75.031	75.031	2.0.10.147	2.0.10.242	2.0.10.242	1.0.0.439	7	234	2	3	Verdana	1	80	0	0	0	WM Stimuli\	0.9	824.777777777778	1	683.9	1	780.8	0.7	660.142857142857	0.9	873	1	1097.4	0.8	946	0.7	1133.14285714286	13	321450	2	321438	27	40	321477	-999999	321453	0	25	Cue0BackPROC	BP_013_BP7_BA.png	2	2	13	SessionSelectionList																																										19	64302	-20	0												13												
WM080112	123117_fnca	2	1	1	1084428779	1	75.031	75.031	2.0.10.147	2.0.10.242	2.0.10.242	1.0.0.439	7	234	2	3	Verdana	1	80	0	0	0	WM Stimuli\	0.9	824.777777777778	1	683.9	1	780.8	0.7	660.142857142857	0.9	873	1	1097.4	0.8	946	0.7	1133.14285714286	13	321450	2	321438	27	40	321477	-999999	321453	0	26	TrialsPROC	BP_015_H10-T_BA.png	2	2	14	SessionSelectionList														nonlure	3	Body	0-Back	12	80	11	0	0	100	6	38	68873	2	14	52	66835	-1	67852	1	1017	3	3	2038	52	68887	-53	0																14												
WM080112	123117_fnca	2	1	1	1084428779	1	75.031	75.031	2.0.10.147	2.0.10.242	2.0.10.242	1.0.0.439	7	234	2	3	Verdana	1	80	0	0	0	WM Stimuli\	0.9	824.777777777778	1	683.9	1	780.8	0.7	660.142857142857	0.9	873	1	1097.4	0.8	946	0.7	1133.14285714286	13	321450	2	321438	27	40	321477	-999999	321453	0	26	TrialsPROC	BP_018_H13-T_BA.png	2	2	15	SessionSelectionList														nonlure	3	Body	0-Back	13	80	12	0	0	100	7	39	71432	2	14	58	69393	-1	69858	1	465	3	3	2039	53	71446	-54	0																15												
WM080112	123117_fnca	2	1	1	1084428779	1	75.031	75.031	2.0.10.147	2.0.10.242	2.0.10.242	1.0.0.439	7	234	2	3	Verdana	1	80	0	0	0	WM Stimuli\	0.9	824.777777777778	1	683.9	1	780.8	0.7	660.142857142857	0.9	873	1	1097.4	0.8	946	0.7	1133.14285714286	13	321450	2	321438	27	40	321477	-999999	321453	0	26	TrialsPROC	BP_014_BP9_BA.png	2	2	16	SessionSelectionList														nonlure	3	Body	0-Back	14	80	13	0	0	100	8	39	73991	2	14	59	71952	-1	72716	1	764	3	3	2039	53	74005	-54	0																16												
WM080112	123117_fnca	2	1	1	1084428779	1	75.031	75.031	2.0.10.147	2.0.10.242	2.0.10.242	1.0.0.439	7	234	2	3	Verdana	1	80	0	0	0	WM Stimuli\	0.9	824.777777777778	1	683.9	1	780.8	0.7	660.142857142857	0.9	873	1	1097.4	0.8	946	0.7	1133.14285714286	13	321450	2	321438	27	40	321477	-999999	321453	0	26	TrialsPROC	BP_018_H13-T_BA.png	2	2	17	SessionSelectionList														lure	3	Body	0-Back	15	80	14	0	0	100	9	39	76550	2	14	59	74511	-1	75032	1	521	3	3	2039	53	76564	-54	0																17												
WM080112	123117_fnca	2	1	1	1084428779	1	75.031	75.031	2.0.10.147	2.0.10.242	2.0.10.242	1.0.0.439	7	234	2	3	Verdana	1	80	0	0	0	WM Stimuli\	0.9	824.777777777778	1	683.9	1	780.8	0.7	660.142857142857	0.9	873	1	1097.4	0.8	946	0.7	1133.14285714286	13	321450	2	321438	27	40	321477	-999999	321453	0	26	TrialsPROC	BP_013_BP7_BA.png	2	2	18	SessionSelectionList														target	2	Body	0-Back	16	80	15	0	0	100	1	39	79122	2	14	72	77083	-1	77739	1	656	2	2	2039	53	79136	-54	0																18												
WM080112	123117_fnca	2	1	1	1084428779	1	75.031	75.031	2.0.10.147	2.0.10.242	2.0.10.242	1.0.0.439	7	234	2	3	Verdana	1	80	0	0	0	WM Stimuli\	0.9	824.777777777778	1	683.9	1	780.8	0.7	660.142857142857	0.9	873	1	1097.4	0.8	946	0.7	1133.14285714286	13	321450	2	321438	27	40	321477	-999999	321453	0	26	TrialsPROC	BP_015_H10-T_BA.png	2	2	19	SessionSelectionList														lure	3	Body	0-Back	17	80	16	0	0	100	1	39	81682	1	13	60	79643	-1	80354	1	711	3	3	2039	52	81695	-53	0																19												
WM080112	123117_fnca	2	1	1	1084428779	1	75.031	75.031	2.0.10.147	2.0.10.242	2.0.10.242	1.0.0.439	7	234	2	3	Verdana	1	80	0	0	0	WM Stimuli\	0.9	824.777777777778	1	683.9	1	780.8	0.7	660.142857142857	0.9	873	1	1097.4	0.8	946	0.7	1133.14285714286	13	321450	2	321438	27	40	321477	-999999	321453	0	26	TrialsPROC	BP_016_H11-T_BA.png	2	2	20	SessionSelectionList														nonlure	3	Body	0-Back	18	80	17	0	0	100	2	38	84240	2	14	59	82202	-1	82656	1	454	3	3	2038	52	84254	-53	0																20												
WM080112	123117_fnca	2	1	1	1084428779	1	75.031	75.031	2.0.10.147	2.0.10.242	2.0.10.242	1.0.0.439	7	234	2	3	Verdana	1	80	0	0	0	WM Stimuli\	0.9	824.777777777778	1	683.9	1	780.8	0.7	660.142857142857	0.9	873	1	1097.4	0.8	946	0.7	1133.14285714286	13	321450	2	321438	27	40	321477	-999999	321453	0	26	TrialsPROC	BP_013_BP7_BA.png	2	2	21	SessionSelectionList														target	2	Body	0-Back	19	80	18	0	0	100	1	38	86799	2	14	59	84761	-1	85496	1	735	2	2	2038	52	86813	-53	0																21												
WM080112	123117_fnca	2	1	1	1084428779	1	75.031	75.031	2.0.10.147	2.0.10.242	2.0.10.242	1.0.0.439	7	234	2	3	Verdana	1	80	0	0	0	WM Stimuli\	0.9	824.777777777778	1	683.9	1	780.8	0.7	660.142857142857	0.9	873	1	1097.4	0.8	946	0.7	1133.14285714286	13	321450	2	321438	27	40	321477	-999999	321453	0	26	TrialsPROC	BP_017_H12-T_BA.png	2	2	22	SessionSelectionList														nonlure	3	Body	0-Back	20	80	19	0	0	100	1	39	89358	2	14	58	87319	-1	87889	1	570	3	3	2039	53	89372	-54	0																22												
WM080112	123117_fnca	2	1	1	1084428779	1	75.031	75.031	2.0.10.147	2.0.10.242	2.0.10.242	1.0.0.439	7	234	2	3	Verdana	1	80	0	0	0	WM Stimuli\	0.9	824.777777777778	1	683.9	1	780.8	0.7	660.142857142857	0.9	873	1	1097.4	0.8	946	0.7	1133.14285714286	13	321450	2	321438	27	40	321477	-999999	321453	0	26	TrialsPROC	BP_014_BP9_BA.png	2	2	23	SessionSelectionList														lure	3	Body	0-Back	21	80	20	0	0	100	2	39	91917	2	14	59	89878	-1	90824	1	946	3	3	2039	53	91931	-54	0																23												
WM080112	123117_fnca	2	1	1	1084428779	1	75.031	75.031	2.0.10.147	2.0.10.242	2.0.10.242	1.0.0.439	7	234	2	3	Verdana	1	80	0	0	0	WM Stimuli\	0.9	824.777777777778	1	683.9	1	780.8	0.7	660.142857142857	0.9	873	1	1097.4	0.8	946	0.7	1133.14285714286	13	321450	2	321438	27	40	321477	-999999	321453	0	27	Fix15secPROC	""	2	2	24	SessionSelectionList																																															6	92384	-7	0							24												
WM080112	123117_fnca	2	1	1	1084428779	1	75.031	75.031	2.0.10.147	2.0.10.242	2.0.10.242	1.0.0.439	7	234	2	3	Verdana	1	80	0	0	0	WM Stimuli\	0.9	824.777777777778	1	683.9	1	780.8	0.7	660.142857142857	0.9	873	1	1097.4	0.8	946	0.7	1133.14285714286	13	321450	2	321438	27	40	321477	-999999	321453	0	28	Cue2BackPROC	""	2	2	25	SessionSelectionList									13	107391	-14	0																																													25												
WM080112	123117_fnca	2	1	1	1084428779	1	75.031	75.031	2.0.10.147	2.0.10.242	2.0.10.242	1.0.0.439	7	234	2	3	Verdana	1	80	0	0	0	WM Stimuli\	0.9	824.777777777778	1	683.9	1	780.8	0.7	660.142857142857	0.9	873	1	1097.4	0.8	946	0.7	1133.14285714286	13	321450	2	321438	27	40	321477	-999999	321453	0	29	TrialsPROC	FC_015_M8.png	2	2	26	SessionSelectionList														nonlure	3	Face	2-Back	22	80	21	0	0	100	3	39	111989	1	14	72	109950	-1	110528	1	578	3	3	2039	53	112003	-54	0																26												
WM080112	123117_fnca	2	1	1	1084428779	1	75.031	75.031	2.0.10.147	2.0.10.242	2.0.10.242	1.0.0.439	7	234	2	3	Verdana	1	80	0	0	0	WM Stimuli\	0.9	824.777777777778	1	683.9	1	780.8	0.7	660.142857142857	0.9	873	1	1097.4	0.8	946	0.7	1133.14285714286	13	321450	2	321438	27	40	321477	-999999	321453	0	29	TrialsPROC	FC_018_F9.png	2	2	27	SessionSelectionList														nonlure	3	Face	2-Back	23	80	22	0	0	100	4	39	114561	2	14	72	112522	-1	113154	1	632	3	3	2039	53	114575	-54	0																27												
WM080112	123117_fnca	2	1	1	1084428779	1	75.031	75.031	2.0.10.147	2.0.10.242	2.0.10.242	1.0.0.439	7	234	2	3	Verdana	1	80	0	0	0	WM Stimuli\	0.9	824.777777777778	1	683.9	1	780.8	0.7	660.142857142857	0.9	873	1	1097.4	0.8	946	0.7	1133.14285714286	13	321450	2	321438	27	40	321477	-999999	321453	0	29	TrialsPROC	FC_018_F9.png	2	2	28	SessionSelectionList														lure	3	Face	2-Back	24	80	23	0	0	100	5	40	117134	1	13	72	115094	-1	115895	1	801	3	3	2040	53	117147	-54	0																28												
WM080112	123117_fnca	2	1	1	1084428779	1	75.031	75.031	2.0.10.147	2.0.10.242	2.0.10.242	1.0.0.439	7	234	2	3	Verdana	1	80	0	0	0	WM Stimuli\	0.9	824.777777777778	1	683.9	1	780.8	0.7	660.142857142857	0.9	873	1	1097.4	0.8	946	0.7	1133.14285714286	13	321450	2	321438	27	40	321477	-999999	321453	0	29	TrialsPROC	FC_017_M9.png	2	2	29	SessionSelectionList														nonlure	3	Face	2-Back	25	80	24	0	0	100	6	39	119706	1	14	73	117667	-1	118343	1	676	3	3	2039	53	119720	-54	0																29												
WM080112	123117_fnca	2	1	1	1084428779	1	75.031	75.031	2.0.10.147	2.0.10.242	2.0.10.242	1.0.0.439	7	234	2	3	Verdana	1	80	0	0	0	WM Stimuli\	0.9	824.777777777778	1	683.9	1	780.8	0.7	660.142857142857	0.9	873	1	1097.4	0.8	946	0.7	1133.14285714286	13	321450	2	321438	27	40	321477	-999999	321453	0	29	TrialsPROC	FC_017_M9.png	2	2	30	SessionSelectionList														lure	3	Face	2-Back	26	80	25	0	0	100	7	39	122278	2	14	72	120239	-1	121145	1	906	3	3	2039	53	122292	-54	0																30												
WM080112	123117_fnca	2	1	1	1084428779	1	75.031	75.031	2.0.10.147	2.0.10.242	2.0.10.242	1.0.0.439	7	234	2	3	Verdana	1	80	0	0	0	WM Stimuli\	0.9	824.777777777778	1	683.9	1	780.8	0.7	660.142857142857	0.9	873	1	1097.4	0.8	946	0.7	1133.14285714286	13	321450	2	321438	27	40	321477	-999999	321453	0	29	TrialsPROC	FC_016_F8.png	2	2	31	SessionSelectionList														nonlure	3	Face	2-Back	27	80	26	0	0	100	8	39	124850	2	14	72	122811	-1	123523	1	712	3	3	2039	53	124864	-54	0																31												
WM080112	123117_fnca	2	1	1	1084428779	1	75.031	75.031	2.0.10.147	2.0.10.242	2.0.10.242	1.0.0.439	7	234	2	3	Verdana	1	80	0	0	0	WM Stimuli\	0.9	824.777777777778	1	683.9	1	780.8	0.7	660.142857142857	0.9	873	1	1097.4	0.8	946	0.7	1133.14285714286	13	321450	2	321438	27	40	321477	-999999	321453	0	29	TrialsPROC	FC_013_M7.png	2	2	32	SessionSelectionList														nonlure	3	Face	2-Back	28	80	27	0	0	100	9	39	127423	1	14	73	125384	-1	126126	1	742	3	3	2039	53	127437	-54	0																32												
WM080112	123117_fnca	2	1	1	1084428779	1	75.031	75.031	2.0.10.147	2.0.10.242	2.0.10.242	1.0.0.439	7	234	2	3	Verdana	1	80	0	0	0	WM Stimuli\	0.9	824.777777777778	1	683.9	1	780.8	0.7	660.142857142857	0.9	873	1	1097.4	0.8	946	0.7	1133.14285714286	13	321450	2	321438	27	40	321477	-999999	321453	0	29	TrialsPROC	FC_014_F7.png	2	2	33	SessionSelectionList														nonlure	3	Face	2-Back	29	80	28	0	0	100	10	39	129995	2	14	72	127956	-1	128763	1	807	3	3	2039	53	130009	-54	0																33												
WM080112	123117_fnca	2	1	1	1084428779	1	75.031	75.031	2.0.10.147	2.0.10.242	2.0.10.242	1.0.0.439	7	234	2	3	Verdana	1	80	0	0	0	WM Stimuli\	0.9	824.777777777778	1	683.9	1	780.8	0.7	660.142857142857	0.9	873	1	1097.4	0.8	946	0.7	1133.14285714286	13	321450	2	321438	27	40	321477	-999999	321453	0	29	TrialsPROC	FC_013_M7.png	2	2	34	SessionSelectionList														target	2	Face	2-Back	30	80	29	0	0	100	1	39	132567	2	14	72	130528	-1	131316	1	788	2	2	2039	53	132581	-54	0																34												
WM080112	123117_fnca	2	1	1	1084428779	1	75.031	75.031	2.0.10.147	2.0.10.242	2.0.10.242	1.0.0.439	7	234	2	3	Verdana	1	80	0	0	0	WM Stimuli\	0.9	824.777777777778	1	683.9	1	780.8	0.7	660.142857142857	0.9	873	1	1097.4	0.8	946	0.7	1133.14285714286	13	321450	2	321438	27	40	321477	-999999	321453	0	29	TrialsPROC	FC_014_F7.png	2	2	35	SessionSelectionList														target	2	Face	2-Back	31	80	30	0	0	100	2	40	135140	1	13	72	133100	-1	134266	1	1166	2	2	2040	53	135153	-54	0																35												
WM080112	123117_fnca	2	1	1	1084428779	1	75.031	75.031	2.0.10.147	2.0.10.242	2.0.10.242	1.0.0.439	7	234	2	3	Verdana	1	80	0	0	0	WM Stimuli\	0.9	824.777777777778	1	683.9	1	780.8	0.7	660.142857142857	0.9	873	1	1097.4	0.8	946	0.7	1133.14285714286	13	321450	2	321438	27	40	321477	-999999	321453	0	30	Cue0BackPROC	TO_019_TOOL19_BA.png	2	2	36	SessionSelectionList																																										19	135619	-20	0												36												
WM080112	123117_fnca	2	1	1	1084428779	1	75.031	75.031	2.0.10.147	2.0.10.242	2.0.10.242	1.0.0.439	7	234	2	3	Verdana	1	80	0	0	0	WM Stimuli\	0.9	824.777777777778	1	683.9	1	780.8	0.7	660.142857142857	0.9	873	1	1097.4	0.8	946	0.7	1133.14285714286	13	321450	2	321438	27	40	321477	-999999	321453	0	31	TrialsPROC	TO_019_TOOL19_BA.png	2	2	37	SessionSelectionList														target	2	Tools	0-Back	32	80	31	0	0	100	3	39	140191	1	14	52	138152	-1	139707	1	1555	2	2	2039	53	140205	-54	0																37												
WM080112	123117_fnca	2	1	1	1084428779	1	75.031	75.031	2.0.10.147	2.0.10.242	2.0.10.242	1.0.0.439	7	234	2	3	Verdana	1	80	0	0	0	WM Stimuli\	0.9	824.777777777778	1	683.9	1	780.8	0.7	660.142857142857	0.9	873	1	1097.4	0.8	946	0.7	1133.14285714286	13	321450	2	321438	27	40	321477	-999999	321453	0	31	TrialsPROC	TO_024_TOOL24_BA.png	2	2	38	SessionSelectionList														nonlure	3	Tools	0-Back	33	80	32	0	0	92	4	39	142750	1	14	59	140711	-1	142056	0	1345	2	3	2039	53	142764	-54	0																38												
WM080112	123117_fnca	2	1	1	1084428779	1	75.031	75.031	2.0.10.147	2.0.10.242	2.0.10.242	1.0.0.439	7	234	2	3	Verdana	1	80	0	0	0	WM Stimuli\	0.9	824.777777777778	1	683.9	1	780.8	0.7	660.142857142857	0.9	873	1	1097.4	0.8	946	0.7	1133.14285714286	13	321450	2	321438	27	40	321477	-999999	321453	0	31	TrialsPROC	TO_019_TOOL19_BA.png	2	2	39	SessionSelectionList														target	2	Tools	0-Back	34	80	33	0	0	92	5	39	145309	1	14	59	143270	-1	144951	1	1681	2	2	2039	53	145323	-54	0																39												
WM080112	123117_fnca	2	1	1	1084428779	1	75.031	75.031	2.0.10.147	2.0.10.242	2.0.10.242	1.0.0.439	7	234	2	3	Verdana	1	80	0	0	0	WM Stimuli\	0.9	824.777777777778	1	683.9	1	780.8	0.7	660.142857142857	0.9	873	1	1097.4	0.8	946	0.7	1133.14285714286	13	321450	2	321438	27	40	321477	-999999	321453	0	31	TrialsPROC	TO_023_TOOL23_BA.png	2	2	40	SessionSelectionList														nonlure	3	Tools	0-Back	35	80	34	0	0	93	1	39	147868	1	13	59	145829	-1	146471	1	642	3	3	2039	52	147881	-53	0																40												
WM080112	123117_fnca	2	1	1	1084428779	1	75.031	75.031	2.0.10.147	2.0.10.242	2.0.10.242	1.0.0.439	7	234	2	3	Verdana	1	80	0	0	0	WM Stimuli\	0.9	824.777777777778	1	683.9	1	780.8	0.7	660.142857142857	0.9	873	1	1097.4	0.8	946	0.7	1133.14285714286	13	321450	2	321438	27	40	321477	-999999	321453	0	31	TrialsPROC	TO_020_TOOL20_BA.png	2	2	41	SessionSelectionList														nonlure	3	Tools	0-Back	36	80	35	0	0	93	2	40	150427	1	13	58	148387	-1	149728	1	1341	3	3	2040	53	150440	-54	0																41												
WM080112	123117_fnca	2	1	1	1084428779	1	75.031	75.031	2.0.10.147	2.0.10.242	2.0.10.242	1.0.0.439	7	234	2	3	Verdana	1	80	0	0	0	WM Stimuli\	0.9	824.777777777778	1	683.9	1	780.8	0.7	660.142857142857	0.9	873	1	1097.4	0.8	946	0.7	1133.14285714286	13	321450	2	321438	27	40	321477	-999999	321453	0	31	TrialsPROC	TO_020_TOOL20_BA.png	2	2	42	SessionSelectionList														lure	3	Tools	0-Back	37	80	36	0	0	94	3	40	152986	1	13	59	150946	-1	151629	1	683	3	3	2040	53	152999	-54	0																42												
WM080112	123117_fnca	2	1	1	1084428779	1	75.031	75.031	2.0.10.147	2.0.10.242	2.0.10.242	1.0.0.439	7	234	2	3	Verdana	1	80	0	0	0	WM Stimuli\	0.9	824.777777777778	1	683.9	1	780.8	0.7	660.142857142857	0.9	873	1	1097.4	0.8	946	0.7	1133.14285714286	13	321450	2	321438	27	40	321477	-999999	321453	0	31	TrialsPROC	TO_022_TOOL22_BA.png	2	2	43	SessionSelectionList														nonlure	3	Tools	0-Back	38	80	37	0	0	94	4	40	155545	1	13	59	153505	-1	154285	1	780	3	3	2040	53	155558	-54	0																43												
WM080112	123117_fnca	2	1	1	1084428779	1	75.031	75.031	2.0.10.147	2.0.10.242	2.0.10.242	1.0.0.439	7	234	2	3	Verdana	1	80	0	0	0	WM Stimuli\	0.9	824.777777777778	1	683.9	1	780.8	0.7	660.142857142857	0.9	873	1	1097.4	0.8	946	0.7	1133.14285714286	13	321450	2	321438	27	40	321477	-999999	321453	0	31	TrialsPROC	TO_022_TOOL22_BA.png	2	2	44	SessionSelectionList														lure	3	Tools	0-Back	39	80	38	0	0	89	1	39	158103	2	14	59	156064	-1	157305	0	1241	2	3	2039	53	158117	-54	0																44												
WM080112	123117_fnca	2	1	1	1084428779	1	75.031	75.031	2.0.10.147	2.0.10.242	2.0.10.242	1.0.0.439	7	234	2	3	Verdana	1	80	0	0	0	WM Stimuli\	0.9	824.777777777778	1	683.9	1	780.8	0.7	660.142857142857	0.9	873	1	1097.4	0.8	946	0.7	1133.14285714286	13	321450	2	321438	27	40	321477	-999999	321453	0	31	TrialsPROC	TO_021_TOOL21_BA.png	2	2	45	SessionSelectionList														nonlure	3	Tools	0-Back	40	80	39	0	0	89	1	39	160662	2	14	59	158623	-1	159873	1	1250	3	3	2039	53	160676	-54	0																45												
WM080112	123117_fnca	2	1	1	1084428779	1	75.031	75.031	2.0.10.147	2.0.10.242	2.0.10.242	1.0.0.439	7	234	2	3	Verdana	1	80	0	0	0	WM Stimuli\	0.9	824.777777777778	1	683.9	1	780.8	0.7	660.142857142857	0.9	873	1	1097.4	0.8	946	0.7	1133.14285714286	13	321450	2	321438	27	40	321477	-999999	321453	0	31	TrialsPROC	TO_021_TOOL21_BA.png	2	2	46	SessionSelectionList														lure	3	Tools	0-Back	41	80	40	0	0	85	1	39	163221	2	14	59	161182	-1	162721	0	1539	2	3	2039	53	163235	-54	0																46												
WM080112	123117_fnca	2	1	1	1084428779	1	75.031	75.031	2.0.10.147	2.0.10.242	2.0.10.242	1.0.0.439	7	234	2	3	Verdana	1	80	0	0	0	WM Stimuli\	0.9	824.777777777778	1	683.9	1	780.8	0.7	660.142857142857	0.9	873	1	1097.4	0.8	946	0.7	1133.14285714286	13	321450	2	321438	27	40	321477	-999999	321453	0	32	Fix15secPROC	""	2	2	47	SessionSelectionList																																															6	163688	-7	0							47												
WM080112	123117_fnca	2	1	1	1084428779	1	75.031	75.031	2.0.10.147	2.0.10.242	2.0.10.242	1.0.0.439	7	234	2	3	Verdana	1	80	0	0	0	WM Stimuli\	0.9	824.777777777778	1	683.9	1	780.8	0.7	660.142857142857	0.9	873	1	1097.4	0.8	946	0.7	1133.14285714286	13	321450	2	321438	27	40	321477	-999999	321453	0	33	Cue2BackPROC	""	2	2	48	SessionSelectionList									13	178695	-14	0																																													48												
WM080112	123117_fnca	2	1	1	1084428779	1	75.031	75.031	2.0.10.147	2.0.10.242	2.0.10.242	1.0.0.439	7	234	2	3	Verdana	1	80	0	0	0	WM Stimuli\	0.9	824.777777777778	1	683.9	1	780.8	0.7	660.142857142857	0.9	873	1	1097.4	0.8	946	0.7	1133.14285714286	13	321450	2	321438	27	40	321477	-999999	321453	0	34	TrialsPROC	BP_020_H17-T_BA.png	2	2	49	SessionSelectionList														nonlure	3	Body	2-Back	42	80	41	0	0	85	1	39	183280	1	14	59	181241	-1	181864	1	623	3	3	2039	53	183294	-54	0																49												
WM080112	123117_fnca	2	1	1	1084428779	1	75.031	75.031	2.0.10.147	2.0.10.242	2.0.10.242	1.0.0.439	7	234	2	3	Verdana	1	80	0	0	0	WM Stimuli\	0.9	824.777777777778	1	683.9	1	780.8	0.7	660.142857142857	0.9	873	1	1097.4	0.8	946	0.7	1133.14285714286	13	321450	2	321438	27	40	321477	-999999	321453	0	34	TrialsPROC	BP_019_H14-T_BA.png	2	2	50	SessionSelectionList														nonlure	3	Body	2-Back	43	80	42	0	0	85	2	39	185839	2	14	59	183800	-1	184685	1	885	3	3	2039	53	185853	-54	0																50												
WM080112	123117_fnca	2	1	1	1084428779	1	75.031	75.031	2.0.10.147	2.0.10.242	2.0.10.242	1.0.0.439	7	234	2	3	Verdana	1	80	0	0	0	WM Stimuli\	0.9	824.777777777778	1	683.9	1	780.8	0.7	660.142857142857	0.9	873	1	1097.4	0.8	946	0.7	1133.14285714286	13	321450	2	321438	27	40	321477	-999999	321453	0	34	TrialsPROC	BP_020_H17-T_BA.png	2	2	51	SessionSelectionList														target	2	Body	2-Back	44	80	43	0	0	85	1	39	188398	1	14	59	186359	-1	187257	1	898	2	2	2039	53	188412	-54	0																51												
WM080112	123117_fnca	2	1	1	1084428779	1	75.031	75.031	2.0.10.147	2.0.10.242	2.0.10.242	1.0.0.439	7	234	2	3	Verdana	1	80	0	0	0	WM Stimuli\	0.9	824.777777777778	1	683.9	1	780.8	0.7	660.142857142857	0.9	873	1	1097.4	0.8	946	0.7	1133.14285714286	13	321450	2	321438	27	40	321477	-999999	321453	0	34	TrialsPROC	BP_019_H14-T_BA.png	2	2	52	SessionSelectionList														target	2	Body	2-Back	45	80	44	0	0	85	2	39	190970	1	14	72	188931	-1	189540	1	609	2	2	2039	53	190984	-54	0																52												
WM080112	123117_fnca	2	1	1	1084428779	1	75.031	75.031	2.0.10.147	2.0.10.242	2.0.10.242	1.0.0.439	7	234	2	3	Verdana	1	80	0	0	0	WM Stimuli\	0.9	824.777777777778	1	683.9	1	780.8	0.7	660.142857142857	0.9	873	1	1097.4	0.8	946	0.7	1133.14285714286	13	321450	2	321438	27	40	321477	-999999	321453	0	34	TrialsPROC	BP_024_H3-T_BA.png	2	2	53	SessionSelectionList														nonlure	3	Body	2-Back	46	80	45	0	0	85	3	39	193529	1	14	59	191490	-1	193120	0	1630	2	3	2039	53	193543	-54	0																53												
WM080112	123117_fnca	2	1	1	1084428779	1	75.031	75.031	2.0.10.147	2.0.10.242	2.0.10.242	1.0.0.439	7	234	2	3	Verdana	1	80	0	0	0	WM Stimuli\	0.9	824.777777777778	1	683.9	1	780.8	0.7	660.142857142857	0.9	873	1	1097.4	0.8	946	0.7	1133.14285714286	13	321450	2	321438	27	40	321477	-999999	321453	0	34	TrialsPROC	BP_024_H3-T_BA.png	2	2	54	SessionSelectionList														lure	3	Body	2-Back	47	80	46	0	0	85	1	39	196088	1	14	59	194049	-1	194887	1	838	3	3	2039	53	196102	-54	0																54												
WM080112	123117_fnca	2	1	1	1084428779	1	75.031	75.031	2.0.10.147	2.0.10.242	2.0.10.242	1.0.0.439	7	234	2	3	Verdana	1	80	0	0	0	WM Stimuli\	0.9	824.777777777778	1	683.9	1	780.8	0.7	660.142857142857	0.9	873	1	1097.4	0.8	946	0.7	1133.14285714286	13	321450	2	321438	27	40	321477	-999999	321453	0	34	TrialsPROC	BP_025_H5-T_BA.png	2	2	55	SessionSelectionList														nonlure	3	Body	2-Back	48	80	47	0	0	85	2	39	198647	1	14	59	196608	-1	197589	1	981	3	3	2039	53	198661	-54	0																55												
WM080112	123117_fnca	2	1	1	1084428779	1	75.031	75.031	2.0.10.147	2.0.10.242	2.0.10.242	1.0.0.439	7	234	2	3	Verdana	1	80	0	0	0	WM Stimuli\	0.9	824.777777777778	1	683.9	1	780.8	0.7	660.142857142857	0.9	873	1	1097.4	0.8	946	0.7	1133.14285714286	13	321450	2	321438	27	40	321477	-999999	321453	0	34	TrialsPROC	BP_023_H25-T_BA.png	2	2	56	SessionSelectionList														nonlure	3	Body	2-Back	49	80	48	0	0	85	3	39	201206	1	14	59	199167	-1	200192	1	1025	3	3	2039	53	201220	-54	0																56												
WM080112	123117_fnca	2	1	1	1084428779	1	75.031	75.031	2.0.10.147	2.0.10.242	2.0.10.242	1.0.0.439	7	234	2	3	Verdana	1	80	0	0	0	WM Stimuli\	0.9	824.777777777778	1	683.9	1	780.8	0.7	660.142857142857	0.9	873	1	1097.4	0.8	946	0.7	1133.14285714286	13	321450	2	321438	27	40	321477	-999999	321453	0	34	TrialsPROC	BP_022_H24-T_BA.png	2	2	57	SessionSelectionList														nonlure	3	Body	2-Back	50	80	49	0	0	85	4	39	203765	1	14	59	201726	-1	202571	1	845	3	3	2039	53	203779	-54	0																57												
WM080112	123117_fnca	2	1	1	1084428779	1	75.031	75.031	2.0.10.147	2.0.10.242	2.0.10.242	1.0.0.439	7	234	2	3	Verdana	1	80	0	0	0	WM Stimuli\	0.9	824.777777777778	1	683.9	1	780.8	0.7	660.142857142857	0.9	873	1	1097.4	0.8	946	0.7	1133.14285714286	13	321450	2	321438	27	40	321477	-999999	321453	0	34	TrialsPROC	BP_022_H24-T_BA.png	2	2	58	SessionSelectionList														lure	3	Body	2-Back	51	80	50	0	0	85	5	39	206324	1	14	59	204285	-1	205004	1	719	3	3	2039	53	206338	-54	0																58												
WM080112	123117_fnca	2	1	1	1084428779	1	75.031	75.031	2.0.10.147	2.0.10.242	2.0.10.242	1.0.0.439	7	234	2	3	Verdana	1	80	0	0	0	WM Stimuli\	0.9	824.777777777778	1	683.9	1	780.8	0.7	660.142857142857	0.9	873	1	1097.4	0.8	946	0.7	1133.14285714286	13	321450	2	321438	27	40	321477	-999999	321453	0	35	Cue2BackPROC	""	2	2	59	SessionSelectionList									5	206790	-6	0																																													59												
WM080112	123117_fnca	2	1	1	1084428779	1	75.031	75.031	2.0.10.147	2.0.10.242	2.0.10.242	1.0.0.439	7	234	2	3	Verdana	1	80	0	0	0	WM Stimuli\	0.9	824.777777777778	1	683.9	1	780.8	0.7	660.142857142857	0.9	873	1	1097.4	0.8	946	0.7	1133.14285714286	13	321450	2	321438	27	40	321477	-999999	321453	0	36	TrialsPROC	PL_019_SCENE_05.png	2	2	60	SessionSelectionList														nonlure	3	Place	2-Back	52	80	51	0	0	85	6	39	211388	2	14	64	209349	-1	210850	1	1501	3	3	2039	53	211402	-54	0																60												
WM080112	123117_fnca	2	1	1	1084428779	1	75.031	75.031	2.0.10.147	2.0.10.242	2.0.10.242	1.0.0.439	7	234	2	3	Verdana	1	80	0	0	0	WM Stimuli\	0.9	824.777777777778	1	683.9	1	780.8	0.7	660.142857142857	0.9	873	1	1097.4	0.8	946	0.7	1133.14285714286	13	321450	2	321438	27	40	321477	-999999	321453	0	36	TrialsPROC	PL_017_SCENE_03.png	2	2	61	SessionSelectionList														nonlure	3	Place	2-Back	53	80	52	0	0	85	7	40	213961	1	13	72	211921	-1	212741	1	820	3	3	2040	53	213974	-54	0																61												
WM080112	123117_fnca	2	1	1	1084428779	1	75.031	75.031	2.0.10.147	2.0.10.242	2.0.10.242	1.0.0.439	7	234	2	3	Verdana	1	80	0	0	0	WM Stimuli\	0.9	824.777777777778	1	683.9	1	780.8	0.7	660.142857142857	0.9	873	1	1097.4	0.8	946	0.7	1133.14285714286	13	321450	2	321438	27	40	321477	-999999	321453	0	36	TrialsPROC	PL_017_SCENE_03.png	2	2	62	SessionSelectionList														lure	3	Place	2-Back	54	80	53	0	0	85	8	39	216533	1	14	73	214494	-1	215209	1	715	3	3	2039	53	216547	-54	0																62												
WM080112	123117_fnca	2	1	1	1084428779	1	75.031	75.031	2.0.10.147	2.0.10.242	2.0.10.242	1.0.0.439	7	234	2	3	Verdana	1	80	0	0	0	WM Stimuli\	0.9	824.777777777778	1	683.9	1	780.8	0.7	660.142857142857	0.9	873	1	1097.4	0.8	946	0.7	1133.14285714286	13	321450	2	321438	27	40	321477	-999999	321453	0	36	TrialsPROC	PL_016_SCENE_02.png	2	2	63	SessionSelectionList														nonlure	3	Place	2-Back	55	80	54	0	0	85	9	39	219105	2	14	72	217066	-1	217717	1	651	3	3	2039	53	219119	-54	0																63												
WM080112	123117_fnca	2	1	1	1084428779	1	75.031	75.031	2.0.10.147	2.0.10.242	2.0.10.242	1.0.0.439	7	234	2	3	Verdana	1	80	0	0	0	WM Stimuli\	0.9	824.777777777778	1	683.9	1	780.8	0.7	660.142857142857	0.9	873	1	1097.4	0.8	946	0.7	1133.14285714286	13	321450	2	321438	27	40	321477	-999999	321453	0	36	TrialsPROC	PL_015_SCENE_01.png	2	2	64	SessionSelectionList														nonlure	3	Place	2-Back	56	80	55	0	0	85	10	39	221677	2	14	72	219638	-1	220286	1	648	3	3	2039	53	221691	-54	0																64												
WM080112	123117_fnca	2	1	1	1084428779	1	75.031	75.031	2.0.10.147	2.0.10.242	2.0.10.242	1.0.0.439	7	234	2	3	Verdana	1	80	0	0	0	WM Stimuli\	0.9	824.777777777778	1	683.9	1	780.8	0.7	660.142857142857	0.9	873	1	1097.4	0.8	946	0.7	1133.14285714286	13	321450	2	321438	27	40	321477	-999999	321453	0	36	TrialsPROC	PL_016_SCENE_02.png	2	2	65	SessionSelectionList														target	2	Place	2-Back	57	80	56	0	0	85	11	39	224250	1	14	73	222211	-1	222789	0	578	3	2	2039	53	224264	-54	0																65												
WM080112	123117_fnca	2	1	1	1084428779	1	75.031	75.031	2.0.10.147	2.0.10.242	2.0.10.242	1.0.0.439	7	234	2	3	Verdana	1	80	0	0	0	WM Stimuli\	0.9	824.777777777778	1	683.9	1	780.8	0.7	660.142857142857	0.9	873	1	1097.4	0.8	946	0.7	1133.14285714286	13	321450	2	321438	27	40	321477	-999999	321453	0	36	TrialsPROC	PL_015_SCENE_01.png	2	2	66	SessionSelectionList														target	2	Place	2-Back	58	80	57	0	0	85	1	39	226822	1	14	72	224783	-1	225993	1	1210	2	2	2039	53	226836	-54	0																66												
WM080112	123117_fnca	2	1	1	1084428779	1	75.031	75.031	2.0.10.147	2.0.10.242	2.0.10.242	1.0.0.439	7	234	2	3	Verdana	1	80	0	0	0	WM Stimuli\	0.9	824.777777777778	1	683.9	1	780.8	0.7	660.142857142857	0.9	873	1	1097.4	0.8	946	0.7	1133.14285714286	13	321450	2	321438	27	40	321477	-999999	321453	0	36	TrialsPROC	PL_020_SCENE_06.png	2	2	67	SessionSelectionList														nonlure	3	Place	2-Back	59	80	58	0	0	85	1	39	229394	2	14	72	227355	-1	228181	1	826	3	3	2039	53	229408	-54	0																67												
WM080112	123117_fnca	2	1	1	1084428779	1	75.031	75.031	2.0.10.147	2.0.10.242	2.0.10.242	1.0.0.439	7	234	2	3	Verdana	1	80	0	0	0	WM Stimuli\	0.9	824.777777777778	1	683.9	1	780.8	0.7	660.142857142857	0.9	873	1	1097.4	0.8	946	0.7	1133.14285714286	13	321450	2	321438	27	40	321477	-999999	321453	0	36	TrialsPROC	PL_020_SCENE_06.png	2	2	68	SessionSelectionList														lure	3	Place	2-Back	60	80	59	0	0	85	2	40	231967	1	13	72	229927	-1	230694	1	767	3	3	2040	53	231980	-54	0																68												
WM080112	123117_fnca	2	1	1	1084428779	1	75.031	75.031	2.0.10.147	2.0.10.242	2.0.10.242	1.0.0.439	7	234	2	3	Verdana	1	80	0	0	0	WM Stimuli\	0.9	824.777777777778	1	683.9	1	780.8	0.7	660.142857142857	0.9	873	1	1097.4	0.8	946	0.7	1133.14285714286	13	321450	2	321438	27	40	321477	-999999	321453	0	36	TrialsPROC	PL_018_SCENE_04.png	2	2	69	SessionSelectionList														nonlure	3	Place	2-Back	61	80	60	0	0	85	3	39	234539	1	14	73	232500	-1	233219	1	719	3	3	2039	53	234553	-54	0																69												
WM080112	123117_fnca	2	1	1	1084428779	1	75.031	75.031	2.0.10.147	2.0.10.242	2.0.10.242	1.0.0.439	7	234	2	3	Verdana	1	80	0	0	0	WM Stimuli\	0.9	824.777777777778	1	683.9	1	780.8	0.7	660.142857142857	0.9	873	1	1097.4	0.8	946	0.7	1133.14285714286	13	321450	2	321438	27	40	321477	-999999	321453	0	37	Fix15secPROC	""	2	2	70	SessionSelectionList																																															6	235006	-7	0							70												
WM080112	123117_fnca	2	1	1	1084428779	1	75.031	75.031	2.0.10.147	2.0.10.242	2.0.10.242	1.0.0.439	7	234	2	3	Verdana	1	80	0	0	0	WM Stimuli\	0.9	824.777777777778	1	683.9	1	780.8	0.7	660.142857142857	0.9	873	1	1097.4	0.8	946	0.7	1133.14285714286	13	321450	2	321438	27	40	321477	-999999	321453	0	38	Cue0BackPROC	FC_020_F10.png	2	2	71	SessionSelectionList																																										26	250026	-27	0												71												
WM080112	123117_fnca	2	1	1	1084428779	1	75.031	75.031	2.0.10.147	2.0.10.242	2.0.10.242	1.0.0.439	7	234	2	3	Verdana	1	80	0	0	0	WM Stimuli\	0.9	824.777777777778	1	683.9	1	780.8	0.7	660.142857142857	0.9	873	1	1097.4	0.8	946	0.7	1133.14285714286	13	321450	2	321438	27	40	321477	-999999	321453	0	39	TrialsPROC	FC_024_F12.png	2	2	72	SessionSelectionList														nonlure	3	Face	0-Back	62	80	61	0	0	86	4	40	254611	1	13	71	252571	-1	253686	1	1115	3	3	2040	53	254624	-54	0																72												
WM080112	123117_fnca	2	1	1	1084428779	1	75.031	75.031	2.0.10.147	2.0.10.242	2.0.10.242	1.0.0.439	7	234	2	3	Verdana	1	80	0	0	0	WM Stimuli\	0.9	824.777777777778	1	683.9	1	780.8	0.7	660.142857142857	0.9	873	1	1097.4	0.8	946	0.7	1133.14285714286	13	321450	2	321438	27	40	321477	-999999	321453	0	39	TrialsPROC	FC_023_M12.png	2	2	73	SessionSelectionList														nonlure	3	Face	0-Back	63	80	62	0	0	82	1	39	257183	2	14	73	255144	-1	256072	0	928	2	3	2039	53	257197	-54	0																73												
WM080112	123117_fnca	2	1	1	1084428779	1	75.031	75.031	2.0.10.147	2.0.10.242	2.0.10.242	1.0.0.439	7	234	2	3	Verdana	1	80	0	0	0	WM Stimuli\	0.9	824.777777777778	1	683.9	1	780.8	0.7	660.142857142857	0.9	873	1	1097.4	0.8	946	0.7	1133.14285714286	13	321450	2	321438	27	40	321477	-999999	321453	0	39	TrialsPROC	FC_020_F10.png	2	2	74	SessionSelectionList														target	2	Face	0-Back	64	80	63	0	0	78	1	39	259755	2	14	72	257716	-1	258308	0	592	3	2	2039	53	259769	-54	0																74												
WM080112	123117_fnca	2	1	1	1084428779	1	75.031	75.031	2.0.10.147	2.0.10.242	2.0.10.242	1.0.0.439	7	234	2	3	Verdana	1	80	0	0	0	WM Stimuli\	0.9	824.777777777778	1	683.9	1	780.8	0.7	660.142857142857	0.9	873	1	1097.4	0.8	946	0.7	1133.14285714286	13	321450	2	321438	27	40	321477	-999999	321453	0	39	TrialsPROC	FC_024_F12.png	2	2	75	SessionSelectionList														lure	3	Face	0-Back	65	80	64	0	0	75	1	39	262327	2	14	72	260288	-1	261026	0	738	2	3	2039	53	262341	-54	0																75												
WM080112	123117_fnca	2	1	1	1084428779	1	75.031	75.031	2.0.10.147	2.0.10.242	2.0.10.242	1.0.0.439	7	234	2	3	Verdana	1	80	0	0	0	WM Stimuli\	0.9	824.777777777778	1	683.9	1	780.8	0.7	660.142857142857	0.9	873	1	1097.4	0.8	946	0.7	1133.14285714286	13	321450	2	321438	27	40	321477	-999999	321453	0	39	TrialsPROC	FC_020_F10.png	2	2	76	SessionSelectionList														target	2	Face	0-Back	66	80	65	0	0	76	2	39	264900	1	14	73	262861	-1	263841	1	980	2	2	2039	53	264914	-54	0																76												
WM080112	123117_fnca	2	1	1	1084428779	1	75.031	75.031	2.0.10.147	2.0.10.242	2.0.10.242	1.0.0.439	7	234	2	3	Verdana	1	80	0	0	0	WM Stimuli\	0.9	824.777777777778	1	683.9	1	780.8	0.7	660.142857142857	0.9	873	1	1097.4	0.8	946	0.7	1133.14285714286	13	321450	2	321438	27	40	321477	-999999	321453	0	39	TrialsPROC	FC_022_F11.png	2	2	77	SessionSelectionList														nonlure	3	Face	0-Back	67	80	66	0	0	77	1	39	267472	1	14	72	265433	-1	266099	1	666	3	3	2039	53	267486	-54	0																77												
WM080112	123117_fnca	2	1	1	1084428779	1	75.031	75.031	2.0.10.147	2.0.10.242	2.0.10.242	1.0.0.439	7	234	2	3	Verdana	1	80	0	0	0	WM Stimuli\	0.9	824.777777777778	1	683.9	1	780.8	0.7	660.142857142857	0.9	873	1	1097.4	0.8	946	0.7	1133.14285714286	13	321450	2	321438	27	40	321477	-999999	321453	0	39	TrialsPROC	FC_023_M12.png	2	2	78	SessionSelectionList														lure	3	Face	0-Back	68	80	67	0	0	78	2	39	270044	2	14	72	268005	-1	268518	1	513	3	3	2039	53	270058	-54	0																78												
WM080112	123117_fnca	2	1	1	1084428779	1	75.031	75.031	2.0.10.147	2.0.10.242	2.0.10.242	1.0.0.439	7	234	2	3	Verdana	1	80	0	0	0	WM Stimuli\	0.9	824.777777777778	1	683.9	1	780.8	0.7	660.142857142857	0.9	873	1	1097.4	0.8	946	0.7	1133.14285714286	13	321450	2	321438	27	40	321477	-999999	321453	0	39	TrialsPROC	FC_021_M11.png	2	2	79	SessionSelectionList														nonlure	3	Face	0-Back	69	80	68	0	0	79	3	40	272617	1	13	72	270577	-1	271024	1	447	3	3	2040	53	272630	-54	0																79												
WM080112	123117_fnca	2	1	1	1084428779	1	75.031	75.031	2.0.10.147	2.0.10.242	2.0.10.242	1.0.0.439	7	234	2	3	Verdana	1	80	0	0	0	WM Stimuli\	0.9	824.777777777778	1	683.9	1	780.8	0.7	660.142857142857	0.9	873	1	1097.4	0.8	946	0.7	1133.14285714286	13	321450	2	321438	27	40	321477	-999999	321453	0	39	TrialsPROC	FC_021_M11.png	2	2	80	SessionSelectionList														lure	3	Face	0-Back	70	80	69	0	0	79	4	39	275189	1	14	73	273150	-1	273549	1	399	3	3	2039	53	275203	-54	0																80												
WM080112	123117_fnca	2	1	1	1084428779	1	75.031	75.031	2.0.10.147	2.0.10.242	2.0.10.242	1.0.0.439	7	234	2	3	Verdana	1	80	0	0	0	WM Stimuli\	0.9	824.777777777778	1	683.9	1	780.8	0.7	660.142857142857	0.9	873	1	1097.4	0.8	946	0.7	1133.14285714286	13	321450	2	321438	27	40	321477	-999999	321453	0	39	TrialsPROC	FC_019_M10.png	2	2	81	SessionSelectionList														nonlure	3	Face	0-Back	71	80	70	0	0	80	5	39	277761	2	14	72	275722	-1	276223	1	501	3	3	2039	53	277775	-54	0																81												
WM080112	123117_fnca	2	1	1	1084428779	1	75.031	75.031	2.0.10.147	2.0.10.242	2.0.10.242	1.0.0.439	7	234	2	3	Verdana	1	80	0	0	0	WM Stimuli\	0.9	824.777777777778	1	683.9	1	780.8	0.7	660.142857142857	0.9	873	1	1097.4	0.8	946	0.7	1133.14285714286	13	321450	2	321438	27	40	321477	-999999	321453	0	40	Cue0BackPROC	PL_021_SCENE_07.png	2	2	82	SessionSelectionList																																										19	278241	-20	0												82												
WM080112	123117_fnca	2	1	1	1084428779	1	75.031	75.031	2.0.10.147	2.0.10.242	2.0.10.242	1.0.0.439	7	234	2	3	Verdana	1	80	0	0	0	WM Stimuli\	0.9	824.777777777778	1	683.9	1	780.8	0.7	660.142857142857	0.9	873	1	1097.4	0.8	946	0.7	1133.14285714286	13	321450	2	321438	27	40	321477	-999999	321453	0	41	TrialsPROC	PL_025_SCENE_18.png	2	2	83	SessionSelectionList														nonlure	3	Place	0-Back	72	80	71	0	0	81	6	39	282826	1	14	65	280787	-1	281859	1	1072	3	3	2039	53	282840	-54	0																83												
WM080112	123117_fnca	2	1	1	1084428779	1	75.031	75.031	2.0.10.147	2.0.10.242	2.0.10.242	1.0.0.439	7	234	2	3	Verdana	1	80	0	0	0	WM Stimuli\	0.9	824.777777777778	1	683.9	1	780.8	0.7	660.142857142857	0.9	873	1	1097.4	0.8	946	0.7	1133.14285714286	13	321450	2	321438	27	40	321477	-999999	321453	0	41	TrialsPROC	PL_026_SCENE_24.png	2	2	84	SessionSelectionList														nonlure	3	Place	0-Back	73	80	72	0	0	81	7	39	285398	1	14	72	283359	-1	284432	1	1073	3	3	2039	53	285412	-54	0																84												
WM080112	123117_fnca	2	1	1	1084428779	1	75.031	75.031	2.0.10.147	2.0.10.242	2.0.10.242	1.0.0.439	7	234	2	3	Verdana	1	80	0	0	0	WM Stimuli\	0.9	824.777777777778	1	683.9	1	780.8	0.7	660.142857142857	0.9	873	1	1097.4	0.8	946	0.7	1133.14285714286	13	321450	2	321438	27	40	321477	-999999	321453	0	41	TrialsPROC	PL_025_SCENE_18.png	2	2	85	SessionSelectionList														lure	3	Place	0-Back	74	80	73	0	0	82	8	39	287970	2	14	72	285931	-1	287835	1	1904	3	3	2039	53	287984	-54	0																85												
WM080112	123117_fnca	2	1	1	1084428779	1	75.031	75.031	2.0.10.147	2.0.10.242	2.0.10.242	1.0.0.439	7	234	2	3	Verdana	1	80	0	0	0	WM Stimuli\	0.9	824.777777777778	1	683.9	1	780.8	0.7	660.142857142857	0.9	873	1	1097.4	0.8	946	0.7	1133.14285714286	13	321450	2	321438	27	40	321477	-999999	321453	0	41	TrialsPROC	PL_022_SCENE_08.png	2	2	86	SessionSelectionList														nonlure	3	Place	0-Back	75	80	74	0	0	82	9	40	290543	1	13	72	288503	-1	289774	1	1271	3	3	2040	53	290556	-54	0																86												
WM080112	123117_fnca	2	1	1	1084428779	1	75.031	75.031	2.0.10.147	2.0.10.242	2.0.10.242	1.0.0.439	7	234	2	3	Verdana	1	80	0	0	0	WM Stimuli\	0.9	824.777777777778	1	683.9	1	780.8	0.7	660.142857142857	0.9	873	1	1097.4	0.8	946	0.7	1133.14285714286	13	321450	2	321438	27	40	321477	-999999	321453	0	41	TrialsPROC	PL_026_SCENE_24.png	2	2	87	SessionSelectionList														lure	3	Place	0-Back	76	80	75	0	0	83	10	39	293115	1	14	73	291076	-1	291719	1	643	3	3	2039	53	293129	-54	0																87												
WM080112	123117_fnca	2	1	1	1084428779	1	75.031	75.031	2.0.10.147	2.0.10.242	2.0.10.242	1.0.0.439	7	234	2	3	Verdana	1	80	0	0	0	WM Stimuli\	0.9	824.777777777778	1	683.9	1	780.8	0.7	660.142857142857	0.9	873	1	1097.4	0.8	946	0.7	1133.14285714286	13	321450	2	321438	27	40	321477	-999999	321453	0	41	TrialsPROC	PL_021_SCENE_07.png	2	2	88	SessionSelectionList														target	2	Place	0-Back	77	80	76	0	0	83	1	39	295687	2	14	72	293648	-1	294366	1	718	2	2	2039	53	295701	-54	0																88												
WM080112	123117_fnca	2	1	1	1084428779	1	75.031	75.031	2.0.10.147	2.0.10.242	2.0.10.242	1.0.0.439	7	234	2	3	Verdana	1	80	0	0	0	WM Stimuli\	0.9	824.777777777778	1	683.9	1	780.8	0.7	660.142857142857	0.9	873	1	1097.4	0.8	946	0.7	1133.14285714286	13	321450	2	321438	27	40	321477	-999999	321453	0	41	TrialsPROC	PL_021_SCENE_07.png	2	2	89	SessionSelectionList														target	2	Place	0-Back	78	80	77	0	0	84	2	39	298259	2	14	72	296220	-1	296799	1	579	2	2	2039	53	298273	-54	0																89												
WM080112	123117_fnca	2	1	1	1084428779	1	75.031	75.031	2.0.10.147	2.0.10.242	2.0.10.242	1.0.0.439	7	234	2	3	Verdana	1	80	0	0	0	WM Stimuli\	0.9	824.777777777778	1	683.9	1	780.8	0.7	660.142857142857	0.9	873	1	1097.4	0.8	946	0.7	1133.14285714286	13	321450	2	321438	27	40	321477	-999999	321453	0	41	TrialsPROC	PL_023_SCENE_09.png	2	2	90	SessionSelectionList														nonlure	3	Place	0-Back	79	80	78	0	0	84	1	39	300832	1	14	73	298793	-1	299493	1	700	3	3	2039	53	300846	-54	0																90												
WM080112	123117_fnca	2	1	1	1084428779	1	75.031	75.031	2.0.10.147	2.0.10.242	2.0.10.242	1.0.0.439	7	234	2	3	Verdana	1	80	0	0	0	WM Stimuli\	0.9	824.777777777778	1	683.9	1	780.8	0.7	660.142857142857	0.9	873	1	1097.4	0.8	946	0.7	1133.14285714286	13	321450	2	321438	27	40	321477	-999999	321453	0	41	TrialsPROC	PL_024_SCENE_10.png	2	2	91	SessionSelectionList														nonlure	3	Place	0-Back	80	80	79	0	0	85	2	39	303404	1	14	72	301365	-1	303242	1	1877	3	3	2039	53	303418	-54	0																91												
WM080112	123117_fnca	2	1	1	1084428779	1	75.031	75.031	2.0.10.147	2.0.10.242	2.0.10.242	1.0.0.439	7	234	2	3	Verdana	1	80	0	0	0	WM Stimuli\	0.9	824.777777777778	1	683.9	1	780.8	0.7	660.142857142857	0.9	873	1	1097.4	0.8	946	0.7	1133.14285714286	13	321450	2	321438	27	40	321477	-999999	321453	0	41	TrialsPROC	PL_022_SCENE_08.png	2	2	92	SessionSelectionList														lure	3	Place	0-Back	80	80	80	0	0	85	3	39	305976	2	14	72	303937	-1	305074	1	1137	3	3	2039	53	305990	-54	0																92												
WM080112	123117_fnca	2	1	1	1084428779	1	75.031	75.031	2.0.10.147	2.0.10.242	2.0.10.242	1.0.0.439	7	234	2	3	Verdana	1	80	0	0	0	WM Stimuli\	0.9	824.777777777778	1	683.9	1	780.8	0.7	660.142857142857	0.9	873	1	1097.4	0.8	946	0.7	1133.14285714286	13	321450	2	321438	27	40	321477	-999999	321453	0	42	Fix15secPROC	""	2	2	93	SessionSelectionList																																															6	306443	-7	0							93												
