ExperimentName	HCPID	RunNumber	Subject	Session	RandomSeed	Group	Laptop.RefreshRate	ScannerD2.RefreshRate	StudioVersion	RuntimeVersion	RuntimeVersionExpected	ExperimentVersion	triggercode	Allowed	Target	Nontarget	FontStyle	RunTrialNumber[Session]	TrialsPerRun[Session]	TotalRespGreater200[Session]	ConsecRTLess200[Session]	ConsecNonResp[Session]	StimuliDir	ACC_2_Back_Body	Avg_RT_For_Correct_Trials_2_Back_Body	ACC_0_Back_Body	Avg_RT_For_Correct_Trials_0_Back_Body	ACC_2_Back_Face	Avg_RT_For_Correct_Trials_2_Back_Face	ACC_0_Back_Face	Avg_RT_For_Correct_Trials_0_Back_Face	ACC_2_Back_Place	Avg_RT_For_Correct_Trials_2_Back_Place	ACC_0_Back_Place	Avg_RT_For_Correct_Trials_0_Back_Place	ACC_2_Back_Tools	Avg_RT_For_Correct_Trials_2_Back_Tools	ACC_0_Back_Tools	Avg_RT_For_Correct_Trials_0_Back_Tools	ExpInstrucFeelFreeToRest.OnsetDelay	ExpInstrucFeelFreeToRest.OnsetTime	ExpInstrucFeelFreeToRest.DurationError	ExpInstrucFeelFreeToRest.StartTime	ExpInstrucFeelFreeToRest.OnsetToOnsetTime	FeelFreeToRest.OnsetDelay	FeelFreeToRest.OnsetTime	FeelFreeToRest.DurationError	FeelFreeToRest.StartTime	FeelFreeToRest.OnsetToOnsetTime	SessionSelectionList	Procedure[Block]	Stimulus[Block]	RunNumberFilterValue	SessionSelectionList.Cycle	SessionSelectionList.Sample	Running[Block]	IntroButtonMap.OnsetDelay	IntroButtonMap.OnsetTime	IntroButtonMap.DurationError	IntroButtonMap.OnsetToOnsetTime	GetReady.OnsetDelay	GetReady.OnsetTime	GetReady.DurationError	GetReady.OnsetToOnsetTime	Cue2Back.OnsetDelay	Cue2Back.OnsetTime	Cue2Back.DurationError	Cue2Back.OnsetToOnsetTime	Run1Block1	TargetType	CorrectResponse	StimType	BlockType	RunTrialNumber[Block]	TrialsPerRun[Block]	TotalRespGreater200[Block]	ConsecRTLess200[Block]	ConsecNonResp[Block]	ControlAcc	ConsecSameResp	ExperimenterWindow.OnsetDelay	ExperimenterWindow.OnsetTime	ExperimenterWindow.DurationError	ExperimenterWindow.OnsetToOnsetTime	Stim.OnsetDelay	Stim.OnsetTime	Stim.DurationError	Stim.RTTime	Stim.ACC	Stim.RT	Stim.RESP	Stim.CRESP	Stim.OnsetToOnsetTime	Fix.OnsetDelay	Fix.OnsetTime	Fix.DurationError	Fix.OnsetToOnsetTime	CueTarget.OnsetDelay	CueTarget.OnsetTime	CueTarget.DurationError	CueTarget.OnsetToOnsetTime	Run1Block2	Fix15sec.OnsetDelay	Fix15sec.OnsetTime	Fix15sec.DurationError	Fix15sec.OnsetToOnsetTime	Run1Block3	Run1Block4	Run1Block5	Run1Block6	Run1Block7	Run1Block8	Block	Procedure[Trial]	Stimulus[Trial]	ReadyList	Running[Trial]	ReadyList.Cycle	ReadyList.Sample	SyncSlide.OnsetDelay	SyncSlide.OnsetTime	SyncSlide.DurationError	SyncSlide.FinishTime	SyncSlide.OnsetToOnsetTime	Trial
WM080112	190031_fnca	2	1	1	-800886033	1	75.032	75.031	2.0.10.147	2.0.10.242	2.0.10.242	1.0.0.439	7	234	2	3	Verdana	1	80	0	0	0	WM Stimuli\	1	1141	1	679.6	1	1033.9	1	640.9	1	1122.4	1	635	1	1214.2	1	648.2	13	324179	3	324167	27	40	324206	-999999	324182	0	22	TRSyncPROC	""	2	2	1	SessionSelectionList	118	7376	-999999	0	40	18039	-999999	0																																																	1	InitialTR	4	1	ReadyList	1	1	19	30713	-20	32693	0	1
WM080112	190031_fnca	2	1	1	-800886033	1	75.032	75.031	2.0.10.147	2.0.10.242	2.0.10.242	1.0.0.439	7	234	2	3	Verdana	1	80	0	0	0	WM Stimuli\	1	1141	1	679.6	1	1033.9	1	640.9	1	1122.4	1	635	1	1214.2	1	648.2	13	324179	3	324167	27	40	324206	-999999	324182	0	22	TRSyncPROC	""	2	2	1	SessionSelectionList	118	7376	-999999	0	40	18039	-999999	0																																																	1	InitialTR	3	2	ReadyList	1	2	19	32713	-20	34693	0	2
WM080112	190031_fnca	2	1	1	-800886033	1	75.032	75.031	2.0.10.147	2.0.10.242	2.0.10.242	1.0.0.439	7	234	2	3	Verdana	1	80	0	0	0	WM Stimuli\	1	1141	1	679.6	1	1033.9	1	640.9	1	1122.4	1	635	1	1214.2	1	648.2	13	324179	3	324167	27	40	324206	-999999	324182	0	22	TRSyncPROC	""	2	2	1	SessionSelectionList	118	7376	-999999	0	40	18039	-999999	0																																																	1	InitialTR	2	3	ReadyList	1	3	4	34698	-5	36693	0	3
WM080112	190031_fnca	2	1	1	-800886033	1	75.032	75.031	2.0.10.147	2.0.10.242	2.0.10.242	1.0.0.439	7	234	2	3	Verdana	1	80	0	0	0	WM Stimuli\	1	1141	1	679.6	1	1033.9	1	640.9	1	1122.4	1	635	1	1214.2	1	648.2	13	324179	3	324167	27	40	324206	-999999	324182	0	22	TRSyncPROC	""	2	2	1	SessionSelectionList	118	7376	-999999	0	40	18039	-999999	0																																																	1	InitialTR	1	4	ReadyList	1	4	4	36698	-5	38693	0	4
WM080112	190031_fnca	2	1	1	-800886033	1	75.032	75.031	2.0.10.147	2.0.10.242	2.0.10.242	1.0.0.439	7	234	2	3	Verdana	1	80	0	0	0	WM Stimuli\	1	1141	1	679.6	1	1033.9	1	640.9	1	1122.4	1	635	1	1214.2	1	648.2	13	324179	3	324167	27	40	324206	-999999	324182	0	23	Cue2BackPROC	""	2	2	2	SessionSelectionList									16	38710	-17	0																																													2												
WM080112	190031_fnca	2	1	1	-800886033	1	75.032	75.031	2.0.10.147	2.0.10.242	2.0.10.242	1.0.0.439	7	234	2	3	Verdana	1	80	0	0	0	WM Stimuli\	1	1141	1	679.6	1	1033.9	1	640.9	1	1122.4	1	635	1	1214.2	1	648.2	13	324179	3	324167	27	40	324206	-999999	324182	0	24	TrialsPROC	TO_014_TOOL14_BA.png	2	2	3	SessionSelectionList														nonlure	3	Tools	2-Back	2	80	1	0	0	0	1	53	43322	3	13	75	41269	-1	42470	1	1201	3	3	2053	66	43335	-67	0																3												
WM080112	190031_fnca	2	1	1	-800886033	1	75.032	75.031	2.0.10.147	2.0.10.242	2.0.10.242	1.0.0.439	7	234	2	3	Verdana	1	80	0	0	0	WM Stimuli\	1	1141	1	679.6	1	1033.9	1	640.9	1	1122.4	1	635	1	1214.2	1	648.2	13	324179	3	324167	27	40	324206	-999999	324182	0	24	TrialsPROC	TO_013_TOOL13_BA.png	2	2	4	SessionSelectionList														nonlure	3	Tools	2-Back	3	80	2	0	0	0	2	39	45867	3	14	59	43828	-1	44870	1	1042	3	3	2039	53	45881	-54	0																4												
WM080112	190031_fnca	2	1	1	-800886033	1	75.032	75.031	2.0.10.147	2.0.10.242	2.0.10.242	1.0.0.439	7	234	2	3	Verdana	1	80	0	0	0	WM Stimuli\	1	1141	1	679.6	1	1033.9	1	640.9	1	1122.4	1	635	1	1214.2	1	648.2	13	324179	3	324167	27	40	324206	-999999	324182	0	24	TrialsPROC	TO_016_TOOL16_BA.png	2	2	5	SessionSelectionList														nonlure	3	Tools	2-Back	4	80	3	0	0	0	3	39	48426	2	14	59	46387	-1	47517	1	1130	3	3	2039	53	48440	-54	0																5												
WM080112	190031_fnca	2	1	1	-800886033	1	75.032	75.031	2.0.10.147	2.0.10.242	2.0.10.242	1.0.0.439	7	234	2	3	Verdana	1	80	0	0	0	WM Stimuli\	1	1141	1	679.6	1	1033.9	1	640.9	1	1122.4	1	635	1	1214.2	1	648.2	13	324179	3	324167	27	40	324206	-999999	324182	0	24	TrialsPROC	TO_014_TOOL14_BA.png	2	2	6	SessionSelectionList														lure	3	Tools	2-Back	5	80	4	0	0	0	4	39	50998	3	14	72	48959	-1	50325	1	1366	3	3	2039	53	51012	-54	0																6												
WM080112	190031_fnca	2	1	1	-800886033	1	75.032	75.031	2.0.10.147	2.0.10.242	2.0.10.242	1.0.0.439	7	234	2	3	Verdana	1	80	0	0	0	WM Stimuli\	1	1141	1	679.6	1	1033.9	1	640.9	1	1122.4	1	635	1	1214.2	1	648.2	13	324179	3	324167	27	40	324206	-999999	324182	0	24	TrialsPROC	TO_016_TOOL16_BA.png	2	2	7	SessionSelectionList														target	2	Tools	2-Back	6	80	5	0	0	0	1	38	53557	2	14	60	51519	-1	52694	1	1175	2	2	2038	52	53571	-53	0																7												
WM080112	190031_fnca	2	1	1	-800886033	1	75.032	75.031	2.0.10.147	2.0.10.242	2.0.10.242	1.0.0.439	7	234	2	3	Verdana	1	80	0	0	0	WM Stimuli\	1	1141	1	679.6	1	1033.9	1	640.9	1	1122.4	1	635	1	1214.2	1	648.2	13	324179	3	324167	27	40	324206	-999999	324182	0	24	TrialsPROC	TO_018_TOOL18_BA.png	2	2	8	SessionSelectionList														nonlure	3	Tools	2-Back	7	80	6	0	0	0	1	39	56143	2	14	85	54104	-1	55423	1	1319	3	3	2039	53	56157	-54	0																8												
WM080112	190031_fnca	2	1	1	-800886033	1	75.032	75.031	2.0.10.147	2.0.10.242	2.0.10.242	1.0.0.439	7	234	2	3	Verdana	1	80	0	0	0	WM Stimuli\	1	1141	1	679.6	1	1033.9	1	640.9	1	1122.4	1	635	1	1214.2	1	648.2	13	324179	3	324167	27	40	324206	-999999	324182	0	24	TrialsPROC	TO_017_TOOL17_BA.png	2	2	9	SessionSelectionList														nonlure	3	Tools	2-Back	8	80	7	0	0	0	2	39	58702	1	14	59	56663	-1	57895	1	1232	3	3	2039	53	58716	-54	0																9												
WM080112	190031_fnca	2	1	1	-800886033	1	75.032	75.031	2.0.10.147	2.0.10.242	2.0.10.242	1.0.0.439	7	234	2	3	Verdana	1	80	0	0	0	WM Stimuli\	1	1141	1	679.6	1	1033.9	1	640.9	1	1122.4	1	635	1	1214.2	1	648.2	13	324179	3	324167	27	40	324206	-999999	324182	0	24	TrialsPROC	TO_018_TOOL18_BA.png	2	2	10	SessionSelectionList														target	2	Tools	2-Back	9	80	8	0	0	0	1	39	61261	1	14	59	59222	-1	60028	1	806	2	2	2039	53	61275	-54	0																10												
WM080112	190031_fnca	2	1	1	-800886033	1	75.032	75.031	2.0.10.147	2.0.10.242	2.0.10.242	1.0.0.439	7	234	2	3	Verdana	1	80	0	0	0	WM Stimuli\	1	1141	1	679.6	1	1033.9	1	640.9	1	1122.4	1	635	1	1214.2	1	648.2	13	324179	3	324167	27	40	324206	-999999	324182	0	24	TrialsPROC	TO_015_TOOL15_BA.png	2	2	11	SessionSelectionList														nonlure	3	Tools	2-Back	10	80	9	0	0	0	1	39	63820	2	13	59	61781	-1	63183	1	1402	3	3	2039	52	63833	-53	0																11												
WM080112	190031_fnca	2	1	1	-800886033	1	75.032	75.031	2.0.10.147	2.0.10.242	2.0.10.242	1.0.0.439	7	234	2	3	Verdana	1	80	0	0	0	WM Stimuli\	1	1141	1	679.6	1	1033.9	1	640.9	1	1122.4	1	635	1	1214.2	1	648.2	13	324179	3	324167	27	40	324206	-999999	324182	0	24	TrialsPROC	TO_017_TOOL17_BA.png	2	2	12	SessionSelectionList														lure	3	Tools	2-Back	11	80	10	0	0	0	2	39	66379	1	13	59	64340	-1	65809	1	1469	3	3	2039	52	66392	-53	0																12												
WM080112	190031_fnca	2	1	1	-800886033	1	75.032	75.031	2.0.10.147	2.0.10.242	2.0.10.242	1.0.0.439	7	234	2	3	Verdana	1	80	0	0	0	WM Stimuli\	1	1141	1	679.6	1	1033.9	1	640.9	1	1122.4	1	635	1	1214.2	1	648.2	13	324179	3	324167	27	40	324206	-999999	324182	0	25	Cue0BackPROC	BP_013_BP7_BA.png	2	2	13	SessionSelectionList																																										19	66859	-20	0												13												
WM080112	190031_fnca	2	1	1	-800886033	1	75.032	75.031	2.0.10.147	2.0.10.242	2.0.10.242	1.0.0.439	7	234	2	3	Verdana	1	80	0	0	0	WM Stimuli\	1	1141	1	679.6	1	1033.9	1	640.9	1	1122.4	1	635	1	1214.2	1	648.2	13	324179	3	324167	27	40	324206	-999999	324182	0	26	TrialsPROC	BP_015_H10-T_BA.png	2	2	14	SessionSelectionList														nonlure	3	Body	0-Back	12	80	11	0	0	100	3	39	71443	2	14	64	69404	-1	70276	1	872	3	3	2039	53	71457	-54	0																14												
WM080112	190031_fnca	2	1	1	-800886033	1	75.032	75.031	2.0.10.147	2.0.10.242	2.0.10.242	1.0.0.439	7	234	2	3	Verdana	1	80	0	0	0	WM Stimuli\	1	1141	1	679.6	1	1033.9	1	640.9	1	1122.4	1	635	1	1214.2	1	648.2	13	324179	3	324167	27	40	324206	-999999	324182	0	26	TrialsPROC	BP_018_H13-T_BA.png	2	2	15	SessionSelectionList														nonlure	3	Body	0-Back	13	80	12	0	0	100	4	39	74003	1	13	60	71964	-1	72615	1	651	3	3	2039	52	74016	-53	0																15												
WM080112	190031_fnca	2	1	1	-800886033	1	75.032	75.031	2.0.10.147	2.0.10.242	2.0.10.242	1.0.0.439	7	234	2	3	Verdana	1	80	0	0	0	WM Stimuli\	1	1141	1	679.6	1	1033.9	1	640.9	1	1122.4	1	635	1	1214.2	1	648.2	13	324179	3	324167	27	40	324206	-999999	324182	0	26	TrialsPROC	BP_014_BP9_BA.png	2	2	16	SessionSelectionList														nonlure	3	Body	0-Back	14	80	13	0	0	100	5	39	76561	2	14	58	74522	-1	75271	1	749	3	3	2039	53	76575	-54	0																16												
WM080112	190031_fnca	2	1	1	-800886033	1	75.032	75.031	2.0.10.147	2.0.10.242	2.0.10.242	1.0.0.439	7	234	2	3	Verdana	1	80	0	0	0	WM Stimuli\	1	1141	1	679.6	1	1033.9	1	640.9	1	1122.4	1	635	1	1214.2	1	648.2	13	324179	3	324167	27	40	324206	-999999	324182	0	26	TrialsPROC	BP_018_H13-T_BA.png	2	2	17	SessionSelectionList														lure	3	Body	0-Back	15	80	14	0	0	100	6	39	79120	3	14	59	77081	-1	77699	1	618	3	3	2039	53	79134	-54	0																17												
WM080112	190031_fnca	2	1	1	-800886033	1	75.032	75.031	2.0.10.147	2.0.10.242	2.0.10.242	1.0.0.439	7	234	2	3	Verdana	1	80	0	0	0	WM Stimuli\	1	1141	1	679.6	1	1033.9	1	640.9	1	1122.4	1	635	1	1214.2	1	648.2	13	324179	3	324167	27	40	324206	-999999	324182	0	26	TrialsPROC	BP_013_BP7_BA.png	2	2	18	SessionSelectionList														target	2	Body	0-Back	16	80	15	0	0	100	1	39	81679	2	14	59	79640	-1	80305	1	665	2	2	2039	53	81693	-54	0																18												
WM080112	190031_fnca	2	1	1	-800886033	1	75.032	75.031	2.0.10.147	2.0.10.242	2.0.10.242	1.0.0.439	7	234	2	3	Verdana	1	80	0	0	0	WM Stimuli\	1	1141	1	679.6	1	1033.9	1	640.9	1	1122.4	1	635	1	1214.2	1	648.2	13	324179	3	324167	27	40	324206	-999999	324182	0	26	TrialsPROC	BP_015_H10-T_BA.png	2	2	19	SessionSelectionList														lure	3	Body	0-Back	17	80	16	0	0	100	1	39	84238	1	14	59	82199	-1	82964	1	765	3	3	2039	53	84252	-54	0																19												
WM080112	190031_fnca	2	1	1	-800886033	1	75.032	75.031	2.0.10.147	2.0.10.242	2.0.10.242	1.0.0.439	7	234	2	3	Verdana	1	80	0	0	0	WM Stimuli\	1	1141	1	679.6	1	1033.9	1	640.9	1	1122.4	1	635	1	1214.2	1	648.2	13	324179	3	324167	27	40	324206	-999999	324182	0	26	TrialsPROC	BP_016_H11-T_BA.png	2	2	20	SessionSelectionList														nonlure	3	Body	0-Back	18	80	17	0	0	100	2	39	86810	3	14	72	84771	-1	85412	1	641	3	3	2039	53	86824	-54	0																20												
WM080112	190031_fnca	2	1	1	-800886033	1	75.032	75.031	2.0.10.147	2.0.10.242	2.0.10.242	1.0.0.439	7	234	2	3	Verdana	1	80	0	0	0	WM Stimuli\	1	1141	1	679.6	1	1033.9	1	640.9	1	1122.4	1	635	1	1214.2	1	648.2	13	324179	3	324167	27	40	324206	-999999	324182	0	26	TrialsPROC	BP_013_BP7_BA.png	2	2	21	SessionSelectionList														target	2	Body	0-Back	19	80	18	0	0	100	1	38	89369	3	14	60	87331	-1	87904	1	573	2	2	2038	52	89383	-53	0																21												
WM080112	190031_fnca	2	1	1	-800886033	1	75.032	75.031	2.0.10.147	2.0.10.242	2.0.10.242	1.0.0.439	7	234	2	3	Verdana	1	80	0	0	0	WM Stimuli\	1	1141	1	679.6	1	1033.9	1	640.9	1	1122.4	1	635	1	1214.2	1	648.2	13	324179	3	324167	27	40	324206	-999999	324182	0	26	TrialsPROC	BP_017_H12-T_BA.png	2	2	22	SessionSelectionList														nonlure	3	Body	0-Back	20	80	19	0	0	100	1	38	91928	3	14	59	89890	-1	90497	1	607	3	3	2038	52	91942	-53	0																22												
WM080112	190031_fnca	2	1	1	-800886033	1	75.032	75.031	2.0.10.147	2.0.10.242	2.0.10.242	1.0.0.439	7	234	2	3	Verdana	1	80	0	0	0	WM Stimuli\	1	1141	1	679.6	1	1033.9	1	640.9	1	1122.4	1	635	1	1214.2	1	648.2	13	324179	3	324167	27	40	324206	-999999	324182	0	26	TrialsPROC	BP_014_BP9_BA.png	2	2	23	SessionSelectionList														lure	3	Body	0-Back	21	80	20	0	0	100	2	39	94487	2	14	58	92448	-1	93103	1	655	3	3	2039	53	94501	-54	0																23												
WM080112	190031_fnca	2	1	1	-800886033	1	75.032	75.031	2.0.10.147	2.0.10.242	2.0.10.242	1.0.0.439	7	234	2	3	Verdana	1	80	0	0	0	WM Stimuli\	1	1141	1	679.6	1	1033.9	1	640.9	1	1122.4	1	635	1	1214.2	1	648.2	13	324179	3	324167	27	40	324206	-999999	324182	0	27	Fix15secPROC	""	2	2	24	SessionSelectionList																																															6	94954	-7	0							24												
WM080112	190031_fnca	2	1	1	-800886033	1	75.032	75.031	2.0.10.147	2.0.10.242	2.0.10.242	1.0.0.439	7	234	2	3	Verdana	1	80	0	0	0	WM Stimuli\	1	1141	1	679.6	1	1033.9	1	640.9	1	1122.4	1	635	1	1214.2	1	648.2	13	324179	3	324167	27	40	324206	-999999	324182	0	28	Cue2BackPROC	""	2	2	25	SessionSelectionList									13	109961	-14	0																																													25												
WM080112	190031_fnca	2	1	1	-800886033	1	75.032	75.031	2.0.10.147	2.0.10.242	2.0.10.242	1.0.0.439	7	234	2	3	Verdana	1	80	0	0	0	WM Stimuli\	1	1141	1	679.6	1	1033.9	1	640.9	1	1122.4	1	635	1	1214.2	1	648.2	13	324179	3	324167	27	40	324206	-999999	324182	0	29	TrialsPROC	FC_015_M8.png	2	2	26	SessionSelectionList														nonlure	3	Face	2-Back	22	80	21	0	0	100	3	39	114559	2	14	72	112520	-1	113206	1	686	3	3	2039	53	114573	-54	0																26												
WM080112	190031_fnca	2	1	1	-800886033	1	75.032	75.031	2.0.10.147	2.0.10.242	2.0.10.242	1.0.0.439	7	234	2	3	Verdana	1	80	0	0	0	WM Stimuli\	1	1141	1	679.6	1	1033.9	1	640.9	1	1122.4	1	635	1	1214.2	1	648.2	13	324179	3	324167	27	40	324206	-999999	324182	0	29	TrialsPROC	FC_018_F9.png	2	2	27	SessionSelectionList														nonlure	3	Face	2-Back	23	80	22	0	0	100	4	39	117131	2	14	72	115092	-1	116265	1	1173	3	3	2039	53	117145	-54	0																27												
WM080112	190031_fnca	2	1	1	-800886033	1	75.032	75.031	2.0.10.147	2.0.10.242	2.0.10.242	1.0.0.439	7	234	2	3	Verdana	1	80	0	0	0	WM Stimuli\	1	1141	1	679.6	1	1033.9	1	640.9	1	1122.4	1	635	1	1214.2	1	648.2	13	324179	3	324167	27	40	324206	-999999	324182	0	29	TrialsPROC	FC_018_F9.png	2	2	28	SessionSelectionList														lure	3	Face	2-Back	24	80	23	0	0	100	5	39	119703	3	14	72	117664	-1	118952	1	1288	3	3	2039	53	119717	-54	0																28												
WM080112	190031_fnca	2	1	1	-800886033	1	75.032	75.031	2.0.10.147	2.0.10.242	2.0.10.242	1.0.0.439	7	234	2	3	Verdana	1	80	0	0	0	WM Stimuli\	1	1141	1	679.6	1	1033.9	1	640.9	1	1122.4	1	635	1	1214.2	1	648.2	13	324179	3	324167	27	40	324206	-999999	324182	0	29	TrialsPROC	FC_017_M9.png	2	2	29	SessionSelectionList														nonlure	3	Face	2-Back	25	80	24	0	0	100	6	39	122276	1	13	73	120237	-1	121198	1	961	3	3	2039	52	122289	-53	0																29												
WM080112	190031_fnca	2	1	1	-800886033	1	75.032	75.031	2.0.10.147	2.0.10.242	2.0.10.242	1.0.0.439	7	234	2	3	Verdana	1	80	0	0	0	WM Stimuli\	1	1141	1	679.6	1	1033.9	1	640.9	1	1122.4	1	635	1	1214.2	1	648.2	13	324179	3	324167	27	40	324206	-999999	324182	0	29	TrialsPROC	FC_017_M9.png	2	2	30	SessionSelectionList														lure	3	Face	2-Back	26	80	25	0	0	100	7	39	124848	1	14	72	122809	-1	124130	1	1321	3	3	2039	53	124862	-54	0																30												
WM080112	190031_fnca	2	1	1	-800886033	1	75.032	75.031	2.0.10.147	2.0.10.242	2.0.10.242	1.0.0.439	7	234	2	3	Verdana	1	80	0	0	0	WM Stimuli\	1	1141	1	679.6	1	1033.9	1	640.9	1	1122.4	1	635	1	1214.2	1	648.2	13	324179	3	324167	27	40	324206	-999999	324182	0	29	TrialsPROC	FC_016_F8.png	2	2	31	SessionSelectionList														nonlure	3	Face	2-Back	27	80	26	0	0	100	8	39	127420	2	14	72	125381	-1	126418	1	1037	3	3	2039	53	127434	-54	0																31												
WM080112	190031_fnca	2	1	1	-800886033	1	75.032	75.031	2.0.10.147	2.0.10.242	2.0.10.242	1.0.0.439	7	234	2	3	Verdana	1	80	0	0	0	WM Stimuli\	1	1141	1	679.6	1	1033.9	1	640.9	1	1122.4	1	635	1	1214.2	1	648.2	13	324179	3	324167	27	40	324206	-999999	324182	0	29	TrialsPROC	FC_013_M7.png	2	2	32	SessionSelectionList														nonlure	3	Face	2-Back	28	80	27	0	0	100	9	40	129993	2	13	72	127953	-1	128925	1	972	3	3	2040	53	130006	-54	0																32												
WM080112	190031_fnca	2	1	1	-800886033	1	75.032	75.031	2.0.10.147	2.0.10.242	2.0.10.242	1.0.0.439	7	234	2	3	Verdana	1	80	0	0	0	WM Stimuli\	1	1141	1	679.6	1	1033.9	1	640.9	1	1122.4	1	635	1	1214.2	1	648.2	13	324179	3	324167	27	40	324206	-999999	324182	0	29	TrialsPROC	FC_014_F7.png	2	2	33	SessionSelectionList														nonlure	3	Face	2-Back	29	80	28	0	0	100	10	39	132565	1	13	73	130526	-1	131495	1	969	3	3	2039	52	132578	-53	0																33												
WM080112	190031_fnca	2	1	1	-800886033	1	75.032	75.031	2.0.10.147	2.0.10.242	2.0.10.242	1.0.0.439	7	234	2	3	Verdana	1	80	0	0	0	WM Stimuli\	1	1141	1	679.6	1	1033.9	1	640.9	1	1122.4	1	635	1	1214.2	1	648.2	13	324179	3	324167	27	40	324206	-999999	324182	0	29	TrialsPROC	FC_013_M7.png	2	2	34	SessionSelectionList														target	2	Face	2-Back	30	80	29	0	0	100	1	39	135137	3	14	72	133098	-1	133929	1	831	2	2	2039	53	135151	-54	0																34												
WM080112	190031_fnca	2	1	1	-800886033	1	75.032	75.031	2.0.10.147	2.0.10.242	2.0.10.242	1.0.0.439	7	234	2	3	Verdana	1	80	0	0	0	WM Stimuli\	1	1141	1	679.6	1	1033.9	1	640.9	1	1122.4	1	635	1	1214.2	1	648.2	13	324179	3	324167	27	40	324206	-999999	324182	0	29	TrialsPROC	FC_014_F7.png	2	2	35	SessionSelectionList														target	2	Face	2-Back	31	80	30	0	0	100	2	39	137709	3	14	72	135670	-1	136771	1	1101	2	2	2039	53	137723	-54	0																35												
WM080112	190031_fnca	2	1	1	-800886033	1	75.032	75.031	2.0.10.147	2.0.10.242	2.0.10.242	1.0.0.439	7	234	2	3	Verdana	1	80	0	0	0	WM Stimuli\	1	1141	1	679.6	1	1033.9	1	640.9	1	1122.4	1	635	1	1214.2	1	648.2	13	324179	3	324167	27	40	324206	-999999	324182	0	30	Cue0BackPROC	TO_019_TOOL19_BA.png	2	2	36	SessionSelectionList																																										19	138189	-20	0												36												
WM080112	190031_fnca	2	1	1	-800886033	1	75.032	75.031	2.0.10.147	2.0.10.242	2.0.10.242	1.0.0.439	7	234	2	3	Verdana	1	80	0	0	0	WM Stimuli\	1	1141	1	679.6	1	1033.9	1	640.9	1	1122.4	1	635	1	1214.2	1	648.2	13	324179	3	324167	27	40	324206	-999999	324182	0	31	TrialsPROC	TO_019_TOOL19_BA.png	2	2	37	SessionSelectionList														target	2	Tools	0-Back	32	80	31	0	0	100	3	40	142761	1	13	51	140721	-1	141765	1	1044	2	2	2040	53	142774	-54	0																37												
WM080112	190031_fnca	2	1	1	-800886033	1	75.032	75.031	2.0.10.147	2.0.10.242	2.0.10.242	1.0.0.439	7	234	2	3	Verdana	1	80	0	0	0	WM Stimuli\	1	1141	1	679.6	1	1033.9	1	640.9	1	1122.4	1	635	1	1214.2	1	648.2	13	324179	3	324167	27	40	324206	-999999	324182	0	31	TrialsPROC	TO_024_TOOL24_BA.png	2	2	38	SessionSelectionList														nonlure	3	Tools	0-Back	33	80	32	0	0	100	1	39	145320	2	13	60	143281	-1	143868	1	587	3	3	2039	52	145333	-53	0																38												
WM080112	190031_fnca	2	1	1	-800886033	1	75.032	75.031	2.0.10.147	2.0.10.242	2.0.10.242	1.0.0.439	7	234	2	3	Verdana	1	80	0	0	0	WM Stimuli\	1	1141	1	679.6	1	1033.9	1	640.9	1	1122.4	1	635	1	1214.2	1	648.2	13	324179	3	324167	27	40	324206	-999999	324182	0	31	TrialsPROC	TO_019_TOOL19_BA.png	2	2	39	SessionSelectionList														target	2	Tools	0-Back	34	80	33	0	0	100	1	40	147879	2	13	58	145839	-1	146512	1	673	2	2	2040	53	147892	-54	0																39												
WM080112	190031_fnca	2	1	1	-800886033	1	75.032	75.031	2.0.10.147	2.0.10.242	2.0.10.242	1.0.0.439	7	234	2	3	Verdana	1	80	0	0	0	WM Stimuli\	1	1141	1	679.6	1	1033.9	1	640.9	1	1122.4	1	635	1	1214.2	1	648.2	13	324179	3	324167	27	40	324206	-999999	324182	0	31	TrialsPROC	TO_023_TOOL23_BA.png	2	2	40	SessionSelectionList														nonlure	3	Tools	0-Back	35	80	34	0	0	100	1	38	150437	3	14	60	148399	-1	149060	1	661	3	3	2038	52	150451	-53	0																40												
WM080112	190031_fnca	2	1	1	-800886033	1	75.032	75.031	2.0.10.147	2.0.10.242	2.0.10.242	1.0.0.439	7	234	2	3	Verdana	1	80	0	0	0	WM Stimuli\	1	1141	1	679.6	1	1033.9	1	640.9	1	1122.4	1	635	1	1214.2	1	648.2	13	324179	3	324167	27	40	324206	-999999	324182	0	31	TrialsPROC	TO_020_TOOL20_BA.png	2	2	41	SessionSelectionList														nonlure	3	Tools	0-Back	36	80	35	0	0	100	2	39	152996	2	14	58	150957	-1	151512	1	555	3	3	2039	53	153010	-54	0																41												
WM080112	190031_fnca	2	1	1	-800886033	1	75.032	75.031	2.0.10.147	2.0.10.242	2.0.10.242	1.0.0.439	7	234	2	3	Verdana	1	80	0	0	0	WM Stimuli\	1	1141	1	679.6	1	1033.9	1	640.9	1	1122.4	1	635	1	1214.2	1	648.2	13	324179	3	324167	27	40	324206	-999999	324182	0	31	TrialsPROC	TO_020_TOOL20_BA.png	2	2	42	SessionSelectionList														lure	3	Tools	0-Back	37	80	36	0	0	100	3	39	155555	3	14	59	153516	-1	154066	1	550	3	3	2039	53	155569	-54	0																42												
WM080112	190031_fnca	2	1	1	-800886033	1	75.032	75.031	2.0.10.147	2.0.10.242	2.0.10.242	1.0.0.439	7	234	2	3	Verdana	1	80	0	0	0	WM Stimuli\	1	1141	1	679.6	1	1033.9	1	640.9	1	1122.4	1	635	1	1214.2	1	648.2	13	324179	3	324167	27	40	324206	-999999	324182	0	31	TrialsPROC	TO_022_TOOL22_BA.png	2	2	43	SessionSelectionList														nonlure	3	Tools	0-Back	38	80	37	0	0	100	4	39	158114	3	14	59	156075	-1	156821	1	746	3	3	2039	53	158128	-54	0																43												
WM080112	190031_fnca	2	1	1	-800886033	1	75.032	75.031	2.0.10.147	2.0.10.242	2.0.10.242	1.0.0.439	7	234	2	3	Verdana	1	80	0	0	0	WM Stimuli\	1	1141	1	679.6	1	1033.9	1	640.9	1	1122.4	1	635	1	1214.2	1	648.2	13	324179	3	324167	27	40	324206	-999999	324182	0	31	TrialsPROC	TO_022_TOOL22_BA.png	2	2	44	SessionSelectionList														lure	3	Tools	0-Back	39	80	38	0	0	100	5	39	160673	2	14	59	158634	-1	159193	1	559	3	3	2039	53	160687	-54	0																44												
WM080112	190031_fnca	2	1	1	-800886033	1	75.032	75.031	2.0.10.147	2.0.10.242	2.0.10.242	1.0.0.439	7	234	2	3	Verdana	1	80	0	0	0	WM Stimuli\	1	1141	1	679.6	1	1033.9	1	640.9	1	1122.4	1	635	1	1214.2	1	648.2	13	324179	3	324167	27	40	324206	-999999	324182	0	31	TrialsPROC	TO_021_TOOL21_BA.png	2	2	45	SessionSelectionList														nonlure	3	Tools	0-Back	40	80	39	0	0	100	6	39	163232	2	14	59	161193	-1	161747	1	554	3	3	2039	53	163246	-54	0																45												
WM080112	190031_fnca	2	1	1	-800886033	1	75.032	75.031	2.0.10.147	2.0.10.242	2.0.10.242	1.0.0.439	7	234	2	3	Verdana	1	80	0	0	0	WM Stimuli\	1	1141	1	679.6	1	1033.9	1	640.9	1	1122.4	1	635	1	1214.2	1	648.2	13	324179	3	324167	27	40	324206	-999999	324182	0	31	TrialsPROC	TO_021_TOOL21_BA.png	2	2	46	SessionSelectionList														lure	3	Tools	0-Back	41	80	40	0	0	100	7	39	165791	2	14	59	163752	-1	164305	1	553	3	3	2039	53	165805	-54	0																46												
WM080112	190031_fnca	2	1	1	-800886033	1	75.032	75.031	2.0.10.147	2.0.10.242	2.0.10.242	1.0.0.439	7	234	2	3	Verdana	1	80	0	0	0	WM Stimuli\	1	1141	1	679.6	1	1033.9	1	640.9	1	1122.4	1	635	1	1214.2	1	648.2	13	324179	3	324167	27	40	324206	-999999	324182	0	32	Fix15secPROC	""	2	2	47	SessionSelectionList																																															6	166258	-7	0							47												
WM080112	190031_fnca	2	1	1	-800886033	1	75.032	75.031	2.0.10.147	2.0.10.242	2.0.10.242	1.0.0.439	7	234	2	3	Verdana	1	80	0	0	0	WM Stimuli\	1	1141	1	679.6	1	1033.9	1	640.9	1	1122.4	1	635	1	1214.2	1	648.2	13	324179	3	324167	27	40	324206	-999999	324182	0	33	Cue2BackPROC	""	2	2	48	SessionSelectionList									13	181265	-14	0																																													48												
WM080112	190031_fnca	2	1	1	-800886033	1	75.032	75.031	2.0.10.147	2.0.10.242	2.0.10.242	1.0.0.439	7	234	2	3	Verdana	1	80	0	0	0	WM Stimuli\	1	1141	1	679.6	1	1033.9	1	640.9	1	1122.4	1	635	1	1214.2	1	648.2	13	324179	3	324167	27	40	324206	-999999	324182	0	34	TrialsPROC	BP_020_H17-T_BA.png	2	2	49	SessionSelectionList														nonlure	3	Body	2-Back	42	80	41	0	0	100	8	39	185863	2	14	72	183824	-1	184402	1	578	3	3	2039	53	185877	-54	0																49												
WM080112	190031_fnca	2	1	1	-800886033	1	75.032	75.031	2.0.10.147	2.0.10.242	2.0.10.242	1.0.0.439	7	234	2	3	Verdana	1	80	0	0	0	WM Stimuli\	1	1141	1	679.6	1	1033.9	1	640.9	1	1122.4	1	635	1	1214.2	1	648.2	13	324179	3	324167	27	40	324206	-999999	324182	0	34	TrialsPROC	BP_019_H14-T_BA.png	2	2	50	SessionSelectionList														nonlure	3	Body	2-Back	43	80	42	0	0	100	9	39	188435	2	14	72	186396	-1	187548	1	1152	3	3	2039	53	188449	-54	0																50												
WM080112	190031_fnca	2	1	1	-800886033	1	75.032	75.031	2.0.10.147	2.0.10.242	2.0.10.242	1.0.0.439	7	234	2	3	Verdana	1	80	0	0	0	WM Stimuli\	1	1141	1	679.6	1	1033.9	1	640.9	1	1122.4	1	635	1	1214.2	1	648.2	13	324179	3	324167	27	40	324206	-999999	324182	0	34	TrialsPROC	BP_020_H17-T_BA.png	2	2	51	SessionSelectionList														target	2	Body	2-Back	44	80	43	0	0	100	1	39	190994	3	14	59	188955	-1	189944	1	989	2	2	2039	53	191008	-54	0																51												
WM080112	190031_fnca	2	1	1	-800886033	1	75.032	75.031	2.0.10.147	2.0.10.242	2.0.10.242	1.0.0.439	7	234	2	3	Verdana	1	80	0	0	0	WM Stimuli\	1	1141	1	679.6	1	1033.9	1	640.9	1	1122.4	1	635	1	1214.2	1	648.2	13	324179	3	324167	27	40	324206	-999999	324182	0	34	TrialsPROC	BP_019_H14-T_BA.png	2	2	52	SessionSelectionList														target	2	Body	2-Back	45	80	44	0	0	100	2	39	193566	2	14	72	191527	-1	192525	1	998	2	2	2039	53	193580	-54	0																52												
WM080112	190031_fnca	2	1	1	-800886033	1	75.032	75.031	2.0.10.147	2.0.10.242	2.0.10.242	1.0.0.439	7	234	2	3	Verdana	1	80	0	0	0	WM Stimuli\	1	1141	1	679.6	1	1033.9	1	640.9	1	1122.4	1	635	1	1214.2	1	648.2	13	324179	3	324167	27	40	324206	-999999	324182	0	34	TrialsPROC	BP_024_H3-T_BA.png	2	2	53	SessionSelectionList														nonlure	3	Body	2-Back	46	80	45	0	0	100	1	39	196125	2	14	59	194086	-1	195461	1	1375	3	3	2039	53	196139	-54	0																53												
WM080112	190031_fnca	2	1	1	-800886033	1	75.032	75.031	2.0.10.147	2.0.10.242	2.0.10.242	1.0.0.439	7	234	2	3	Verdana	1	80	0	0	0	WM Stimuli\	1	1141	1	679.6	1	1033.9	1	640.9	1	1122.4	1	635	1	1214.2	1	648.2	13	324179	3	324167	27	40	324206	-999999	324182	0	34	TrialsPROC	BP_024_H3-T_BA.png	2	2	54	SessionSelectionList														lure	3	Body	2-Back	47	80	46	0	0	100	2	39	198684	3	14	59	196645	-1	197546	1	901	3	3	2039	53	198698	-54	0																54												
WM080112	190031_fnca	2	1	1	-800886033	1	75.032	75.031	2.0.10.147	2.0.10.242	2.0.10.242	1.0.0.439	7	234	2	3	Verdana	1	80	0	0	0	WM Stimuli\	1	1141	1	679.6	1	1033.9	1	640.9	1	1122.4	1	635	1	1214.2	1	648.2	13	324179	3	324167	27	40	324206	-999999	324182	0	34	TrialsPROC	BP_025_H5-T_BA.png	2	2	55	SessionSelectionList														nonlure	3	Body	2-Back	48	80	47	0	0	100	3	38	201243	3	14	60	199205	-1	200725	1	1520	3	3	2038	52	201257	-53	0																55												
WM080112	190031_fnca	2	1	1	-800886033	1	75.032	75.031	2.0.10.147	2.0.10.242	2.0.10.242	1.0.0.439	7	234	2	3	Verdana	1	80	0	0	0	WM Stimuli\	1	1141	1	679.6	1	1033.9	1	640.9	1	1122.4	1	635	1	1214.2	1	648.2	13	324179	3	324167	27	40	324206	-999999	324182	0	34	TrialsPROC	BP_023_H25-T_BA.png	2	2	56	SessionSelectionList														nonlure	3	Body	2-Back	49	80	48	0	0	100	4	39	203815	2	14	71	201776	-1	203122	1	1346	3	3	2039	53	203829	-54	0																56												
WM080112	190031_fnca	2	1	1	-800886033	1	75.032	75.031	2.0.10.147	2.0.10.242	2.0.10.242	1.0.0.439	7	234	2	3	Verdana	1	80	0	0	0	WM Stimuli\	1	1141	1	679.6	1	1033.9	1	640.9	1	1122.4	1	635	1	1214.2	1	648.2	13	324179	3	324167	27	40	324206	-999999	324182	0	34	TrialsPROC	BP_022_H24-T_BA.png	2	2	57	SessionSelectionList														nonlure	3	Body	2-Back	50	80	49	0	0	100	5	38	206374	2	14	60	204336	-1	205712	1	1376	3	3	2038	52	206388	-53	0																57												
WM080112	190031_fnca	2	1	1	-800886033	1	75.032	75.031	2.0.10.147	2.0.10.242	2.0.10.242	1.0.0.439	7	234	2	3	Verdana	1	80	0	0	0	WM Stimuli\	1	1141	1	679.6	1	1033.9	1	640.9	1	1122.4	1	635	1	1214.2	1	648.2	13	324179	3	324167	27	40	324206	-999999	324182	0	34	TrialsPROC	BP_022_H24-T_BA.png	2	2	58	SessionSelectionList														lure	3	Body	2-Back	51	80	50	0	0	100	6	39	208933	3	14	58	206894	-1	208069	1	1175	3	3	2039	53	208947	-54	0																58												
WM080112	190031_fnca	2	1	1	-800886033	1	75.032	75.031	2.0.10.147	2.0.10.242	2.0.10.242	1.0.0.439	7	234	2	3	Verdana	1	80	0	0	0	WM Stimuli\	1	1141	1	679.6	1	1033.9	1	640.9	1	1122.4	1	635	1	1214.2	1	648.2	13	324179	3	324167	27	40	324206	-999999	324182	0	35	Cue2BackPROC	""	2	2	59	SessionSelectionList									6	209400	-7	0																																													59												
WM080112	190031_fnca	2	1	1	-800886033	1	75.032	75.031	2.0.10.147	2.0.10.242	2.0.10.242	1.0.0.439	7	234	2	3	Verdana	1	80	0	0	0	WM Stimuli\	1	1141	1	679.6	1	1033.9	1	640.9	1	1122.4	1	635	1	1214.2	1	648.2	13	324179	3	324167	27	40	324206	-999999	324182	0	36	TrialsPROC	PL_019_SCENE_05.png	2	2	60	SessionSelectionList														nonlure	3	Place	2-Back	52	80	51	0	0	100	7	39	213998	2	14	65	211959	-1	213073	1	1114	3	3	2039	53	214012	-54	0																60												
WM080112	190031_fnca	2	1	1	-800886033	1	75.032	75.031	2.0.10.147	2.0.10.242	2.0.10.242	1.0.0.439	7	234	2	3	Verdana	1	80	0	0	0	WM Stimuli\	1	1141	1	679.6	1	1033.9	1	640.9	1	1122.4	1	635	1	1214.2	1	648.2	13	324179	3	324167	27	40	324206	-999999	324182	0	36	TrialsPROC	PL_017_SCENE_03.png	2	2	61	SessionSelectionList														nonlure	3	Place	2-Back	53	80	52	0	0	100	8	39	216570	2	14	72	214531	-1	215621	1	1090	3	3	2039	53	216584	-54	0																61												
WM080112	190031_fnca	2	1	1	-800886033	1	75.032	75.031	2.0.10.147	2.0.10.242	2.0.10.242	1.0.0.439	7	234	2	3	Verdana	1	80	0	0	0	WM Stimuli\	1	1141	1	679.6	1	1033.9	1	640.9	1	1122.4	1	635	1	1214.2	1	648.2	13	324179	3	324167	27	40	324206	-999999	324182	0	36	TrialsPROC	PL_017_SCENE_03.png	2	2	62	SessionSelectionList														lure	3	Place	2-Back	54	80	53	0	0	100	9	39	219142	2	14	72	217103	-1	218300	1	1197	3	3	2039	53	219156	-54	0																62												
WM080112	190031_fnca	2	1	1	-800886033	1	75.032	75.031	2.0.10.147	2.0.10.242	2.0.10.242	1.0.0.439	7	234	2	3	Verdana	1	80	0	0	0	WM Stimuli\	1	1141	1	679.6	1	1033.9	1	640.9	1	1122.4	1	635	1	1214.2	1	648.2	13	324179	3	324167	27	40	324206	-999999	324182	0	36	TrialsPROC	PL_016_SCENE_02.png	2	2	63	SessionSelectionList														nonlure	3	Place	2-Back	55	80	54	0	0	100	10	39	221715	1	13	73	219676	-1	220803	1	1127	3	3	2039	52	221728	-53	0																63												
WM080112	190031_fnca	2	1	1	-800886033	1	75.032	75.031	2.0.10.147	2.0.10.242	2.0.10.242	1.0.0.439	7	234	2	3	Verdana	1	80	0	0	0	WM Stimuli\	1	1141	1	679.6	1	1033.9	1	640.9	1	1122.4	1	635	1	1214.2	1	648.2	13	324179	3	324167	27	40	324206	-999999	324182	0	36	TrialsPROC	PL_015_SCENE_01.png	2	2	64	SessionSelectionList														nonlure	3	Place	2-Back	56	80	55	0	0	100	11	39	224287	3	14	72	222248	-1	223255	1	1007	3	3	2039	53	224301	-54	0																64												
WM080112	190031_fnca	2	1	1	-800886033	1	75.032	75.031	2.0.10.147	2.0.10.242	2.0.10.242	1.0.0.439	7	234	2	3	Verdana	1	80	0	0	0	WM Stimuli\	1	1141	1	679.6	1	1033.9	1	640.9	1	1122.4	1	635	1	1214.2	1	648.2	13	324179	3	324167	27	40	324206	-999999	324182	0	36	TrialsPROC	PL_016_SCENE_02.png	2	2	65	SessionSelectionList														target	2	Place	2-Back	57	80	56	0	0	100	1	39	226859	3	14	72	224820	-1	225642	1	822	2	2	2039	53	226873	-54	0																65												
WM080112	190031_fnca	2	1	1	-800886033	1	75.032	75.031	2.0.10.147	2.0.10.242	2.0.10.242	1.0.0.439	7	234	2	3	Verdana	1	80	0	0	0	WM Stimuli\	1	1141	1	679.6	1	1033.9	1	640.9	1	1122.4	1	635	1	1214.2	1	648.2	13	324179	3	324167	27	40	324206	-999999	324182	0	36	TrialsPROC	PL_015_SCENE_01.png	2	2	66	SessionSelectionList														target	2	Place	2-Back	58	80	57	0	0	100	2	40	229432	2	13	72	227392	-1	228799	1	1407	2	2	2040	53	229445	-54	0																66												
WM080112	190031_fnca	2	1	1	-800886033	1	75.032	75.031	2.0.10.147	2.0.10.242	2.0.10.242	1.0.0.439	7	234	2	3	Verdana	1	80	0	0	0	WM Stimuli\	1	1141	1	679.6	1	1033.9	1	640.9	1	1122.4	1	635	1	1214.2	1	648.2	13	324179	3	324167	27	40	324206	-999999	324182	0	36	TrialsPROC	PL_020_SCENE_06.png	2	2	67	SessionSelectionList														nonlure	3	Place	2-Back	59	80	58	0	0	100	1	39	232017	3	14	86	229978	-1	231290	1	1312	3	3	2039	53	232031	-54	0																67												
WM080112	190031_fnca	2	1	1	-800886033	1	75.032	75.031	2.0.10.147	2.0.10.242	2.0.10.242	1.0.0.439	7	234	2	3	Verdana	1	80	0	0	0	WM Stimuli\	1	1141	1	679.6	1	1033.9	1	640.9	1	1122.4	1	635	1	1214.2	1	648.2	13	324179	3	324167	27	40	324206	-999999	324182	0	36	TrialsPROC	PL_020_SCENE_06.png	2	2	68	SessionSelectionList														lure	3	Place	2-Back	60	80	59	0	0	100	2	39	234589	3	14	72	232550	-1	233588	1	1038	3	3	2039	53	234603	-54	0																68												
WM080112	190031_fnca	2	1	1	-800886033	1	75.032	75.031	2.0.10.147	2.0.10.242	2.0.10.242	1.0.0.439	7	234	2	3	Verdana	1	80	0	0	0	WM Stimuli\	1	1141	1	679.6	1	1033.9	1	640.9	1	1122.4	1	635	1	1214.2	1	648.2	13	324179	3	324167	27	40	324206	-999999	324182	0	36	TrialsPROC	PL_018_SCENE_04.png	2	2	69	SessionSelectionList														nonlure	3	Place	2-Back	61	80	60	0	0	100	3	39	237175	3	14	86	235136	-1	236246	1	1110	3	3	2039	53	237189	-54	0																69												
WM080112	190031_fnca	2	1	1	-800886033	1	75.032	75.031	2.0.10.147	2.0.10.242	2.0.10.242	1.0.0.439	7	234	2	3	Verdana	1	80	0	0	0	WM Stimuli\	1	1141	1	679.6	1	1033.9	1	640.9	1	1122.4	1	635	1	1214.2	1	648.2	13	324179	3	324167	27	40	324206	-999999	324182	0	37	Fix15secPROC	""	2	2	70	SessionSelectionList																																															6	237642	-7	0							70												
WM080112	190031_fnca	2	1	1	-800886033	1	75.032	75.031	2.0.10.147	2.0.10.242	2.0.10.242	1.0.0.439	7	234	2	3	Verdana	1	80	0	0	0	WM Stimuli\	1	1141	1	679.6	1	1033.9	1	640.9	1	1122.4	1	635	1	1214.2	1	648.2	13	324179	3	324167	27	40	324206	-999999	324182	0	38	Cue0BackPROC	FC_020_F10.png	2	2	71	SessionSelectionList																																										39	252675	-40	0												71												
WM080112	190031_fnca	2	1	1	-800886033	1	75.032	75.031	2.0.10.147	2.0.10.242	2.0.10.242	1.0.0.439	7	234	2	3	Verdana	1	80	0	0	0	WM Stimuli\	1	1141	1	679.6	1	1033.9	1	640.9	1	1122.4	1	635	1	1214.2	1	648.2	13	324179	3	324167	27	40	324206	-999999	324182	0	39	TrialsPROC	FC_024_F12.png	2	2	72	SessionSelectionList														nonlure	3	Face	0-Back	62	80	61	0	0	100	4	39	257260	3	14	85	255221	-1	255973	1	752	3	3	2039	53	257274	-54	0																72												
WM080112	190031_fnca	2	1	1	-800886033	1	75.032	75.031	2.0.10.147	2.0.10.242	2.0.10.242	1.0.0.439	7	234	2	3	Verdana	1	80	0	0	0	WM Stimuli\	1	1141	1	679.6	1	1033.9	1	640.9	1	1122.4	1	635	1	1214.2	1	648.2	13	324179	3	324167	27	40	324206	-999999	324182	0	39	TrialsPROC	FC_023_M12.png	2	2	73	SessionSelectionList														nonlure	3	Face	0-Back	63	80	62	0	0	100	5	39	259846	2	13	86	257807	-1	258471	1	664	3	3	2039	52	259859	-53	0																73												
WM080112	190031_fnca	2	1	1	-800886033	1	75.032	75.031	2.0.10.147	2.0.10.242	2.0.10.242	1.0.0.439	7	234	2	3	Verdana	1	80	0	0	0	WM Stimuli\	1	1141	1	679.6	1	1033.9	1	640.9	1	1122.4	1	635	1	1214.2	1	648.2	13	324179	3	324167	27	40	324206	-999999	324182	0	39	TrialsPROC	FC_020_F10.png	2	2	74	SessionSelectionList														target	2	Face	0-Back	64	80	63	0	0	100	1	39	262418	1	14	72	260379	-1	261063	1	684	2	2	2039	53	262432	-54	0																74												
WM080112	190031_fnca	2	1	1	-800886033	1	75.032	75.031	2.0.10.147	2.0.10.242	2.0.10.242	1.0.0.439	7	234	2	3	Verdana	1	80	0	0	0	WM Stimuli\	1	1141	1	679.6	1	1033.9	1	640.9	1	1122.4	1	635	1	1214.2	1	648.2	13	324179	3	324167	27	40	324206	-999999	324182	0	39	TrialsPROC	FC_024_F12.png	2	2	75	SessionSelectionList														lure	3	Face	0-Back	65	80	64	0	0	100	1	39	264990	3	14	72	262951	-1	263649	1	698	3	3	2039	53	265004	-54	0																75												
WM080112	190031_fnca	2	1	1	-800886033	1	75.032	75.031	2.0.10.147	2.0.10.242	2.0.10.242	1.0.0.439	7	234	2	3	Verdana	1	80	0	0	0	WM Stimuli\	1	1141	1	679.6	1	1033.9	1	640.9	1	1122.4	1	635	1	1214.2	1	648.2	13	324179	3	324167	27	40	324206	-999999	324182	0	39	TrialsPROC	FC_020_F10.png	2	2	76	SessionSelectionList														target	2	Face	0-Back	66	80	65	0	0	100	1	40	267563	1	13	72	265523	-1	266191	1	668	2	2	2040	53	267576	-54	0																76												
WM080112	190031_fnca	2	1	1	-800886033	1	75.032	75.031	2.0.10.147	2.0.10.242	2.0.10.242	1.0.0.439	7	234	2	3	Verdana	1	80	0	0	0	WM Stimuli\	1	1141	1	679.6	1	1033.9	1	640.9	1	1122.4	1	635	1	1214.2	1	648.2	13	324179	3	324167	27	40	324206	-999999	324182	0	39	TrialsPROC	FC_022_F11.png	2	2	77	SessionSelectionList														nonlure	3	Face	0-Back	67	80	66	0	0	100	1	39	270148	3	14	86	268109	-1	268725	1	616	3	3	2039	53	270162	-54	0																77												
WM080112	190031_fnca	2	1	1	-800886033	1	75.032	75.031	2.0.10.147	2.0.10.242	2.0.10.242	1.0.0.439	7	234	2	3	Verdana	1	80	0	0	0	WM Stimuli\	1	1141	1	679.6	1	1033.9	1	640.9	1	1122.4	1	635	1	1214.2	1	648.2	13	324179	3	324167	27	40	324206	-999999	324182	0	39	TrialsPROC	FC_023_M12.png	2	2	78	SessionSelectionList														lure	3	Face	0-Back	68	80	67	0	0	100	2	39	272720	2	14	72	270681	-1	271263	1	582	3	3	2039	53	272734	-54	0																78												
WM080112	190031_fnca	2	1	1	-800886033	1	75.032	75.031	2.0.10.147	2.0.10.242	2.0.10.242	1.0.0.439	7	234	2	3	Verdana	1	80	0	0	0	WM Stimuli\	1	1141	1	679.6	1	1033.9	1	640.9	1	1122.4	1	635	1	1214.2	1	648.2	13	324179	3	324167	27	40	324206	-999999	324182	0	39	TrialsPROC	FC_021_M11.png	2	2	79	SessionSelectionList														nonlure	3	Face	0-Back	69	80	68	0	0	100	3	39	275306	3	14	86	273267	-1	273836	1	569	3	3	2039	53	275320	-54	0																79												
WM080112	190031_fnca	2	1	1	-800886033	1	75.032	75.031	2.0.10.147	2.0.10.242	2.0.10.242	1.0.0.439	7	234	2	3	Verdana	1	80	0	0	0	WM Stimuli\	1	1141	1	679.6	1	1033.9	1	640.9	1	1122.4	1	635	1	1214.2	1	648.2	13	324179	3	324167	27	40	324206	-999999	324182	0	39	TrialsPROC	FC_021_M11.png	2	2	80	SessionSelectionList														lure	3	Face	0-Back	70	80	69	0	0	100	4	39	277878	3	14	72	275839	-1	276422	1	583	3	3	2039	53	277892	-54	0																80												
WM080112	190031_fnca	2	1	1	-800886033	1	75.032	75.031	2.0.10.147	2.0.10.242	2.0.10.242	1.0.0.439	7	234	2	3	Verdana	1	80	0	0	0	WM Stimuli\	1	1141	1	679.6	1	1033.9	1	640.9	1	1122.4	1	635	1	1214.2	1	648.2	13	324179	3	324167	27	40	324206	-999999	324182	0	39	TrialsPROC	FC_019_M10.png	2	2	81	SessionSelectionList														nonlure	3	Face	0-Back	71	80	70	0	0	100	5	39	280464	1	14	86	278425	-1	279018	1	593	3	3	2039	53	280478	-54	0																81												
WM080112	190031_fnca	2	1	1	-800886033	1	75.032	75.031	2.0.10.147	2.0.10.242	2.0.10.242	1.0.0.439	7	234	2	3	Verdana	1	80	0	0	0	WM Stimuli\	1	1141	1	679.6	1	1033.9	1	640.9	1	1122.4	1	635	1	1214.2	1	648.2	13	324179	3	324167	27	40	324206	-999999	324182	0	40	Cue0BackPROC	PL_021_SCENE_07.png	2	2	82	SessionSelectionList																																										32	280957	-33	0												82												
WM080112	190031_fnca	2	1	1	-800886033	1	75.032	75.031	2.0.10.147	2.0.10.242	2.0.10.242	1.0.0.439	7	234	2	3	Verdana	1	80	0	0	0	WM Stimuli\	1	1141	1	679.6	1	1033.9	1	640.9	1	1122.4	1	635	1	1214.2	1	648.2	13	324179	3	324167	27	40	324206	-999999	324182	0	41	TrialsPROC	PL_025_SCENE_18.png	2	2	83	SessionSelectionList														nonlure	3	Place	0-Back	72	80	71	0	0	100	6	39	285542	1	14	78	283503	-1	284279	1	776	3	3	2039	53	285556	-54	0																83												
WM080112	190031_fnca	2	1	1	-800886033	1	75.032	75.031	2.0.10.147	2.0.10.242	2.0.10.242	1.0.0.439	7	234	2	3	Verdana	1	80	0	0	0	WM Stimuli\	1	1141	1	679.6	1	1033.9	1	640.9	1	1122.4	1	635	1	1214.2	1	648.2	13	324179	3	324167	27	40	324206	-999999	324182	0	41	TrialsPROC	PL_026_SCENE_24.png	2	2	84	SessionSelectionList														nonlure	3	Place	0-Back	73	80	72	0	0	100	7	39	288114	3	14	72	286075	-1	286669	1	594	3	3	2039	53	288128	-54	0																84												
WM080112	190031_fnca	2	1	1	-800886033	1	75.032	75.031	2.0.10.147	2.0.10.242	2.0.10.242	1.0.0.439	7	234	2	3	Verdana	1	80	0	0	0	WM Stimuli\	1	1141	1	679.6	1	1033.9	1	640.9	1	1122.4	1	635	1	1214.2	1	648.2	13	324179	3	324167	27	40	324206	-999999	324182	0	41	TrialsPROC	PL_025_SCENE_18.png	2	2	85	SessionSelectionList														lure	3	Place	0-Back	74	80	73	0	0	100	8	39	290686	2	14	72	288647	-1	289212	1	565	3	3	2039	53	290700	-54	0																85												
WM080112	190031_fnca	2	1	1	-800886033	1	75.032	75.031	2.0.10.147	2.0.10.242	2.0.10.242	1.0.0.439	7	234	2	3	Verdana	1	80	0	0	0	WM Stimuli\	1	1141	1	679.6	1	1033.9	1	640.9	1	1122.4	1	635	1	1214.2	1	648.2	13	324179	3	324167	27	40	324206	-999999	324182	0	41	TrialsPROC	PL_022_SCENE_08.png	2	2	86	SessionSelectionList														nonlure	3	Place	0-Back	75	80	74	0	0	100	9	40	293259	1	13	72	291219	-1	291826	1	607	3	3	2040	53	293272	-54	0																86												
WM080112	190031_fnca	2	1	1	-800886033	1	75.032	75.031	2.0.10.147	2.0.10.242	2.0.10.242	1.0.0.439	7	234	2	3	Verdana	1	80	0	0	0	WM Stimuli\	1	1141	1	679.6	1	1033.9	1	640.9	1	1122.4	1	635	1	1214.2	1	648.2	13	324179	3	324167	27	40	324206	-999999	324182	0	41	TrialsPROC	PL_026_SCENE_24.png	2	2	87	SessionSelectionList														lure	3	Place	0-Back	76	80	75	0	0	100	10	39	295831	2	14	73	293792	-1	294337	1	545	3	3	2039	53	295845	-54	0																87												
WM080112	190031_fnca	2	1	1	-800886033	1	75.032	75.031	2.0.10.147	2.0.10.242	2.0.10.242	1.0.0.439	7	234	2	3	Verdana	1	80	0	0	0	WM Stimuli\	1	1141	1	679.6	1	1033.9	1	640.9	1	1122.4	1	635	1	1214.2	1	648.2	13	324179	3	324167	27	40	324206	-999999	324182	0	41	TrialsPROC	PL_021_SCENE_07.png	2	2	88	SessionSelectionList														target	2	Place	0-Back	77	80	76	0	0	100	1	39	298403	3	14	72	296364	-1	297031	1	667	2	2	2039	53	298417	-54	0																88												
WM080112	190031_fnca	2	1	1	-800886033	1	75.032	75.031	2.0.10.147	2.0.10.242	2.0.10.242	1.0.0.439	7	234	2	3	Verdana	1	80	0	0	0	WM Stimuli\	1	1141	1	679.6	1	1033.9	1	640.9	1	1122.4	1	635	1	1214.2	1	648.2	13	324179	3	324167	27	40	324206	-999999	324182	0	41	TrialsPROC	PL_021_SCENE_07.png	2	2	89	SessionSelectionList														target	2	Place	0-Back	78	80	77	0	0	100	2	39	300975	2	14	72	298936	-1	299624	1	688	2	2	2039	53	300989	-54	0																89												
WM080112	190031_fnca	2	1	1	-800886033	1	75.032	75.031	2.0.10.147	2.0.10.242	2.0.10.242	1.0.0.439	7	234	2	3	Verdana	1	80	0	0	0	WM Stimuli\	1	1141	1	679.6	1	1033.9	1	640.9	1	1122.4	1	635	1	1214.2	1	648.2	13	324179	3	324167	27	40	324206	-999999	324182	0	41	TrialsPROC	PL_023_SCENE_09.png	2	2	90	SessionSelectionList														nonlure	3	Place	0-Back	79	80	78	0	0	100	1	39	303561	1	14	86	301522	-1	302123	1	601	3	3	2039	53	303575	-54	0																90												
WM080112	190031_fnca	2	1	1	-800886033	1	75.032	75.031	2.0.10.147	2.0.10.242	2.0.10.242	1.0.0.439	7	234	2	3	Verdana	1	80	0	0	0	WM Stimuli\	1	1141	1	679.6	1	1033.9	1	640.9	1	1122.4	1	635	1	1214.2	1	648.2	13	324179	3	324167	27	40	324206	-999999	324182	0	41	TrialsPROC	PL_024_SCENE_10.png	2	2	91	SessionSelectionList														nonlure	3	Place	0-Back	80	80	79	0	0	100	2	39	306133	3	14	72	304094	-1	304678	1	584	3	3	2039	53	306147	-54	0																91												
WM080112	190031_fnca	2	1	1	-800886033	1	75.032	75.031	2.0.10.147	2.0.10.242	2.0.10.242	1.0.0.439	7	234	2	3	Verdana	1	80	0	0	0	WM Stimuli\	1	1141	1	679.6	1	1033.9	1	640.9	1	1122.4	1	635	1	1214.2	1	648.2	13	324179	3	324167	27	40	324206	-999999	324182	0	41	TrialsPROC	PL_022_SCENE_08.png	2	2	92	SessionSelectionList														lure	3	Place	0-Back	80	80	80	0	0	100	3	40	308706	2	13	72	306666	-1	307389	1	723	3	3	2040	53	308719	-54	0																92												
WM080112	190031_fnca	2	1	1	-800886033	1	75.032	75.031	2.0.10.147	2.0.10.242	2.0.10.242	1.0.0.439	7	234	2	3	Verdana	1	80	0	0	0	WM Stimuli\	1	1141	1	679.6	1	1033.9	1	640.9	1	1122.4	1	635	1	1214.2	1	648.2	13	324179	3	324167	27	40	324206	-999999	324182	0	42	Fix15secPROC	""	2	2	93	SessionSelectionList																																															6	309172	-7	0							93												
