ExperimentName	HCPID	RunNumber	Subject	Session	RandomSeed	Group	Laptop.RefreshRate	ScannerD2.RefreshRate	StudioVersion	RuntimeVersion	RuntimeVersionExpected	ExperimentVersion	triggercode	Allowed	Target	Nontarget	FontStyle	RunTrialNumber[Session]	TrialsPerRun[Session]	TotalRespGreater200[Session]	ConsecRTLess200[Session]	ConsecNonResp[Session]	StimuliDir	ACC_2_Back_Body	Avg_RT_For_Correct_Trials_2_Back_Body	ACC_0_Back_Body	Avg_RT_For_Correct_Trials_0_Back_Body	ACC_2_Back_Face	Avg_RT_For_Correct_Trials_2_Back_Face	ACC_0_Back_Face	Avg_RT_For_Correct_Trials_0_Back_Face	ACC_2_Back_Place	Avg_RT_For_Correct_Trials_2_Back_Place	ACC_0_Back_Place	Avg_RT_For_Correct_Trials_0_Back_Place	ACC_2_Back_Tools	Avg_RT_For_Correct_Trials_2_Back_Tools	ACC_0_Back_Tools	Avg_RT_For_Correct_Trials_0_Back_Tools	ExpInstrucFeelFreeToRest.OnsetDelay	ExpInstrucFeelFreeToRest.OnsetTime	ExpInstrucFeelFreeToRest.DurationError	ExpInstrucFeelFreeToRest.StartTime	ExpInstrucFeelFreeToRest.OnsetToOnsetTime	FeelFreeToRest.OnsetDelay	FeelFreeToRest.OnsetTime	FeelFreeToRest.DurationError	FeelFreeToRest.StartTime	FeelFreeToRest.OnsetToOnsetTime	SessionSelectionList	Procedure[Block]	Stimulus[Block]	RunNumberFilterValue	SessionSelectionList.Cycle	SessionSelectionList.Sample	Running[Block]	IntroButtonMap.OnsetDelay	IntroButtonMap.OnsetTime	IntroButtonMap.DurationError	IntroButtonMap.OnsetToOnsetTime	GetReady.OnsetDelay	GetReady.OnsetTime	GetReady.DurationError	GetReady.OnsetToOnsetTime	Cue2Back.OnsetDelay	Cue2Back.OnsetTime	Cue2Back.DurationError	Cue2Back.OnsetToOnsetTime	Run1Block1	TargetType	CorrectResponse	StimType	BlockType	RunTrialNumber[Block]	TrialsPerRun[Block]	TotalRespGreater200[Block]	ConsecRTLess200[Block]	ConsecNonResp[Block]	ControlAcc	ConsecSameResp	ExperimenterWindow.OnsetDelay	ExperimenterWindow.OnsetTime	ExperimenterWindow.DurationError	ExperimenterWindow.OnsetToOnsetTime	Stim.OnsetDelay	Stim.OnsetTime	Stim.DurationError	Stim.RTTime	Stim.ACC	Stim.RT	Stim.RESP	Stim.CRESP	Stim.OnsetToOnsetTime	Fix.OnsetDelay	Fix.OnsetTime	Fix.DurationError	Fix.OnsetToOnsetTime	CueTarget.OnsetDelay	CueTarget.OnsetTime	CueTarget.DurationError	CueTarget.OnsetToOnsetTime	Run1Block2	Fix15sec.OnsetDelay	Fix15sec.OnsetTime	Fix15sec.DurationError	Fix15sec.OnsetToOnsetTime	Run1Block3	Run1Block4	Run1Block5	Run1Block6	Run1Block7	Run1Block8	Block	Procedure[Trial]	Stimulus[Trial]	ReadyList	Running[Trial]	ReadyList.Cycle	ReadyList.Sample	SyncSlide.OnsetDelay	SyncSlide.OnsetTime	SyncSlide.DurationError	SyncSlide.FinishTime	SyncSlide.OnsetToOnsetTime	Trial
WM080112	148840_fnca	2	1	1	1975364307	1	75.031	75.031	2.0.10.147	2.0.10.242	2.0.10.242	1.0.0.439	7	234	2	3	Verdana	1	80	0	0	0	WM Stimuli\	1	1027.9	1	655.6	1	1151.4	1	535.2	1	1141.7	1	660.4	1	1126.4	1	770	13	316464	2	316452	27	40	316491	-999999	316467	0	22	TRSyncPROC	""	2	2	1	SessionSelectionList	101	9857	-999999	0	38	10590	-999999	0																																																	1	InitialTR	4	1	ReadyList	1	1	15	23185	-16	25169	0	1
WM080112	148840_fnca	2	1	1	1975364307	1	75.031	75.031	2.0.10.147	2.0.10.242	2.0.10.242	1.0.0.439	7	234	2	3	Verdana	1	80	0	0	0	WM Stimuli\	1	1027.9	1	655.6	1	1151.4	1	535.2	1	1141.7	1	660.4	1	1126.4	1	770	13	316464	2	316452	27	40	316491	-999999	316467	0	22	TRSyncPROC	""	2	2	1	SessionSelectionList	101	9857	-999999	0	38	10590	-999999	0																																																	1	InitialTR	3	2	ReadyList	1	2	14	25184	-15	27169	0	2
WM080112	148840_fnca	2	1	1	1975364307	1	75.031	75.031	2.0.10.147	2.0.10.242	2.0.10.242	1.0.0.439	7	234	2	3	Verdana	1	80	0	0	0	WM Stimuli\	1	1027.9	1	655.6	1	1151.4	1	535.2	1	1141.7	1	660.4	1	1126.4	1	770	13	316464	2	316452	27	40	316491	-999999	316467	0	22	TRSyncPROC	""	2	2	1	SessionSelectionList	101	9857	-999999	0	38	10590	-999999	0																																																	1	InitialTR	2	3	ReadyList	1	3	13	27183	-14	29169	0	3
WM080112	148840_fnca	2	1	1	1975364307	1	75.031	75.031	2.0.10.147	2.0.10.242	2.0.10.242	1.0.0.439	7	234	2	3	Verdana	1	80	0	0	0	WM Stimuli\	1	1027.9	1	655.6	1	1151.4	1	535.2	1	1141.7	1	660.4	1	1126.4	1	770	13	316464	2	316452	27	40	316491	-999999	316467	0	22	TRSyncPROC	""	2	2	1	SessionSelectionList	101	9857	-999999	0	38	10590	-999999	0																																																	1	InitialTR	1	4	ReadyList	1	4	12	29182	-13	31169	0	4
WM080112	148840_fnca	2	1	1	1975364307	1	75.031	75.031	2.0.10.147	2.0.10.242	2.0.10.242	1.0.0.439	7	234	2	3	Verdana	1	80	0	0	0	WM Stimuli\	1	1027.9	1	655.6	1	1151.4	1	535.2	1	1141.7	1	660.4	1	1126.4	1	770	13	316464	2	316452	27	40	316491	-999999	316467	0	23	Cue2BackPROC	""	2	2	2	SessionSelectionList									11	31181	-12	0																																													2												
WM080112	148840_fnca	2	1	1	1975364307	1	75.031	75.031	2.0.10.147	2.0.10.242	2.0.10.242	1.0.0.439	7	234	2	3	Verdana	1	80	0	0	0	WM Stimuli\	1	1027.9	1	655.6	1	1151.4	1	535.2	1	1141.7	1	660.4	1	1126.4	1	770	13	316464	2	316452	27	40	316491	-999999	316467	0	24	TrialsPROC	TO_014_TOOL14_BA.png	2	2	3	SessionSelectionList														nonlure	3	Tools	2-Back	2	80	1	0	0	0	1	52	35806	3	14	84	33754	-1	34823	1	1069	3	3	2052	66	35820	-67	0																3												
WM080112	148840_fnca	2	1	1	1975364307	1	75.031	75.031	2.0.10.147	2.0.10.242	2.0.10.242	1.0.0.439	7	234	2	3	Verdana	1	80	0	0	0	WM Stimuli\	1	1027.9	1	655.6	1	1151.4	1	535.2	1	1141.7	1	660.4	1	1126.4	1	770	13	316464	2	316452	27	40	316491	-999999	316467	0	24	TrialsPROC	TO_013_TOOL13_BA.png	2	2	4	SessionSelectionList														nonlure	3	Tools	2-Back	3	80	2	0	0	0	2	40	38352	2	13	58	36312	-1	37412	1	1100	3	3	2040	53	38365	-54	0																4												
WM080112	148840_fnca	2	1	1	1975364307	1	75.031	75.031	2.0.10.147	2.0.10.242	2.0.10.242	1.0.0.439	7	234	2	3	Verdana	1	80	0	0	0	WM Stimuli\	1	1027.9	1	655.6	1	1151.4	1	535.2	1	1141.7	1	660.4	1	1126.4	1	770	13	316464	2	316452	27	40	316491	-999999	316467	0	24	TrialsPROC	TO_016_TOOL16_BA.png	2	2	5	SessionSelectionList														nonlure	3	Tools	2-Back	4	80	3	0	0	0	3	39	40911	1	13	60	38872	-1	40142	1	1270	3	3	2039	52	40924	-53	0																5												
WM080112	148840_fnca	2	1	1	1975364307	1	75.031	75.031	2.0.10.147	2.0.10.242	2.0.10.242	1.0.0.439	7	234	2	3	Verdana	1	80	0	0	0	WM Stimuli\	1	1027.9	1	655.6	1	1151.4	1	535.2	1	1141.7	1	660.4	1	1126.4	1	770	13	316464	2	316452	27	40	316491	-999999	316467	0	24	TrialsPROC	TO_014_TOOL14_BA.png	2	2	6	SessionSelectionList														lure	3	Tools	2-Back	5	80	4	0	0	0	4	39	43483	1	14	72	41444	-1	42949	1	1505	3	3	2039	53	43497	-54	0																6												
WM080112	148840_fnca	2	1	1	1975364307	1	75.031	75.031	2.0.10.147	2.0.10.242	2.0.10.242	1.0.0.439	7	234	2	3	Verdana	1	80	0	0	0	WM Stimuli\	1	1027.9	1	655.6	1	1151.4	1	535.2	1	1141.7	1	660.4	1	1126.4	1	770	13	316464	2	316452	27	40	316491	-999999	316467	0	24	TrialsPROC	TO_016_TOOL16_BA.png	2	2	7	SessionSelectionList														target	2	Tools	2-Back	6	80	5	0	0	0	1	39	46042	1	14	59	44003	-1	44910	1	907	2	2	2039	53	46056	-54	0																7												
WM080112	148840_fnca	2	1	1	1975364307	1	75.031	75.031	2.0.10.147	2.0.10.242	2.0.10.242	1.0.0.439	7	234	2	3	Verdana	1	80	0	0	0	WM Stimuli\	1	1027.9	1	655.6	1	1151.4	1	535.2	1	1141.7	1	660.4	1	1126.4	1	770	13	316464	2	316452	27	40	316491	-999999	316467	0	24	TrialsPROC	TO_018_TOOL18_BA.png	2	2	8	SessionSelectionList														nonlure	3	Tools	2-Back	7	80	6	0	0	0	1	39	48601	1	13	59	46562	-1	47498	1	936	3	3	2039	52	48614	-53	0																8												
WM080112	148840_fnca	2	1	1	1975364307	1	75.031	75.031	2.0.10.147	2.0.10.242	2.0.10.242	1.0.0.439	7	234	2	3	Verdana	1	80	0	0	0	WM Stimuli\	1	1027.9	1	655.6	1	1151.4	1	535.2	1	1141.7	1	660.4	1	1126.4	1	770	13	316464	2	316452	27	40	316491	-999999	316467	0	24	TrialsPROC	TO_017_TOOL17_BA.png	2	2	9	SessionSelectionList														nonlure	3	Tools	2-Back	8	80	7	0	0	0	2	40	51160	1	13	58	49120	-1	50390	1	1270	3	3	2040	53	51173	-54	0																9												
WM080112	148840_fnca	2	1	1	1975364307	1	75.031	75.031	2.0.10.147	2.0.10.242	2.0.10.242	1.0.0.439	7	234	2	3	Verdana	1	80	0	0	0	WM Stimuli\	1	1027.9	1	655.6	1	1151.4	1	535.2	1	1141.7	1	660.4	1	1126.4	1	770	13	316464	2	316452	27	40	316491	-999999	316467	0	24	TrialsPROC	TO_018_TOOL18_BA.png	2	2	10	SessionSelectionList														target	2	Tools	2-Back	9	80	8	0	0	0	1	40	53719	2	13	59	51679	-1	52228	1	549	2	2	2040	53	53732	-54	0																10												
WM080112	148840_fnca	2	1	1	1975364307	1	75.031	75.031	2.0.10.147	2.0.10.242	2.0.10.242	1.0.0.439	7	234	2	3	Verdana	1	80	0	0	0	WM Stimuli\	1	1027.9	1	655.6	1	1151.4	1	535.2	1	1141.7	1	660.4	1	1126.4	1	770	13	316464	2	316452	27	40	316491	-999999	316467	0	24	TrialsPROC	TO_015_TOOL15_BA.png	2	2	11	SessionSelectionList														nonlure	3	Tools	2-Back	10	80	9	0	0	0	1	40	56278	1	13	59	54238	-1	55174	1	936	3	3	2040	53	56291	-54	0																11												
WM080112	148840_fnca	2	1	1	1975364307	1	75.031	75.031	2.0.10.147	2.0.10.242	2.0.10.242	1.0.0.439	7	234	2	3	Verdana	1	80	0	0	0	WM Stimuli\	1	1027.9	1	655.6	1	1151.4	1	535.2	1	1141.7	1	660.4	1	1126.4	1	770	13	316464	2	316452	27	40	316491	-999999	316467	0	24	TrialsPROC	TO_017_TOOL17_BA.png	2	2	12	SessionSelectionList														lure	3	Tools	2-Back	11	80	10	0	0	0	2	39	58836	2	14	59	56797	-1	58519	1	1722	3	3	2039	53	58850	-54	0																12												
WM080112	148840_fnca	2	1	1	1975364307	1	75.031	75.031	2.0.10.147	2.0.10.242	2.0.10.242	1.0.0.439	7	234	2	3	Verdana	1	80	0	0	0	WM Stimuli\	1	1027.9	1	655.6	1	1151.4	1	535.2	1	1141.7	1	660.4	1	1126.4	1	770	13	316464	2	316452	27	40	316491	-999999	316467	0	25	Cue0BackPROC	BP_013_BP7_BA.png	2	2	13	SessionSelectionList																																										19	59316	-20	0												13												
WM080112	148840_fnca	2	1	1	1975364307	1	75.031	75.031	2.0.10.147	2.0.10.242	2.0.10.242	1.0.0.439	7	234	2	3	Verdana	1	80	0	0	0	WM Stimuli\	1	1027.9	1	655.6	1	1151.4	1	535.2	1	1141.7	1	660.4	1	1126.4	1	770	13	316464	2	316452	27	40	316491	-999999	316467	0	26	TrialsPROC	BP_015_H10-T_BA.png	2	2	14	SessionSelectionList														nonlure	3	Body	0-Back	12	80	11	0	0	100	3	39	63888	1	14	52	61849	-1	62585	1	736	3	3	2039	53	63902	-54	0																14												
WM080112	148840_fnca	2	1	1	1975364307	1	75.031	75.031	2.0.10.147	2.0.10.242	2.0.10.242	1.0.0.439	7	234	2	3	Verdana	1	80	0	0	0	WM Stimuli\	1	1027.9	1	655.6	1	1151.4	1	535.2	1	1141.7	1	660.4	1	1126.4	1	770	13	316464	2	316452	27	40	316491	-999999	316467	0	26	TrialsPROC	BP_018_H13-T_BA.png	2	2	15	SessionSelectionList														nonlure	3	Body	0-Back	13	80	12	0	0	100	4	39	66447	2	13	59	64408	-1	65190	1	782	3	3	2039	52	66460	-53	0																15												
WM080112	148840_fnca	2	1	1	1975364307	1	75.031	75.031	2.0.10.147	2.0.10.242	2.0.10.242	1.0.0.439	7	234	2	3	Verdana	1	80	0	0	0	WM Stimuli\	1	1027.9	1	655.6	1	1151.4	1	535.2	1	1141.7	1	660.4	1	1126.4	1	770	13	316464	2	316452	27	40	316491	-999999	316467	0	26	TrialsPROC	BP_014_BP9_BA.png	2	2	16	SessionSelectionList														nonlure	3	Body	0-Back	14	80	13	0	0	100	5	39	69006	1	13	59	66967	-1	67546	1	579	3	3	2039	52	69019	-53	0																16												
WM080112	148840_fnca	2	1	1	1975364307	1	75.031	75.031	2.0.10.147	2.0.10.242	2.0.10.242	1.0.0.439	7	234	2	3	Verdana	1	80	0	0	0	WM Stimuli\	1	1027.9	1	655.6	1	1151.4	1	535.2	1	1141.7	1	660.4	1	1126.4	1	770	13	316464	2	316452	27	40	316491	-999999	316467	0	26	TrialsPROC	BP_018_H13-T_BA.png	2	2	17	SessionSelectionList														lure	3	Body	0-Back	15	80	14	0	0	100	6	39	71565	1	13	59	69526	-1	70113	1	587	3	3	2039	52	71578	-53	0																17												
WM080112	148840_fnca	2	1	1	1975364307	1	75.031	75.031	2.0.10.147	2.0.10.242	2.0.10.242	1.0.0.439	7	234	2	3	Verdana	1	80	0	0	0	WM Stimuli\	1	1027.9	1	655.6	1	1151.4	1	535.2	1	1141.7	1	660.4	1	1126.4	1	770	13	316464	2	316452	27	40	316491	-999999	316467	0	26	TrialsPROC	BP_013_BP7_BA.png	2	2	18	SessionSelectionList														target	2	Body	0-Back	16	80	15	0	0	100	1	39	74124	1	13	59	72085	-1	72813	1	728	2	2	2039	52	74137	-53	0																18												
WM080112	148840_fnca	2	1	1	1975364307	1	75.031	75.031	2.0.10.147	2.0.10.242	2.0.10.242	1.0.0.439	7	234	2	3	Verdana	1	80	0	0	0	WM Stimuli\	1	1027.9	1	655.6	1	1151.4	1	535.2	1	1141.7	1	660.4	1	1126.4	1	770	13	316464	2	316452	27	40	316491	-999999	316467	0	26	TrialsPROC	BP_015_H10-T_BA.png	2	2	19	SessionSelectionList														lure	3	Body	0-Back	17	80	16	0	0	100	1	38	76682	2	14	59	74644	-1	75134	1	490	3	3	2038	52	76696	-53	0																19												
WM080112	148840_fnca	2	1	1	1975364307	1	75.031	75.031	2.0.10.147	2.0.10.242	2.0.10.242	1.0.0.439	7	234	2	3	Verdana	1	80	0	0	0	WM Stimuli\	1	1027.9	1	655.6	1	1151.4	1	535.2	1	1141.7	1	660.4	1	1126.4	1	770	13	316464	2	316452	27	40	316491	-999999	316467	0	26	TrialsPROC	BP_016_H11-T_BA.png	2	2	20	SessionSelectionList														nonlure	3	Body	0-Back	18	80	17	0	0	100	2	39	79241	2	14	58	77202	-1	77924	1	722	3	3	2039	53	79255	-54	0																20												
WM080112	148840_fnca	2	1	1	1975364307	1	75.031	75.031	2.0.10.147	2.0.10.242	2.0.10.242	1.0.0.439	7	234	2	3	Verdana	1	80	0	0	0	WM Stimuli\	1	1027.9	1	655.6	1	1151.4	1	535.2	1	1141.7	1	660.4	1	1126.4	1	770	13	316464	2	316452	27	40	316491	-999999	316467	0	26	TrialsPROC	BP_013_BP7_BA.png	2	2	21	SessionSelectionList														target	2	Body	0-Back	19	80	18	0	0	100	1	39	81814	1	13	73	79775	-1	80581	1	806	2	2	2039	52	81827	-53	0																21												
WM080112	148840_fnca	2	1	1	1975364307	1	75.031	75.031	2.0.10.147	2.0.10.242	2.0.10.242	1.0.0.439	7	234	2	3	Verdana	1	80	0	0	0	WM Stimuli\	1	1027.9	1	655.6	1	1151.4	1	535.2	1	1141.7	1	660.4	1	1126.4	1	770	13	316464	2	316452	27	40	316491	-999999	316467	0	26	TrialsPROC	BP_017_H12-T_BA.png	2	2	22	SessionSelectionList														nonlure	3	Body	0-Back	20	80	19	0	0	100	1	39	84373	1	13	59	82334	-1	82941	1	607	3	3	2039	52	84386	-53	0																22												
WM080112	148840_fnca	2	1	1	1975364307	1	75.031	75.031	2.0.10.147	2.0.10.242	2.0.10.242	1.0.0.439	7	234	2	3	Verdana	1	80	0	0	0	WM Stimuli\	1	1027.9	1	655.6	1	1151.4	1	535.2	1	1141.7	1	660.4	1	1126.4	1	770	13	316464	2	316452	27	40	316491	-999999	316467	0	26	TrialsPROC	BP_014_BP9_BA.png	2	2	23	SessionSelectionList														lure	3	Body	0-Back	21	80	20	0	0	100	2	39	86932	1	13	59	84893	-1	85412	1	519	3	3	2039	52	86945	-53	0																23												
WM080112	148840_fnca	2	1	1	1975364307	1	75.031	75.031	2.0.10.147	2.0.10.242	2.0.10.242	1.0.0.439	7	234	2	3	Verdana	1	80	0	0	0	WM Stimuli\	1	1027.9	1	655.6	1	1151.4	1	535.2	1	1141.7	1	660.4	1	1126.4	1	770	13	316464	2	316452	27	40	316491	-999999	316467	0	27	Fix15secPROC	""	2	2	24	SessionSelectionList																																															6	87399	-7	0							24												
WM080112	148840_fnca	2	1	1	1975364307	1	75.031	75.031	2.0.10.147	2.0.10.242	2.0.10.242	1.0.0.439	7	234	2	3	Verdana	1	80	0	0	0	WM Stimuli\	1	1027.9	1	655.6	1	1151.4	1	535.2	1	1141.7	1	660.4	1	1126.4	1	770	13	316464	2	316452	27	40	316491	-999999	316467	0	28	Cue2BackPROC	""	2	2	25	SessionSelectionList									12	102405	-13	0																																													25												
WM080112	148840_fnca	2	1	1	1975364307	1	75.031	75.031	2.0.10.147	2.0.10.242	2.0.10.242	1.0.0.439	7	234	2	3	Verdana	1	80	0	0	0	WM Stimuli\	1	1027.9	1	655.6	1	1151.4	1	535.2	1	1141.7	1	660.4	1	1126.4	1	770	13	316464	2	316452	27	40	316491	-999999	316467	0	29	TrialsPROC	FC_015_M8.png	2	2	26	SessionSelectionList														nonlure	3	Face	2-Back	22	80	21	0	0	100	3	39	107003	2	14	71	104964	-1	105868	1	904	3	3	2039	53	107017	-54	0																26												
WM080112	148840_fnca	2	1	1	1975364307	1	75.031	75.031	2.0.10.147	2.0.10.242	2.0.10.242	1.0.0.439	7	234	2	3	Verdana	1	80	0	0	0	WM Stimuli\	1	1027.9	1	655.6	1	1151.4	1	535.2	1	1141.7	1	660.4	1	1126.4	1	770	13	316464	2	316452	27	40	316491	-999999	316467	0	29	TrialsPROC	FC_018_F9.png	2	2	27	SessionSelectionList														nonlure	3	Face	2-Back	23	80	22	0	0	100	4	40	109576	1	13	72	107536	-1	108733	1	1197	3	3	2040	53	109589	-54	0																27												
WM080112	148840_fnca	2	1	1	1975364307	1	75.031	75.031	2.0.10.147	2.0.10.242	2.0.10.242	1.0.0.439	7	234	2	3	Verdana	1	80	0	0	0	WM Stimuli\	1	1027.9	1	655.6	1	1151.4	1	535.2	1	1141.7	1	660.4	1	1126.4	1	770	13	316464	2	316452	27	40	316491	-999999	316467	0	29	TrialsPROC	FC_018_F9.png	2	2	28	SessionSelectionList														lure	3	Face	2-Back	24	80	23	0	0	100	5	39	112148	1	14	73	110109	-1	111381	1	1272	3	3	2039	53	112162	-54	0																28												
WM080112	148840_fnca	2	1	1	1975364307	1	75.031	75.031	2.0.10.147	2.0.10.242	2.0.10.242	1.0.0.439	7	234	2	3	Verdana	1	80	0	0	0	WM Stimuli\	1	1027.9	1	655.6	1	1151.4	1	535.2	1	1141.7	1	660.4	1	1126.4	1	770	13	316464	2	316452	27	40	316491	-999999	316467	0	29	TrialsPROC	FC_017_M9.png	2	2	29	SessionSelectionList														nonlure	3	Face	2-Back	25	80	24	0	0	100	6	39	114720	2	14	72	112681	-1	113677	1	996	3	3	2039	53	114734	-54	0																29												
WM080112	148840_fnca	2	1	1	1975364307	1	75.031	75.031	2.0.10.147	2.0.10.242	2.0.10.242	1.0.0.439	7	234	2	3	Verdana	1	80	0	0	0	WM Stimuli\	1	1027.9	1	655.6	1	1151.4	1	535.2	1	1141.7	1	660.4	1	1126.4	1	770	13	316464	2	316452	27	40	316491	-999999	316467	0	29	TrialsPROC	FC_017_M9.png	2	2	30	SessionSelectionList														lure	3	Face	2-Back	26	80	25	0	0	100	7	39	117292	2	14	72	115253	-1	116472	1	1219	3	3	2039	53	117306	-54	0																30												
WM080112	148840_fnca	2	1	1	1975364307	1	75.031	75.031	2.0.10.147	2.0.10.242	2.0.10.242	1.0.0.439	7	234	2	3	Verdana	1	80	0	0	0	WM Stimuli\	1	1027.9	1	655.6	1	1151.4	1	535.2	1	1141.7	1	660.4	1	1126.4	1	770	13	316464	2	316452	27	40	316491	-999999	316467	0	29	TrialsPROC	FC_016_F8.png	2	2	31	SessionSelectionList														nonlure	3	Face	2-Back	27	80	26	0	0	100	8	40	119865	1	13	72	117825	-1	118740	1	915	3	3	2040	53	119878	-54	0																31												
WM080112	148840_fnca	2	1	1	1975364307	1	75.031	75.031	2.0.10.147	2.0.10.242	2.0.10.242	1.0.0.439	7	234	2	3	Verdana	1	80	0	0	0	WM Stimuli\	1	1027.9	1	655.6	1	1151.4	1	535.2	1	1141.7	1	660.4	1	1126.4	1	770	13	316464	2	316452	27	40	316491	-999999	316467	0	29	TrialsPROC	FC_013_M7.png	2	2	32	SessionSelectionList														nonlure	3	Face	2-Back	28	80	27	0	0	100	9	39	122437	1	14	73	120398	-1	121906	1	1508	3	3	2039	53	122451	-54	0																32												
WM080112	148840_fnca	2	1	1	1975364307	1	75.031	75.031	2.0.10.147	2.0.10.242	2.0.10.242	1.0.0.439	7	234	2	3	Verdana	1	80	0	0	0	WM Stimuli\	1	1027.9	1	655.6	1	1151.4	1	535.2	1	1141.7	1	660.4	1	1126.4	1	770	13	316464	2	316452	27	40	316491	-999999	316467	0	29	TrialsPROC	FC_014_F7.png	2	2	33	SessionSelectionList														nonlure	3	Face	2-Back	29	80	28	0	0	100	10	39	125009	2	14	72	122970	-1	124209	1	1239	3	3	2039	53	125023	-54	0																33												
WM080112	148840_fnca	2	1	1	1975364307	1	75.031	75.031	2.0.10.147	2.0.10.242	2.0.10.242	1.0.0.439	7	234	2	3	Verdana	1	80	0	0	0	WM Stimuli\	1	1027.9	1	655.6	1	1151.4	1	535.2	1	1141.7	1	660.4	1	1126.4	1	770	13	316464	2	316452	27	40	316491	-999999	316467	0	29	TrialsPROC	FC_013_M7.png	2	2	34	SessionSelectionList														target	2	Face	2-Back	30	80	29	0	0	100	1	39	127581	3	14	72	125542	-1	126772	1	1230	2	2	2039	53	127595	-54	0																34												
WM080112	148840_fnca	2	1	1	1975364307	1	75.031	75.031	2.0.10.147	2.0.10.242	2.0.10.242	1.0.0.439	7	234	2	3	Verdana	1	80	0	0	0	WM Stimuli\	1	1027.9	1	655.6	1	1151.4	1	535.2	1	1141.7	1	660.4	1	1126.4	1	770	13	316464	2	316452	27	40	316491	-999999	316467	0	29	TrialsPROC	FC_014_F7.png	2	2	35	SessionSelectionList														target	2	Face	2-Back	31	80	30	0	0	100	2	39	130154	1	14	73	128115	-1	129149	1	1034	2	2	2039	53	130168	-54	0																35												
WM080112	148840_fnca	2	1	1	1975364307	1	75.031	75.031	2.0.10.147	2.0.10.242	2.0.10.242	1.0.0.439	7	234	2	3	Verdana	1	80	0	0	0	WM Stimuli\	1	1027.9	1	655.6	1	1151.4	1	535.2	1	1141.7	1	660.4	1	1126.4	1	770	13	316464	2	316452	27	40	316491	-999999	316467	0	30	Cue0BackPROC	TO_019_TOOL19_BA.png	2	2	36	SessionSelectionList																																										19	130634	-20	0												36												
WM080112	148840_fnca	2	1	1	1975364307	1	75.031	75.031	2.0.10.147	2.0.10.242	2.0.10.242	1.0.0.439	7	234	2	3	Verdana	1	80	0	0	0	WM Stimuli\	1	1027.9	1	655.6	1	1151.4	1	535.2	1	1141.7	1	660.4	1	1126.4	1	770	13	316464	2	316452	27	40	316491	-999999	316467	0	31	TrialsPROC	TO_019_TOOL19_BA.png	2	2	37	SessionSelectionList														target	2	Tools	0-Back	32	80	31	0	0	100	3	39	135205	1	14	51	133166	-1	134641	1	1475	2	2	2039	53	135219	-54	0																37												
WM080112	148840_fnca	2	1	1	1975364307	1	75.031	75.031	2.0.10.147	2.0.10.242	2.0.10.242	1.0.0.439	7	234	2	3	Verdana	1	80	0	0	0	WM Stimuli\	1	1027.9	1	655.6	1	1151.4	1	535.2	1	1141.7	1	660.4	1	1126.4	1	770	13	316464	2	316452	27	40	316491	-999999	316467	0	31	TrialsPROC	TO_024_TOOL24_BA.png	2	2	38	SessionSelectionList														nonlure	3	Tools	0-Back	33	80	32	0	0	100	1	39	137764	2	14	59	135725	-1	136451	1	726	3	3	2039	53	137778	-54	0																38												
WM080112	148840_fnca	2	1	1	1975364307	1	75.031	75.031	2.0.10.147	2.0.10.242	2.0.10.242	1.0.0.439	7	234	2	3	Verdana	1	80	0	0	0	WM Stimuli\	1	1027.9	1	655.6	1	1151.4	1	535.2	1	1141.7	1	660.4	1	1126.4	1	770	13	316464	2	316452	27	40	316491	-999999	316467	0	31	TrialsPROC	TO_019_TOOL19_BA.png	2	2	39	SessionSelectionList														target	2	Tools	0-Back	34	80	33	0	0	100	1	39	140323	1	14	59	138284	-1	138840	1	556	2	2	2039	53	140337	-54	0																39												
WM080112	148840_fnca	2	1	1	1975364307	1	75.031	75.031	2.0.10.147	2.0.10.242	2.0.10.242	1.0.0.439	7	234	2	3	Verdana	1	80	0	0	0	WM Stimuli\	1	1027.9	1	655.6	1	1151.4	1	535.2	1	1141.7	1	660.4	1	1126.4	1	770	13	316464	2	316452	27	40	316491	-999999	316467	0	31	TrialsPROC	TO_023_TOOL23_BA.png	2	2	40	SessionSelectionList														nonlure	3	Tools	0-Back	35	80	34	0	0	100	1	39	142882	1	14	59	140843	-1	141471	1	628	3	3	2039	53	142896	-54	0																40												
WM080112	148840_fnca	2	1	1	1975364307	1	75.031	75.031	2.0.10.147	2.0.10.242	2.0.10.242	1.0.0.439	7	234	2	3	Verdana	1	80	0	0	0	WM Stimuli\	1	1027.9	1	655.6	1	1151.4	1	535.2	1	1141.7	1	660.4	1	1126.4	1	770	13	316464	2	316452	27	40	316491	-999999	316467	0	31	TrialsPROC	TO_020_TOOL20_BA.png	2	2	41	SessionSelectionList														nonlure	3	Tools	0-Back	36	80	35	0	0	100	2	39	145441	1	14	59	143402	-1	144399	1	997	3	3	2039	53	145455	-54	0																41												
WM080112	148840_fnca	2	1	1	1975364307	1	75.031	75.031	2.0.10.147	2.0.10.242	2.0.10.242	1.0.0.439	7	234	2	3	Verdana	1	80	0	0	0	WM Stimuli\	1	1027.9	1	655.6	1	1151.4	1	535.2	1	1141.7	1	660.4	1	1126.4	1	770	13	316464	2	316452	27	40	316491	-999999	316467	0	31	TrialsPROC	TO_020_TOOL20_BA.png	2	2	42	SessionSelectionList														lure	3	Tools	0-Back	37	80	36	0	0	100	3	39	148000	1	13	59	145961	-1	146546	1	585	3	3	2039	52	148013	-53	0																42												
WM080112	148840_fnca	2	1	1	1975364307	1	75.031	75.031	2.0.10.147	2.0.10.242	2.0.10.242	1.0.0.439	7	234	2	3	Verdana	1	80	0	0	0	WM Stimuli\	1	1027.9	1	655.6	1	1151.4	1	535.2	1	1141.7	1	660.4	1	1126.4	1	770	13	316464	2	316452	27	40	316491	-999999	316467	0	31	TrialsPROC	TO_022_TOOL22_BA.png	2	2	43	SessionSelectionList														nonlure	3	Tools	0-Back	38	80	37	0	0	100	4	39	150559	1	13	59	148520	-1	149268	1	748	3	3	2039	52	150572	-53	0																43												
WM080112	148840_fnca	2	1	1	1975364307	1	75.031	75.031	2.0.10.147	2.0.10.242	2.0.10.242	1.0.0.439	7	234	2	3	Verdana	1	80	0	0	0	WM Stimuli\	1	1027.9	1	655.6	1	1151.4	1	535.2	1	1141.7	1	660.4	1	1126.4	1	770	13	316464	2	316452	27	40	316491	-999999	316467	0	31	TrialsPROC	TO_022_TOOL22_BA.png	2	2	44	SessionSelectionList														lure	3	Tools	0-Back	39	80	38	0	0	100	5	40	153118	1	13	58	151078	-1	151648	1	570	3	3	2040	53	153131	-54	0																44												
WM080112	148840_fnca	2	1	1	1975364307	1	75.031	75.031	2.0.10.147	2.0.10.242	2.0.10.242	1.0.0.439	7	234	2	3	Verdana	1	80	0	0	0	WM Stimuli\	1	1027.9	1	655.6	1	1151.4	1	535.2	1	1141.7	1	660.4	1	1126.4	1	770	13	316464	2	316452	27	40	316491	-999999	316467	0	31	TrialsPROC	TO_021_TOOL21_BA.png	2	2	45	SessionSelectionList														nonlure	3	Tools	0-Back	40	80	39	0	0	100	6	40	155677	1	13	59	153637	-1	154565	1	928	3	3	2040	53	155690	-54	0																45												
WM080112	148840_fnca	2	1	1	1975364307	1	75.031	75.031	2.0.10.147	2.0.10.242	2.0.10.242	1.0.0.439	7	234	2	3	Verdana	1	80	0	0	0	WM Stimuli\	1	1027.9	1	655.6	1	1151.4	1	535.2	1	1141.7	1	660.4	1	1126.4	1	770	13	316464	2	316452	27	40	316491	-999999	316467	0	31	TrialsPROC	TO_021_TOOL21_BA.png	2	2	46	SessionSelectionList														lure	3	Tools	0-Back	41	80	40	0	0	100	7	40	158236	1	13	59	156196	-1	156683	1	487	3	3	2040	53	158249	-54	0																46												
WM080112	148840_fnca	2	1	1	1975364307	1	75.031	75.031	2.0.10.147	2.0.10.242	2.0.10.242	1.0.0.439	7	234	2	3	Verdana	1	80	0	0	0	WM Stimuli\	1	1027.9	1	655.6	1	1151.4	1	535.2	1	1141.7	1	660.4	1	1126.4	1	770	13	316464	2	316452	27	40	316491	-999999	316467	0	32	Fix15secPROC	""	2	2	47	SessionSelectionList																																															6	158702	-7	0							47												
WM080112	148840_fnca	2	1	1	1975364307	1	75.031	75.031	2.0.10.147	2.0.10.242	2.0.10.242	1.0.0.439	7	234	2	3	Verdana	1	80	0	0	0	WM Stimuli\	1	1027.9	1	655.6	1	1151.4	1	535.2	1	1141.7	1	660.4	1	1126.4	1	770	13	316464	2	316452	27	40	316491	-999999	316467	0	33	Cue2BackPROC	""	2	2	48	SessionSelectionList									13	173709	-14	0																																													48												
WM080112	148840_fnca	2	1	1	1975364307	1	75.031	75.031	2.0.10.147	2.0.10.242	2.0.10.242	1.0.0.439	7	234	2	3	Verdana	1	80	0	0	0	WM Stimuli\	1	1027.9	1	655.6	1	1151.4	1	535.2	1	1141.7	1	660.4	1	1126.4	1	770	13	316464	2	316452	27	40	316491	-999999	316467	0	34	TrialsPROC	BP_020_H17-T_BA.png	2	2	49	SessionSelectionList														nonlure	3	Body	2-Back	42	80	41	0	0	100	8	39	178294	1	14	59	176255	-1	177291	1	1036	3	3	2039	53	178308	-54	0																49												
WM080112	148840_fnca	2	1	1	1975364307	1	75.031	75.031	2.0.10.147	2.0.10.242	2.0.10.242	1.0.0.439	7	234	2	3	Verdana	1	80	0	0	0	WM Stimuli\	1	1027.9	1	655.6	1	1151.4	1	535.2	1	1141.7	1	660.4	1	1126.4	1	770	13	316464	2	316452	27	40	316491	-999999	316467	0	34	TrialsPROC	BP_019_H14-T_BA.png	2	2	50	SessionSelectionList														nonlure	3	Body	2-Back	43	80	42	0	0	100	9	39	180853	1	14	59	178814	-1	180106	1	1292	3	3	2039	53	180867	-54	0																50												
WM080112	148840_fnca	2	1	1	1975364307	1	75.031	75.031	2.0.10.147	2.0.10.242	2.0.10.242	1.0.0.439	7	234	2	3	Verdana	1	80	0	0	0	WM Stimuli\	1	1027.9	1	655.6	1	1151.4	1	535.2	1	1141.7	1	660.4	1	1126.4	1	770	13	316464	2	316452	27	40	316491	-999999	316467	0	34	TrialsPROC	BP_020_H17-T_BA.png	2	2	51	SessionSelectionList														target	2	Body	2-Back	44	80	43	0	0	100	1	39	183412	1	14	59	181373	-1	182101	1	728	2	2	2039	53	183426	-54	0																51												
WM080112	148840_fnca	2	1	1	1975364307	1	75.031	75.031	2.0.10.147	2.0.10.242	2.0.10.242	1.0.0.439	7	234	2	3	Verdana	1	80	0	0	0	WM Stimuli\	1	1027.9	1	655.6	1	1151.4	1	535.2	1	1141.7	1	660.4	1	1126.4	1	770	13	316464	2	316452	27	40	316491	-999999	316467	0	34	TrialsPROC	BP_019_H14-T_BA.png	2	2	52	SessionSelectionList														target	2	Body	2-Back	45	80	44	0	0	100	2	39	185984	2	14	72	183945	-1	184895	1	950	2	2	2039	53	185998	-54	0																52												
WM080112	148840_fnca	2	1	1	1975364307	1	75.031	75.031	2.0.10.147	2.0.10.242	2.0.10.242	1.0.0.439	7	234	2	3	Verdana	1	80	0	0	0	WM Stimuli\	1	1027.9	1	655.6	1	1151.4	1	535.2	1	1141.7	1	660.4	1	1126.4	1	770	13	316464	2	316452	27	40	316491	-999999	316467	0	34	TrialsPROC	BP_024_H3-T_BA.png	2	2	53	SessionSelectionList														nonlure	3	Body	2-Back	46	80	45	0	0	100	1	39	188543	1	14	59	186504	-1	187604	1	1100	3	3	2039	53	188557	-54	0																53												
WM080112	148840_fnca	2	1	1	1975364307	1	75.031	75.031	2.0.10.147	2.0.10.242	2.0.10.242	1.0.0.439	7	234	2	3	Verdana	1	80	0	0	0	WM Stimuli\	1	1027.9	1	655.6	1	1151.4	1	535.2	1	1141.7	1	660.4	1	1126.4	1	770	13	316464	2	316452	27	40	316491	-999999	316467	0	34	TrialsPROC	BP_024_H3-T_BA.png	2	2	54	SessionSelectionList														lure	3	Body	2-Back	47	80	46	0	0	100	2	39	191102	1	14	59	189063	-1	190223	1	1160	3	3	2039	53	191116	-54	0																54												
WM080112	148840_fnca	2	1	1	1975364307	1	75.031	75.031	2.0.10.147	2.0.10.242	2.0.10.242	1.0.0.439	7	234	2	3	Verdana	1	80	0	0	0	WM Stimuli\	1	1027.9	1	655.6	1	1151.4	1	535.2	1	1141.7	1	660.4	1	1126.4	1	770	13	316464	2	316452	27	40	316491	-999999	316467	0	34	TrialsPROC	BP_025_H5-T_BA.png	2	2	55	SessionSelectionList														nonlure	3	Body	2-Back	48	80	47	0	0	100	3	39	193661	1	14	59	191622	-1	192542	1	920	3	3	2039	53	193675	-54	0																55												
WM080112	148840_fnca	2	1	1	1975364307	1	75.031	75.031	2.0.10.147	2.0.10.242	2.0.10.242	1.0.0.439	7	234	2	3	Verdana	1	80	0	0	0	WM Stimuli\	1	1027.9	1	655.6	1	1151.4	1	535.2	1	1141.7	1	660.4	1	1126.4	1	770	13	316464	2	316452	27	40	316491	-999999	316467	0	34	TrialsPROC	BP_023_H25-T_BA.png	2	2	56	SessionSelectionList														nonlure	3	Body	2-Back	49	80	48	0	0	100	4	39	196220	1	14	59	194181	-1	195134	1	953	3	3	2039	53	196234	-54	0																56												
WM080112	148840_fnca	2	1	1	1975364307	1	75.031	75.031	2.0.10.147	2.0.10.242	2.0.10.242	1.0.0.439	7	234	2	3	Verdana	1	80	0	0	0	WM Stimuli\	1	1027.9	1	655.6	1	1151.4	1	535.2	1	1141.7	1	660.4	1	1126.4	1	770	13	316464	2	316452	27	40	316491	-999999	316467	0	34	TrialsPROC	BP_022_H24-T_BA.png	2	2	57	SessionSelectionList														nonlure	3	Body	2-Back	50	80	49	0	0	100	5	39	198779	1	14	59	196740	-1	197723	1	983	3	3	2039	53	198793	-54	0																57												
WM080112	148840_fnca	2	1	1	1975364307	1	75.031	75.031	2.0.10.147	2.0.10.242	2.0.10.242	1.0.0.439	7	234	2	3	Verdana	1	80	0	0	0	WM Stimuli\	1	1027.9	1	655.6	1	1151.4	1	535.2	1	1141.7	1	660.4	1	1126.4	1	770	13	316464	2	316452	27	40	316491	-999999	316467	0	34	TrialsPROC	BP_022_H24-T_BA.png	2	2	58	SessionSelectionList														lure	3	Body	2-Back	51	80	50	0	0	100	6	39	201338	1	13	59	199299	-1	200456	1	1157	3	3	2039	52	201351	-53	0																58												
WM080112	148840_fnca	2	1	1	1975364307	1	75.031	75.031	2.0.10.147	2.0.10.242	2.0.10.242	1.0.0.439	7	234	2	3	Verdana	1	80	0	0	0	WM Stimuli\	1	1027.9	1	655.6	1	1151.4	1	535.2	1	1141.7	1	660.4	1	1126.4	1	770	13	316464	2	316452	27	40	316491	-999999	316467	0	35	Cue2BackPROC	""	2	2	59	SessionSelectionList									5	201804	-6	0																																													59												
WM080112	148840_fnca	2	1	1	1975364307	1	75.031	75.031	2.0.10.147	2.0.10.242	2.0.10.242	1.0.0.439	7	234	2	3	Verdana	1	80	0	0	0	WM Stimuli\	1	1027.9	1	655.6	1	1151.4	1	535.2	1	1141.7	1	660.4	1	1126.4	1	770	13	316464	2	316452	27	40	316491	-999999	316467	0	36	TrialsPROC	PL_019_SCENE_05.png	2	2	60	SessionSelectionList														nonlure	3	Place	2-Back	52	80	51	0	0	100	7	39	206402	2	14	64	204363	-1	205300	1	937	3	3	2039	53	206416	-54	0																60												
WM080112	148840_fnca	2	1	1	1975364307	1	75.031	75.031	2.0.10.147	2.0.10.242	2.0.10.242	1.0.0.439	7	234	2	3	Verdana	1	80	0	0	0	WM Stimuli\	1	1027.9	1	655.6	1	1151.4	1	535.2	1	1141.7	1	660.4	1	1126.4	1	770	13	316464	2	316452	27	40	316491	-999999	316467	0	36	TrialsPROC	PL_017_SCENE_03.png	2	2	61	SessionSelectionList														nonlure	3	Place	2-Back	53	80	52	0	0	100	8	40	208975	1	13	72	206935	-1	208089	1	1154	3	3	2040	53	208988	-54	0																61												
WM080112	148840_fnca	2	1	1	1975364307	1	75.031	75.031	2.0.10.147	2.0.10.242	2.0.10.242	1.0.0.439	7	234	2	3	Verdana	1	80	0	0	0	WM Stimuli\	1	1027.9	1	655.6	1	1151.4	1	535.2	1	1141.7	1	660.4	1	1126.4	1	770	13	316464	2	316452	27	40	316491	-999999	316467	0	36	TrialsPROC	PL_017_SCENE_03.png	2	2	62	SessionSelectionList														lure	3	Place	2-Back	54	80	53	0	0	100	9	39	211547	1	14	73	209508	-1	210607	1	1099	3	3	2039	53	211561	-54	0																62												
WM080112	148840_fnca	2	1	1	1975364307	1	75.031	75.031	2.0.10.147	2.0.10.242	2.0.10.242	1.0.0.439	7	234	2	3	Verdana	1	80	0	0	0	WM Stimuli\	1	1027.9	1	655.6	1	1151.4	1	535.2	1	1141.7	1	660.4	1	1126.4	1	770	13	316464	2	316452	27	40	316491	-999999	316467	0	36	TrialsPROC	PL_016_SCENE_02.png	2	2	63	SessionSelectionList														nonlure	3	Place	2-Back	55	80	54	0	0	100	10	39	214119	2	14	72	212080	-1	213106	1	1026	3	3	2039	53	214133	-54	0																63												
WM080112	148840_fnca	2	1	1	1975364307	1	75.031	75.031	2.0.10.147	2.0.10.242	2.0.10.242	1.0.0.439	7	234	2	3	Verdana	1	80	0	0	0	WM Stimuli\	1	1027.9	1	655.6	1	1151.4	1	535.2	1	1141.7	1	660.4	1	1126.4	1	770	13	316464	2	316452	27	40	316491	-999999	316467	0	36	TrialsPROC	PL_015_SCENE_01.png	2	2	64	SessionSelectionList														nonlure	3	Place	2-Back	56	80	55	0	0	100	11	39	216691	2	14	72	214652	-1	216136	1	1484	3	3	2039	53	216705	-54	0																64												
WM080112	148840_fnca	2	1	1	1975364307	1	75.031	75.031	2.0.10.147	2.0.10.242	2.0.10.242	1.0.0.439	7	234	2	3	Verdana	1	80	0	0	0	WM Stimuli\	1	1027.9	1	655.6	1	1151.4	1	535.2	1	1141.7	1	660.4	1	1126.4	1	770	13	316464	2	316452	27	40	316491	-999999	316467	0	36	TrialsPROC	PL_016_SCENE_02.png	2	2	65	SessionSelectionList														target	2	Place	2-Back	57	80	56	0	0	100	1	39	219264	1	13	73	217225	-1	218526	1	1301	2	2	2039	52	219277	-53	0																65												
WM080112	148840_fnca	2	1	1	1975364307	1	75.031	75.031	2.0.10.147	2.0.10.242	2.0.10.242	1.0.0.439	7	234	2	3	Verdana	1	80	0	0	0	WM Stimuli\	1	1027.9	1	655.6	1	1151.4	1	535.2	1	1141.7	1	660.4	1	1126.4	1	770	13	316464	2	316452	27	40	316491	-999999	316467	0	36	TrialsPROC	PL_015_SCENE_01.png	2	2	66	SessionSelectionList														target	2	Place	2-Back	58	80	57	0	0	100	2	39	221836	1	14	72	219797	-1	220830	1	1033	2	2	2039	53	221850	-54	0																66												
WM080112	148840_fnca	2	1	1	1975364307	1	75.031	75.031	2.0.10.147	2.0.10.242	2.0.10.242	1.0.0.439	7	234	2	3	Verdana	1	80	0	0	0	WM Stimuli\	1	1027.9	1	655.6	1	1151.4	1	535.2	1	1141.7	1	660.4	1	1126.4	1	770	13	316464	2	316452	27	40	316491	-999999	316467	0	36	TrialsPROC	PL_020_SCENE_06.png	2	2	67	SessionSelectionList														nonlure	3	Place	2-Back	59	80	58	0	0	100	1	39	224408	2	14	72	222369	-1	223740	1	1371	3	3	2039	53	224422	-54	0																67												
WM080112	148840_fnca	2	1	1	1975364307	1	75.031	75.031	2.0.10.147	2.0.10.242	2.0.10.242	1.0.0.439	7	234	2	3	Verdana	1	80	0	0	0	WM Stimuli\	1	1027.9	1	655.6	1	1151.4	1	535.2	1	1141.7	1	660.4	1	1126.4	1	770	13	316464	2	316452	27	40	316491	-999999	316467	0	36	TrialsPROC	PL_020_SCENE_06.png	2	2	68	SessionSelectionList														lure	3	Place	2-Back	60	80	59	0	0	100	2	39	226980	2	14	72	224941	-1	225850	1	909	3	3	2039	53	226994	-54	0																68												
WM080112	148840_fnca	2	1	1	1975364307	1	75.031	75.031	2.0.10.147	2.0.10.242	2.0.10.242	1.0.0.439	7	234	2	3	Verdana	1	80	0	0	0	WM Stimuli\	1	1027.9	1	655.6	1	1151.4	1	535.2	1	1141.7	1	660.4	1	1126.4	1	770	13	316464	2	316452	27	40	316491	-999999	316467	0	36	TrialsPROC	PL_018_SCENE_04.png	2	2	69	SessionSelectionList														nonlure	3	Place	2-Back	61	80	60	0	0	100	3	39	229553	1	14	73	227514	-1	228617	1	1103	3	3	2039	53	229567	-54	0																69												
WM080112	148840_fnca	2	1	1	1975364307	1	75.031	75.031	2.0.10.147	2.0.10.242	2.0.10.242	1.0.0.439	7	234	2	3	Verdana	1	80	0	0	0	WM Stimuli\	1	1027.9	1	655.6	1	1151.4	1	535.2	1	1141.7	1	660.4	1	1126.4	1	770	13	316464	2	316452	27	40	316491	-999999	316467	0	37	Fix15secPROC	""	2	2	70	SessionSelectionList																																															6	230020	-7	0							70												
WM080112	148840_fnca	2	1	1	1975364307	1	75.031	75.031	2.0.10.147	2.0.10.242	2.0.10.242	1.0.0.439	7	234	2	3	Verdana	1	80	0	0	0	WM Stimuli\	1	1027.9	1	655.6	1	1151.4	1	535.2	1	1141.7	1	660.4	1	1126.4	1	770	13	316464	2	316452	27	40	316491	-999999	316467	0	38	Cue0BackPROC	FC_020_F10.png	2	2	71	SessionSelectionList																																										26	245040	-27	0												71												
WM080112	148840_fnca	2	1	1	1975364307	1	75.031	75.031	2.0.10.147	2.0.10.242	2.0.10.242	1.0.0.439	7	234	2	3	Verdana	1	80	0	0	0	WM Stimuli\	1	1027.9	1	655.6	1	1151.4	1	535.2	1	1141.7	1	660.4	1	1126.4	1	770	13	316464	2	316452	27	40	316491	-999999	316467	0	39	TrialsPROC	FC_024_F12.png	2	2	72	SessionSelectionList														nonlure	3	Face	0-Back	62	80	61	0	0	100	4	39	249624	2	14	71	247585	-1	248108	1	523	3	3	2039	53	249638	-54	0																72												
WM080112	148840_fnca	2	1	1	1975364307	1	75.031	75.031	2.0.10.147	2.0.10.242	2.0.10.242	1.0.0.439	7	234	2	3	Verdana	1	80	0	0	0	WM Stimuli\	1	1027.9	1	655.6	1	1151.4	1	535.2	1	1141.7	1	660.4	1	1126.4	1	770	13	316464	2	316452	27	40	316491	-999999	316467	0	39	TrialsPROC	FC_023_M12.png	2	2	73	SessionSelectionList														nonlure	3	Face	0-Back	63	80	62	0	0	100	5	39	252197	1	14	73	250158	-1	250618	1	460	3	3	2039	53	252211	-54	0																73												
WM080112	148840_fnca	2	1	1	1975364307	1	75.031	75.031	2.0.10.147	2.0.10.242	2.0.10.242	1.0.0.439	7	234	2	3	Verdana	1	80	0	0	0	WM Stimuli\	1	1027.9	1	655.6	1	1151.4	1	535.2	1	1141.7	1	660.4	1	1126.4	1	770	13	316464	2	316452	27	40	316491	-999999	316467	0	39	TrialsPROC	FC_020_F10.png	2	2	74	SessionSelectionList														target	2	Face	0-Back	64	80	63	0	0	100	1	39	254769	2	14	72	252730	-1	253308	1	578	2	2	2039	53	254783	-54	0																74												
WM080112	148840_fnca	2	1	1	1975364307	1	75.031	75.031	2.0.10.147	2.0.10.242	2.0.10.242	1.0.0.439	7	234	2	3	Verdana	1	80	0	0	0	WM Stimuli\	1	1027.9	1	655.6	1	1151.4	1	535.2	1	1141.7	1	660.4	1	1126.4	1	770	13	316464	2	316452	27	40	316491	-999999	316467	0	39	TrialsPROC	FC_024_F12.png	2	2	75	SessionSelectionList														lure	3	Face	0-Back	65	80	64	0	0	100	1	39	257341	2	14	72	255302	-1	255882	1	580	3	3	2039	53	257355	-54	0																75												
WM080112	148840_fnca	2	1	1	1975364307	1	75.031	75.031	2.0.10.147	2.0.10.242	2.0.10.242	1.0.0.439	7	234	2	3	Verdana	1	80	0	0	0	WM Stimuli\	1	1027.9	1	655.6	1	1151.4	1	535.2	1	1141.7	1	660.4	1	1126.4	1	770	13	316464	2	316452	27	40	316491	-999999	316467	0	39	TrialsPROC	FC_020_F10.png	2	2	76	SessionSelectionList														target	2	Face	0-Back	66	80	65	0	0	100	1	40	259914	1	13	72	257874	-1	258355	1	481	2	2	2040	53	259927	-54	0																76												
WM080112	148840_fnca	2	1	1	1975364307	1	75.031	75.031	2.0.10.147	2.0.10.242	2.0.10.242	1.0.0.439	7	234	2	3	Verdana	1	80	0	0	0	WM Stimuli\	1	1027.9	1	655.6	1	1151.4	1	535.2	1	1141.7	1	660.4	1	1126.4	1	770	13	316464	2	316452	27	40	316491	-999999	316467	0	39	TrialsPROC	FC_022_F11.png	2	2	77	SessionSelectionList														nonlure	3	Face	0-Back	67	80	66	0	0	100	1	39	262486	1	14	73	260447	-1	260807	1	360	3	3	2039	53	262500	-54	0																77												
WM080112	148840_fnca	2	1	1	1975364307	1	75.031	75.031	2.0.10.147	2.0.10.242	2.0.10.242	1.0.0.439	7	234	2	3	Verdana	1	80	0	0	0	WM Stimuli\	1	1027.9	1	655.6	1	1151.4	1	535.2	1	1141.7	1	660.4	1	1126.4	1	770	13	316464	2	316452	27	40	316491	-999999	316467	0	39	TrialsPROC	FC_023_M12.png	2	2	78	SessionSelectionList														lure	3	Face	0-Back	68	80	67	0	0	100	2	39	265058	2	14	72	263019	-1	263817	1	798	3	3	2039	53	265072	-54	0																78												
WM080112	148840_fnca	2	1	1	1975364307	1	75.031	75.031	2.0.10.147	2.0.10.242	2.0.10.242	1.0.0.439	7	234	2	3	Verdana	1	80	0	0	0	WM Stimuli\	1	1027.9	1	655.6	1	1151.4	1	535.2	1	1141.7	1	660.4	1	1126.4	1	770	13	316464	2	316452	27	40	316491	-999999	316467	0	39	TrialsPROC	FC_021_M11.png	2	2	79	SessionSelectionList														nonlure	3	Face	0-Back	69	80	68	0	0	100	3	39	267630	2	14	72	265591	-1	266168	1	577	3	3	2039	53	267644	-54	0																79												
WM080112	148840_fnca	2	1	1	1975364307	1	75.031	75.031	2.0.10.147	2.0.10.242	2.0.10.242	1.0.0.439	7	234	2	3	Verdana	1	80	0	0	0	WM Stimuli\	1	1027.9	1	655.6	1	1151.4	1	535.2	1	1141.7	1	660.4	1	1126.4	1	770	13	316464	2	316452	27	40	316491	-999999	316467	0	39	TrialsPROC	FC_021_M11.png	2	2	80	SessionSelectionList														lure	3	Face	0-Back	70	80	69	0	0	100	4	39	270203	1	13	73	268164	-1	268610	1	446	3	3	2039	52	270216	-53	0																80												
WM080112	148840_fnca	2	1	1	1975364307	1	75.031	75.031	2.0.10.147	2.0.10.242	2.0.10.242	1.0.0.439	7	234	2	3	Verdana	1	80	0	0	0	WM Stimuli\	1	1027.9	1	655.6	1	1151.4	1	535.2	1	1141.7	1	660.4	1	1126.4	1	770	13	316464	2	316452	27	40	316491	-999999	316467	0	39	TrialsPROC	FC_019_M10.png	2	2	81	SessionSelectionList														nonlure	3	Face	0-Back	71	80	70	0	0	100	5	39	272775	1	14	72	270736	-1	271285	1	549	3	3	2039	53	272789	-54	0																81												
WM080112	148840_fnca	2	1	1	1975364307	1	75.031	75.031	2.0.10.147	2.0.10.242	2.0.10.242	1.0.0.439	7	234	2	3	Verdana	1	80	0	0	0	WM Stimuli\	1	1027.9	1	655.6	1	1151.4	1	535.2	1	1141.7	1	660.4	1	1126.4	1	770	13	316464	2	316452	27	40	316491	-999999	316467	0	40	Cue0BackPROC	PL_021_SCENE_07.png	2	2	82	SessionSelectionList																																										19	273255	-20	0												82												
WM080112	148840_fnca	2	1	1	1975364307	1	75.031	75.031	2.0.10.147	2.0.10.242	2.0.10.242	1.0.0.439	7	234	2	3	Verdana	1	80	0	0	0	WM Stimuli\	1	1027.9	1	655.6	1	1151.4	1	535.2	1	1141.7	1	660.4	1	1126.4	1	770	13	316464	2	316452	27	40	316491	-999999	316467	0	41	TrialsPROC	PL_025_SCENE_18.png	2	2	83	SessionSelectionList														nonlure	3	Place	0-Back	72	80	71	0	0	100	6	40	277840	1	13	64	275800	-1	276380	1	580	3	3	2040	53	277853	-54	0																83												
WM080112	148840_fnca	2	1	1	1975364307	1	75.031	75.031	2.0.10.147	2.0.10.242	2.0.10.242	1.0.0.439	7	234	2	3	Verdana	1	80	0	0	0	WM Stimuli\	1	1027.9	1	655.6	1	1151.4	1	535.2	1	1141.7	1	660.4	1	1126.4	1	770	13	316464	2	316452	27	40	316491	-999999	316467	0	41	TrialsPROC	PL_026_SCENE_24.png	2	2	84	SessionSelectionList														nonlure	3	Place	0-Back	73	80	72	0	0	100	7	39	280412	1	14	73	278373	-1	278866	1	493	3	3	2039	53	280426	-54	0																84												
WM080112	148840_fnca	2	1	1	1975364307	1	75.031	75.031	2.0.10.147	2.0.10.242	2.0.10.242	1.0.0.439	7	234	2	3	Verdana	1	80	0	0	0	WM Stimuli\	1	1027.9	1	655.6	1	1151.4	1	535.2	1	1141.7	1	660.4	1	1126.4	1	770	13	316464	2	316452	27	40	316491	-999999	316467	0	41	TrialsPROC	PL_025_SCENE_18.png	2	2	85	SessionSelectionList														lure	3	Place	0-Back	74	80	73	0	0	100	8	39	282984	2	14	72	280945	-1	281585	1	640	3	3	2039	53	282998	-54	0																85												
WM080112	148840_fnca	2	1	1	1975364307	1	75.031	75.031	2.0.10.147	2.0.10.242	2.0.10.242	1.0.0.439	7	234	2	3	Verdana	1	80	0	0	0	WM Stimuli\	1	1027.9	1	655.6	1	1151.4	1	535.2	1	1141.7	1	660.4	1	1126.4	1	770	13	316464	2	316452	27	40	316491	-999999	316467	0	41	TrialsPROC	PL_022_SCENE_08.png	2	2	86	SessionSelectionList														nonlure	3	Place	0-Back	75	80	74	0	0	100	9	39	285556	2	14	72	283517	-1	284122	1	605	3	3	2039	53	285570	-54	0																86												
WM080112	148840_fnca	2	1	1	1975364307	1	75.031	75.031	2.0.10.147	2.0.10.242	2.0.10.242	1.0.0.439	7	234	2	3	Verdana	1	80	0	0	0	WM Stimuli\	1	1027.9	1	655.6	1	1151.4	1	535.2	1	1141.7	1	660.4	1	1126.4	1	770	13	316464	2	316452	27	40	316491	-999999	316467	0	41	TrialsPROC	PL_026_SCENE_24.png	2	2	87	SessionSelectionList														lure	3	Place	0-Back	76	80	75	0	0	100	10	40	288129	1	13	72	286089	-1	287141	1	1052	3	3	2040	53	288142	-54	0																87												
WM080112	148840_fnca	2	1	1	1975364307	1	75.031	75.031	2.0.10.147	2.0.10.242	2.0.10.242	1.0.0.439	7	234	2	3	Verdana	1	80	0	0	0	WM Stimuli\	1	1027.9	1	655.6	1	1151.4	1	535.2	1	1141.7	1	660.4	1	1126.4	1	770	13	316464	2	316452	27	40	316491	-999999	316467	0	41	TrialsPROC	PL_021_SCENE_07.png	2	2	88	SessionSelectionList														target	2	Place	0-Back	77	80	76	0	0	100	1	39	290701	1	14	73	288662	-1	289203	1	541	2	2	2039	53	290715	-54	0																88												
WM080112	148840_fnca	2	1	1	1975364307	1	75.031	75.031	2.0.10.147	2.0.10.242	2.0.10.242	1.0.0.439	7	234	2	3	Verdana	1	80	0	0	0	WM Stimuli\	1	1027.9	1	655.6	1	1151.4	1	535.2	1	1141.7	1	660.4	1	1126.4	1	770	13	316464	2	316452	27	40	316491	-999999	316467	0	41	TrialsPROC	PL_021_SCENE_07.png	2	2	89	SessionSelectionList														target	2	Place	0-Back	78	80	77	0	0	100	2	39	293273	2	14	72	291234	-1	291709	1	475	2	2	2039	53	293287	-54	0																89												
WM080112	148840_fnca	2	1	1	1975364307	1	75.031	75.031	2.0.10.147	2.0.10.242	2.0.10.242	1.0.0.439	7	234	2	3	Verdana	1	80	0	0	0	WM Stimuli\	1	1027.9	1	655.6	1	1151.4	1	535.2	1	1141.7	1	660.4	1	1126.4	1	770	13	316464	2	316452	27	40	316491	-999999	316467	0	41	TrialsPROC	PL_023_SCENE_09.png	2	2	90	SessionSelectionList														nonlure	3	Place	0-Back	79	80	78	0	0	100	1	39	295845	2	14	72	293806	-1	294345	1	539	3	3	2039	53	295859	-54	0																90												
WM080112	148840_fnca	2	1	1	1975364307	1	75.031	75.031	2.0.10.147	2.0.10.242	2.0.10.242	1.0.0.439	7	234	2	3	Verdana	1	80	0	0	0	WM Stimuli\	1	1027.9	1	655.6	1	1151.4	1	535.2	1	1141.7	1	660.4	1	1126.4	1	770	13	316464	2	316452	27	40	316491	-999999	316467	0	41	TrialsPROC	PL_024_SCENE_10.png	2	2	91	SessionSelectionList														nonlure	3	Place	0-Back	80	80	79	0	0	100	2	39	298418	1	13	73	296379	-1	297063	1	684	3	3	2039	52	298431	-53	0																91												
WM080112	148840_fnca	2	1	1	1975364307	1	75.031	75.031	2.0.10.147	2.0.10.242	2.0.10.242	1.0.0.439	7	234	2	3	Verdana	1	80	0	0	0	WM Stimuli\	1	1027.9	1	655.6	1	1151.4	1	535.2	1	1141.7	1	660.4	1	1126.4	1	770	13	316464	2	316452	27	40	316491	-999999	316467	0	41	TrialsPROC	PL_022_SCENE_08.png	2	2	92	SessionSelectionList														lure	3	Place	0-Back	80	80	80	0	0	100	3	39	300990	1	14	72	298951	-1	299946	1	995	3	3	2039	53	301004	-54	0																92												
WM080112	148840_fnca	2	1	1	1975364307	1	75.031	75.031	2.0.10.147	2.0.10.242	2.0.10.242	1.0.0.439	7	234	2	3	Verdana	1	80	0	0	0	WM Stimuli\	1	1027.9	1	655.6	1	1151.4	1	535.2	1	1141.7	1	660.4	1	1126.4	1	770	13	316464	2	316452	27	40	316491	-999999	316467	0	42	Fix15secPROC	""	2	2	93	SessionSelectionList																																															6	301457	-7	0							93												
