ExperimentName	HCPID	RunNumber	Subject	Session	RandomSeed	Group	Laptop.RefreshRate	ScannerD2.RefreshRate	StudioVersion	RuntimeVersion	RuntimeVersionExpected	ExperimentVersion	triggercode	Allowed	Target	Nontarget	FontStyle	RunTrialNumber[Session]	TrialsPerRun[Session]	TotalRespGreater200[Session]	ConsecRTLess200[Session]	ConsecNonResp[Session]	StimuliDir	ACC_2_Back_Body	Avg_RT_For_Correct_Trials_2_Back_Body	ACC_0_Back_Body	Avg_RT_For_Correct_Trials_0_Back_Body	ACC_2_Back_Face	Avg_RT_For_Correct_Trials_2_Back_Face	ACC_0_Back_Face	Avg_RT_For_Correct_Trials_0_Back_Face	ACC_2_Back_Place	Avg_RT_For_Correct_Trials_2_Back_Place	ACC_0_Back_Place	Avg_RT_For_Correct_Trials_0_Back_Place	ACC_2_Back_Tools	Avg_RT_For_Correct_Trials_2_Back_Tools	ACC_0_Back_Tools	Avg_RT_For_Correct_Trials_0_Back_Tools	ExpInstrucFeelFreeToRest.OnsetDelay	ExpInstrucFeelFreeToRest.OnsetTime	ExpInstrucFeelFreeToRest.DurationError	ExpInstrucFeelFreeToRest.StartTime	ExpInstrucFeelFreeToRest.OnsetToOnsetTime	FeelFreeToRest.OnsetDelay	FeelFreeToRest.OnsetTime	FeelFreeToRest.DurationError	FeelFreeToRest.StartTime	FeelFreeToRest.OnsetToOnsetTime	SessionSelectionList	Procedure[Block]	Stimulus[Block]	RunNumberFilterValue	SessionSelectionList.Cycle	SessionSelectionList.Sample	Running[Block]	IntroButtonMap.OnsetDelay	IntroButtonMap.OnsetTime	IntroButtonMap.DurationError	IntroButtonMap.OnsetToOnsetTime	GetReady.OnsetDelay	GetReady.OnsetTime	GetReady.DurationError	GetReady.OnsetToOnsetTime	Cue2Back.OnsetDelay	Cue2Back.OnsetTime	Cue2Back.DurationError	Cue2Back.OnsetToOnsetTime	Run1Block1	TargetType	CorrectResponse	StimType	BlockType	RunTrialNumber[Block]	TrialsPerRun[Block]	TotalRespGreater200[Block]	ConsecRTLess200[Block]	ConsecNonResp[Block]	ControlAcc	ConsecSameResp	ExperimenterWindow.OnsetDelay	ExperimenterWindow.OnsetTime	ExperimenterWindow.DurationError	ExperimenterWindow.OnsetToOnsetTime	Stim.OnsetDelay	Stim.OnsetTime	Stim.DurationError	Stim.RTTime	Stim.ACC	Stim.RT	Stim.RESP	Stim.CRESP	Stim.OnsetToOnsetTime	Fix.OnsetDelay	Fix.OnsetTime	Fix.DurationError	Fix.OnsetToOnsetTime	CueTarget.OnsetDelay	CueTarget.OnsetTime	CueTarget.DurationError	CueTarget.OnsetToOnsetTime	Run1Block2	Fix15sec.OnsetDelay	Fix15sec.OnsetTime	Fix15sec.DurationError	Fix15sec.OnsetToOnsetTime	Run1Block3	Run1Block4	Run1Block5	Run1Block6	Run1Block7	Run1Block8	Block	Procedure[Trial]	Stimulus[Trial]	ReadyList	Running[Trial]	ReadyList.Cycle	ReadyList.Sample	SyncSlide.OnsetDelay	SyncSlide.OnsetTime	SyncSlide.DurationError	SyncSlide.FinishTime	SyncSlide.OnsetToOnsetTime	Trial
WM080112	122620_fnca	2	1	1	1346344998	1	75.031	75.030	2.0.10.147	2.0.10.242	2.0.10.242	1.0.0.439	7	234	2	3	Verdana	1	80	0	0	0	WM Stimuli\	0.9	1173.88888888889	1	706.3	0.8	993.125	1	684.3	1	1253.8	1	712.8	0.9	886.555555555556	0.9	1071	13	315137	2	315125	27	40	315164	-999999	315140	0	22	TRSyncPROC	""	2	2	1	SessionSelectionList	103	6248	-999999	0	34	7528	-999999	0																																																	1	InitialTR	4	1	ReadyList	1	1	13	21655	-14	23641	0	1
WM080112	122620_fnca	2	1	1	1346344998	1	75.031	75.030	2.0.10.147	2.0.10.242	2.0.10.242	1.0.0.439	7	234	2	3	Verdana	1	80	0	0	0	WM Stimuli\	0.9	1173.88888888889	1	706.3	0.8	993.125	1	684.3	1	1253.8	1	712.8	0.9	886.555555555556	0.9	1071	13	315137	2	315125	27	40	315164	-999999	315140	0	22	TRSyncPROC	""	2	2	1	SessionSelectionList	103	6248	-999999	0	34	7528	-999999	0																																																	1	InitialTR	3	2	ReadyList	1	2	12	23654	-13	25641	0	2
WM080112	122620_fnca	2	1	1	1346344998	1	75.031	75.030	2.0.10.147	2.0.10.242	2.0.10.242	1.0.0.439	7	234	2	3	Verdana	1	80	0	0	0	WM Stimuli\	0.9	1173.88888888889	1	706.3	0.8	993.125	1	684.3	1	1253.8	1	712.8	0.9	886.555555555556	0.9	1071	13	315137	2	315125	27	40	315164	-999999	315140	0	22	TRSyncPROC	""	2	2	1	SessionSelectionList	103	6248	-999999	0	34	7528	-999999	0																																																	1	InitialTR	2	3	ReadyList	1	3	11	25653	-12	27641	0	3
WM080112	122620_fnca	2	1	1	1346344998	1	75.031	75.030	2.0.10.147	2.0.10.242	2.0.10.242	1.0.0.439	7	234	2	3	Verdana	1	80	0	0	0	WM Stimuli\	0.9	1173.88888888889	1	706.3	0.8	993.125	1	684.3	1	1253.8	1	712.8	0.9	886.555555555556	0.9	1071	13	315137	2	315125	27	40	315164	-999999	315140	0	22	TRSyncPROC	""	2	2	1	SessionSelectionList	103	6248	-999999	0	34	7528	-999999	0																																																	1	InitialTR	1	4	ReadyList	1	4	11	27653	-12	29641	0	4
WM080112	122620_fnca	2	1	1	1346344998	1	75.031	75.030	2.0.10.147	2.0.10.242	2.0.10.242	1.0.0.439	7	234	2	3	Verdana	1	80	0	0	0	WM Stimuli\	0.9	1173.88888888889	1	706.3	0.8	993.125	1	684.3	1	1253.8	1	712.8	0.9	886.555555555556	0.9	1071	13	315137	2	315125	27	40	315164	-999999	315140	0	23	Cue2BackPROC	""	2	2	2	SessionSelectionList									10	29652	-11	0																																													2												
WM080112	122620_fnca	2	1	1	1346344998	1	75.031	75.030	2.0.10.147	2.0.10.242	2.0.10.242	1.0.0.439	7	234	2	3	Verdana	1	80	0	0	0	WM Stimuli\	0.9	1173.88888888889	1	706.3	0.8	993.125	1	684.3	1	1253.8	1	712.8	0.9	886.555555555556	0.9	1071	13	315137	2	315125	27	40	315164	-999999	315140	0	24	TrialsPROC	TO_014_TOOL14_BA.png	2	2	3	SessionSelectionList														nonlure	3	Tools	2-Back	2	80	1	0	0	0	1	53	34277	2	13	82	32224	-1	32952	1	728	3	3	2053	66	34290	-67	0																3												
WM080112	122620_fnca	2	1	1	1346344998	1	75.031	75.030	2.0.10.147	2.0.10.242	2.0.10.242	1.0.0.439	7	234	2	3	Verdana	1	80	0	0	0	WM Stimuli\	0.9	1173.88888888889	1	706.3	0.8	993.125	1	684.3	1	1253.8	1	712.8	0.9	886.555555555556	0.9	1071	13	315137	2	315125	27	40	315164	-999999	315140	0	24	TrialsPROC	TO_013_TOOL13_BA.png	2	2	4	SessionSelectionList														nonlure	3	Tools	2-Back	3	80	2	0	0	0	2	39	36822	3	14	59	34783	-1	35255	1	472	3	3	2039	53	36836	-54	0																4												
WM080112	122620_fnca	2	1	1	1346344998	1	75.031	75.030	2.0.10.147	2.0.10.242	2.0.10.242	1.0.0.439	7	234	2	3	Verdana	1	80	0	0	0	WM Stimuli\	0.9	1173.88888888889	1	706.3	0.8	993.125	1	684.3	1	1253.8	1	712.8	0.9	886.555555555556	0.9	1071	13	315137	2	315125	27	40	315164	-999999	315140	0	24	TrialsPROC	TO_016_TOOL16_BA.png	2	2	5	SessionSelectionList														nonlure	3	Tools	2-Back	4	80	3	0	0	0	3	39	39408	1	14	86	37369	-1	38224	1	855	3	3	2039	53	39422	-54	0																5												
WM080112	122620_fnca	2	1	1	1346344998	1	75.031	75.030	2.0.10.147	2.0.10.242	2.0.10.242	1.0.0.439	7	234	2	3	Verdana	1	80	0	0	0	WM Stimuli\	0.9	1173.88888888889	1	706.3	0.8	993.125	1	684.3	1	1253.8	1	712.8	0.9	886.555555555556	0.9	1071	13	315137	2	315125	27	40	315164	-999999	315140	0	24	TrialsPROC	TO_014_TOOL14_BA.png	2	2	6	SessionSelectionList														lure	3	Tools	2-Back	5	80	4	0	0	0	4	39	41980	2	14	72	39941	-1	40814	1	873	3	3	2039	53	41994	-54	0																6												
WM080112	122620_fnca	2	1	1	1346344998	1	75.031	75.030	2.0.10.147	2.0.10.242	2.0.10.242	1.0.0.439	7	234	2	3	Verdana	1	80	0	0	0	WM Stimuli\	0.9	1173.88888888889	1	706.3	0.8	993.125	1	684.3	1	1253.8	1	712.8	0.9	886.555555555556	0.9	1071	13	315137	2	315125	27	40	315164	-999999	315140	0	24	TrialsPROC	TO_016_TOOL16_BA.png	2	2	7	SessionSelectionList														target	2	Tools	2-Back	6	80	5	0	0	0	5	39	44539	2	14	59	42500	-1	43878	0	1378	3	2	2039	53	44553	-54	0																7												
WM080112	122620_fnca	2	1	1	1346344998	1	75.031	75.030	2.0.10.147	2.0.10.242	2.0.10.242	1.0.0.439	7	234	2	3	Verdana	1	80	0	0	0	WM Stimuli\	0.9	1173.88888888889	1	706.3	0.8	993.125	1	684.3	1	1253.8	1	712.8	0.9	886.555555555556	0.9	1071	13	315137	2	315125	27	40	315164	-999999	315140	0	24	TrialsPROC	TO_018_TOOL18_BA.png	2	2	8	SessionSelectionList														nonlure	3	Tools	2-Back	7	80	6	0	0	0	6	39	47125	1	13	86	45086	-1	46741	1	1655	3	3	2039	52	47138	-53	0																8												
WM080112	122620_fnca	2	1	1	1346344998	1	75.031	75.030	2.0.10.147	2.0.10.242	2.0.10.242	1.0.0.439	7	234	2	3	Verdana	1	80	0	0	0	WM Stimuli\	0.9	1173.88888888889	1	706.3	0.8	993.125	1	684.3	1	1253.8	1	712.8	0.9	886.555555555556	0.9	1071	13	315137	2	315125	27	40	315164	-999999	315140	0	24	TrialsPROC	TO_017_TOOL17_BA.png	2	2	9	SessionSelectionList														nonlure	3	Tools	2-Back	8	80	7	0	0	0	7	39	49684	1	13	59	47645	-1	48505	1	860	3	3	2039	52	49697	-53	0																9												
WM080112	122620_fnca	2	1	1	1346344998	1	75.031	75.030	2.0.10.147	2.0.10.242	2.0.10.242	1.0.0.439	7	234	2	3	Verdana	1	80	0	0	0	WM Stimuli\	0.9	1173.88888888889	1	706.3	0.8	993.125	1	684.3	1	1253.8	1	712.8	0.9	886.555555555556	0.9	1071	13	315137	2	315125	27	40	315164	-999999	315140	0	24	TrialsPROC	TO_018_TOOL18_BA.png	2	2	10	SessionSelectionList														target	2	Tools	2-Back	9	80	8	0	0	0	1	40	52243	1	13	58	50203	-1	51155	1	952	2	2	2040	53	52256	-54	0																10												
WM080112	122620_fnca	2	1	1	1346344998	1	75.031	75.030	2.0.10.147	2.0.10.242	2.0.10.242	1.0.0.439	7	234	2	3	Verdana	1	80	0	0	0	WM Stimuli\	0.9	1173.88888888889	1	706.3	0.8	993.125	1	684.3	1	1253.8	1	712.8	0.9	886.555555555556	0.9	1071	13	315137	2	315125	27	40	315164	-999999	315140	0	24	TrialsPROC	TO_015_TOOL15_BA.png	2	2	11	SessionSelectionList														nonlure	3	Tools	2-Back	10	80	9	0	0	0	1	40	54802	1	13	59	52762	-1	53497	1	735	3	3	2040	53	54815	-54	0																11												
WM080112	122620_fnca	2	1	1	1346344998	1	75.031	75.030	2.0.10.147	2.0.10.242	2.0.10.242	1.0.0.439	7	234	2	3	Verdana	1	80	0	0	0	WM Stimuli\	0.9	1173.88888888889	1	706.3	0.8	993.125	1	684.3	1	1253.8	1	712.8	0.9	886.555555555556	0.9	1071	13	315137	2	315125	27	40	315164	-999999	315140	0	24	TrialsPROC	TO_017_TOOL17_BA.png	2	2	12	SessionSelectionList														lure	3	Tools	2-Back	11	80	10	0	0	0	2	40	57361	1	13	59	55321	-1	56170	1	849	3	3	2040	53	57374	-54	0																12												
WM080112	122620_fnca	2	1	1	1346344998	1	75.031	75.030	2.0.10.147	2.0.10.242	2.0.10.242	1.0.0.439	7	234	2	3	Verdana	1	80	0	0	0	WM Stimuli\	0.9	1173.88888888889	1	706.3	0.8	993.125	1	684.3	1	1253.8	1	712.8	0.9	886.555555555556	0.9	1071	13	315137	2	315125	27	40	315164	-999999	315140	0	25	Cue0BackPROC	BP_013_BP7_BA.png	2	2	13	SessionSelectionList																																										19	57840	-20	0												13												
WM080112	122620_fnca	2	1	1	1346344998	1	75.031	75.030	2.0.10.147	2.0.10.242	2.0.10.242	1.0.0.439	7	234	2	3	Verdana	1	80	0	0	0	WM Stimuli\	0.9	1173.88888888889	1	706.3	0.8	993.125	1	684.3	1	1253.8	1	712.8	0.9	886.555555555556	0.9	1071	13	315137	2	315125	27	40	315164	-999999	315140	0	26	TrialsPROC	BP_015_H10-T_BA.png	2	2	14	SessionSelectionList														nonlure	3	Body	0-Back	12	80	11	0	0	100	3	39	62425	2	14	65	60386	-1	61201	1	815	3	3	2039	53	62439	-54	0																14												
WM080112	122620_fnca	2	1	1	1346344998	1	75.031	75.030	2.0.10.147	2.0.10.242	2.0.10.242	1.0.0.439	7	234	2	3	Verdana	1	80	0	0	0	WM Stimuli\	0.9	1173.88888888889	1	706.3	0.8	993.125	1	684.3	1	1253.8	1	712.8	0.9	886.555555555556	0.9	1071	13	315137	2	315125	27	40	315164	-999999	315140	0	26	TrialsPROC	BP_018_H13-T_BA.png	2	2	15	SessionSelectionList														nonlure	3	Body	0-Back	13	80	12	0	0	100	4	38	64984	2	14	60	62946	-1	63464	1	518	3	3	2038	52	64998	-53	0																15												
WM080112	122620_fnca	2	1	1	1346344998	1	75.031	75.030	2.0.10.147	2.0.10.242	2.0.10.242	1.0.0.439	7	234	2	3	Verdana	1	80	0	0	0	WM Stimuli\	0.9	1173.88888888889	1	706.3	0.8	993.125	1	684.3	1	1253.8	1	712.8	0.9	886.555555555556	0.9	1071	13	315137	2	315125	27	40	315164	-999999	315140	0	26	TrialsPROC	BP_014_BP9_BA.png	2	2	16	SessionSelectionList														nonlure	3	Body	0-Back	14	80	13	0	0	100	5	39	67543	2	14	58	65504	-1	66511	1	1007	3	3	2039	53	67557	-54	0																16												
WM080112	122620_fnca	2	1	1	1346344998	1	75.031	75.030	2.0.10.147	2.0.10.242	2.0.10.242	1.0.0.439	7	234	2	3	Verdana	1	80	0	0	0	WM Stimuli\	0.9	1173.88888888889	1	706.3	0.8	993.125	1	684.3	1	1253.8	1	712.8	0.9	886.555555555556	0.9	1071	13	315137	2	315125	27	40	315164	-999999	315140	0	26	TrialsPROC	BP_018_H13-T_BA.png	2	2	17	SessionSelectionList														lure	3	Body	0-Back	15	80	14	0	0	100	6	39	70102	2	14	59	68063	-1	68921	1	858	3	3	2039	53	70116	-54	0																17												
WM080112	122620_fnca	2	1	1	1346344998	1	75.031	75.030	2.0.10.147	2.0.10.242	2.0.10.242	1.0.0.439	7	234	2	3	Verdana	1	80	0	0	0	WM Stimuli\	0.9	1173.88888888889	1	706.3	0.8	993.125	1	684.3	1	1253.8	1	712.8	0.9	886.555555555556	0.9	1071	13	315137	2	315125	27	40	315164	-999999	315140	0	26	TrialsPROC	BP_013_BP7_BA.png	2	2	18	SessionSelectionList														target	2	Body	0-Back	16	80	15	0	0	100	1	39	72661	2	14	59	70622	-1	71359	1	737	2	2	2039	53	72675	-54	0																18												
WM080112	122620_fnca	2	1	1	1346344998	1	75.031	75.030	2.0.10.147	2.0.10.242	2.0.10.242	1.0.0.439	7	234	2	3	Verdana	1	80	0	0	0	WM Stimuli\	0.9	1173.88888888889	1	706.3	0.8	993.125	1	684.3	1	1253.8	1	712.8	0.9	886.555555555556	0.9	1071	13	315137	2	315125	27	40	315164	-999999	315140	0	26	TrialsPROC	BP_015_H10-T_BA.png	2	2	19	SessionSelectionList														lure	3	Body	0-Back	17	80	16	0	0	100	1	39	75220	2	14	59	73181	-1	73808	1	627	3	3	2039	53	75234	-54	0																19												
WM080112	122620_fnca	2	1	1	1346344998	1	75.031	75.030	2.0.10.147	2.0.10.242	2.0.10.242	1.0.0.439	7	234	2	3	Verdana	1	80	0	0	0	WM Stimuli\	0.9	1173.88888888889	1	706.3	0.8	993.125	1	684.3	1	1253.8	1	712.8	0.9	886.555555555556	0.9	1071	13	315137	2	315125	27	40	315164	-999999	315140	0	26	TrialsPROC	BP_016_H11-T_BA.png	2	2	20	SessionSelectionList														nonlure	3	Body	0-Back	18	80	17	0	0	100	2	39	77792	2	14	72	75753	-1	76368	1	615	3	3	2039	53	77806	-54	0																20												
WM080112	122620_fnca	2	1	1	1346344998	1	75.031	75.030	2.0.10.147	2.0.10.242	2.0.10.242	1.0.0.439	7	234	2	3	Verdana	1	80	0	0	0	WM Stimuli\	0.9	1173.88888888889	1	706.3	0.8	993.125	1	684.3	1	1253.8	1	712.8	0.9	886.555555555556	0.9	1071	13	315137	2	315125	27	40	315164	-999999	315140	0	26	TrialsPROC	BP_013_BP7_BA.png	2	2	21	SessionSelectionList														target	2	Body	0-Back	19	80	18	0	0	100	1	38	80351	2	14	60	78313	-1	78907	1	594	2	2	2038	52	80365	-53	0																21												
WM080112	122620_fnca	2	1	1	1346344998	1	75.031	75.030	2.0.10.147	2.0.10.242	2.0.10.242	1.0.0.439	7	234	2	3	Verdana	1	80	0	0	0	WM Stimuli\	0.9	1173.88888888889	1	706.3	0.8	993.125	1	684.3	1	1253.8	1	712.8	0.9	886.555555555556	0.9	1071	13	315137	2	315125	27	40	315164	-999999	315140	0	26	TrialsPROC	BP_017_H12-T_BA.png	2	2	22	SessionSelectionList														nonlure	3	Body	0-Back	20	80	19	0	0	100	1	38	82910	2	14	59	80872	-1	81538	1	666	3	3	2038	52	82924	-53	0																22												
WM080112	122620_fnca	2	1	1	1346344998	1	75.031	75.030	2.0.10.147	2.0.10.242	2.0.10.242	1.0.0.439	7	234	2	3	Verdana	1	80	0	0	0	WM Stimuli\	0.9	1173.88888888889	1	706.3	0.8	993.125	1	684.3	1	1253.8	1	712.8	0.9	886.555555555556	0.9	1071	13	315137	2	315125	27	40	315164	-999999	315140	0	26	TrialsPROC	BP_014_BP9_BA.png	2	2	23	SessionSelectionList														lure	3	Body	0-Back	21	80	20	0	0	100	2	39	85469	2	14	58	83430	-1	84056	1	626	3	3	2039	53	85483	-54	0																23												
WM080112	122620_fnca	2	1	1	1346344998	1	75.031	75.030	2.0.10.147	2.0.10.242	2.0.10.242	1.0.0.439	7	234	2	3	Verdana	1	80	0	0	0	WM Stimuli\	0.9	1173.88888888889	1	706.3	0.8	993.125	1	684.3	1	1253.8	1	712.8	0.9	886.555555555556	0.9	1071	13	315137	2	315125	27	40	315164	-999999	315140	0	27	Fix15secPROC	""	2	2	24	SessionSelectionList																																															6	85936	-7	0							24												
WM080112	122620_fnca	2	1	1	1346344998	1	75.031	75.030	2.0.10.147	2.0.10.242	2.0.10.242	1.0.0.439	7	234	2	3	Verdana	1	80	0	0	0	WM Stimuli\	0.9	1173.88888888889	1	706.3	0.8	993.125	1	684.3	1	1253.8	1	712.8	0.9	886.555555555556	0.9	1071	13	315137	2	315125	27	40	315164	-999999	315140	0	28	Cue2BackPROC	""	2	2	25	SessionSelectionList									13	100943	-14	0																																													25												
WM080112	122620_fnca	2	1	1	1346344998	1	75.031	75.030	2.0.10.147	2.0.10.242	2.0.10.242	1.0.0.439	7	234	2	3	Verdana	1	80	0	0	0	WM Stimuli\	0.9	1173.88888888889	1	706.3	0.8	993.125	1	684.3	1	1253.8	1	712.8	0.9	886.555555555556	0.9	1071	13	315137	2	315125	27	40	315164	-999999	315140	0	29	TrialsPROC	FC_015_M8.png	2	2	26	SessionSelectionList														nonlure	3	Face	2-Back	22	80	21	0	0	100	3	39	105541	2	14	72	103502	-1	104559	1	1057	3	3	2039	53	105555	-54	0																26												
WM080112	122620_fnca	2	1	1	1346344998	1	75.031	75.030	2.0.10.147	2.0.10.242	2.0.10.242	1.0.0.439	7	234	2	3	Verdana	1	80	0	0	0	WM Stimuli\	0.9	1173.88888888889	1	706.3	0.8	993.125	1	684.3	1	1253.8	1	712.8	0.9	886.555555555556	0.9	1071	13	315137	2	315125	27	40	315164	-999999	315140	0	29	TrialsPROC	FC_018_F9.png	2	2	27	SessionSelectionList														nonlure	3	Face	2-Back	23	80	22	0	0	100	4	40	108114	1	13	72	106074	-1	106753	1	679	3	3	2040	53	108127	-54	0																27												
WM080112	122620_fnca	2	1	1	1346344998	1	75.031	75.030	2.0.10.147	2.0.10.242	2.0.10.242	1.0.0.439	7	234	2	3	Verdana	1	80	0	0	0	WM Stimuli\	0.9	1173.88888888889	1	706.3	0.8	993.125	1	684.3	1	1253.8	1	712.8	0.9	886.555555555556	0.9	1071	13	315137	2	315125	27	40	315164	-999999	315140	0	29	TrialsPROC	FC_018_F9.png	2	2	28	SessionSelectionList														lure	3	Face	2-Back	24	80	23	0	0	100	5	39	110686	1	14	73	108647	-1	109488	1	841	3	3	2039	53	110700	-54	0																28												
WM080112	122620_fnca	2	1	1	1346344998	1	75.031	75.030	2.0.10.147	2.0.10.242	2.0.10.242	1.0.0.439	7	234	2	3	Verdana	1	80	0	0	0	WM Stimuli\	0.9	1173.88888888889	1	706.3	0.8	993.125	1	684.3	1	1253.8	1	712.8	0.9	886.555555555556	0.9	1071	13	315137	2	315125	27	40	315164	-999999	315140	0	29	TrialsPROC	FC_017_M9.png	2	2	29	SessionSelectionList														nonlure	3	Face	2-Back	25	80	24	0	0	100	6	39	113258	2	14	72	111219	-1	112471	1	1252	3	3	2039	53	113272	-54	0																29												
WM080112	122620_fnca	2	1	1	1346344998	1	75.031	75.030	2.0.10.147	2.0.10.242	2.0.10.242	1.0.0.439	7	234	2	3	Verdana	1	80	0	0	0	WM Stimuli\	0.9	1173.88888888889	1	706.3	0.8	993.125	1	684.3	1	1253.8	1	712.8	0.9	886.555555555556	0.9	1071	13	315137	2	315125	27	40	315164	-999999	315140	0	29	TrialsPROC	FC_017_M9.png	2	2	30	SessionSelectionList														lure	3	Face	2-Back	26	80	25	0	0	100	7	39	115830	3	14	72	113791	-1	114779	1	988	3	3	2039	53	115844	-54	0																30												
WM080112	122620_fnca	2	1	1	1346344998	1	75.031	75.030	2.0.10.147	2.0.10.242	2.0.10.242	1.0.0.439	7	234	2	3	Verdana	1	80	0	0	0	WM Stimuli\	0.9	1173.88888888889	1	706.3	0.8	993.125	1	684.3	1	1253.8	1	712.8	0.9	886.555555555556	0.9	1071	13	315137	2	315125	27	40	315164	-999999	315140	0	29	TrialsPROC	FC_016_F8.png	2	2	31	SessionSelectionList														nonlure	3	Face	2-Back	27	80	26	0	0	100	8	39	118403	1	13	73	116364	-1	117229	1	865	3	3	2039	52	118416	-53	0																31												
WM080112	122620_fnca	2	1	1	1346344998	1	75.031	75.030	2.0.10.147	2.0.10.242	2.0.10.242	1.0.0.439	7	234	2	3	Verdana	1	80	0	0	0	WM Stimuli\	0.9	1173.88888888889	1	706.3	0.8	993.125	1	684.3	1	1253.8	1	712.8	0.9	886.555555555556	0.9	1071	13	315137	2	315125	27	40	315164	-999999	315140	0	29	TrialsPROC	FC_013_M7.png	2	2	32	SessionSelectionList														nonlure	3	Face	2-Back	28	80	27	0	0	100	9	39	120975	1	14	72	118936	-1	119852	1	916	3	3	2039	53	120989	-54	0																32												
WM080112	122620_fnca	2	1	1	1346344998	1	75.031	75.030	2.0.10.147	2.0.10.242	2.0.10.242	1.0.0.439	7	234	2	3	Verdana	1	80	0	0	0	WM Stimuli\	0.9	1173.88888888889	1	706.3	0.8	993.125	1	684.3	1	1253.8	1	712.8	0.9	886.555555555556	0.9	1071	13	315137	2	315125	27	40	315164	-999999	315140	0	29	TrialsPROC	FC_014_F7.png	2	2	33	SessionSelectionList														nonlure	3	Face	2-Back	29	80	28	0	0	100	10	39	123547	2	14	72	121508	-1	122855	1	1347	3	3	2039	53	123561	-54	0																33												
WM080112	122620_fnca	2	1	1	1346344998	1	75.031	75.030	2.0.10.147	2.0.10.242	2.0.10.242	1.0.0.439	7	234	2	3	Verdana	1	80	0	0	0	WM Stimuli\	0.9	1173.88888888889	1	706.3	0.8	993.125	1	684.3	1	1253.8	1	712.8	0.9	886.555555555556	0.9	1071	13	315137	2	315125	27	40	315164	-999999	315140	0	29	TrialsPROC	FC_013_M7.png	2	2	34	SessionSelectionList														target	2	Face	2-Back	30	80	29	0	0	100	11	39	126120	1	13	73	124081	-1	125855	0	1774	3	2	2039	52	126133	-53	0																34												
WM080112	122620_fnca	2	1	1	1346344998	1	75.031	75.030	2.0.10.147	2.0.10.242	2.0.10.242	1.0.0.439	7	234	2	3	Verdana	1	80	0	0	0	WM Stimuli\	0.9	1173.88888888889	1	706.3	0.8	993.125	1	684.3	1	1253.8	1	712.8	0.9	886.555555555556	0.9	1071	13	315137	2	315125	27	40	315164	-999999	315140	0	29	TrialsPROC	FC_014_F7.png	2	2	35	SessionSelectionList														target	2	Face	2-Back	31	80	30	0	0	100	12	39	128692	1	14	72	126653	-1	128314	0	1661	3	2	2039	53	128706	-54	0																35												
WM080112	122620_fnca	2	1	1	1346344998	1	75.031	75.030	2.0.10.147	2.0.10.242	2.0.10.242	1.0.0.439	7	234	2	3	Verdana	1	80	0	0	0	WM Stimuli\	0.9	1173.88888888889	1	706.3	0.8	993.125	1	684.3	1	1253.8	1	712.8	0.9	886.555555555556	0.9	1071	13	315137	2	315125	27	40	315164	-999999	315140	0	30	Cue0BackPROC	TO_019_TOOL19_BA.png	2	2	36	SessionSelectionList																																										19	129172	-20	0												36												
WM080112	122620_fnca	2	1	1	1346344998	1	75.031	75.030	2.0.10.147	2.0.10.242	2.0.10.242	1.0.0.439	7	234	2	3	Verdana	1	80	0	0	0	WM Stimuli\	0.9	1173.88888888889	1	706.3	0.8	993.125	1	684.3	1	1253.8	1	712.8	0.9	886.555555555556	0.9	1071	13	315137	2	315125	27	40	315164	-999999	315140	0	31	TrialsPROC	TO_019_TOOL19_BA.png	2	2	37	SessionSelectionList														target	2	Tools	0-Back	32	80	31	0	0	100	1	39	133743	2	14	51	131704	-1	133300	1	1596	2	2	2039	53	133757	-54	0																37												
WM080112	122620_fnca	2	1	1	1346344998	1	75.031	75.030	2.0.10.147	2.0.10.242	2.0.10.242	1.0.0.439	7	234	2	3	Verdana	1	80	0	0	0	WM Stimuli\	0.9	1173.88888888889	1	706.3	0.8	993.125	1	684.3	1	1253.8	1	712.8	0.9	886.555555555556	0.9	1071	13	315137	2	315125	27	40	315164	-999999	315140	0	31	TrialsPROC	TO_024_TOOL24_BA.png	2	2	38	SessionSelectionList														nonlure	3	Tools	0-Back	33	80	32	0	0	100	1	39	136302	2	14	59	134263	-1	134888	1	625	3	3	2039	53	136316	-54	0																38												
WM080112	122620_fnca	2	1	1	1346344998	1	75.031	75.030	2.0.10.147	2.0.10.242	2.0.10.242	1.0.0.439	7	234	2	3	Verdana	1	80	0	0	0	WM Stimuli\	0.9	1173.88888888889	1	706.3	0.8	993.125	1	684.3	1	1253.8	1	712.8	0.9	886.555555555556	0.9	1071	13	315137	2	315125	27	40	315164	-999999	315140	0	31	TrialsPROC	TO_019_TOOL19_BA.png	2	2	39	SessionSelectionList														target	2	Tools	0-Back	34	80	33	0	0	92	2	39	138861	2	14	59	136822	-1	138322	0	1500	3	2	2039	53	138875	-54	0																39												
WM080112	122620_fnca	2	1	1	1346344998	1	75.031	75.030	2.0.10.147	2.0.10.242	2.0.10.242	1.0.0.439	7	234	2	3	Verdana	1	80	0	0	0	WM Stimuli\	0.9	1173.88888888889	1	706.3	0.8	993.125	1	684.3	1	1253.8	1	712.8	0.9	886.555555555556	0.9	1071	13	315137	2	315125	27	40	315164	-999999	315140	0	31	TrialsPROC	TO_023_TOOL23_BA.png	2	2	40	SessionSelectionList														nonlure	3	Tools	0-Back	35	80	34	0	0	93	3	39	141420	2	14	59	139381	-1	140948	1	1567	3	3	2039	53	141434	-54	0																40												
WM080112	122620_fnca	2	1	1	1346344998	1	75.031	75.030	2.0.10.147	2.0.10.242	2.0.10.242	1.0.0.439	7	234	2	3	Verdana	1	80	0	0	0	WM Stimuli\	0.9	1173.88888888889	1	706.3	0.8	993.125	1	684.3	1	1253.8	1	712.8	0.9	886.555555555556	0.9	1071	13	315137	2	315125	27	40	315164	-999999	315140	0	31	TrialsPROC	TO_020_TOOL20_BA.png	2	2	41	SessionSelectionList														nonlure	3	Tools	0-Back	36	80	35	0	0	93	4	39	143979	2	14	59	141940	-1	142622	1	682	3	3	2039	53	143993	-54	0																41												
WM080112	122620_fnca	2	1	1	1346344998	1	75.031	75.030	2.0.10.147	2.0.10.242	2.0.10.242	1.0.0.439	7	234	2	3	Verdana	1	80	0	0	0	WM Stimuli\	0.9	1173.88888888889	1	706.3	0.8	993.125	1	684.3	1	1253.8	1	712.8	0.9	886.555555555556	0.9	1071	13	315137	2	315125	27	40	315164	-999999	315140	0	31	TrialsPROC	TO_020_TOOL20_BA.png	2	2	42	SessionSelectionList														lure	3	Tools	0-Back	37	80	36	0	0	94	5	39	146538	2	14	59	144499	-1	145503	1	1004	3	3	2039	53	146552	-54	0																42												
WM080112	122620_fnca	2	1	1	1346344998	1	75.031	75.030	2.0.10.147	2.0.10.242	2.0.10.242	1.0.0.439	7	234	2	3	Verdana	1	80	0	0	0	WM Stimuli\	0.9	1173.88888888889	1	706.3	0.8	993.125	1	684.3	1	1253.8	1	712.8	0.9	886.555555555556	0.9	1071	13	315137	2	315125	27	40	315164	-999999	315140	0	31	TrialsPROC	TO_022_TOOL22_BA.png	2	2	43	SessionSelectionList														nonlure	3	Tools	0-Back	38	80	37	0	0	94	6	39	149097	2	14	59	147058	-1	147913	1	855	3	3	2039	53	149111	-54	0																43												
WM080112	122620_fnca	2	1	1	1346344998	1	75.031	75.030	2.0.10.147	2.0.10.242	2.0.10.242	1.0.0.439	7	234	2	3	Verdana	1	80	0	0	0	WM Stimuli\	0.9	1173.88888888889	1	706.3	0.8	993.125	1	684.3	1	1253.8	1	712.8	0.9	886.555555555556	0.9	1071	13	315137	2	315125	27	40	315164	-999999	315140	0	31	TrialsPROC	TO_022_TOOL22_BA.png	2	2	44	SessionSelectionList														lure	3	Tools	0-Back	39	80	38	0	0	94	7	39	151656	2	14	59	149617	-1	150576	1	959	3	3	2039	53	151670	-54	0																44												
WM080112	122620_fnca	2	1	1	1346344998	1	75.031	75.030	2.0.10.147	2.0.10.242	2.0.10.242	1.0.0.439	7	234	2	3	Verdana	1	80	0	0	0	WM Stimuli\	0.9	1173.88888888889	1	706.3	0.8	993.125	1	684.3	1	1253.8	1	712.8	0.9	886.555555555556	0.9	1071	13	315137	2	315125	27	40	315164	-999999	315140	0	31	TrialsPROC	TO_021_TOOL21_BA.png	2	2	45	SessionSelectionList														nonlure	3	Tools	0-Back	40	80	39	0	0	95	8	39	154215	1	14	59	152176	-1	153462	1	1286	3	3	2039	53	154229	-54	0																45												
WM080112	122620_fnca	2	1	1	1346344998	1	75.031	75.030	2.0.10.147	2.0.10.242	2.0.10.242	1.0.0.439	7	234	2	3	Verdana	1	80	0	0	0	WM Stimuli\	0.9	1173.88888888889	1	706.3	0.8	993.125	1	684.3	1	1253.8	1	712.8	0.9	886.555555555556	0.9	1071	13	315137	2	315125	27	40	315164	-999999	315140	0	31	TrialsPROC	TO_021_TOOL21_BA.png	2	2	46	SessionSelectionList														lure	3	Tools	0-Back	41	80	40	0	0	95	9	39	156774	1	14	59	154735	-1	155800	1	1065	3	3	2039	53	156788	-54	0																46												
WM080112	122620_fnca	2	1	1	1346344998	1	75.031	75.030	2.0.10.147	2.0.10.242	2.0.10.242	1.0.0.439	7	234	2	3	Verdana	1	80	0	0	0	WM Stimuli\	0.9	1173.88888888889	1	706.3	0.8	993.125	1	684.3	1	1253.8	1	712.8	0.9	886.555555555556	0.9	1071	13	315137	2	315125	27	40	315164	-999999	315140	0	32	Fix15secPROC	""	2	2	47	SessionSelectionList																																															6	157241	-7	0							47												
WM080112	122620_fnca	2	1	1	1346344998	1	75.031	75.030	2.0.10.147	2.0.10.242	2.0.10.242	1.0.0.439	7	234	2	3	Verdana	1	80	0	0	0	WM Stimuli\	0.9	1173.88888888889	1	706.3	0.8	993.125	1	684.3	1	1253.8	1	712.8	0.9	886.555555555556	0.9	1071	13	315137	2	315125	27	40	315164	-999999	315140	0	33	Cue2BackPROC	""	2	2	48	SessionSelectionList									13	172248	-14	0																																													48												
WM080112	122620_fnca	2	1	1	1346344998	1	75.031	75.030	2.0.10.147	2.0.10.242	2.0.10.242	1.0.0.439	7	234	2	3	Verdana	1	80	0	0	0	WM Stimuli\	0.9	1173.88888888889	1	706.3	0.8	993.125	1	684.3	1	1253.8	1	712.8	0.9	886.555555555556	0.9	1071	13	315137	2	315125	27	40	315164	-999999	315140	0	34	TrialsPROC	BP_020_H17-T_BA.png	2	2	49	SessionSelectionList														nonlure	3	Body	2-Back	42	80	41	0	0	95	10	40	176833	1	13	58	174793	-1	176068	1	1275	3	3	2040	53	176846	-54	0																49												
WM080112	122620_fnca	2	1	1	1346344998	1	75.031	75.030	2.0.10.147	2.0.10.242	2.0.10.242	1.0.0.439	7	234	2	3	Verdana	1	80	0	0	0	WM Stimuli\	0.9	1173.88888888889	1	706.3	0.8	993.125	1	684.3	1	1253.8	1	712.8	0.9	886.555555555556	0.9	1071	13	315137	2	315125	27	40	315164	-999999	315140	0	34	TrialsPROC	BP_019_H14-T_BA.png	2	2	50	SessionSelectionList														nonlure	3	Body	2-Back	43	80	42	0	0	95	11	39	179405	1	14	73	177366	-1	178010	1	644	3	3	2039	53	179419	-54	0																50												
WM080112	122620_fnca	2	1	1	1346344998	1	75.031	75.030	2.0.10.147	2.0.10.242	2.0.10.242	1.0.0.439	7	234	2	3	Verdana	1	80	0	0	0	WM Stimuli\	0.9	1173.88888888889	1	706.3	0.8	993.125	1	684.3	1	1253.8	1	712.8	0.9	886.555555555556	0.9	1071	13	315137	2	315125	27	40	315164	-999999	315140	0	34	TrialsPROC	BP_020_H17-T_BA.png	2	2	51	SessionSelectionList														target	2	Body	2-Back	44	80	43	0	0	95	1	39	181964	1	14	59	179925	-1	180611	1	686	2	2	2039	53	181978	-54	0																51												
WM080112	122620_fnca	2	1	1	1346344998	1	75.031	75.030	2.0.10.147	2.0.10.242	2.0.10.242	1.0.0.439	7	234	2	3	Verdana	1	80	0	0	0	WM Stimuli\	0.9	1173.88888888889	1	706.3	0.8	993.125	1	684.3	1	1253.8	1	712.8	0.9	886.555555555556	0.9	1071	13	315137	2	315125	27	40	315164	-999999	315140	0	34	TrialsPROC	BP_019_H14-T_BA.png	2	2	52	SessionSelectionList														target	2	Body	2-Back	45	80	44	0	0	95	2	39	184523	1	14	59	182484	-1	183958	1	1474	2	2	2039	53	184537	-54	0																52												
WM080112	122620_fnca	2	1	1	1346344998	1	75.031	75.030	2.0.10.147	2.0.10.242	2.0.10.242	1.0.0.439	7	234	2	3	Verdana	1	80	0	0	0	WM Stimuli\	0.9	1173.88888888889	1	706.3	0.8	993.125	1	684.3	1	1253.8	1	712.8	0.9	886.555555555556	0.9	1071	13	315137	2	315125	27	40	315164	-999999	315140	0	34	TrialsPROC	BP_024_H3-T_BA.png	2	2	53	SessionSelectionList														nonlure	3	Body	2-Back	46	80	45	0	0	95	1	39	187082	1	14	59	185043	-1	186518	1	1475	3	3	2039	53	187096	-54	0																53												
WM080112	122620_fnca	2	1	1	1346344998	1	75.031	75.030	2.0.10.147	2.0.10.242	2.0.10.242	1.0.0.439	7	234	2	3	Verdana	1	80	0	0	0	WM Stimuli\	0.9	1173.88888888889	1	706.3	0.8	993.125	1	684.3	1	1253.8	1	712.8	0.9	886.555555555556	0.9	1071	13	315137	2	315125	27	40	315164	-999999	315140	0	34	TrialsPROC	BP_024_H3-T_BA.png	2	2	54	SessionSelectionList														lure	3	Body	2-Back	47	80	46	0	0	95	2	39	189641	1	14	59	187602	-1	188896	1	1294	3	3	2039	53	189655	-54	0																54												
WM080112	122620_fnca	2	1	1	1346344998	1	75.031	75.030	2.0.10.147	2.0.10.242	2.0.10.242	1.0.0.439	7	234	2	3	Verdana	1	80	0	0	0	WM Stimuli\	0.9	1173.88888888889	1	706.3	0.8	993.125	1	684.3	1	1253.8	1	712.8	0.9	886.555555555556	0.9	1071	13	315137	2	315125	27	40	315164	-999999	315140	0	34	TrialsPROC	BP_025_H5-T_BA.png	2	2	55	SessionSelectionList														nonlure	3	Body	2-Back	48	80	47	0	0	95	1	39	192213	2	14	72	190174	-1	191562	0	1388	2	3	2039	53	192227	-54	0																55												
WM080112	122620_fnca	2	1	1	1346344998	1	75.031	75.030	2.0.10.147	2.0.10.242	2.0.10.242	1.0.0.439	7	234	2	3	Verdana	1	80	0	0	0	WM Stimuli\	0.9	1173.88888888889	1	706.3	0.8	993.125	1	684.3	1	1253.8	1	712.8	0.9	886.555555555556	0.9	1071	13	315137	2	315125	27	40	315164	-999999	315140	0	34	TrialsPROC	BP_023_H25-T_BA.png	2	2	56	SessionSelectionList														nonlure	3	Body	2-Back	49	80	48	0	0	95	1	39	194785	2	14	72	192746	-1	194281	1	1535	3	3	2039	53	194799	-54	0																56												
WM080112	122620_fnca	2	1	1	1346344998	1	75.031	75.030	2.0.10.147	2.0.10.242	2.0.10.242	1.0.0.439	7	234	2	3	Verdana	1	80	0	0	0	WM Stimuli\	0.9	1173.88888888889	1	706.3	0.8	993.125	1	684.3	1	1253.8	1	712.8	0.9	886.555555555556	0.9	1071	13	315137	2	315125	27	40	315164	-999999	315140	0	34	TrialsPROC	BP_022_H24-T_BA.png	2	2	57	SessionSelectionList														nonlure	3	Body	2-Back	50	80	49	0	0	95	2	38	197344	2	14	60	195306	-1	196255	1	949	3	3	2038	52	197358	-53	0																57												
WM080112	122620_fnca	2	1	1	1346344998	1	75.031	75.030	2.0.10.147	2.0.10.242	2.0.10.242	1.0.0.439	7	234	2	3	Verdana	1	80	0	0	0	WM Stimuli\	0.9	1173.88888888889	1	706.3	0.8	993.125	1	684.3	1	1253.8	1	712.8	0.9	886.555555555556	0.9	1071	13	315137	2	315125	27	40	315164	-999999	315140	0	34	TrialsPROC	BP_022_H24-T_BA.png	2	2	58	SessionSelectionList														lure	3	Body	2-Back	51	80	50	0	0	95	3	39	199903	2	14	58	197864	-1	199097	1	1233	3	3	2039	53	199917	-54	0																58												
WM080112	122620_fnca	2	1	1	1346344998	1	75.031	75.030	2.0.10.147	2.0.10.242	2.0.10.242	1.0.0.439	7	234	2	3	Verdana	1	80	0	0	0	WM Stimuli\	0.9	1173.88888888889	1	706.3	0.8	993.125	1	684.3	1	1253.8	1	712.8	0.9	886.555555555556	0.9	1071	13	315137	2	315125	27	40	315164	-999999	315140	0	35	Cue2BackPROC	""	2	2	59	SessionSelectionList									6	200370	-7	0																																													59												
WM080112	122620_fnca	2	1	1	1346344998	1	75.031	75.030	2.0.10.147	2.0.10.242	2.0.10.242	1.0.0.439	7	234	2	3	Verdana	1	80	0	0	0	WM Stimuli\	0.9	1173.88888888889	1	706.3	0.8	993.125	1	684.3	1	1253.8	1	712.8	0.9	886.555555555556	0.9	1071	13	315137	2	315125	27	40	315164	-999999	315140	0	36	TrialsPROC	PL_019_SCENE_05.png	2	2	60	SessionSelectionList														nonlure	3	Place	2-Back	52	80	51	0	0	95	4	39	204968	1	14	65	202929	-1	204088	1	1159	3	3	2039	53	204982	-54	0																60												
WM080112	122620_fnca	2	1	1	1346344998	1	75.031	75.030	2.0.10.147	2.0.10.242	2.0.10.242	1.0.0.439	7	234	2	3	Verdana	1	80	0	0	0	WM Stimuli\	0.9	1173.88888888889	1	706.3	0.8	993.125	1	684.3	1	1253.8	1	712.8	0.9	886.555555555556	0.9	1071	13	315137	2	315125	27	40	315164	-999999	315140	0	36	TrialsPROC	PL_017_SCENE_03.png	2	2	61	SessionSelectionList														nonlure	3	Place	2-Back	53	80	52	0	0	95	5	39	207540	2	14	72	205501	-1	206483	1	982	3	3	2039	53	207554	-54	0																61												
WM080112	122620_fnca	2	1	1	1346344998	1	75.031	75.030	2.0.10.147	2.0.10.242	2.0.10.242	1.0.0.439	7	234	2	3	Verdana	1	80	0	0	0	WM Stimuli\	0.9	1173.88888888889	1	706.3	0.8	993.125	1	684.3	1	1253.8	1	712.8	0.9	886.555555555556	0.9	1071	13	315137	2	315125	27	40	315164	-999999	315140	0	36	TrialsPROC	PL_017_SCENE_03.png	2	2	62	SessionSelectionList														lure	3	Place	2-Back	54	80	53	0	0	95	6	40	210113	1	13	72	208073	-1	209330	1	1257	3	3	2040	53	210126	-54	0																62												
WM080112	122620_fnca	2	1	1	1346344998	1	75.031	75.030	2.0.10.147	2.0.10.242	2.0.10.242	1.0.0.439	7	234	2	3	Verdana	1	80	0	0	0	WM Stimuli\	0.9	1173.88888888889	1	706.3	0.8	993.125	1	684.3	1	1253.8	1	712.8	0.9	886.555555555556	0.9	1071	13	315137	2	315125	27	40	315164	-999999	315140	0	36	TrialsPROC	PL_016_SCENE_02.png	2	2	63	SessionSelectionList														nonlure	3	Place	2-Back	55	80	54	0	0	95	7	39	212685	1	14	73	210646	-1	211884	1	1238	3	3	2039	53	212699	-54	0																63												
WM080112	122620_fnca	2	1	1	1346344998	1	75.031	75.030	2.0.10.147	2.0.10.242	2.0.10.242	1.0.0.439	7	234	2	3	Verdana	1	80	0	0	0	WM Stimuli\	0.9	1173.88888888889	1	706.3	0.8	993.125	1	684.3	1	1253.8	1	712.8	0.9	886.555555555556	0.9	1071	13	315137	2	315125	27	40	315164	-999999	315140	0	36	TrialsPROC	PL_015_SCENE_01.png	2	2	64	SessionSelectionList														nonlure	3	Place	2-Back	56	80	55	0	0	95	8	39	215257	2	14	72	213218	-1	214570	1	1352	3	3	2039	53	215271	-54	0																64												
WM080112	122620_fnca	2	1	1	1346344998	1	75.031	75.030	2.0.10.147	2.0.10.242	2.0.10.242	1.0.0.439	7	234	2	3	Verdana	1	80	0	0	0	WM Stimuli\	0.9	1173.88888888889	1	706.3	0.8	993.125	1	684.3	1	1253.8	1	712.8	0.9	886.555555555556	0.9	1071	13	315137	2	315125	27	40	315164	-999999	315140	0	36	TrialsPROC	PL_016_SCENE_02.png	2	2	65	SessionSelectionList														target	2	Place	2-Back	57	80	56	0	0	95	1	40	217830	1	13	72	215790	-1	216927	1	1137	2	2	2040	53	217843	-54	0																65												
WM080112	122620_fnca	2	1	1	1346344998	1	75.031	75.030	2.0.10.147	2.0.10.242	2.0.10.242	1.0.0.439	7	234	2	3	Verdana	1	80	0	0	0	WM Stimuli\	0.9	1173.88888888889	1	706.3	0.8	993.125	1	684.3	1	1253.8	1	712.8	0.9	886.555555555556	0.9	1071	13	315137	2	315125	27	40	315164	-999999	315140	0	36	TrialsPROC	PL_015_SCENE_01.png	2	2	66	SessionSelectionList														target	2	Place	2-Back	58	80	57	0	0	95	2	39	220402	1	14	73	218363	-1	219740	1	1377	2	2	2039	53	220416	-54	0																66												
WM080112	122620_fnca	2	1	1	1346344998	1	75.031	75.030	2.0.10.147	2.0.10.242	2.0.10.242	1.0.0.439	7	234	2	3	Verdana	1	80	0	0	0	WM Stimuli\	0.9	1173.88888888889	1	706.3	0.8	993.125	1	684.3	1	1253.8	1	712.8	0.9	886.555555555556	0.9	1071	13	315137	2	315125	27	40	315164	-999999	315140	0	36	TrialsPROC	PL_020_SCENE_06.png	2	2	67	SessionSelectionList														nonlure	3	Place	2-Back	59	80	58	0	0	95	1	39	222974	2	14	72	220935	-1	221553	1	618	3	3	2039	53	222988	-54	0																67												
WM080112	122620_fnca	2	1	1	1346344998	1	75.031	75.030	2.0.10.147	2.0.10.242	2.0.10.242	1.0.0.439	7	234	2	3	Verdana	1	80	0	0	0	WM Stimuli\	0.9	1173.88888888889	1	706.3	0.8	993.125	1	684.3	1	1253.8	1	712.8	0.9	886.555555555556	0.9	1071	13	315137	2	315125	27	40	315164	-999999	315140	0	36	TrialsPROC	PL_020_SCENE_06.png	2	2	68	SessionSelectionList														lure	3	Place	2-Back	60	80	59	0	0	95	2	39	225546	2	14	72	223507	-1	225007	1	1500	3	3	2039	53	225560	-54	0																68												
WM080112	122620_fnca	2	1	1	1346344998	1	75.031	75.030	2.0.10.147	2.0.10.242	2.0.10.242	1.0.0.439	7	234	2	3	Verdana	1	80	0	0	0	WM Stimuli\	0.9	1173.88888888889	1	706.3	0.8	993.125	1	684.3	1	1253.8	1	712.8	0.9	886.555555555556	0.9	1071	13	315137	2	315125	27	40	315164	-999999	315140	0	36	TrialsPROC	PL_018_SCENE_04.png	2	2	69	SessionSelectionList														nonlure	3	Place	2-Back	61	80	60	0	0	95	3	39	228119	1	13	73	226080	-1	227998	1	1918	3	3	2039	52	228132	-53	0																69												
WM080112	122620_fnca	2	1	1	1346344998	1	75.031	75.030	2.0.10.147	2.0.10.242	2.0.10.242	1.0.0.439	7	234	2	3	Verdana	1	80	0	0	0	WM Stimuli\	0.9	1173.88888888889	1	706.3	0.8	993.125	1	684.3	1	1253.8	1	712.8	0.9	886.555555555556	0.9	1071	13	315137	2	315125	27	40	315164	-999999	315140	0	37	Fix15secPROC	""	2	2	70	SessionSelectionList																																															6	228586	-7	0							70												
WM080112	122620_fnca	2	1	1	1346344998	1	75.031	75.030	2.0.10.147	2.0.10.242	2.0.10.242	1.0.0.439	7	234	2	3	Verdana	1	80	0	0	0	WM Stimuli\	0.9	1173.88888888889	1	706.3	0.8	993.125	1	684.3	1	1253.8	1	712.8	0.9	886.555555555556	0.9	1071	13	315137	2	315125	27	40	315164	-999999	315140	0	38	Cue0BackPROC	FC_020_F10.png	2	2	71	SessionSelectionList																																										39	243619	-40	0												71												
WM080112	122620_fnca	2	1	1	1346344998	1	75.031	75.030	2.0.10.147	2.0.10.242	2.0.10.242	1.0.0.439	7	234	2	3	Verdana	1	80	0	0	0	WM Stimuli\	0.9	1173.88888888889	1	706.3	0.8	993.125	1	684.3	1	1253.8	1	712.8	0.9	886.555555555556	0.9	1071	13	315137	2	315125	27	40	315164	-999999	315140	0	39	TrialsPROC	FC_024_F12.png	2	2	72	SessionSelectionList														nonlure	3	Face	0-Back	62	80	61	0	0	95	4	39	248217	2	14	98	246178	-1	246926	1	748	3	3	2039	53	248231	-54	0																72												
WM080112	122620_fnca	2	1	1	1346344998	1	75.031	75.030	2.0.10.147	2.0.10.242	2.0.10.242	1.0.0.439	7	234	2	3	Verdana	1	80	0	0	0	WM Stimuli\	0.9	1173.88888888889	1	706.3	0.8	993.125	1	684.3	1	1253.8	1	712.8	0.9	886.555555555556	0.9	1071	13	315137	2	315125	27	40	315164	-999999	315140	0	39	TrialsPROC	FC_023_M12.png	2	2	73	SessionSelectionList														nonlure	3	Face	0-Back	63	80	62	0	0	95	5	39	250803	1	14	86	248764	-1	249513	1	749	3	3	2039	53	250817	-54	0																73												
WM080112	122620_fnca	2	1	1	1346344998	1	75.031	75.030	2.0.10.147	2.0.10.242	2.0.10.242	1.0.0.439	7	234	2	3	Verdana	1	80	0	0	0	WM Stimuli\	0.9	1173.88888888889	1	706.3	0.8	993.125	1	684.3	1	1253.8	1	712.8	0.9	886.555555555556	0.9	1071	13	315137	2	315125	27	40	315164	-999999	315140	0	39	TrialsPROC	FC_020_F10.png	2	2	74	SessionSelectionList														target	2	Face	0-Back	64	80	63	0	0	96	1	39	253375	2	14	72	251336	-1	251922	1	586	2	2	2039	53	253389	-54	0																74												
WM080112	122620_fnca	2	1	1	1346344998	1	75.031	75.030	2.0.10.147	2.0.10.242	2.0.10.242	1.0.0.439	7	234	2	3	Verdana	1	80	0	0	0	WM Stimuli\	0.9	1173.88888888889	1	706.3	0.8	993.125	1	684.3	1	1253.8	1	712.8	0.9	886.555555555556	0.9	1071	13	315137	2	315125	27	40	315164	-999999	315140	0	39	TrialsPROC	FC_024_F12.png	2	2	75	SessionSelectionList														lure	3	Face	0-Back	65	80	64	0	0	96	1	40	255948	1	13	72	253908	-1	254647	1	739	3	3	2040	53	255961	-54	0																75												
WM080112	122620_fnca	2	1	1	1346344998	1	75.031	75.030	2.0.10.147	2.0.10.242	2.0.10.242	1.0.0.439	7	234	2	3	Verdana	1	80	0	0	0	WM Stimuli\	0.9	1173.88888888889	1	706.3	0.8	993.125	1	684.3	1	1253.8	1	712.8	0.9	886.555555555556	0.9	1071	13	315137	2	315125	27	40	315164	-999999	315140	0	39	TrialsPROC	FC_020_F10.png	2	2	76	SessionSelectionList														target	2	Face	0-Back	66	80	65	0	0	96	1	39	258520	1	14	73	256481	-1	257347	1	866	2	2	2039	53	258534	-54	0																76												
WM080112	122620_fnca	2	1	1	1346344998	1	75.031	75.030	2.0.10.147	2.0.10.242	2.0.10.242	1.0.0.439	7	234	2	3	Verdana	1	80	0	0	0	WM Stimuli\	0.9	1173.88888888889	1	706.3	0.8	993.125	1	684.3	1	1253.8	1	712.8	0.9	886.555555555556	0.9	1071	13	315137	2	315125	27	40	315164	-999999	315140	0	39	TrialsPROC	FC_022_F11.png	2	2	77	SessionSelectionList														nonlure	3	Face	0-Back	67	80	66	0	0	96	1	39	261105	2	14	85	259066	-1	259647	1	581	3	3	2039	53	261119	-54	0																77												
WM080112	122620_fnca	2	1	1	1346344998	1	75.031	75.030	2.0.10.147	2.0.10.242	2.0.10.242	1.0.0.439	7	234	2	3	Verdana	1	80	0	0	0	WM Stimuli\	0.9	1173.88888888889	1	706.3	0.8	993.125	1	684.3	1	1253.8	1	712.8	0.9	886.555555555556	0.9	1071	13	315137	2	315125	27	40	315164	-999999	315140	0	39	TrialsPROC	FC_023_M12.png	2	2	78	SessionSelectionList														lure	3	Face	0-Back	68	80	67	0	0	96	2	39	263678	1	13	73	261639	-1	262498	1	859	3	3	2039	52	263691	-53	0																78												
WM080112	122620_fnca	2	1	1	1346344998	1	75.031	75.030	2.0.10.147	2.0.10.242	2.0.10.242	1.0.0.439	7	234	2	3	Verdana	1	80	0	0	0	WM Stimuli\	0.9	1173.88888888889	1	706.3	0.8	993.125	1	684.3	1	1253.8	1	712.8	0.9	886.555555555556	0.9	1071	13	315137	2	315125	27	40	315164	-999999	315140	0	39	TrialsPROC	FC_021_M11.png	2	2	79	SessionSelectionList														nonlure	3	Face	0-Back	69	80	68	0	0	96	3	39	266263	2	14	85	264224	-1	264880	1	656	3	3	2039	53	266277	-54	0																79												
WM080112	122620_fnca	2	1	1	1346344998	1	75.031	75.030	2.0.10.147	2.0.10.242	2.0.10.242	1.0.0.439	7	234	2	3	Verdana	1	80	0	0	0	WM Stimuli\	0.9	1173.88888888889	1	706.3	0.8	993.125	1	684.3	1	1253.8	1	712.8	0.9	886.555555555556	0.9	1071	13	315137	2	315125	27	40	315164	-999999	315140	0	39	TrialsPROC	FC_021_M11.png	2	2	80	SessionSelectionList														lure	3	Face	0-Back	70	80	69	0	0	97	4	39	268836	1	13	73	266797	-1	267240	1	443	3	3	2039	52	268849	-53	0																80												
WM080112	122620_fnca	2	1	1	1346344998	1	75.031	75.030	2.0.10.147	2.0.10.242	2.0.10.242	1.0.0.439	7	234	2	3	Verdana	1	80	0	0	0	WM Stimuli\	0.9	1173.88888888889	1	706.3	0.8	993.125	1	684.3	1	1253.8	1	712.8	0.9	886.555555555556	0.9	1071	13	315137	2	315125	27	40	315164	-999999	315140	0	39	TrialsPROC	FC_019_M10.png	2	2	81	SessionSelectionList														nonlure	3	Face	0-Back	71	80	70	0	0	97	5	39	271421	2	14	85	269382	-1	269998	1	616	3	3	2039	53	271435	-54	0																81												
WM080112	122620_fnca	2	1	1	1346344998	1	75.031	75.030	2.0.10.147	2.0.10.242	2.0.10.242	1.0.0.439	7	234	2	3	Verdana	1	80	0	0	0	WM Stimuli\	0.9	1173.88888888889	1	706.3	0.8	993.125	1	684.3	1	1253.8	1	712.8	0.9	886.555555555556	0.9	1071	13	315137	2	315125	27	40	315164	-999999	315140	0	40	Cue0BackPROC	PL_021_SCENE_07.png	2	2	82	SessionSelectionList																																										46	271928	-47	0												82												
WM080112	122620_fnca	2	1	1	1346344998	1	75.031	75.030	2.0.10.147	2.0.10.242	2.0.10.242	1.0.0.439	7	234	2	3	Verdana	1	80	0	0	0	WM Stimuli\	0.9	1173.88888888889	1	706.3	0.8	993.125	1	684.3	1	1253.8	1	712.8	0.9	886.555555555556	0.9	1071	13	315137	2	315125	27	40	315164	-999999	315140	0	41	TrialsPROC	PL_025_SCENE_18.png	2	2	83	SessionSelectionList														nonlure	3	Place	0-Back	72	80	71	0	0	97	6	39	276499	2	14	78	274460	-1	275097	1	637	3	3	2039	53	276513	-54	0																83												
WM080112	122620_fnca	2	1	1	1346344998	1	75.031	75.030	2.0.10.147	2.0.10.242	2.0.10.242	1.0.0.439	7	234	2	3	Verdana	1	80	0	0	0	WM Stimuli\	0.9	1173.88888888889	1	706.3	0.8	993.125	1	684.3	1	1253.8	1	712.8	0.9	886.555555555556	0.9	1071	13	315137	2	315125	27	40	315164	-999999	315140	0	41	TrialsPROC	PL_026_SCENE_24.png	2	2	84	SessionSelectionList														nonlure	3	Place	0-Back	73	80	72	0	0	97	7	39	279085	1	14	86	277046	-1	277608	1	562	3	3	2039	53	279099	-54	0																84												
WM080112	122620_fnca	2	1	1	1346344998	1	75.031	75.030	2.0.10.147	2.0.10.242	2.0.10.242	1.0.0.439	7	234	2	3	Verdana	1	80	0	0	0	WM Stimuli\	0.9	1173.88888888889	1	706.3	0.8	993.125	1	684.3	1	1253.8	1	712.8	0.9	886.555555555556	0.9	1071	13	315137	2	315125	27	40	315164	-999999	315140	0	41	TrialsPROC	PL_025_SCENE_18.png	2	2	85	SessionSelectionList														lure	3	Place	0-Back	74	80	73	0	0	97	8	39	281657	2	14	72	279618	-1	280408	1	790	3	3	2039	53	281671	-54	0																85												
WM080112	122620_fnca	2	1	1	1346344998	1	75.031	75.030	2.0.10.147	2.0.10.242	2.0.10.242	1.0.0.439	7	234	2	3	Verdana	1	80	0	0	0	WM Stimuli\	0.9	1173.88888888889	1	706.3	0.8	993.125	1	684.3	1	1253.8	1	712.8	0.9	886.555555555556	0.9	1071	13	315137	2	315125	27	40	315164	-999999	315140	0	41	TrialsPROC	PL_022_SCENE_08.png	2	2	86	SessionSelectionList														nonlure	3	Place	0-Back	75	80	74	0	0	97	9	40	284230	1	13	72	282190	-1	282875	1	685	3	3	2040	53	284243	-54	0																86												
WM080112	122620_fnca	2	1	1	1346344998	1	75.031	75.030	2.0.10.147	2.0.10.242	2.0.10.242	1.0.0.439	7	234	2	3	Verdana	1	80	0	0	0	WM Stimuli\	0.9	1173.88888888889	1	706.3	0.8	993.125	1	684.3	1	1253.8	1	712.8	0.9	886.555555555556	0.9	1071	13	315137	2	315125	27	40	315164	-999999	315140	0	41	TrialsPROC	PL_026_SCENE_24.png	2	2	87	SessionSelectionList														lure	3	Place	0-Back	76	80	75	0	0	97	10	39	286802	1	14	73	284763	-1	285738	1	975	3	3	2039	53	286816	-54	0																87												
WM080112	122620_fnca	2	1	1	1346344998	1	75.031	75.030	2.0.10.147	2.0.10.242	2.0.10.242	1.0.0.439	7	234	2	3	Verdana	1	80	0	0	0	WM Stimuli\	0.9	1173.88888888889	1	706.3	0.8	993.125	1	684.3	1	1253.8	1	712.8	0.9	886.555555555556	0.9	1071	13	315137	2	315125	27	40	315164	-999999	315140	0	41	TrialsPROC	PL_021_SCENE_07.png	2	2	88	SessionSelectionList														target	2	Place	0-Back	77	80	76	0	0	97	1	39	289374	2	14	72	287335	-1	287959	1	624	2	2	2039	53	289388	-54	0																88												
WM080112	122620_fnca	2	1	1	1346344998	1	75.031	75.030	2.0.10.147	2.0.10.242	2.0.10.242	1.0.0.439	7	234	2	3	Verdana	1	80	0	0	0	WM Stimuli\	0.9	1173.88888888889	1	706.3	0.8	993.125	1	684.3	1	1253.8	1	712.8	0.9	886.555555555556	0.9	1071	13	315137	2	315125	27	40	315164	-999999	315140	0	41	TrialsPROC	PL_021_SCENE_07.png	2	2	89	SessionSelectionList														target	2	Place	0-Back	78	80	77	0	0	97	2	39	291946	2	14	72	289907	-1	290548	1	641	2	2	2039	53	291960	-54	0																89												
WM080112	122620_fnca	2	1	1	1346344998	1	75.031	75.030	2.0.10.147	2.0.10.242	2.0.10.242	1.0.0.439	7	234	2	3	Verdana	1	80	0	0	0	WM Stimuli\	0.9	1173.88888888889	1	706.3	0.8	993.125	1	684.3	1	1253.8	1	712.8	0.9	886.555555555556	0.9	1071	13	315137	2	315125	27	40	315164	-999999	315140	0	41	TrialsPROC	PL_023_SCENE_09.png	2	2	90	SessionSelectionList														nonlure	3	Place	0-Back	79	80	78	0	0	97	1	39	294519	1	13	73	292480	-1	293296	1	816	3	3	2039	52	294532	-53	0																90												
WM080112	122620_fnca	2	1	1	1346344998	1	75.031	75.030	2.0.10.147	2.0.10.242	2.0.10.242	1.0.0.439	7	234	2	3	Verdana	1	80	0	0	0	WM Stimuli\	0.9	1173.88888888889	1	706.3	0.8	993.125	1	684.3	1	1253.8	1	712.8	0.9	886.555555555556	0.9	1071	13	315137	2	315125	27	40	315164	-999999	315140	0	41	TrialsPROC	PL_024_SCENE_10.png	2	2	91	SessionSelectionList														nonlure	3	Place	0-Back	80	80	79	0	0	97	2	39	297091	1	14	72	295052	-1	295715	1	663	3	3	2039	53	297105	-54	0																91												
WM080112	122620_fnca	2	1	1	1346344998	1	75.031	75.030	2.0.10.147	2.0.10.242	2.0.10.242	1.0.0.439	7	234	2	3	Verdana	1	80	0	0	0	WM Stimuli\	0.9	1173.88888888889	1	706.3	0.8	993.125	1	684.3	1	1253.8	1	712.8	0.9	886.555555555556	0.9	1071	13	315137	2	315125	27	40	315164	-999999	315140	0	41	TrialsPROC	PL_022_SCENE_08.png	2	2	92	SessionSelectionList														lure	3	Place	0-Back	80	80	80	0	0	98	3	39	299663	2	14	72	297624	-1	298359	1	735	3	3	2039	53	299677	-54	0																92												
WM080112	122620_fnca	2	1	1	1346344998	1	75.031	75.030	2.0.10.147	2.0.10.242	2.0.10.242	1.0.0.439	7	234	2	3	Verdana	1	80	0	0	0	WM Stimuli\	0.9	1173.88888888889	1	706.3	0.8	993.125	1	684.3	1	1253.8	1	712.8	0.9	886.555555555556	0.9	1071	13	315137	2	315125	27	40	315164	-999999	315140	0	42	Fix15secPROC	""	2	2	93	SessionSelectionList																																															6	300130	-7	0							93												
