ExperimentName	HCPID	RunNumber	Subject	Session	RandomSeed	Group	Laptop.RefreshRate	ScannerD2.RefreshRate	StudioVersion	RuntimeVersion	RuntimeVersionExpected	ExperimentVersion	triggercode	Allowed	Target	Nontarget	FontStyle	RunTrialNumber[Session]	TrialsPerRun[Session]	TotalRespGreater200[Session]	ConsecRTLess200[Session]	ConsecNonResp[Session]	StimuliDir	ACC_2_Back_Body	Avg_RT_For_Correct_Trials_2_Back_Body	ACC_0_Back_Body	Avg_RT_For_Correct_Trials_0_Back_Body	ACC_2_Back_Face	Avg_RT_For_Correct_Trials_2_Back_Face	ACC_0_Back_Face	Avg_RT_For_Correct_Trials_0_Back_Face	ACC_2_Back_Place	Avg_RT_For_Correct_Trials_2_Back_Place	ACC_0_Back_Place	Avg_RT_For_Correct_Trials_0_Back_Place	ACC_2_Back_Tools	Avg_RT_For_Correct_Trials_2_Back_Tools	ACC_0_Back_Tools	Avg_RT_For_Correct_Trials_0_Back_Tools	ExpInstrucFeelFreeToRest.OnsetDelay	ExpInstrucFeelFreeToRest.OnsetTime	ExpInstrucFeelFreeToRest.DurationError	ExpInstrucFeelFreeToRest.StartTime	ExpInstrucFeelFreeToRest.OnsetToOnsetTime	FeelFreeToRest.OnsetDelay	FeelFreeToRest.OnsetTime	FeelFreeToRest.DurationError	FeelFreeToRest.StartTime	FeelFreeToRest.OnsetToOnsetTime	SessionSelectionList	Procedure[Block]	Stimulus[Block]	RunNumberFilterValue	SessionSelectionList.Cycle	SessionSelectionList.Sample	Running[Block]	IntroButtonMap.OnsetDelay	IntroButtonMap.OnsetTime	IntroButtonMap.DurationError	IntroButtonMap.OnsetToOnsetTime	GetReady.OnsetDelay	GetReady.OnsetTime	GetReady.DurationError	GetReady.OnsetToOnsetTime	Cue2Back.OnsetDelay	Cue2Back.OnsetTime	Cue2Back.DurationError	Cue2Back.OnsetToOnsetTime	Run1Block1	TargetType	CorrectResponse	StimType	BlockType	RunTrialNumber[Block]	TrialsPerRun[Block]	TotalRespGreater200[Block]	ConsecRTLess200[Block]	ConsecNonResp[Block]	ControlAcc	ConsecSameResp	ExperimenterWindow.OnsetDelay	ExperimenterWindow.OnsetTime	ExperimenterWindow.DurationError	ExperimenterWindow.OnsetToOnsetTime	Stim.OnsetDelay	Stim.OnsetTime	Stim.DurationError	Stim.RTTime	Stim.ACC	Stim.RT	Stim.RESP	Stim.CRESP	Stim.OnsetToOnsetTime	Fix.OnsetDelay	Fix.OnsetTime	Fix.DurationError	Fix.OnsetToOnsetTime	CueTarget.OnsetDelay	CueTarget.OnsetTime	CueTarget.DurationError	CueTarget.OnsetToOnsetTime	Run1Block2	Fix15sec.OnsetDelay	Fix15sec.OnsetTime	Fix15sec.DurationError	Fix15sec.OnsetToOnsetTime	Run1Block3	Run1Block4	Run1Block5	Run1Block6	Run1Block7	Run1Block8	Block	Procedure[Trial]	Stimulus[Trial]	ReadyList	Running[Trial]	ReadyList.Cycle	ReadyList.Sample	SyncSlide.OnsetDelay	SyncSlide.OnsetTime	SyncSlide.DurationError	SyncSlide.FinishTime	SyncSlide.OnsetToOnsetTime	Trial
WM080112	123925_fnca	2	1	1	-171217156	1	75.031	75.031	2.0.10.147	2.0.10.242	2.0.10.242	1.0.0.439	7	234	2	3	Verdana	1	80	0	0	0	WM Stimuli\	0.9	794.444444444444	1	557.4	0.9	559.555555555556	1	577.7	1	818	1	589.5	1	634.1	0.9	860	13	318448	3	318436	27	40	318475	-999999	318451	0	22	TRSyncPROC	""	2	2	1	SessionSelectionList	100	5163	-999999	0	36	10601	-999999	0																																																	1	InitialTR	4	1	ReadyList	1	1	10	24249	-11	26238	0	1
WM080112	123925_fnca	2	1	1	-171217156	1	75.031	75.031	2.0.10.147	2.0.10.242	2.0.10.242	1.0.0.439	7	234	2	3	Verdana	1	80	0	0	0	WM Stimuli\	0.9	794.444444444444	1	557.4	0.9	559.555555555556	1	577.7	1	818	1	589.5	1	634.1	0.9	860	13	318448	3	318436	27	40	318475	-999999	318451	0	22	TRSyncPROC	""	2	2	1	SessionSelectionList	100	5163	-999999	0	36	10601	-999999	0																																																	1	InitialTR	3	2	ReadyList	1	2	9	26248	-10	28238	0	2
WM080112	123925_fnca	2	1	1	-171217156	1	75.031	75.031	2.0.10.147	2.0.10.242	2.0.10.242	1.0.0.439	7	234	2	3	Verdana	1	80	0	0	0	WM Stimuli\	0.9	794.444444444444	1	557.4	0.9	559.555555555556	1	577.7	1	818	1	589.5	1	634.1	0.9	860	13	318448	3	318436	27	40	318475	-999999	318451	0	22	TRSyncPROC	""	2	2	1	SessionSelectionList	100	5163	-999999	0	36	10601	-999999	0																																																	1	InitialTR	2	3	ReadyList	1	3	8	28247	-9	30238	0	3
WM080112	123925_fnca	2	1	1	-171217156	1	75.031	75.031	2.0.10.147	2.0.10.242	2.0.10.242	1.0.0.439	7	234	2	3	Verdana	1	80	0	0	0	WM Stimuli\	0.9	794.444444444444	1	557.4	0.9	559.555555555556	1	577.7	1	818	1	589.5	1	634.1	0.9	860	13	318448	3	318436	27	40	318475	-999999	318451	0	22	TRSyncPROC	""	2	2	1	SessionSelectionList	100	5163	-999999	0	36	10601	-999999	0																																																	1	InitialTR	1	4	ReadyList	1	4	7	30246	-8	32238	0	4
WM080112	123925_fnca	2	1	1	-171217156	1	75.031	75.031	2.0.10.147	2.0.10.242	2.0.10.242	1.0.0.439	7	234	2	3	Verdana	1	80	0	0	0	WM Stimuli\	0.9	794.444444444444	1	557.4	0.9	559.555555555556	1	577.7	1	818	1	589.5	1	634.1	0.9	860	13	318448	3	318436	27	40	318475	-999999	318451	0	23	Cue2BackPROC	""	2	2	2	SessionSelectionList									6	32245	-7	0																																													2												
WM080112	123925_fnca	2	1	1	-171217156	1	75.031	75.031	2.0.10.147	2.0.10.242	2.0.10.242	1.0.0.439	7	234	2	3	Verdana	1	80	0	0	0	WM Stimuli\	0.9	794.444444444444	1	557.4	0.9	559.555555555556	1	577.7	1	818	1	589.5	1	634.1	0.9	860	13	318448	3	318436	27	40	318475	-999999	318451	0	24	TrialsPROC	TO_014_TOOL14_BA.png	2	2	3	SessionSelectionList														nonlure	3	Tools	2-Back	2	80	1	0	0	0	1	52	36883	3	14	92	34831	-1	35573	1	742	3	3	2052	66	36897	-67	0																3												
WM080112	123925_fnca	2	1	1	-171217156	1	75.031	75.031	2.0.10.147	2.0.10.242	2.0.10.242	1.0.0.439	7	234	2	3	Verdana	1	80	0	0	0	WM Stimuli\	0.9	794.444444444444	1	557.4	0.9	559.555555555556	1	577.7	1	818	1	589.5	1	634.1	0.9	860	13	318448	3	318436	27	40	318475	-999999	318451	0	24	TrialsPROC	TO_013_TOOL13_BA.png	2	2	4	SessionSelectionList														nonlure	3	Tools	2-Back	3	80	2	0	0	0	2	39	39482	3	14	112	37443	-1	37980	1	537	3	3	2039	53	39496	-54	0																4												
WM080112	123925_fnca	2	1	1	-171217156	1	75.031	75.031	2.0.10.147	2.0.10.242	2.0.10.242	1.0.0.439	7	234	2	3	Verdana	1	80	0	0	0	WM Stimuli\	0.9	794.444444444444	1	557.4	0.9	559.555555555556	1	577.7	1	818	1	589.5	1	634.1	0.9	860	13	318448	3	318436	27	40	318475	-999999	318451	0	24	TrialsPROC	TO_016_TOOL16_BA.png	2	2	5	SessionSelectionList														nonlure	3	Tools	2-Back	4	80	3	0	0	0	3	39	42054	2	14	72	40015	-1	40517	1	502	3	3	2039	53	42068	-54	0																5												
WM080112	123925_fnca	2	1	1	-171217156	1	75.031	75.031	2.0.10.147	2.0.10.242	2.0.10.242	1.0.0.439	7	234	2	3	Verdana	1	80	0	0	0	WM Stimuli\	0.9	794.444444444444	1	557.4	0.9	559.555555555556	1	577.7	1	818	1	589.5	1	634.1	0.9	860	13	318448	3	318436	27	40	318475	-999999	318451	0	24	TrialsPROC	TO_014_TOOL14_BA.png	2	2	6	SessionSelectionList														lure	3	Tools	2-Back	5	80	4	0	0	0	4	39	44627	1	13	73	42588	-1	43476	1	888	3	3	2039	52	44640	-53	0																6												
WM080112	123925_fnca	2	1	1	-171217156	1	75.031	75.031	2.0.10.147	2.0.10.242	2.0.10.242	1.0.0.439	7	234	2	3	Verdana	1	80	0	0	0	WM Stimuli\	0.9	794.444444444444	1	557.4	0.9	559.555555555556	1	577.7	1	818	1	589.5	1	634.1	0.9	860	13	318448	3	318436	27	40	318475	-999999	318451	0	24	TrialsPROC	TO_016_TOOL16_BA.png	2	2	7	SessionSelectionList														target	2	Tools	2-Back	6	80	5	0	0	0	1	39	47186	1	13	59	45147	-1	45958	1	811	2	2	2039	52	47199	-53	0																7												
WM080112	123925_fnca	2	1	1	-171217156	1	75.031	75.031	2.0.10.147	2.0.10.242	2.0.10.242	1.0.0.439	7	234	2	3	Verdana	1	80	0	0	0	WM Stimuli\	0.9	794.444444444444	1	557.4	0.9	559.555555555556	1	577.7	1	818	1	589.5	1	634.1	0.9	860	13	318448	3	318436	27	40	318475	-999999	318451	0	24	TrialsPROC	TO_018_TOOL18_BA.png	2	2	8	SessionSelectionList														nonlure	3	Tools	2-Back	7	80	6	0	0	0	1	39	49771	2	14	85	47732	-1	48357	1	625	3	3	2039	53	49785	-54	0																8												
WM080112	123925_fnca	2	1	1	-171217156	1	75.031	75.031	2.0.10.147	2.0.10.242	2.0.10.242	1.0.0.439	7	234	2	3	Verdana	1	80	0	0	0	WM Stimuli\	0.9	794.444444444444	1	557.4	0.9	559.555555555556	1	577.7	1	818	1	589.5	1	634.1	0.9	860	13	318448	3	318436	27	40	318475	-999999	318451	0	24	TrialsPROC	TO_017_TOOL17_BA.png	2	2	9	SessionSelectionList														nonlure	3	Tools	2-Back	8	80	7	0	0	0	2	39	52357	1	14	86	50318	-1	50815	1	497	3	3	2039	53	52371	-54	0																9												
WM080112	123925_fnca	2	1	1	-171217156	1	75.031	75.031	2.0.10.147	2.0.10.242	2.0.10.242	1.0.0.439	7	234	2	3	Verdana	1	80	0	0	0	WM Stimuli\	0.9	794.444444444444	1	557.4	0.9	559.555555555556	1	577.7	1	818	1	589.5	1	634.1	0.9	860	13	318448	3	318436	27	40	318475	-999999	318451	0	24	TrialsPROC	TO_018_TOOL18_BA.png	2	2	10	SessionSelectionList														target	2	Tools	2-Back	9	80	8	0	0	0	1	39	54916	1	14	59	52877	-1	53607	1	730	2	2	2039	53	54930	-54	0																10												
WM080112	123925_fnca	2	1	1	-171217156	1	75.031	75.031	2.0.10.147	2.0.10.242	2.0.10.242	1.0.0.439	7	234	2	3	Verdana	1	80	0	0	0	WM Stimuli\	0.9	794.444444444444	1	557.4	0.9	559.555555555556	1	577.7	1	818	1	589.5	1	634.1	0.9	860	13	318448	3	318436	27	40	318475	-999999	318451	0	24	TrialsPROC	TO_015_TOOL15_BA.png	2	2	11	SessionSelectionList														nonlure	3	Tools	2-Back	10	80	9	0	0	0	1	39	57501	2	14	85	55462	-1	55946	1	484	3	3	2039	53	57515	-54	0																11												
WM080112	123925_fnca	2	1	1	-171217156	1	75.031	75.031	2.0.10.147	2.0.10.242	2.0.10.242	1.0.0.439	7	234	2	3	Verdana	1	80	0	0	0	WM Stimuli\	0.9	794.444444444444	1	557.4	0.9	559.555555555556	1	577.7	1	818	1	589.5	1	634.1	0.9	860	13	318448	3	318436	27	40	318475	-999999	318451	0	24	TrialsPROC	TO_017_TOOL17_BA.png	2	2	12	SessionSelectionList														lure	3	Tools	2-Back	11	80	10	0	0	0	2	39	60060	2	14	59	58021	-1	58546	1	525	3	3	2039	53	60074	-54	0																12												
WM080112	123925_fnca	2	1	1	-171217156	1	75.031	75.031	2.0.10.147	2.0.10.242	2.0.10.242	1.0.0.439	7	234	2	3	Verdana	1	80	0	0	0	WM Stimuli\	0.9	794.444444444444	1	557.4	0.9	559.555555555556	1	577.7	1	818	1	589.5	1	634.1	0.9	860	13	318448	3	318436	27	40	318475	-999999	318451	0	25	Cue0BackPROC	BP_013_BP7_BA.png	2	2	13	SessionSelectionList																																										33	60554	-34	0												13												
WM080112	123925_fnca	2	1	1	-171217156	1	75.031	75.031	2.0.10.147	2.0.10.242	2.0.10.242	1.0.0.439	7	234	2	3	Verdana	1	80	0	0	0	WM Stimuli\	0.9	794.444444444444	1	557.4	0.9	559.555555555556	1	577.7	1	818	1	589.5	1	634.1	0.9	860	13	318448	3	318436	27	40	318475	-999999	318451	0	26	TrialsPROC	BP_015_H10-T_BA.png	2	2	14	SessionSelectionList														nonlure	3	Body	0-Back	12	80	11	0	0	100	3	39	65138	2	14	78	63099	-1	63746	1	647	3	3	2039	53	65152	-54	0																14												
WM080112	123925_fnca	2	1	1	-171217156	1	75.031	75.031	2.0.10.147	2.0.10.242	2.0.10.242	1.0.0.439	7	234	2	3	Verdana	1	80	0	0	0	WM Stimuli\	0.9	794.444444444444	1	557.4	0.9	559.555555555556	1	577.7	1	818	1	589.5	1	634.1	0.9	860	13	318448	3	318436	27	40	318475	-999999	318451	0	26	TrialsPROC	BP_018_H13-T_BA.png	2	2	15	SessionSelectionList														nonlure	3	Body	0-Back	13	80	12	0	0	100	4	39	67724	1	14	86	65685	-1	66222	1	537	3	3	2039	53	67738	-54	0																15												
WM080112	123925_fnca	2	1	1	-171217156	1	75.031	75.031	2.0.10.147	2.0.10.242	2.0.10.242	1.0.0.439	7	234	2	3	Verdana	1	80	0	0	0	WM Stimuli\	0.9	794.444444444444	1	557.4	0.9	559.555555555556	1	577.7	1	818	1	589.5	1	634.1	0.9	860	13	318448	3	318436	27	40	318475	-999999	318451	0	26	TrialsPROC	BP_014_BP9_BA.png	2	2	16	SessionSelectionList														nonlure	3	Body	0-Back	14	80	13	0	0	100	5	39	70296	2	14	72	68257	-1	68829	1	572	3	3	2039	53	70310	-54	0																16												
WM080112	123925_fnca	2	1	1	-171217156	1	75.031	75.031	2.0.10.147	2.0.10.242	2.0.10.242	1.0.0.439	7	234	2	3	Verdana	1	80	0	0	0	WM Stimuli\	0.9	794.444444444444	1	557.4	0.9	559.555555555556	1	577.7	1	818	1	589.5	1	634.1	0.9	860	13	318448	3	318436	27	40	318475	-999999	318451	0	26	TrialsPROC	BP_018_H13-T_BA.png	2	2	17	SessionSelectionList														lure	3	Body	0-Back	15	80	14	0	0	100	6	39	72855	2	14	59	70816	-1	71311	1	495	3	3	2039	53	72869	-54	0																17												
WM080112	123925_fnca	2	1	1	-171217156	1	75.031	75.031	2.0.10.147	2.0.10.242	2.0.10.242	1.0.0.439	7	234	2	3	Verdana	1	80	0	0	0	WM Stimuli\	0.9	794.444444444444	1	557.4	0.9	559.555555555556	1	577.7	1	818	1	589.5	1	634.1	0.9	860	13	318448	3	318436	27	40	318475	-999999	318451	0	26	TrialsPROC	BP_013_BP7_BA.png	2	2	18	SessionSelectionList														target	2	Body	0-Back	16	80	15	0	0	100	1	39	75414	2	14	59	73375	-1	73834	1	459	2	2	2039	53	75428	-54	0																18												
WM080112	123925_fnca	2	1	1	-171217156	1	75.031	75.031	2.0.10.147	2.0.10.242	2.0.10.242	1.0.0.439	7	234	2	3	Verdana	1	80	0	0	0	WM Stimuli\	0.9	794.444444444444	1	557.4	0.9	559.555555555556	1	577.7	1	818	1	589.5	1	634.1	0.9	860	13	318448	3	318436	27	40	318475	-999999	318451	0	26	TrialsPROC	BP_015_H10-T_BA.png	2	2	19	SessionSelectionList														lure	3	Body	0-Back	17	80	16	0	0	100	1	39	77973	1	14	59	75934	-1	76398	1	464	3	3	2039	53	77987	-54	0																19												
WM080112	123925_fnca	2	1	1	-171217156	1	75.031	75.031	2.0.10.147	2.0.10.242	2.0.10.242	1.0.0.439	7	234	2	3	Verdana	1	80	0	0	0	WM Stimuli\	0.9	794.444444444444	1	557.4	0.9	559.555555555556	1	577.7	1	818	1	589.5	1	634.1	0.9	860	13	318448	3	318436	27	40	318475	-999999	318451	0	26	TrialsPROC	BP_016_H11-T_BA.png	2	2	20	SessionSelectionList														nonlure	3	Body	0-Back	18	80	17	0	0	100	2	39	80559	1	13	86	78520	-1	79142	1	622	3	3	2039	52	80572	-53	0																20												
WM080112	123925_fnca	2	1	1	-171217156	1	75.031	75.031	2.0.10.147	2.0.10.242	2.0.10.242	1.0.0.439	7	234	2	3	Verdana	1	80	0	0	0	WM Stimuli\	0.9	794.444444444444	1	557.4	0.9	559.555555555556	1	577.7	1	818	1	589.5	1	634.1	0.9	860	13	318448	3	318436	27	40	318475	-999999	318451	0	26	TrialsPROC	BP_013_BP7_BA.png	2	2	21	SessionSelectionList														target	2	Body	0-Back	19	80	18	0	0	100	1	39	83118	1	13	59	81079	-1	81716	1	637	2	2	2039	52	83131	-53	0																21												
WM080112	123925_fnca	2	1	1	-171217156	1	75.031	75.031	2.0.10.147	2.0.10.242	2.0.10.242	1.0.0.439	7	234	2	3	Verdana	1	80	0	0	0	WM Stimuli\	0.9	794.444444444444	1	557.4	0.9	559.555555555556	1	577.7	1	818	1	589.5	1	634.1	0.9	860	13	318448	3	318436	27	40	318475	-999999	318451	0	26	TrialsPROC	BP_017_H12-T_BA.png	2	2	22	SessionSelectionList														nonlure	3	Body	0-Back	20	80	19	0	0	100	1	39	85703	2	14	85	83664	-1	84122	1	458	3	3	2039	53	85717	-54	0																22												
WM080112	123925_fnca	2	1	1	-171217156	1	75.031	75.031	2.0.10.147	2.0.10.242	2.0.10.242	1.0.0.439	7	234	2	3	Verdana	1	80	0	0	0	WM Stimuli\	0.9	794.444444444444	1	557.4	0.9	559.555555555556	1	577.7	1	818	1	589.5	1	634.1	0.9	860	13	318448	3	318436	27	40	318475	-999999	318451	0	26	TrialsPROC	BP_014_BP9_BA.png	2	2	23	SessionSelectionList														lure	3	Body	0-Back	21	80	20	0	0	100	2	39	88262	2	14	59	86223	-1	86906	1	683	3	3	2039	53	88276	-54	0																23												
WM080112	123925_fnca	2	1	1	-171217156	1	75.031	75.031	2.0.10.147	2.0.10.242	2.0.10.242	1.0.0.439	7	234	2	3	Verdana	1	80	0	0	0	WM Stimuli\	0.9	794.444444444444	1	557.4	0.9	559.555555555556	1	577.7	1	818	1	589.5	1	634.1	0.9	860	13	318448	3	318436	27	40	318475	-999999	318451	0	27	Fix15secPROC	""	2	2	24	SessionSelectionList																																															6	88729	-7	0							24												
WM080112	123925_fnca	2	1	1	-171217156	1	75.031	75.031	2.0.10.147	2.0.10.242	2.0.10.242	1.0.0.439	7	234	2	3	Verdana	1	80	0	0	0	WM Stimuli\	0.9	794.444444444444	1	557.4	0.9	559.555555555556	1	577.7	1	818	1	589.5	1	634.1	0.9	860	13	318448	3	318436	27	40	318475	-999999	318451	0	28	Cue2BackPROC	""	2	2	25	SessionSelectionList									13	103736	-14	0																																													25												
WM080112	123925_fnca	2	1	1	-171217156	1	75.031	75.031	2.0.10.147	2.0.10.242	2.0.10.242	1.0.0.439	7	234	2	3	Verdana	1	80	0	0	0	WM Stimuli\	0.9	794.444444444444	1	557.4	0.9	559.555555555556	1	577.7	1	818	1	589.5	1	634.1	0.9	860	13	318448	3	318436	27	40	318475	-999999	318451	0	29	TrialsPROC	FC_015_M8.png	2	2	26	SessionSelectionList														nonlure	3	Face	2-Back	22	80	21	0	0	100	3	39	108334	1	14	72	106295	-1	107118	1	823	3	3	2039	53	108348	-54	0																26												
WM080112	123925_fnca	2	1	1	-171217156	1	75.031	75.031	2.0.10.147	2.0.10.242	2.0.10.242	1.0.0.439	7	234	2	3	Verdana	1	80	0	0	0	WM Stimuli\	0.9	794.444444444444	1	557.4	0.9	559.555555555556	1	577.7	1	818	1	589.5	1	634.1	0.9	860	13	318448	3	318436	27	40	318475	-999999	318451	0	29	TrialsPROC	FC_018_F9.png	2	2	27	SessionSelectionList														nonlure	3	Face	2-Back	23	80	22	0	0	100	4	40	110920	1	13	85	108880	-1	109399	1	519	3	3	2040	53	110933	-54	0																27												
WM080112	123925_fnca	2	1	1	-171217156	1	75.031	75.031	2.0.10.147	2.0.10.242	2.0.10.242	1.0.0.439	7	234	2	3	Verdana	1	80	0	0	0	WM Stimuli\	0.9	794.444444444444	1	557.4	0.9	559.555555555556	1	577.7	1	818	1	589.5	1	634.1	0.9	860	13	318448	3	318436	27	40	318475	-999999	318451	0	29	TrialsPROC	FC_018_F9.png	2	2	28	SessionSelectionList														lure	3	Face	2-Back	24	80	23	0	0	100	5	39	113492	1	14	73	111453	-1	111965	1	512	3	3	2039	53	113506	-54	0																28												
WM080112	123925_fnca	2	1	1	-171217156	1	75.031	75.031	2.0.10.147	2.0.10.242	2.0.10.242	1.0.0.439	7	234	2	3	Verdana	1	80	0	0	0	WM Stimuli\	0.9	794.444444444444	1	557.4	0.9	559.555555555556	1	577.7	1	818	1	589.5	1	634.1	0.9	860	13	318448	3	318436	27	40	318475	-999999	318451	0	29	TrialsPROC	FC_017_M9.png	2	2	29	SessionSelectionList														nonlure	3	Face	2-Back	25	80	24	0	0	100	6	39	116091	1	14	99	114052	-1	114545	1	493	3	3	2039	53	116105	-54	0																29												
WM080112	123925_fnca	2	1	1	-171217156	1	75.031	75.031	2.0.10.147	2.0.10.242	2.0.10.242	1.0.0.439	7	234	2	3	Verdana	1	80	0	0	0	WM Stimuli\	0.9	794.444444444444	1	557.4	0.9	559.555555555556	1	577.7	1	818	1	589.5	1	634.1	0.9	860	13	318448	3	318436	27	40	318475	-999999	318451	0	29	TrialsPROC	FC_017_M9.png	2	2	30	SessionSelectionList														lure	3	Face	2-Back	26	80	25	0	0	100	7	39	118663	2	14	72	116624	-1	117176	1	552	3	3	2039	53	118677	-54	0																30												
WM080112	123925_fnca	2	1	1	-171217156	1	75.031	75.031	2.0.10.147	2.0.10.242	2.0.10.242	1.0.0.439	7	234	2	3	Verdana	1	80	0	0	0	WM Stimuli\	0.9	794.444444444444	1	557.4	0.9	559.555555555556	1	577.7	1	818	1	589.5	1	634.1	0.9	860	13	318448	3	318436	27	40	318475	-999999	318451	0	29	TrialsPROC	FC_016_F8.png	2	2	31	SessionSelectionList														nonlure	3	Face	2-Back	27	80	26	0	0	100	8	39	121249	1	13	86	119210	-1	119752	1	542	3	3	2039	52	121262	-53	0																31												
WM080112	123925_fnca	2	1	1	-171217156	1	75.031	75.031	2.0.10.147	2.0.10.242	2.0.10.242	1.0.0.439	7	234	2	3	Verdana	1	80	0	0	0	WM Stimuli\	0.9	794.444444444444	1	557.4	0.9	559.555555555556	1	577.7	1	818	1	589.5	1	634.1	0.9	860	13	318448	3	318436	27	40	318475	-999999	318451	0	29	TrialsPROC	FC_013_M7.png	2	2	32	SessionSelectionList														nonlure	3	Face	2-Back	28	80	27	0	0	100	9	39	123834	2	14	85	121795	-1	122302	1	507	3	3	2039	53	123848	-54	0																32												
WM080112	123925_fnca	2	1	1	-171217156	1	75.031	75.031	2.0.10.147	2.0.10.242	2.0.10.242	1.0.0.439	7	234	2	3	Verdana	1	80	0	0	0	WM Stimuli\	0.9	794.444444444444	1	557.4	0.9	559.555555555556	1	577.7	1	818	1	589.5	1	634.1	0.9	860	13	318448	3	318436	27	40	318475	-999999	318451	0	29	TrialsPROC	FC_014_F7.png	2	2	33	SessionSelectionList														nonlure	3	Face	2-Back	29	80	28	0	0	100	10	39	126420	1	14	86	124381	-1	124839	1	458	3	3	2039	53	126434	-54	0																33												
WM080112	123925_fnca	2	1	1	-171217156	1	75.031	75.031	2.0.10.147	2.0.10.242	2.0.10.242	1.0.0.439	7	234	2	3	Verdana	1	80	0	0	0	WM Stimuli\	0.9	794.444444444444	1	557.4	0.9	559.555555555556	1	577.7	1	818	1	589.5	1	634.1	0.9	860	13	318448	3	318436	27	40	318475	-999999	318451	0	29	TrialsPROC	FC_013_M7.png	2	2	34	SessionSelectionList														target	2	Face	2-Back	30	80	29	0	0	100	1	39	128992	3	14	72	126953	-1	127583	1	630	2	2	2039	53	129006	-54	0																34												
WM080112	123925_fnca	2	1	1	-171217156	1	75.031	75.031	2.0.10.147	2.0.10.242	2.0.10.242	1.0.0.439	7	234	2	3	Verdana	1	80	0	0	0	WM Stimuli\	0.9	794.444444444444	1	557.4	0.9	559.555555555556	1	577.7	1	818	1	589.5	1	634.1	0.9	860	13	318448	3	318436	27	40	318475	-999999	318451	0	29	TrialsPROC	FC_014_F7.png	2	2	35	SessionSelectionList														target	2	Face	2-Back	31	80	30	0	0	100	1	40	131565	1	13	72	129525	-1	130250	0	725	3	2	2040	53	131578	-54	0																35												
WM080112	123925_fnca	2	1	1	-171217156	1	75.031	75.031	2.0.10.147	2.0.10.242	2.0.10.242	1.0.0.439	7	234	2	3	Verdana	1	80	0	0	0	WM Stimuli\	0.9	794.444444444444	1	557.4	0.9	559.555555555556	1	577.7	1	818	1	589.5	1	634.1	0.9	860	13	318448	3	318436	27	40	318475	-999999	318451	0	30	Cue0BackPROC	TO_019_TOOL19_BA.png	2	2	36	SessionSelectionList																																										33	132058	-34	0												36												
WM080112	123925_fnca	2	1	1	-171217156	1	75.031	75.031	2.0.10.147	2.0.10.242	2.0.10.242	1.0.0.439	7	234	2	3	Verdana	1	80	0	0	0	WM Stimuli\	0.9	794.444444444444	1	557.4	0.9	559.555555555556	1	577.7	1	818	1	589.5	1	634.1	0.9	860	13	318448	3	318436	27	40	318475	-999999	318451	0	31	TrialsPROC	TO_019_TOOL19_BA.png	2	2	37	SessionSelectionList														target	2	Tools	0-Back	32	80	31	0	0	91	2	39	136616	1	14	52	134577	-1	135844	0	1267	3	2	2039	53	136630	-54	0																37												
WM080112	123925_fnca	2	1	1	-171217156	1	75.031	75.031	2.0.10.147	2.0.10.242	2.0.10.242	1.0.0.439	7	234	2	3	Verdana	1	80	0	0	0	WM Stimuli\	0.9	794.444444444444	1	557.4	0.9	559.555555555556	1	577.7	1	818	1	589.5	1	634.1	0.9	860	13	318448	3	318436	27	40	318475	-999999	318451	0	31	TrialsPROC	TO_024_TOOL24_BA.png	2	2	38	SessionSelectionList														nonlure	3	Tools	0-Back	33	80	32	0	0	92	3	39	139201	2	14	85	137162	-1	138661	1	1499	3	3	2039	53	139215	-54	0																38												
WM080112	123925_fnca	2	1	1	-171217156	1	75.031	75.031	2.0.10.147	2.0.10.242	2.0.10.242	1.0.0.439	7	234	2	3	Verdana	1	80	0	0	0	WM Stimuli\	0.9	794.444444444444	1	557.4	0.9	559.555555555556	1	577.7	1	818	1	589.5	1	634.1	0.9	860	13	318448	3	318436	27	40	318475	-999999	318451	0	31	TrialsPROC	TO_019_TOOL19_BA.png	2	2	39	SessionSelectionList														target	2	Tools	0-Back	34	80	33	0	0	92	1	39	141760	2	14	59	139721	-1	140575	1	854	2	2	2039	53	141774	-54	0																39												
WM080112	123925_fnca	2	1	1	-171217156	1	75.031	75.031	2.0.10.147	2.0.10.242	2.0.10.242	1.0.0.439	7	234	2	3	Verdana	1	80	0	0	0	WM Stimuli\	0.9	794.444444444444	1	557.4	0.9	559.555555555556	1	577.7	1	818	1	589.5	1	634.1	0.9	860	13	318448	3	318436	27	40	318475	-999999	318451	0	31	TrialsPROC	TO_023_TOOL23_BA.png	2	2	40	SessionSelectionList														nonlure	3	Tools	0-Back	35	80	34	0	0	93	1	39	144346	1	14	86	142307	-1	143185	1	878	3	3	2039	53	144360	-54	0																40												
WM080112	123925_fnca	2	1	1	-171217156	1	75.031	75.031	2.0.10.147	2.0.10.242	2.0.10.242	1.0.0.439	7	234	2	3	Verdana	1	80	0	0	0	WM Stimuli\	0.9	794.444444444444	1	557.4	0.9	559.555555555556	1	577.7	1	818	1	589.5	1	634.1	0.9	860	13	318448	3	318436	27	40	318475	-999999	318451	0	31	TrialsPROC	TO_020_TOOL20_BA.png	2	2	41	SessionSelectionList														nonlure	3	Tools	0-Back	36	80	35	0	0	93	2	39	146918	2	14	72	144879	-1	145637	1	758	3	3	2039	53	146932	-54	0																41												
WM080112	123925_fnca	2	1	1	-171217156	1	75.031	75.031	2.0.10.147	2.0.10.242	2.0.10.242	1.0.0.439	7	234	2	3	Verdana	1	80	0	0	0	WM Stimuli\	0.9	794.444444444444	1	557.4	0.9	559.555555555556	1	577.7	1	818	1	589.5	1	634.1	0.9	860	13	318448	3	318436	27	40	318475	-999999	318451	0	31	TrialsPROC	TO_020_TOOL20_BA.png	2	2	42	SessionSelectionList														lure	3	Tools	0-Back	37	80	36	0	0	94	3	39	149477	2	14	59	147438	-1	148096	1	658	3	3	2039	53	149491	-54	0																42												
WM080112	123925_fnca	2	1	1	-171217156	1	75.031	75.031	2.0.10.147	2.0.10.242	2.0.10.242	1.0.0.439	7	234	2	3	Verdana	1	80	0	0	0	WM Stimuli\	0.9	794.444444444444	1	557.4	0.9	559.555555555556	1	577.7	1	818	1	589.5	1	634.1	0.9	860	13	318448	3	318436	27	40	318475	-999999	318451	0	31	TrialsPROC	TO_022_TOOL22_BA.png	2	2	43	SessionSelectionList														nonlure	3	Tools	0-Back	38	80	37	0	0	94	4	39	152063	1	14	86	150024	-1	150741	1	717	3	3	2039	53	152077	-54	0																43												
WM080112	123925_fnca	2	1	1	-171217156	1	75.031	75.031	2.0.10.147	2.0.10.242	2.0.10.242	1.0.0.439	7	234	2	3	Verdana	1	80	0	0	0	WM Stimuli\	0.9	794.444444444444	1	557.4	0.9	559.555555555556	1	577.7	1	818	1	589.5	1	634.1	0.9	860	13	318448	3	318436	27	40	318475	-999999	318451	0	31	TrialsPROC	TO_022_TOOL22_BA.png	2	2	44	SessionSelectionList														lure	3	Tools	0-Back	39	80	38	0	0	94	5	39	154622	1	13	59	152583	-1	153208	1	625	3	3	2039	52	154635	-53	0																44												
WM080112	123925_fnca	2	1	1	-171217156	1	75.031	75.031	2.0.10.147	2.0.10.242	2.0.10.242	1.0.0.439	7	234	2	3	Verdana	1	80	0	0	0	WM Stimuli\	0.9	794.444444444444	1	557.4	0.9	559.555555555556	1	577.7	1	818	1	589.5	1	634.1	0.9	860	13	318448	3	318436	27	40	318475	-999999	318451	0	31	TrialsPROC	TO_021_TOOL21_BA.png	2	2	45	SessionSelectionList														nonlure	3	Tools	0-Back	40	80	39	0	0	95	6	39	157207	2	14	85	155168	-1	156179	1	1011	3	3	2039	53	157221	-54	0																45												
WM080112	123925_fnca	2	1	1	-171217156	1	75.031	75.031	2.0.10.147	2.0.10.242	2.0.10.242	1.0.0.439	7	234	2	3	Verdana	1	80	0	0	0	WM Stimuli\	0.9	794.444444444444	1	557.4	0.9	559.555555555556	1	577.7	1	818	1	589.5	1	634.1	0.9	860	13	318448	3	318436	27	40	318475	-999999	318451	0	31	TrialsPROC	TO_021_TOOL21_BA.png	2	2	46	SessionSelectionList														lure	3	Tools	0-Back	41	80	40	0	0	95	7	39	159766	2	14	59	157727	-1	158467	1	740	3	3	2039	53	159780	-54	0																46												
WM080112	123925_fnca	2	1	1	-171217156	1	75.031	75.031	2.0.10.147	2.0.10.242	2.0.10.242	1.0.0.439	7	234	2	3	Verdana	1	80	0	0	0	WM Stimuli\	0.9	794.444444444444	1	557.4	0.9	559.555555555556	1	577.7	1	818	1	589.5	1	634.1	0.9	860	13	318448	3	318436	27	40	318475	-999999	318451	0	32	Fix15secPROC	""	2	2	47	SessionSelectionList																																															6	160233	-7	0							47												
WM080112	123925_fnca	2	1	1	-171217156	1	75.031	75.031	2.0.10.147	2.0.10.242	2.0.10.242	1.0.0.439	7	234	2	3	Verdana	1	80	0	0	0	WM Stimuli\	0.9	794.444444444444	1	557.4	0.9	559.555555555556	1	577.7	1	818	1	589.5	1	634.1	0.9	860	13	318448	3	318436	27	40	318475	-999999	318451	0	33	Cue2BackPROC	""	2	2	48	SessionSelectionList									13	175240	-14	0																																													48												
WM080112	123925_fnca	2	1	1	-171217156	1	75.031	75.031	2.0.10.147	2.0.10.242	2.0.10.242	1.0.0.439	7	234	2	3	Verdana	1	80	0	0	0	WM Stimuli\	0.9	794.444444444444	1	557.4	0.9	559.555555555556	1	577.7	1	818	1	589.5	1	634.1	0.9	860	13	318448	3	318436	27	40	318475	-999999	318451	0	34	TrialsPROC	BP_020_H17-T_BA.png	2	2	49	SessionSelectionList														nonlure	3	Body	2-Back	42	80	41	0	0	95	8	39	179865	1	13	99	177826	-1	178696	1	870	3	3	2039	52	179878	-53	0																49												
WM080112	123925_fnca	2	1	1	-171217156	1	75.031	75.031	2.0.10.147	2.0.10.242	2.0.10.242	1.0.0.439	7	234	2	3	Verdana	1	80	0	0	0	WM Stimuli\	0.9	794.444444444444	1	557.4	0.9	559.555555555556	1	577.7	1	818	1	589.5	1	634.1	0.9	860	13	318448	3	318436	27	40	318475	-999999	318451	0	34	TrialsPROC	BP_019_H14-T_BA.png	2	2	50	SessionSelectionList														nonlure	3	Body	2-Back	43	80	42	0	0	95	9	39	182450	2	14	85	180411	-1	181114	1	703	3	3	2039	53	182464	-54	0																50												
WM080112	123925_fnca	2	1	1	-171217156	1	75.031	75.031	2.0.10.147	2.0.10.242	2.0.10.242	1.0.0.439	7	234	2	3	Verdana	1	80	0	0	0	WM Stimuli\	0.9	794.444444444444	1	557.4	0.9	559.555555555556	1	577.7	1	818	1	589.5	1	634.1	0.9	860	13	318448	3	318436	27	40	318475	-999999	318451	0	34	TrialsPROC	BP_020_H17-T_BA.png	2	2	51	SessionSelectionList														target	2	Body	2-Back	44	80	43	0	0	95	1	38	185009	2	14	60	182971	-1	183683	1	712	2	2	2038	52	185023	-53	0																51												
WM080112	123925_fnca	2	1	1	-171217156	1	75.031	75.031	2.0.10.147	2.0.10.242	2.0.10.242	1.0.0.439	7	234	2	3	Verdana	1	80	0	0	0	WM Stimuli\	0.9	794.444444444444	1	557.4	0.9	559.555555555556	1	577.7	1	818	1	589.5	1	634.1	0.9	860	13	318448	3	318436	27	40	318475	-999999	318451	0	34	TrialsPROC	BP_019_H14-T_BA.png	2	2	52	SessionSelectionList														target	2	Body	2-Back	45	80	44	0	0	95	2	40	187582	1	13	71	185542	-1	186293	1	751	2	2	2040	53	187595	-54	0																52												
WM080112	123925_fnca	2	1	1	-171217156	1	75.031	75.031	2.0.10.147	2.0.10.242	2.0.10.242	1.0.0.439	7	234	2	3	Verdana	1	80	0	0	0	WM Stimuli\	0.9	794.444444444444	1	557.4	0.9	559.555555555556	1	577.7	1	818	1	589.5	1	634.1	0.9	860	13	318448	3	318436	27	40	318475	-999999	318451	0	34	TrialsPROC	BP_024_H3-T_BA.png	2	2	53	SessionSelectionList														nonlure	3	Body	2-Back	46	80	45	0	0	95	1	39	190167	2	14	86	188128	-1	188983	1	855	3	3	2039	53	190181	-54	0																53												
WM080112	123925_fnca	2	1	1	-171217156	1	75.031	75.031	2.0.10.147	2.0.10.242	2.0.10.242	1.0.0.439	7	234	2	3	Verdana	1	80	0	0	0	WM Stimuli\	0.9	794.444444444444	1	557.4	0.9	559.555555555556	1	577.7	1	818	1	589.5	1	634.1	0.9	860	13	318448	3	318436	27	40	318475	-999999	318451	0	34	TrialsPROC	BP_024_H3-T_BA.png	2	2	54	SessionSelectionList														lure	3	Body	2-Back	47	80	46	0	0	95	2	39	192726	2	14	59	190687	-1	191742	1	1055	3	3	2039	53	192740	-54	0																54												
WM080112	123925_fnca	2	1	1	-171217156	1	75.031	75.031	2.0.10.147	2.0.10.242	2.0.10.242	1.0.0.439	7	234	2	3	Verdana	1	80	0	0	0	WM Stimuli\	0.9	794.444444444444	1	557.4	0.9	559.555555555556	1	577.7	1	818	1	589.5	1	634.1	0.9	860	13	318448	3	318436	27	40	318475	-999999	318451	0	34	TrialsPROC	BP_025_H5-T_BA.png	2	2	55	SessionSelectionList														nonlure	3	Body	2-Back	48	80	47	0	0	95	3	39	195312	1	14	86	193273	-1	194243	1	970	3	3	2039	53	195326	-54	0																55												
WM080112	123925_fnca	2	1	1	-171217156	1	75.031	75.031	2.0.10.147	2.0.10.242	2.0.10.242	1.0.0.439	7	234	2	3	Verdana	1	80	0	0	0	WM Stimuli\	0.9	794.444444444444	1	557.4	0.9	559.555555555556	1	577.7	1	818	1	589.5	1	634.1	0.9	860	13	318448	3	318436	27	40	318475	-999999	318451	0	34	TrialsPROC	BP_023_H25-T_BA.png	2	2	56	SessionSelectionList														nonlure	3	Body	2-Back	49	80	48	0	0	95	1	39	197897	2	14	85	195858	-1	196538	0	680	2	3	2039	53	197911	-54	0																56												
WM080112	123925_fnca	2	1	1	-171217156	1	75.031	75.031	2.0.10.147	2.0.10.242	2.0.10.242	1.0.0.439	7	234	2	3	Verdana	1	80	0	0	0	WM Stimuli\	0.9	794.444444444444	1	557.4	0.9	559.555555555556	1	577.7	1	818	1	589.5	1	634.1	0.9	860	13	318448	3	318436	27	40	318475	-999999	318451	0	34	TrialsPROC	BP_022_H24-T_BA.png	2	2	57	SessionSelectionList														nonlure	3	Body	2-Back	50	80	49	0	0	95	1	39	200483	1	14	86	198444	-1	199051	1	607	3	3	2039	53	200497	-54	0																57												
WM080112	123925_fnca	2	1	1	-171217156	1	75.031	75.031	2.0.10.147	2.0.10.242	2.0.10.242	1.0.0.439	7	234	2	3	Verdana	1	80	0	0	0	WM Stimuli\	0.9	794.444444444444	1	557.4	0.9	559.555555555556	1	577.7	1	818	1	589.5	1	634.1	0.9	860	13	318448	3	318436	27	40	318475	-999999	318451	0	34	TrialsPROC	BP_022_H24-T_BA.png	2	2	58	SessionSelectionList														lure	3	Body	2-Back	51	80	50	0	0	95	2	39	203042	1	14	59	201003	-1	201630	1	627	3	3	2039	53	203056	-54	0																58												
WM080112	123925_fnca	2	1	1	-171217156	1	75.031	75.031	2.0.10.147	2.0.10.242	2.0.10.242	1.0.0.439	7	234	2	3	Verdana	1	80	0	0	0	WM Stimuli\	0.9	794.444444444444	1	557.4	0.9	559.555555555556	1	577.7	1	818	1	589.5	1	634.1	0.9	860	13	318448	3	318436	27	40	318475	-999999	318451	0	35	Cue2BackPROC	""	2	2	59	SessionSelectionList									5	203508	-6	0																																													59												
WM080112	123925_fnca	2	1	1	-171217156	1	75.031	75.031	2.0.10.147	2.0.10.242	2.0.10.242	1.0.0.439	7	234	2	3	Verdana	1	80	0	0	0	WM Stimuli\	0.9	794.444444444444	1	557.4	0.9	559.555555555556	1	577.7	1	818	1	589.5	1	634.1	0.9	860	13	318448	3	318436	27	40	318475	-999999	318451	0	36	TrialsPROC	PL_019_SCENE_05.png	2	2	60	SessionSelectionList														nonlure	3	Place	2-Back	52	80	51	0	0	95	3	39	208133	2	14	91	206094	-1	207201	1	1107	3	3	2039	53	208147	-54	0																60												
WM080112	123925_fnca	2	1	1	-171217156	1	75.031	75.031	2.0.10.147	2.0.10.242	2.0.10.242	1.0.0.439	7	234	2	3	Verdana	1	80	0	0	0	WM Stimuli\	0.9	794.444444444444	1	557.4	0.9	559.555555555556	1	577.7	1	818	1	589.5	1	634.1	0.9	860	13	318448	3	318436	27	40	318475	-999999	318451	0	36	TrialsPROC	PL_017_SCENE_03.png	2	2	61	SessionSelectionList														nonlure	3	Place	2-Back	53	80	52	0	0	95	4	39	210719	1	14	86	208680	-1	209419	1	739	3	3	2039	53	210733	-54	0																61												
WM080112	123925_fnca	2	1	1	-171217156	1	75.031	75.031	2.0.10.147	2.0.10.242	2.0.10.242	1.0.0.439	7	234	2	3	Verdana	1	80	0	0	0	WM Stimuli\	0.9	794.444444444444	1	557.4	0.9	559.555555555556	1	577.7	1	818	1	589.5	1	634.1	0.9	860	13	318448	3	318436	27	40	318475	-999999	318451	0	36	TrialsPROC	PL_017_SCENE_03.png	2	2	62	SessionSelectionList														lure	3	Place	2-Back	54	80	53	0	0	95	5	39	213291	2	14	72	211252	-1	211996	1	744	3	3	2039	53	213305	-54	0																62												
WM080112	123925_fnca	2	1	1	-171217156	1	75.031	75.031	2.0.10.147	2.0.10.242	2.0.10.242	1.0.0.439	7	234	2	3	Verdana	1	80	0	0	0	WM Stimuli\	0.9	794.444444444444	1	557.4	0.9	559.555555555556	1	577.7	1	818	1	589.5	1	634.1	0.9	860	13	318448	3	318436	27	40	318475	-999999	318451	0	36	TrialsPROC	PL_016_SCENE_02.png	2	2	63	SessionSelectionList														nonlure	3	Place	2-Back	55	80	54	0	0	95	6	39	215877	1	13	86	213838	-1	214553	1	715	3	3	2039	52	215890	-53	0																63												
WM080112	123925_fnca	2	1	1	-171217156	1	75.031	75.031	2.0.10.147	2.0.10.242	2.0.10.242	1.0.0.439	7	234	2	3	Verdana	1	80	0	0	0	WM Stimuli\	0.9	794.444444444444	1	557.4	0.9	559.555555555556	1	577.7	1	818	1	589.5	1	634.1	0.9	860	13	318448	3	318436	27	40	318475	-999999	318451	0	36	TrialsPROC	PL_015_SCENE_01.png	2	2	64	SessionSelectionList														nonlure	3	Place	2-Back	56	80	55	0	0	95	7	39	218462	2	14	85	216423	-1	217032	1	609	3	3	2039	53	218476	-54	0																64												
WM080112	123925_fnca	2	1	1	-171217156	1	75.031	75.031	2.0.10.147	2.0.10.242	2.0.10.242	1.0.0.439	7	234	2	3	Verdana	1	80	0	0	0	WM Stimuli\	0.9	794.444444444444	1	557.4	0.9	559.555555555556	1	577.7	1	818	1	589.5	1	634.1	0.9	860	13	318448	3	318436	27	40	318475	-999999	318451	0	36	TrialsPROC	PL_016_SCENE_02.png	2	2	65	SessionSelectionList														target	2	Place	2-Back	57	80	56	0	0	95	1	39	221035	1	13	73	218996	-1	219566	1	570	2	2	2039	52	221048	-53	0																65												
WM080112	123925_fnca	2	1	1	-171217156	1	75.031	75.031	2.0.10.147	2.0.10.242	2.0.10.242	1.0.0.439	7	234	2	3	Verdana	1	80	0	0	0	WM Stimuli\	0.9	794.444444444444	1	557.4	0.9	559.555555555556	1	577.7	1	818	1	589.5	1	634.1	0.9	860	13	318448	3	318436	27	40	318475	-999999	318451	0	36	TrialsPROC	PL_015_SCENE_01.png	2	2	66	SessionSelectionList														target	2	Place	2-Back	58	80	57	0	0	95	2	39	223607	1	14	72	221568	-1	222490	1	922	2	2	2039	53	223621	-54	0																66												
WM080112	123925_fnca	2	1	1	-171217156	1	75.031	75.031	2.0.10.147	2.0.10.242	2.0.10.242	1.0.0.439	7	234	2	3	Verdana	1	80	0	0	0	WM Stimuli\	0.9	794.444444444444	1	557.4	0.9	559.555555555556	1	577.7	1	818	1	589.5	1	634.1	0.9	860	13	318448	3	318436	27	40	318475	-999999	318451	0	36	TrialsPROC	PL_020_SCENE_06.png	2	2	67	SessionSelectionList														nonlure	3	Place	2-Back	59	80	58	0	0	95	1	39	226179	2	14	72	224140	-1	224872	1	732	3	3	2039	53	226193	-54	0																67												
WM080112	123925_fnca	2	1	1	-171217156	1	75.031	75.031	2.0.10.147	2.0.10.242	2.0.10.242	1.0.0.439	7	234	2	3	Verdana	1	80	0	0	0	WM Stimuli\	0.9	794.444444444444	1	557.4	0.9	559.555555555556	1	577.7	1	818	1	589.5	1	634.1	0.9	860	13	318448	3	318436	27	40	318475	-999999	318451	0	36	TrialsPROC	PL_020_SCENE_06.png	2	2	68	SessionSelectionList														lure	3	Place	2-Back	60	80	59	0	0	95	2	40	228752	1	13	72	226712	-1	227748	1	1036	3	3	2040	53	228765	-54	0																68												
WM080112	123925_fnca	2	1	1	-171217156	1	75.031	75.031	2.0.10.147	2.0.10.242	2.0.10.242	1.0.0.439	7	234	2	3	Verdana	1	80	0	0	0	WM Stimuli\	0.9	794.444444444444	1	557.4	0.9	559.555555555556	1	577.7	1	818	1	589.5	1	634.1	0.9	860	13	318448	3	318436	27	40	318475	-999999	318451	0	36	TrialsPROC	PL_018_SCENE_04.png	2	2	69	SessionSelectionList														nonlure	3	Place	2-Back	61	80	60	0	0	95	3	39	231350	2	14	99	229311	-1	230317	1	1006	3	3	2039	53	231364	-54	0																69												
WM080112	123925_fnca	2	1	1	-171217156	1	75.031	75.031	2.0.10.147	2.0.10.242	2.0.10.242	1.0.0.439	7	234	2	3	Verdana	1	80	0	0	0	WM Stimuli\	0.9	794.444444444444	1	557.4	0.9	559.555555555556	1	577.7	1	818	1	589.5	1	634.1	0.9	860	13	318448	3	318436	27	40	318475	-999999	318451	0	37	Fix15secPROC	""	2	2	70	SessionSelectionList																																															6	231817	-7	0							70												
WM080112	123925_fnca	2	1	1	-171217156	1	75.031	75.031	2.0.10.147	2.0.10.242	2.0.10.242	1.0.0.439	7	234	2	3	Verdana	1	80	0	0	0	WM Stimuli\	0.9	794.444444444444	1	557.4	0.9	559.555555555556	1	577.7	1	818	1	589.5	1	634.1	0.9	860	13	318448	3	318436	27	40	318475	-999999	318451	0	38	Cue0BackPROC	FC_020_F10.png	2	2	71	SessionSelectionList																																										40	246851	-41	0												71												
WM080112	123925_fnca	2	1	1	-171217156	1	75.031	75.031	2.0.10.147	2.0.10.242	2.0.10.242	1.0.0.439	7	234	2	3	Verdana	1	80	0	0	0	WM Stimuli\	0.9	794.444444444444	1	557.4	0.9	559.555555555556	1	577.7	1	818	1	589.5	1	634.1	0.9	860	13	318448	3	318436	27	40	318475	-999999	318451	0	39	TrialsPROC	FC_024_F12.png	2	2	72	SessionSelectionList														nonlure	3	Face	0-Back	62	80	61	0	0	95	4	39	251449	1	14	99	249410	-1	250194	1	784	3	3	2039	53	251463	-54	0																72												
WM080112	123925_fnca	2	1	1	-171217156	1	75.031	75.031	2.0.10.147	2.0.10.242	2.0.10.242	1.0.0.439	7	234	2	3	Verdana	1	80	0	0	0	WM Stimuli\	0.9	794.444444444444	1	557.4	0.9	559.555555555556	1	577.7	1	818	1	589.5	1	634.1	0.9	860	13	318448	3	318436	27	40	318475	-999999	318451	0	39	TrialsPROC	FC_023_M12.png	2	2	73	SessionSelectionList														nonlure	3	Face	0-Back	63	80	62	0	0	95	5	39	254048	1	14	99	252009	-1	252908	1	899	3	3	2039	53	254062	-54	0																73												
WM080112	123925_fnca	2	1	1	-171217156	1	75.031	75.031	2.0.10.147	2.0.10.242	2.0.10.242	1.0.0.439	7	234	2	3	Verdana	1	80	0	0	0	WM Stimuli\	0.9	794.444444444444	1	557.4	0.9	559.555555555556	1	577.7	1	818	1	589.5	1	634.1	0.9	860	13	318448	3	318436	27	40	318475	-999999	318451	0	39	TrialsPROC	FC_020_F10.png	2	2	74	SessionSelectionList														target	2	Face	0-Back	64	80	63	0	0	96	1	39	256620	2	14	72	254581	-1	255198	1	617	2	2	2039	53	256634	-54	0																74												
WM080112	123925_fnca	2	1	1	-171217156	1	75.031	75.031	2.0.10.147	2.0.10.242	2.0.10.242	1.0.0.439	7	234	2	3	Verdana	1	80	0	0	0	WM Stimuli\	0.9	794.444444444444	1	557.4	0.9	559.555555555556	1	577.7	1	818	1	589.5	1	634.1	0.9	860	13	318448	3	318436	27	40	318475	-999999	318451	0	39	TrialsPROC	FC_024_F12.png	2	2	75	SessionSelectionList														lure	3	Face	0-Back	65	80	64	0	0	96	1	39	259192	2	14	72	257153	-1	257625	1	472	3	3	2039	53	259206	-54	0																75												
WM080112	123925_fnca	2	1	1	-171217156	1	75.031	75.031	2.0.10.147	2.0.10.242	2.0.10.242	1.0.0.439	7	234	2	3	Verdana	1	80	0	0	0	WM Stimuli\	0.9	794.444444444444	1	557.4	0.9	559.555555555556	1	577.7	1	818	1	589.5	1	634.1	0.9	860	13	318448	3	318436	27	40	318475	-999999	318451	0	39	TrialsPROC	FC_020_F10.png	2	2	76	SessionSelectionList														target	2	Face	0-Back	66	80	65	0	0	96	1	39	261765	1	13	73	259726	-1	260264	1	538	2	2	2039	52	261778	-53	0																76												
WM080112	123925_fnca	2	1	1	-171217156	1	75.031	75.031	2.0.10.147	2.0.10.242	2.0.10.242	1.0.0.439	7	234	2	3	Verdana	1	80	0	0	0	WM Stimuli\	0.9	794.444444444444	1	557.4	0.9	559.555555555556	1	577.7	1	818	1	589.5	1	634.1	0.9	860	13	318448	3	318436	27	40	318475	-999999	318451	0	39	TrialsPROC	FC_022_F11.png	2	2	77	SessionSelectionList														nonlure	3	Face	0-Back	67	80	66	0	0	96	1	39	264350	2	14	85	262311	-1	262801	1	490	3	3	2039	53	264364	-54	0																77												
WM080112	123925_fnca	2	1	1	-171217156	1	75.031	75.031	2.0.10.147	2.0.10.242	2.0.10.242	1.0.0.439	7	234	2	3	Verdana	1	80	0	0	0	WM Stimuli\	0.9	794.444444444444	1	557.4	0.9	559.555555555556	1	577.7	1	818	1	589.5	1	634.1	0.9	860	13	318448	3	318436	27	40	318475	-999999	318451	0	39	TrialsPROC	FC_023_M12.png	2	2	78	SessionSelectionList														lure	3	Face	0-Back	68	80	67	0	0	96	2	40	266923	1	13	72	264883	-1	265370	1	487	3	3	2040	53	266936	-54	0																78												
WM080112	123925_fnca	2	1	1	-171217156	1	75.031	75.031	2.0.10.147	2.0.10.242	2.0.10.242	1.0.0.439	7	234	2	3	Verdana	1	80	0	0	0	WM Stimuli\	0.9	794.444444444444	1	557.4	0.9	559.555555555556	1	577.7	1	818	1	589.5	1	634.1	0.9	860	13	318448	3	318436	27	40	318475	-999999	318451	0	39	TrialsPROC	FC_021_M11.png	2	2	79	SessionSelectionList														nonlure	3	Face	0-Back	69	80	68	0	0	96	3	39	269508	2	14	86	267469	-1	267964	1	495	3	3	2039	53	269522	-54	0																79												
WM080112	123925_fnca	2	1	1	-171217156	1	75.031	75.031	2.0.10.147	2.0.10.242	2.0.10.242	1.0.0.439	7	234	2	3	Verdana	1	80	0	0	0	WM Stimuli\	0.9	794.444444444444	1	557.4	0.9	559.555555555556	1	577.7	1	818	1	589.5	1	634.1	0.9	860	13	318448	3	318436	27	40	318475	-999999	318451	0	39	TrialsPROC	FC_021_M11.png	2	2	80	SessionSelectionList														lure	3	Face	0-Back	70	80	69	0	0	97	4	40	272081	1	13	72	270041	-1	270498	1	457	3	3	2040	53	272094	-54	0																80												
WM080112	123925_fnca	2	1	1	-171217156	1	75.031	75.031	2.0.10.147	2.0.10.242	2.0.10.242	1.0.0.439	7	234	2	3	Verdana	1	80	0	0	0	WM Stimuli\	0.9	794.444444444444	1	557.4	0.9	559.555555555556	1	577.7	1	818	1	589.5	1	634.1	0.9	860	13	318448	3	318436	27	40	318475	-999999	318451	0	39	TrialsPROC	FC_019_M10.png	2	2	81	SessionSelectionList														nonlure	3	Face	0-Back	71	80	70	0	0	97	5	39	274666	2	14	86	272627	-1	273165	1	538	3	3	2039	53	274680	-54	0																81												
WM080112	123925_fnca	2	1	1	-171217156	1	75.031	75.031	2.0.10.147	2.0.10.242	2.0.10.242	1.0.0.439	7	234	2	3	Verdana	1	80	0	0	0	WM Stimuli\	0.9	794.444444444444	1	557.4	0.9	559.555555555556	1	577.7	1	818	1	589.5	1	634.1	0.9	860	13	318448	3	318436	27	40	318475	-999999	318451	0	40	Cue0BackPROC	PL_021_SCENE_07.png	2	2	82	SessionSelectionList																																										32	275159	-33	0												82												
WM080112	123925_fnca	2	1	1	-171217156	1	75.031	75.031	2.0.10.147	2.0.10.242	2.0.10.242	1.0.0.439	7	234	2	3	Verdana	1	80	0	0	0	WM Stimuli\	0.9	794.444444444444	1	557.4	0.9	559.555555555556	1	577.7	1	818	1	589.5	1	634.1	0.9	860	13	318448	3	318436	27	40	318475	-999999	318451	0	41	TrialsPROC	PL_025_SCENE_18.png	2	2	83	SessionSelectionList														nonlure	3	Place	0-Back	72	80	71	0	0	97	6	39	279757	2	14	91	277718	-1	278373	1	655	3	3	2039	53	279771	-54	0																83												
WM080112	123925_fnca	2	1	1	-171217156	1	75.031	75.031	2.0.10.147	2.0.10.242	2.0.10.242	1.0.0.439	7	234	2	3	Verdana	1	80	0	0	0	WM Stimuli\	0.9	794.444444444444	1	557.4	0.9	559.555555555556	1	577.7	1	818	1	589.5	1	634.1	0.9	860	13	318448	3	318436	27	40	318475	-999999	318451	0	41	TrialsPROC	PL_026_SCENE_24.png	2	2	84	SessionSelectionList														nonlure	3	Place	0-Back	73	80	72	0	0	97	7	39	282343	1	14	86	280304	-1	280769	1	465	3	3	2039	53	282357	-54	0																84												
WM080112	123925_fnca	2	1	1	-171217156	1	75.031	75.031	2.0.10.147	2.0.10.242	2.0.10.242	1.0.0.439	7	234	2	3	Verdana	1	80	0	0	0	WM Stimuli\	0.9	794.444444444444	1	557.4	0.9	559.555555555556	1	577.7	1	818	1	589.5	1	634.1	0.9	860	13	318448	3	318436	27	40	318475	-999999	318451	0	41	TrialsPROC	PL_025_SCENE_18.png	2	2	85	SessionSelectionList														lure	3	Place	0-Back	74	80	73	0	0	97	8	39	284915	2	14	72	282876	-1	283606	1	730	3	3	2039	53	284929	-54	0																85												
WM080112	123925_fnca	2	1	1	-171217156	1	75.031	75.031	2.0.10.147	2.0.10.242	2.0.10.242	1.0.0.439	7	234	2	3	Verdana	1	80	0	0	0	WM Stimuli\	0.9	794.444444444444	1	557.4	0.9	559.555555555556	1	577.7	1	818	1	589.5	1	634.1	0.9	860	13	318448	3	318436	27	40	318475	-999999	318451	0	41	TrialsPROC	PL_022_SCENE_08.png	2	2	86	SessionSelectionList														nonlure	3	Place	0-Back	75	80	74	0	0	97	9	39	287514	2	14	99	285475	-1	286125	1	650	3	3	2039	53	287528	-54	0																86												
WM080112	123925_fnca	2	1	1	-171217156	1	75.031	75.031	2.0.10.147	2.0.10.242	2.0.10.242	1.0.0.439	7	234	2	3	Verdana	1	80	0	0	0	WM Stimuli\	0.9	794.444444444444	1	557.4	0.9	559.555555555556	1	577.7	1	818	1	589.5	1	634.1	0.9	860	13	318448	3	318436	27	40	318475	-999999	318451	0	41	TrialsPROC	PL_026_SCENE_24.png	2	2	87	SessionSelectionList														lure	3	Place	0-Back	76	80	75	0	0	97	10	39	290086	2	14	72	288047	-1	288648	1	601	3	3	2039	53	290100	-54	0																87												
WM080112	123925_fnca	2	1	1	-171217156	1	75.031	75.031	2.0.10.147	2.0.10.242	2.0.10.242	1.0.0.439	7	234	2	3	Verdana	1	80	0	0	0	WM Stimuli\	0.9	794.444444444444	1	557.4	0.9	559.555555555556	1	577.7	1	818	1	589.5	1	634.1	0.9	860	13	318448	3	318436	27	40	318475	-999999	318451	0	41	TrialsPROC	PL_021_SCENE_07.png	2	2	88	SessionSelectionList														target	2	Place	0-Back	77	80	76	0	0	97	1	39	292659	1	13	73	290620	-1	291082	1	462	2	2	2039	52	292672	-53	0																88												
WM080112	123925_fnca	2	1	1	-171217156	1	75.031	75.031	2.0.10.147	2.0.10.242	2.0.10.242	1.0.0.439	7	234	2	3	Verdana	1	80	0	0	0	WM Stimuli\	0.9	794.444444444444	1	557.4	0.9	559.555555555556	1	577.7	1	818	1	589.5	1	634.1	0.9	860	13	318448	3	318436	27	40	318475	-999999	318451	0	41	TrialsPROC	PL_021_SCENE_07.png	2	2	89	SessionSelectionList														target	2	Place	0-Back	78	80	77	0	0	97	2	39	295231	2	14	72	293192	-1	293808	1	616	2	2	2039	53	295245	-54	0																89												
WM080112	123925_fnca	2	1	1	-171217156	1	75.031	75.031	2.0.10.147	2.0.10.242	2.0.10.242	1.0.0.439	7	234	2	3	Verdana	1	80	0	0	0	WM Stimuli\	0.9	794.444444444444	1	557.4	0.9	559.555555555556	1	577.7	1	818	1	589.5	1	634.1	0.9	860	13	318448	3	318436	27	40	318475	-999999	318451	0	41	TrialsPROC	PL_023_SCENE_09.png	2	2	90	SessionSelectionList														nonlure	3	Place	0-Back	79	80	78	0	0	97	1	40	297817	1	13	85	295777	-1	296231	1	454	3	3	2040	53	297830	-54	0																90												
WM080112	123925_fnca	2	1	1	-171217156	1	75.031	75.031	2.0.10.147	2.0.10.242	2.0.10.242	1.0.0.439	7	234	2	3	Verdana	1	80	0	0	0	WM Stimuli\	0.9	794.444444444444	1	557.4	0.9	559.555555555556	1	577.7	1	818	1	589.5	1	634.1	0.9	860	13	318448	3	318436	27	40	318475	-999999	318451	0	41	TrialsPROC	PL_024_SCENE_10.png	2	2	91	SessionSelectionList														nonlure	3	Place	0-Back	80	80	79	0	0	97	2	39	300402	2	14	86	298363	-1	298885	1	522	3	3	2039	53	300416	-54	0																91												
WM080112	123925_fnca	2	1	1	-171217156	1	75.031	75.031	2.0.10.147	2.0.10.242	2.0.10.242	1.0.0.439	7	234	2	3	Verdana	1	80	0	0	0	WM Stimuli\	0.9	794.444444444444	1	557.4	0.9	559.555555555556	1	577.7	1	818	1	589.5	1	634.1	0.9	860	13	318448	3	318436	27	40	318475	-999999	318451	0	41	TrialsPROC	PL_022_SCENE_08.png	2	2	92	SessionSelectionList														lure	3	Place	0-Back	80	80	80	0	0	98	3	40	302975	2	13	72	300935	-1	301675	1	740	3	3	2040	53	302988	-54	0																92												
WM080112	123925_fnca	2	1	1	-171217156	1	75.031	75.031	2.0.10.147	2.0.10.242	2.0.10.242	1.0.0.439	7	234	2	3	Verdana	1	80	0	0	0	WM Stimuli\	0.9	794.444444444444	1	557.4	0.9	559.555555555556	1	577.7	1	818	1	589.5	1	634.1	0.9	860	13	318448	3	318436	27	40	318475	-999999	318451	0	42	Fix15secPROC	""	2	2	93	SessionSelectionList																																															6	303441	-7	0							93												
