ExperimentName	HCPID	RunNumber	Subject	Session	RandomSeed	Group	Laptop.RefreshRate	ScannerD2.RefreshRate	StudioVersion	RuntimeVersion	RuntimeVersionExpected	ExperimentVersion	triggercode	Allowed	Target	Nontarget	FontStyle	RunTrialNumber[Session]	TrialsPerRun[Session]	TotalRespGreater200[Session]	ConsecRTLess200[Session]	ConsecNonResp[Session]	StimuliDir	ACC_2_Back_Body	Avg_RT_For_Correct_Trials_2_Back_Body	ACC_0_Back_Body	Avg_RT_For_Correct_Trials_0_Back_Body	ACC_2_Back_Face	Avg_RT_For_Correct_Trials_2_Back_Face	ACC_0_Back_Face	Avg_RT_For_Correct_Trials_0_Back_Face	ACC_2_Back_Place	Avg_RT_For_Correct_Trials_2_Back_Place	ACC_0_Back_Place	Avg_RT_For_Correct_Trials_0_Back_Place	ACC_2_Back_Tools	Avg_RT_For_Correct_Trials_2_Back_Tools	ACC_0_Back_Tools	Avg_RT_For_Correct_Trials_0_Back_Tools	ExpInstrucFeelFreeToRest.OnsetDelay	ExpInstrucFeelFreeToRest.OnsetTime	ExpInstrucFeelFreeToRest.DurationError	ExpInstrucFeelFreeToRest.StartTime	ExpInstrucFeelFreeToRest.OnsetToOnsetTime	FeelFreeToRest.OnsetDelay	FeelFreeToRest.OnsetTime	FeelFreeToRest.DurationError	FeelFreeToRest.StartTime	FeelFreeToRest.OnsetToOnsetTime	SessionSelectionList	Procedure[Block]	Stimulus[Block]	RunNumberFilterValue	SessionSelectionList.Cycle	SessionSelectionList.Sample	Running[Block]	IntroButtonMap.OnsetDelay	IntroButtonMap.OnsetTime	IntroButtonMap.DurationError	IntroButtonMap.OnsetToOnsetTime	GetReady.OnsetDelay	GetReady.OnsetTime	GetReady.DurationError	GetReady.OnsetToOnsetTime	Cue2Back.OnsetDelay	Cue2Back.OnsetTime	Cue2Back.DurationError	Cue2Back.OnsetToOnsetTime	Run1Block1	TargetType	CorrectResponse	StimType	BlockType	RunTrialNumber[Block]	TrialsPerRun[Block]	TotalRespGreater200[Block]	ConsecRTLess200[Block]	ConsecNonResp[Block]	ControlAcc	ConsecSameResp	ExperimenterWindow.OnsetDelay	ExperimenterWindow.OnsetTime	ExperimenterWindow.DurationError	ExperimenterWindow.OnsetToOnsetTime	Stim.OnsetDelay	Stim.OnsetTime	Stim.DurationError	Stim.RTTime	Stim.ACC	Stim.RT	Stim.RESP	Stim.CRESP	Stim.OnsetToOnsetTime	Fix.OnsetDelay	Fix.OnsetTime	Fix.DurationError	Fix.OnsetToOnsetTime	CueTarget.OnsetDelay	CueTarget.OnsetTime	CueTarget.DurationError	CueTarget.OnsetToOnsetTime	Run1Block2	Fix15sec.OnsetDelay	Fix15sec.OnsetTime	Fix15sec.DurationError	Fix15sec.OnsetToOnsetTime	Run1Block3	Run1Block4	Run1Block5	Run1Block6	Run1Block7	Run1Block8	Block	Procedure[Trial]	Stimulus[Trial]	ReadyList	Running[Trial]	ReadyList.Cycle	ReadyList.Sample	SyncSlide.OnsetDelay	SyncSlide.OnsetTime	SyncSlide.DurationError	SyncSlide.FinishTime	SyncSlide.OnsetToOnsetTime	Trial
WM080112	100408_fnca	1	1	1	971452773	1	75.031	75.031	2.0.10.147	2.0.10.242	2.0.10.242	1.0.0.439	7	234	2	3	Verdana	1	80	0	0	0	WM Stimuli\	0.8	1316	0.9	984.222222222222	1	1210.4	0.8	1342.375	0.9	936.444444444444	1	850.4	0.8	1255	0.9	941.222222222222	13	483567	2	483555	27	40	483594	-999999	483570	0	1	TRSyncPROC	""	1	2	1	SessionSelectionList	102	37414	-999999	0	38	176785	-999999	0																																																	1	InitialTR	4	1	ReadyList	1	1	17	190366	-18	192348	0	1
WM080112	100408_fnca	1	1	1	971452773	1	75.031	75.031	2.0.10.147	2.0.10.242	2.0.10.242	1.0.0.439	7	234	2	3	Verdana	1	80	0	0	0	WM Stimuli\	0.8	1316	0.9	984.222222222222	1	1210.4	0.8	1342.375	0.9	936.444444444444	1	850.4	0.8	1255	0.9	941.222222222222	13	483567	2	483555	27	40	483594	-999999	483570	0	1	TRSyncPROC	""	1	2	1	SessionSelectionList	102	37414	-999999	0	38	176785	-999999	0																																																	1	InitialTR	3	2	ReadyList	1	2	16	192365	-17	194348	0	2
WM080112	100408_fnca	1	1	1	971452773	1	75.031	75.031	2.0.10.147	2.0.10.242	2.0.10.242	1.0.0.439	7	234	2	3	Verdana	1	80	0	0	0	WM Stimuli\	0.8	1316	0.9	984.222222222222	1	1210.4	0.8	1342.375	0.9	936.444444444444	1	850.4	0.8	1255	0.9	941.222222222222	13	483567	2	483555	27	40	483594	-999999	483570	0	1	TRSyncPROC	""	1	2	1	SessionSelectionList	102	37414	-999999	0	38	176785	-999999	0																																																	1	InitialTR	2	3	ReadyList	1	3	15	194364	-16	196348	0	3
WM080112	100408_fnca	1	1	1	971452773	1	75.031	75.031	2.0.10.147	2.0.10.242	2.0.10.242	1.0.0.439	7	234	2	3	Verdana	1	80	0	0	0	WM Stimuli\	0.8	1316	0.9	984.222222222222	1	1210.4	0.8	1342.375	0.9	936.444444444444	1	850.4	0.8	1255	0.9	941.222222222222	13	483567	2	483555	27	40	483594	-999999	483570	0	1	TRSyncPROC	""	1	2	1	SessionSelectionList	102	37414	-999999	0	38	176785	-999999	0																																																	1	InitialTR	1	4	ReadyList	1	4	14	196363	-15	198348	0	4
WM080112	100408_fnca	1	1	1	971452773	1	75.031	75.031	2.0.10.147	2.0.10.242	2.0.10.242	1.0.0.439	7	234	2	3	Verdana	1	80	0	0	0	WM Stimuli\	0.8	1316	0.9	984.222222222222	1	1210.4	0.8	1342.375	0.9	936.444444444444	1	850.4	0.8	1255	0.9	941.222222222222	13	483567	2	483555	27	40	483594	-999999	483570	0	2	Cue2BackPROC	""	1	2	2	SessionSelectionList									13	198362	-14	0																																													2												
WM080112	100408_fnca	1	1	1	971452773	1	75.031	75.031	2.0.10.147	2.0.10.242	2.0.10.242	1.0.0.439	7	234	2	3	Verdana	1	80	0	0	0	WM Stimuli\	0.8	1316	0.9	984.222222222222	1	1210.4	0.8	1342.375	0.9	936.444444444444	1	850.4	0.8	1255	0.9	941.222222222222	13	483567	2	483555	27	40	483594	-999999	483570	0	3	TrialsPROC	BP_002_BP10_BA.png	1	2	3	SessionSelectionList													1	nonlure	3	Body	2-Back	2	80	1	0	0	0	1	53	202974	3	14	72	200921	-1	201913	1	992	3	3	2053	67	202988	-68	0																3												
WM080112	100408_fnca	1	1	1	971452773	1	75.031	75.031	2.0.10.147	2.0.10.242	2.0.10.242	1.0.0.439	7	234	2	3	Verdana	1	80	0	0	0	WM Stimuli\	0.8	1316	0.9	984.222222222222	1	1210.4	0.8	1342.375	0.9	936.444444444444	1	850.4	0.8	1255	0.9	941.222222222222	13	483567	2	483555	27	40	483594	-999999	483570	0	3	TrialsPROC	BP_001_BP1_BA.png	1	2	4	SessionSelectionList													2	nonlure	3	Body	2-Back	3	80	2	0	0	0	2	39	205533	2	14	73	203494	-1	205005	1	1511	3	3	2039	53	205547	-54	0																4												
WM080112	100408_fnca	1	1	1	971452773	1	75.031	75.031	2.0.10.147	2.0.10.242	2.0.10.242	1.0.0.439	7	234	2	3	Verdana	1	80	0	0	0	WM Stimuli\	0.8	1316	0.9	984.222222222222	1	1210.4	0.8	1342.375	0.9	936.444444444444	1	850.4	0.8	1255	0.9	941.222222222222	13	483567	2	483555	27	40	483594	-999999	483570	0	3	TrialsPROC	BP_006_BP2_BA.png	1	2	5	SessionSelectionList													3	nonlure	3	Body	2-Back	4	80	3	0	0	0	1	39	208092	1	14	59	206053	-1	206894	0	841	2	3	2039	53	208106	-54	0																5												
WM080112	100408_fnca	1	1	1	971452773	1	75.031	75.031	2.0.10.147	2.0.10.242	2.0.10.242	1.0.0.439	7	234	2	3	Verdana	1	80	0	0	0	WM Stimuli\	0.8	1316	0.9	984.222222222222	1	1210.4	0.8	1342.375	0.9	936.444444444444	1	850.4	0.8	1255	0.9	941.222222222222	13	483567	2	483555	27	40	483594	-999999	483570	0	3	TrialsPROC	BP_001_BP1_BA.png	1	2	6	SessionSelectionList													4	target	2	Body	2-Back	5	80	4	0	0	0	2	39	210664	2	14	72	208625	-1	209660	1	1035	2	2	2039	53	210678	-54	0																6												
WM080112	100408_fnca	1	1	1	971452773	1	75.031	75.031	2.0.10.147	2.0.10.242	2.0.10.242	1.0.0.439	7	234	2	3	Verdana	1	80	0	0	0	WM Stimuli\	0.8	1316	0.9	984.222222222222	1	1210.4	0.8	1342.375	0.9	936.444444444444	1	850.4	0.8	1255	0.9	941.222222222222	13	483567	2	483555	27	40	483594	-999999	483570	0	3	TrialsPROC	BP_005_BP19_BA.png	1	2	7	SessionSelectionList													5	nonlure	3	Body	2-Back	6	80	5	0	0	0	1	39	213236	3	14	72	211197	-1	212779	1	1582	3	3	2039	53	213250	-54	0																7												
WM080112	100408_fnca	1	1	1	971452773	1	75.031	75.031	2.0.10.147	2.0.10.242	2.0.10.242	1.0.0.439	7	234	2	3	Verdana	1	80	0	0	0	WM Stimuli\	0.8	1316	0.9	984.222222222222	1	1210.4	0.8	1342.375	0.9	936.444444444444	1	850.4	0.8	1255	0.9	941.222222222222	13	483567	2	483555	27	40	483594	-999999	483570	0	3	TrialsPROC	BP_003_BP16_BA.png	1	2	8	SessionSelectionList													6	nonlure	3	Body	2-Back	7	80	6	0	0	0	2	39	215795	3	14	59	213756	-1	215007	1	1251	3	3	2039	53	215809	-54	0																8												
WM080112	100408_fnca	1	1	1	971452773	1	75.031	75.031	2.0.10.147	2.0.10.242	2.0.10.242	1.0.0.439	7	234	2	3	Verdana	1	80	0	0	0	WM Stimuli\	0.8	1316	0.9	984.222222222222	1	1210.4	0.8	1342.375	0.9	936.444444444444	1	850.4	0.8	1255	0.9	941.222222222222	13	483567	2	483555	27	40	483594	-999999	483570	0	3	TrialsPROC	BP_006_BP2_BA.png	1	2	9	SessionSelectionList													7	lure	3	Body	2-Back	8	80	7	0	0	0	3	39	218354	3	14	59	216315	-1	217934	1	1619	3	3	2039	53	218368	-54	0																9												
WM080112	100408_fnca	1	1	1	971452773	1	75.031	75.031	2.0.10.147	2.0.10.242	2.0.10.242	1.0.0.439	7	234	2	3	Verdana	1	80	0	0	0	WM Stimuli\	0.8	1316	0.9	984.222222222222	1	1210.4	0.8	1342.375	0.9	936.444444444444	1	850.4	0.8	1255	0.9	941.222222222222	13	483567	2	483555	27	40	483594	-999999	483570	0	3	TrialsPROC	BP_004_BP18_BA.png	1	2	10	SessionSelectionList													8	nonlure	3	Body	2-Back	9	80	8	0	0	0	4	39	220913	3	14	59	218874	-1	220335	1	1461	3	3	2039	53	220927	-54	0																10												
WM080112	100408_fnca	1	1	1	971452773	1	75.031	75.031	2.0.10.147	2.0.10.242	2.0.10.242	1.0.0.439	7	234	2	3	Verdana	1	80	0	0	0	WM Stimuli\	0.8	1316	0.9	984.222222222222	1	1210.4	0.8	1342.375	0.9	936.444444444444	1	850.4	0.8	1255	0.9	941.222222222222	13	483567	2	483555	27	40	483594	-999999	483570	0	3	TrialsPROC	BP_005_BP19_BA.png	1	2	11	SessionSelectionList													9	lure	3	Body	2-Back	10	80	9	0	0	0	1	39	223472	2	14	59	221433	-1	222486	0	1053	2	3	2039	53	223486	-54	0																11												
WM080112	100408_fnca	1	1	1	971452773	1	75.031	75.031	2.0.10.147	2.0.10.242	2.0.10.242	1.0.0.439	7	234	2	3	Verdana	1	80	0	0	0	WM Stimuli\	0.8	1316	0.9	984.222222222222	1	1210.4	0.8	1342.375	0.9	936.444444444444	1	850.4	0.8	1255	0.9	941.222222222222	13	483567	2	483555	27	40	483594	-999999	483570	0	3	TrialsPROC	BP_004_BP18_BA.png	1	2	12	SessionSelectionList													10	target	2	Body	2-Back	11	80	10	0	0	0	2	39	226031	3	14	59	223992	-1	225069	1	1077	2	2	2039	53	226045	-54	0																12												
WM080112	100408_fnca	1	1	1	971452773	1	75.031	75.031	2.0.10.147	2.0.10.242	2.0.10.242	1.0.0.439	7	234	2	3	Verdana	1	80	0	0	0	WM Stimuli\	0.8	1316	0.9	984.222222222222	1	1210.4	0.8	1342.375	0.9	936.444444444444	1	850.4	0.8	1255	0.9	941.222222222222	13	483567	2	483555	27	40	483594	-999999	483570	0	4	Cue0BackPROC	FC_001_M1.png	1	2	13	SessionSelectionList																																										19	226511	-20	0												13												
WM080112	100408_fnca	1	1	1	971452773	1	75.031	75.031	2.0.10.147	2.0.10.242	2.0.10.242	1.0.0.439	7	234	2	3	Verdana	1	80	0	0	0	WM Stimuli\	0.8	1316	0.9	984.222222222222	1	1210.4	0.8	1342.375	0.9	936.444444444444	1	850.4	0.8	1255	0.9	941.222222222222	13	483567	2	483555	27	40	483594	-999999	483570	0	5	TrialsPROC	FC_005_M3.png	1	2	14	SessionSelectionList														nonlure	3	Face	0-Back	12	80	11	0	0	100	1	39	231096	2	14	65	229057	-1	230743	1	1686	3	3	2039	53	231110	-54	0					1											14												
WM080112	100408_fnca	1	1	1	971452773	1	75.031	75.031	2.0.10.147	2.0.10.242	2.0.10.242	1.0.0.439	7	234	2	3	Verdana	1	80	0	0	0	WM Stimuli\	0.8	1316	0.9	984.222222222222	1	1210.4	0.8	1342.375	0.9	936.444444444444	1	850.4	0.8	1255	0.9	941.222222222222	13	483567	2	483555	27	40	483594	-999999	483570	0	5	TrialsPROC	FC_001_M1.png	1	2	15	SessionSelectionList														target	2	Face	0-Back	13	80	12	0	0	100	1	39	233668	2	14	72	231629	-1	232645	1	1016	2	2	2039	53	233682	-54	0					2											15												
WM080112	100408_fnca	1	1	1	971452773	1	75.031	75.031	2.0.10.147	2.0.10.242	2.0.10.242	1.0.0.439	7	234	2	3	Verdana	1	80	0	0	0	WM Stimuli\	0.8	1316	0.9	984.222222222222	1	1210.4	0.8	1342.375	0.9	936.444444444444	1	850.4	0.8	1255	0.9	941.222222222222	13	483567	2	483555	27	40	483594	-999999	483570	0	5	TrialsPROC	FC_003_M2.png	1	2	16	SessionSelectionList														nonlure	3	Face	0-Back	14	80	13	0	0	100	1	39	236240	2	14	72	234201	-1	236038	1	1837	3	3	2039	53	236254	-54	0					3											16												
WM080112	100408_fnca	1	1	1	971452773	1	75.031	75.031	2.0.10.147	2.0.10.242	2.0.10.242	1.0.0.439	7	234	2	3	Verdana	1	80	0	0	0	WM Stimuli\	0.8	1316	0.9	984.222222222222	1	1210.4	0.8	1342.375	0.9	936.444444444444	1	850.4	0.8	1255	0.9	941.222222222222	13	483567	2	483555	27	40	483594	-999999	483570	0	5	TrialsPROC	FC_004_F2.png	1	2	17	SessionSelectionList														nonlure	3	Face	0-Back	15	80	13	0	1	75	1	39	238813	1	13	73	236774	-1	0	0	0	""	3	2039	52	238826	-53	0					4											17												
WM080112	100408_fnca	1	1	1	971452773	1	75.031	75.031	2.0.10.147	2.0.10.242	2.0.10.242	1.0.0.439	7	234	2	3	Verdana	1	80	0	0	0	WM Stimuli\	0.8	1316	0.9	984.222222222222	1	1210.4	0.8	1342.375	0.9	936.444444444444	1	850.4	0.8	1255	0.9	941.222222222222	13	483567	2	483555	27	40	483594	-999999	483570	0	5	TrialsPROC	FC_004_F2.png	1	2	18	SessionSelectionList														lure	3	Face	0-Back	16	80	14	0	0	80	1	39	241385	2	14	72	239346	-1	240181	1	835	3	3	2039	53	241399	-54	0					5											18												
WM080112	100408_fnca	1	1	1	971452773	1	75.031	75.031	2.0.10.147	2.0.10.242	2.0.10.242	1.0.0.439	7	234	2	3	Verdana	1	80	0	0	0	WM Stimuli\	0.8	1316	0.9	984.222222222222	1	1210.4	0.8	1342.375	0.9	936.444444444444	1	850.4	0.8	1255	0.9	941.222222222222	13	483567	2	483555	27	40	483594	-999999	483570	0	5	TrialsPROC	FC_001_M1.png	1	2	19	SessionSelectionList														target	2	Face	0-Back	17	80	15	0	0	67	2	39	243957	3	14	72	241918	-1	243294	0	1376	3	2	2039	53	243971	-54	0					6											19												
WM080112	100408_fnca	1	1	1	971452773	1	75.031	75.031	2.0.10.147	2.0.10.242	2.0.10.242	1.0.0.439	7	234	2	3	Verdana	1	80	0	0	0	WM Stimuli\	0.8	1316	0.9	984.222222222222	1	1210.4	0.8	1342.375	0.9	936.444444444444	1	850.4	0.8	1255	0.9	941.222222222222	13	483567	2	483555	27	40	483594	-999999	483570	0	5	TrialsPROC	FC_006_F3.png	1	2	20	SessionSelectionList														nonlure	3	Face	0-Back	18	80	16	0	0	71	3	40	246530	1	13	72	244490	-1	246166	1	1676	3	3	2040	53	246543	-54	0					7											20												
WM080112	100408_fnca	1	1	1	971452773	1	75.031	75.031	2.0.10.147	2.0.10.242	2.0.10.242	1.0.0.439	7	234	2	3	Verdana	1	80	0	0	0	WM Stimuli\	0.8	1316	0.9	984.222222222222	1	1210.4	0.8	1342.375	0.9	936.444444444444	1	850.4	0.8	1255	0.9	941.222222222222	13	483567	2	483555	27	40	483594	-999999	483570	0	5	TrialsPROC	FC_006_F3.png	1	2	21	SessionSelectionList														lure	3	Face	0-Back	19	80	17	0	0	75	4	39	249102	1	14	73	247063	-1	248379	1	1316	3	3	2039	53	249116	-54	0					8											21												
WM080112	100408_fnca	1	1	1	971452773	1	75.031	75.031	2.0.10.147	2.0.10.242	2.0.10.242	1.0.0.439	7	234	2	3	Verdana	1	80	0	0	0	WM Stimuli\	0.8	1316	0.9	984.222222222222	1	1210.4	0.8	1342.375	0.9	936.444444444444	1	850.4	0.8	1255	0.9	941.222222222222	13	483567	2	483555	27	40	483594	-999999	483570	0	5	TrialsPROC	FC_003_M2.png	1	2	22	SessionSelectionList														lure	3	Face	0-Back	20	80	18	0	0	78	5	39	251674	2	14	72	249635	-1	250801	1	1166	3	3	2039	53	251688	-54	0					9											22												
WM080112	100408_fnca	1	1	1	971452773	1	75.031	75.031	2.0.10.147	2.0.10.242	2.0.10.242	1.0.0.439	7	234	2	3	Verdana	1	80	0	0	0	WM Stimuli\	0.8	1316	0.9	984.222222222222	1	1210.4	0.8	1342.375	0.9	936.444444444444	1	850.4	0.8	1255	0.9	941.222222222222	13	483567	2	483555	27	40	483594	-999999	483570	0	5	TrialsPROC	FC_002_F1.png	1	2	23	SessionSelectionList														nonlure	3	Face	0-Back	21	80	19	0	0	80	6	39	254246	2	14	72	252207	-1	253414	1	1207	3	3	2039	53	254260	-54	0					10											23												
WM080112	100408_fnca	1	1	1	971452773	1	75.031	75.031	2.0.10.147	2.0.10.242	2.0.10.242	1.0.0.439	7	234	2	3	Verdana	1	80	0	0	0	WM Stimuli\	0.8	1316	0.9	984.222222222222	1	1210.4	0.8	1342.375	0.9	936.444444444444	1	850.4	0.8	1255	0.9	941.222222222222	13	483567	2	483555	27	40	483594	-999999	483570	0	6	Fix15secPROC	""	1	2	24	SessionSelectionList																																															6	254713	-7	0							24												
WM080112	100408_fnca	1	1	1	971452773	1	75.031	75.031	2.0.10.147	2.0.10.242	2.0.10.242	1.0.0.439	7	234	2	3	Verdana	1	80	0	0	0	WM Stimuli\	0.8	1316	0.9	984.222222222222	1	1210.4	0.8	1342.375	0.9	936.444444444444	1	850.4	0.8	1255	0.9	941.222222222222	13	483567	2	483555	27	40	483594	-999999	483570	0	7	Cue2BackPROC	""	1	2	25	SessionSelectionList									13	269720	-14	0																																													25												
WM080112	100408_fnca	1	1	1	971452773	1	75.031	75.031	2.0.10.147	2.0.10.242	2.0.10.242	1.0.0.439	7	234	2	3	Verdana	1	80	0	0	0	WM Stimuli\	0.8	1316	0.9	984.222222222222	1	1210.4	0.8	1342.375	0.9	936.444444444444	1	850.4	0.8	1255	0.9	941.222222222222	13	483567	2	483555	27	40	483594	-999999	483570	0	8	TrialsPROC	TO_001_TOOL1_BA.png	1	2	26	SessionSelectionList														nonlure	3	Tools	2-Back	22	80	20	0	0	80	7	39	274305	1	14	59	272266	-1	273522	1	1256	3	3	2039	53	274319	-54	0										1						26												
WM080112	100408_fnca	1	1	1	971452773	1	75.031	75.031	2.0.10.147	2.0.10.242	2.0.10.242	1.0.0.439	7	234	2	3	Verdana	1	80	0	0	0	WM Stimuli\	0.8	1316	0.9	984.222222222222	1	1210.4	0.8	1342.375	0.9	936.444444444444	1	850.4	0.8	1255	0.9	941.222222222222	13	483567	2	483555	27	40	483594	-999999	483570	0	8	TrialsPROC	TO_002_TOOL2_BA.png	1	2	27	SessionSelectionList														nonlure	3	Tools	2-Back	23	80	21	0	0	80	8	39	276864	2	14	59	274825	-1	275867	1	1042	3	3	2039	53	276878	-54	0										2						27												
WM080112	100408_fnca	1	1	1	971452773	1	75.031	75.031	2.0.10.147	2.0.10.242	2.0.10.242	1.0.0.439	7	234	2	3	Verdana	1	80	0	0	0	WM Stimuli\	0.8	1316	0.9	984.222222222222	1	1210.4	0.8	1342.375	0.9	936.444444444444	1	850.4	0.8	1255	0.9	941.222222222222	13	483567	2	483555	27	40	483594	-999999	483570	0	8	TrialsPROC	TO_004_TOOL4_BA.png	1	2	28	SessionSelectionList														nonlure	3	Tools	2-Back	24	80	22	0	0	80	9	39	279423	1	14	59	277384	-1	278518	1	1134	3	3	2039	53	279437	-54	0										3						28												
WM080112	100408_fnca	1	1	1	971452773	1	75.031	75.031	2.0.10.147	2.0.10.242	2.0.10.242	1.0.0.439	7	234	2	3	Verdana	1	80	0	0	0	WM Stimuli\	0.8	1316	0.9	984.222222222222	1	1210.4	0.8	1342.375	0.9	936.444444444444	1	850.4	0.8	1255	0.9	941.222222222222	13	483567	2	483555	27	40	483594	-999999	483570	0	8	TrialsPROC	TO_002_TOOL2_BA.png	1	2	29	SessionSelectionList														target	2	Tools	2-Back	25	80	23	0	0	80	1	39	281982	2	14	59	279943	-1	281044	1	1101	2	2	2039	53	281996	-54	0										4						29												
WM080112	100408_fnca	1	1	1	971452773	1	75.031	75.031	2.0.10.147	2.0.10.242	2.0.10.242	1.0.0.439	7	234	2	3	Verdana	1	80	0	0	0	WM Stimuli\	0.8	1316	0.9	984.222222222222	1	1210.4	0.8	1342.375	0.9	936.444444444444	1	850.4	0.8	1255	0.9	941.222222222222	13	483567	2	483555	27	40	483594	-999999	483570	0	8	TrialsPROC	TO_001_TOOL1_BA.png	1	2	30	SessionSelectionList														lure	3	Tools	2-Back	26	80	24	0	0	80	1	39	284541	1	14	59	282502	-1	283758	1	1256	3	3	2039	53	284555	-54	0										5						30												
WM080112	100408_fnca	1	1	1	971452773	1	75.031	75.031	2.0.10.147	2.0.10.242	2.0.10.242	1.0.0.439	7	234	2	3	Verdana	1	80	0	0	0	WM Stimuli\	0.8	1316	0.9	984.222222222222	1	1210.4	0.8	1342.375	0.9	936.444444444444	1	850.4	0.8	1255	0.9	941.222222222222	13	483567	2	483555	27	40	483594	-999999	483570	0	8	TrialsPROC	TO_004_TOOL4_BA.png	1	2	31	SessionSelectionList														lure	3	Tools	2-Back	27	80	25	0	0	80	1	39	287100	1	14	59	285061	-1	287005	0	1944	2	3	2039	53	287114	-54	0										6						31												
WM080112	100408_fnca	1	1	1	971452773	1	75.031	75.031	2.0.10.147	2.0.10.242	2.0.10.242	1.0.0.439	7	234	2	3	Verdana	1	80	0	0	0	WM Stimuli\	0.8	1316	0.9	984.222222222222	1	1210.4	0.8	1342.375	0.9	936.444444444444	1	850.4	0.8	1255	0.9	941.222222222222	13	483567	2	483555	27	40	483594	-999999	483570	0	8	TrialsPROC	TO_006_TOOL6_BA.png	1	2	32	SessionSelectionList														nonlure	3	Tools	2-Back	28	80	26	0	0	80	1	39	289659	1	13	59	287620	-1	289141	1	1521	3	3	2039	52	289672	-53	0										7						32												
WM080112	100408_fnca	1	1	1	971452773	1	75.031	75.031	2.0.10.147	2.0.10.242	2.0.10.242	1.0.0.439	7	234	2	3	Verdana	1	80	0	0	0	WM Stimuli\	0.8	1316	0.9	984.222222222222	1	1210.4	0.8	1342.375	0.9	936.444444444444	1	850.4	0.8	1255	0.9	941.222222222222	13	483567	2	483555	27	40	483594	-999999	483570	0	8	TrialsPROC	TO_005_TOOL5_BA.png	1	2	33	SessionSelectionList														nonlure	3	Tools	2-Back	29	80	27	0	0	80	1	39	292218	2	13	59	290179	-1	291340	0	1161	2	3	2039	52	292231	-53	0										8						33												
WM080112	100408_fnca	1	1	1	971452773	1	75.031	75.031	2.0.10.147	2.0.10.242	2.0.10.242	1.0.0.439	7	234	2	3	Verdana	1	80	0	0	0	WM Stimuli\	0.8	1316	0.9	984.222222222222	1	1210.4	0.8	1342.375	0.9	936.444444444444	1	850.4	0.8	1255	0.9	941.222222222222	13	483567	2	483555	27	40	483594	-999999	483570	0	8	TrialsPROC	TO_006_TOOL6_BA.png	1	2	34	SessionSelectionList														target	2	Tools	2-Back	30	80	28	0	0	80	2	40	294777	1	13	58	292737	-1	293942	1	1205	2	2	2040	53	294790	-54	0										9						34												
WM080112	100408_fnca	1	1	1	971452773	1	75.031	75.031	2.0.10.147	2.0.10.242	2.0.10.242	1.0.0.439	7	234	2	3	Verdana	1	80	0	0	0	WM Stimuli\	0.8	1316	0.9	984.222222222222	1	1210.4	0.8	1342.375	0.9	936.444444444444	1	850.4	0.8	1255	0.9	941.222222222222	13	483567	2	483555	27	40	483594	-999999	483570	0	8	TrialsPROC	TO_003_TOOL3_BA.png	1	2	35	SessionSelectionList														nonlure	3	Tools	2-Back	31	80	29	0	0	80	1	40	297336	2	13	59	295296	-1	296821	1	1525	3	3	2040	53	297349	-54	0										10						35												
WM080112	100408_fnca	1	1	1	971452773	1	75.031	75.031	2.0.10.147	2.0.10.242	2.0.10.242	1.0.0.439	7	234	2	3	Verdana	1	80	0	0	0	WM Stimuli\	0.8	1316	0.9	984.222222222222	1	1210.4	0.8	1342.375	0.9	936.444444444444	1	850.4	0.8	1255	0.9	941.222222222222	13	483567	2	483555	27	40	483594	-999999	483570	0	9	Cue0BackPROC	BP_007_BP20_BA.png	1	2	36	SessionSelectionList																																										19	297815	-20	0												36												
WM080112	100408_fnca	1	1	1	971452773	1	75.031	75.031	2.0.10.147	2.0.10.242	2.0.10.242	1.0.0.439	7	234	2	3	Verdana	1	80	0	0	0	WM Stimuli\	0.8	1316	0.9	984.222222222222	1	1210.4	0.8	1342.375	0.9	936.444444444444	1	850.4	0.8	1255	0.9	941.222222222222	13	483567	2	483555	27	40	483594	-999999	483570	0	10	TrialsPROC	BP_007_BP20_BA.png	1	2	37	SessionSelectionList														target	2	Body	0-Back	32	80	29	0	1	73	1	39	302387	2	14	52	300348	-1	0	0	0	""	2	2039	53	302401	-54	0											1					37												
WM080112	100408_fnca	1	1	1	971452773	1	75.031	75.031	2.0.10.147	2.0.10.242	2.0.10.242	1.0.0.439	7	234	2	3	Verdana	1	80	0	0	0	WM Stimuli\	0.8	1316	0.9	984.222222222222	1	1210.4	0.8	1342.375	0.9	936.444444444444	1	850.4	0.8	1255	0.9	941.222222222222	13	483567	2	483555	27	40	483594	-999999	483570	0	10	TrialsPROC	BP_011_BP4_BA.png	1	2	38	SessionSelectionList														nonlure	3	Body	0-Back	33	80	30	0	0	75	1	39	304946	2	14	59	302907	-1	303930	1	1023	3	3	2039	53	304960	-54	0											2					38												
WM080112	100408_fnca	1	1	1	971452773	1	75.031	75.031	2.0.10.147	2.0.10.242	2.0.10.242	1.0.0.439	7	234	2	3	Verdana	1	80	0	0	0	WM Stimuli\	0.8	1316	0.9	984.222222222222	1	1210.4	0.8	1342.375	0.9	936.444444444444	1	850.4	0.8	1255	0.9	941.222222222222	13	483567	2	483555	27	40	483594	-999999	483570	0	10	TrialsPROC	BP_010_BP3_BA.png	1	2	39	SessionSelectionList														nonlure	3	Body	0-Back	34	80	31	0	0	77	2	39	307505	1	14	59	305466	-1	306406	1	940	3	3	2039	53	307519	-54	0											3					39												
WM080112	100408_fnca	1	1	1	971452773	1	75.031	75.031	2.0.10.147	2.0.10.242	2.0.10.242	1.0.0.439	7	234	2	3	Verdana	1	80	0	0	0	WM Stimuli\	0.8	1316	0.9	984.222222222222	1	1210.4	0.8	1342.375	0.9	936.444444444444	1	850.4	0.8	1255	0.9	941.222222222222	13	483567	2	483555	27	40	483594	-999999	483570	0	10	TrialsPROC	BP_008_BP21_BA.png	1	2	40	SessionSelectionList														nonlure	3	Body	0-Back	35	80	32	0	0	79	3	39	310064	1	14	59	308025	-1	309207	1	1182	3	3	2039	53	310078	-54	0											4					40												
WM080112	100408_fnca	1	1	1	971452773	1	75.031	75.031	2.0.10.147	2.0.10.242	2.0.10.242	1.0.0.439	7	234	2	3	Verdana	1	80	0	0	0	WM Stimuli\	0.8	1316	0.9	984.222222222222	1	1210.4	0.8	1342.375	0.9	936.444444444444	1	850.4	0.8	1255	0.9	941.222222222222	13	483567	2	483555	27	40	483594	-999999	483570	0	10	TrialsPROC	BP_011_BP4_BA.png	1	2	41	SessionSelectionList														lure	3	Body	0-Back	36	80	33	0	0	80	4	39	312636	2	14	72	310597	-1	311667	1	1070	3	3	2039	53	312650	-54	0											5					41												
WM080112	100408_fnca	1	1	1	971452773	1	75.031	75.031	2.0.10.147	2.0.10.242	2.0.10.242	1.0.0.439	7	234	2	3	Verdana	1	80	0	0	0	WM Stimuli\	0.8	1316	0.9	984.222222222222	1	1210.4	0.8	1342.375	0.9	936.444444444444	1	850.4	0.8	1255	0.9	941.222222222222	13	483567	2	483555	27	40	483594	-999999	483570	0	10	TrialsPROC	BP_009_BP22_BA.png	1	2	42	SessionSelectionList														nonlure	3	Body	0-Back	37	80	34	0	0	81	5	39	315195	2	14	59	313156	-1	314013	1	857	3	3	2039	53	315209	-54	0											6					42												
WM080112	100408_fnca	1	1	1	971452773	1	75.031	75.031	2.0.10.147	2.0.10.242	2.0.10.242	1.0.0.439	7	234	2	3	Verdana	1	80	0	0	0	WM Stimuli\	0.8	1316	0.9	984.222222222222	1	1210.4	0.8	1342.375	0.9	936.444444444444	1	850.4	0.8	1255	0.9	941.222222222222	13	483567	2	483555	27	40	483594	-999999	483570	0	10	TrialsPROC	BP_009_BP22_BA.png	1	2	43	SessionSelectionList														lure	3	Body	0-Back	38	80	35	0	0	82	6	39	317754	1	14	59	315715	-1	316484	1	769	3	3	2039	53	317768	-54	0											7					43												
WM080112	100408_fnca	1	1	1	971452773	1	75.031	75.031	2.0.10.147	2.0.10.242	2.0.10.242	1.0.0.439	7	234	2	3	Verdana	1	80	0	0	0	WM Stimuli\	0.8	1316	0.9	984.222222222222	1	1210.4	0.8	1342.375	0.9	936.444444444444	1	850.4	0.8	1255	0.9	941.222222222222	13	483567	2	483555	27	40	483594	-999999	483570	0	10	TrialsPROC	BP_008_BP21_BA.png	1	2	44	SessionSelectionList														lure	3	Body	0-Back	39	80	36	0	0	83	7	39	320313	2	14	59	318274	-1	319360	1	1086	3	3	2039	53	320327	-54	0											8					44												
WM080112	100408_fnca	1	1	1	971452773	1	75.031	75.031	2.0.10.147	2.0.10.242	2.0.10.242	1.0.0.439	7	234	2	3	Verdana	1	80	0	0	0	WM Stimuli\	0.8	1316	0.9	984.222222222222	1	1210.4	0.8	1342.375	0.9	936.444444444444	1	850.4	0.8	1255	0.9	941.222222222222	13	483567	2	483555	27	40	483594	-999999	483570	0	10	TrialsPROC	BP_007_BP20_BA.png	1	2	45	SessionSelectionList														target	2	Body	0-Back	40	80	37	0	0	84	1	39	322872	2	14	59	320833	-1	321874	1	1041	2	2	2039	53	322886	-54	0											9					45												
WM080112	100408_fnca	1	1	1	971452773	1	75.031	75.031	2.0.10.147	2.0.10.242	2.0.10.242	1.0.0.439	7	234	2	3	Verdana	1	80	0	0	0	WM Stimuli\	0.8	1316	0.9	984.222222222222	1	1210.4	0.8	1342.375	0.9	936.444444444444	1	850.4	0.8	1255	0.9	941.222222222222	13	483567	2	483555	27	40	483594	-999999	483570	0	10	TrialsPROC	BP_012_BP5_BA.png	1	2	46	SessionSelectionList														nonlure	3	Body	0-Back	41	80	38	0	0	85	1	39	325431	1	14	59	323392	-1	324282	1	890	3	3	2039	53	325445	-54	0											10					46												
WM080112	100408_fnca	1	1	1	971452773	1	75.031	75.031	2.0.10.147	2.0.10.242	2.0.10.242	1.0.0.439	7	234	2	3	Verdana	1	80	0	0	0	WM Stimuli\	0.8	1316	0.9	984.222222222222	1	1210.4	0.8	1342.375	0.9	936.444444444444	1	850.4	0.8	1255	0.9	941.222222222222	13	483567	2	483555	27	40	483594	-999999	483570	0	11	Fix15secPROC	""	1	2	47	SessionSelectionList																																															6	325898	-7	0							47												
WM080112	100408_fnca	1	1	1	971452773	1	75.031	75.031	2.0.10.147	2.0.10.242	2.0.10.242	1.0.0.439	7	234	2	3	Verdana	1	80	0	0	0	WM Stimuli\	0.8	1316	0.9	984.222222222222	1	1210.4	0.8	1342.375	0.9	936.444444444444	1	850.4	0.8	1255	0.9	941.222222222222	13	483567	2	483555	27	40	483594	-999999	483570	0	12	Cue0BackPROC	PL_001_92012.png	1	2	48	SessionSelectionList																																										13	340905	-14	0												48												
WM080112	100408_fnca	1	1	1	971452773	1	75.031	75.031	2.0.10.147	2.0.10.242	2.0.10.242	1.0.0.439	7	234	2	3	Verdana	1	80	0	0	0	WM Stimuli\	0.8	1316	0.9	984.222222222222	1	1210.4	0.8	1342.375	0.9	936.444444444444	1	850.4	0.8	1255	0.9	941.222222222222	13	483567	2	483555	27	40	483594	-999999	483570	0	13	TrialsPROC	PL_003_92016.png	1	2	49	SessionSelectionList														nonlure	3	Place	0-Back	42	80	39	0	0	86	2	39	345489	3	14	58	343450	-1	344262	1	812	3	3	2039	53	345503	-54	0												1				49												
WM080112	100408_fnca	1	1	1	971452773	1	75.031	75.031	2.0.10.147	2.0.10.242	2.0.10.242	1.0.0.439	7	234	2	3	Verdana	1	80	0	0	0	WM Stimuli\	0.8	1316	0.9	984.222222222222	1	1210.4	0.8	1342.375	0.9	936.444444444444	1	850.4	0.8	1255	0.9	941.222222222222	13	483567	2	483555	27	40	483594	-999999	483570	0	13	TrialsPROC	PL_003_92016.png	1	2	50	SessionSelectionList														lure	3	Place	0-Back	43	80	40	0	0	86	3	39	348062	2	13	73	346023	-1	347013	1	990	3	3	2039	52	348075	-53	0												2				50												
WM080112	100408_fnca	1	1	1	971452773	1	75.031	75.031	2.0.10.147	2.0.10.242	2.0.10.242	1.0.0.439	7	234	2	3	Verdana	1	80	0	0	0	WM Stimuli\	0.8	1316	0.9	984.222222222222	1	1210.4	0.8	1342.375	0.9	936.444444444444	1	850.4	0.8	1255	0.9	941.222222222222	13	483567	2	483555	27	40	483594	-999999	483570	0	13	TrialsPROC	PL_006_92025.png	1	2	51	SessionSelectionList														nonlure	3	Place	0-Back	44	80	41	0	0	87	4	39	350634	1	14	72	348595	-1	349899	1	1304	3	3	2039	53	350648	-54	0												3				51												
WM080112	100408_fnca	1	1	1	971452773	1	75.031	75.031	2.0.10.147	2.0.10.242	2.0.10.242	1.0.0.439	7	234	2	3	Verdana	1	80	0	0	0	WM Stimuli\	0.8	1316	0.9	984.222222222222	1	1210.4	0.8	1342.375	0.9	936.444444444444	1	850.4	0.8	1255	0.9	941.222222222222	13	483567	2	483555	27	40	483594	-999999	483570	0	13	TrialsPROC	PL_001_92012.png	1	2	52	SessionSelectionList														target	2	Place	0-Back	45	80	42	0	0	88	1	39	353206	3	14	72	351167	-1	351867	1	700	2	2	2039	53	353220	-54	0												4				52												
WM080112	100408_fnca	1	1	1	971452773	1	75.031	75.031	2.0.10.147	2.0.10.242	2.0.10.242	1.0.0.439	7	234	2	3	Verdana	1	80	0	0	0	WM Stimuli\	0.8	1316	0.9	984.222222222222	1	1210.4	0.8	1342.375	0.9	936.444444444444	1	850.4	0.8	1255	0.9	941.222222222222	13	483567	2	483555	27	40	483594	-999999	483570	0	13	TrialsPROC	PL_004_92023.png	1	2	53	SessionSelectionList														nonlure	3	Place	0-Back	46	80	43	0	0	88	1	40	355779	1	13	72	353739	-1	354300	1	561	3	3	2040	53	355792	-54	0												5				53												
WM080112	100408_fnca	1	1	1	971452773	1	75.031	75.031	2.0.10.147	2.0.10.242	2.0.10.242	1.0.0.439	7	234	2	3	Verdana	1	80	0	0	0	WM Stimuli\	0.8	1316	0.9	984.222222222222	1	1210.4	0.8	1342.375	0.9	936.444444444444	1	850.4	0.8	1255	0.9	941.222222222222	13	483567	2	483555	27	40	483594	-999999	483570	0	13	TrialsPROC	PL_005_92024.png	1	2	54	SessionSelectionList														nonlure	3	Place	0-Back	47	80	44	0	0	88	2	39	358351	2	14	73	356312	-1	357296	1	984	3	3	2039	53	358365	-54	0												6				54												
WM080112	100408_fnca	1	1	1	971452773	1	75.031	75.031	2.0.10.147	2.0.10.242	2.0.10.242	1.0.0.439	7	234	2	3	Verdana	1	80	0	0	0	WM Stimuli\	0.8	1316	0.9	984.222222222222	1	1210.4	0.8	1342.375	0.9	936.444444444444	1	850.4	0.8	1255	0.9	941.222222222222	13	483567	2	483555	27	40	483594	-999999	483570	0	13	TrialsPROC	PL_001_92012.png	1	2	55	SessionSelectionList														target	2	Place	0-Back	48	80	45	0	0	89	1	39	360910	1	14	59	358871	-1	359767	1	896	2	2	2039	53	360924	-54	0												7				55												
WM080112	100408_fnca	1	1	1	971452773	1	75.031	75.031	2.0.10.147	2.0.10.242	2.0.10.242	1.0.0.439	7	234	2	3	Verdana	1	80	0	0	0	WM Stimuli\	0.8	1316	0.9	984.222222222222	1	1210.4	0.8	1342.375	0.9	936.444444444444	1	850.4	0.8	1255	0.9	941.222222222222	13	483567	2	483555	27	40	483594	-999999	483570	0	13	TrialsPROC	PL_002_92014.png	1	2	56	SessionSelectionList														nonlure	3	Place	0-Back	49	80	46	0	0	89	1	39	363482	2	14	72	361443	-1	362397	1	954	3	3	2039	53	363496	-54	0												8				56												
WM080112	100408_fnca	1	1	1	971452773	1	75.031	75.031	2.0.10.147	2.0.10.242	2.0.10.242	1.0.0.439	7	234	2	3	Verdana	1	80	0	0	0	WM Stimuli\	0.8	1316	0.9	984.222222222222	1	1210.4	0.8	1342.375	0.9	936.444444444444	1	850.4	0.8	1255	0.9	941.222222222222	13	483567	2	483555	27	40	483594	-999999	483570	0	13	TrialsPROC	PL_004_92023.png	1	2	57	SessionSelectionList														lure	3	Place	0-Back	50	80	47	0	0	90	2	39	366041	2	14	59	364002	-1	364664	1	662	3	3	2039	53	366055	-54	0												9				57												
WM080112	100408_fnca	1	1	1	971452773	1	75.031	75.031	2.0.10.147	2.0.10.242	2.0.10.242	1.0.0.439	7	234	2	3	Verdana	1	80	0	0	0	WM Stimuli\	0.8	1316	0.9	984.222222222222	1	1210.4	0.8	1342.375	0.9	936.444444444444	1	850.4	0.8	1255	0.9	941.222222222222	13	483567	2	483555	27	40	483594	-999999	483570	0	13	TrialsPROC	PL_006_92025.png	1	2	58	SessionSelectionList														lure	3	Place	0-Back	51	80	48	0	0	90	3	39	368613	2	14	72	366574	-1	367215	1	641	3	3	2039	53	368627	-54	0												10				58												
WM080112	100408_fnca	1	1	1	971452773	1	75.031	75.031	2.0.10.147	2.0.10.242	2.0.10.242	1.0.0.439	7	234	2	3	Verdana	1	80	0	0	0	WM Stimuli\	0.8	1316	0.9	984.222222222222	1	1210.4	0.8	1342.375	0.9	936.444444444444	1	850.4	0.8	1255	0.9	941.222222222222	13	483567	2	483555	27	40	483594	-999999	483570	0	14	Cue2BackPROC	""	1	2	59	SessionSelectionList									6	369080	-7	0																																													59												
WM080112	100408_fnca	1	1	1	971452773	1	75.031	75.031	2.0.10.147	2.0.10.242	2.0.10.242	1.0.0.439	7	234	2	3	Verdana	1	80	0	0	0	WM Stimuli\	0.8	1316	0.9	984.222222222222	1	1210.4	0.8	1342.375	0.9	936.444444444444	1	850.4	0.8	1255	0.9	941.222222222222	13	483567	2	483555	27	40	483594	-999999	483570	0	15	TrialsPROC	FC_010_F5.png	1	2	60	SessionSelectionList														nonlure	3	Face	2-Back	52	80	49	0	0	90	4	39	373678	1	14	65	371639	-1	373394	1	1755	3	3	2039	53	373692	-54	0													1			60												
WM080112	100408_fnca	1	1	1	971452773	1	75.031	75.031	2.0.10.147	2.0.10.242	2.0.10.242	1.0.0.439	7	234	2	3	Verdana	1	80	0	0	0	WM Stimuli\	0.8	1316	0.9	984.222222222222	1	1210.4	0.8	1342.375	0.9	936.444444444444	1	850.4	0.8	1255	0.9	941.222222222222	13	483567	2	483555	27	40	483594	-999999	483570	0	15	TrialsPROC	FC_012_F6.png	1	2	61	SessionSelectionList														nonlure	3	Face	2-Back	53	80	50	0	0	90	5	39	376250	2	14	72	374211	-1	375356	1	1145	3	3	2039	53	376264	-54	0													2			61												
WM080112	100408_fnca	1	1	1	971452773	1	75.031	75.031	2.0.10.147	2.0.10.242	2.0.10.242	1.0.0.439	7	234	2	3	Verdana	1	80	0	0	0	WM Stimuli\	0.8	1316	0.9	984.222222222222	1	1210.4	0.8	1342.375	0.9	936.444444444444	1	850.4	0.8	1255	0.9	941.222222222222	13	483567	2	483555	27	40	483594	-999999	483570	0	15	TrialsPROC	FC_010_F5.png	1	2	62	SessionSelectionList														target	2	Face	2-Back	54	80	51	0	0	90	1	40	378823	1	13	72	376783	-1	377727	1	944	2	2	2040	53	378836	-54	0													3			62												
WM080112	100408_fnca	1	1	1	971452773	1	75.031	75.031	2.0.10.147	2.0.10.242	2.0.10.242	1.0.0.439	7	234	2	3	Verdana	1	80	0	0	0	WM Stimuli\	0.8	1316	0.9	984.222222222222	1	1210.4	0.8	1342.375	0.9	936.444444444444	1	850.4	0.8	1255	0.9	941.222222222222	13	483567	2	483555	27	40	483594	-999999	483570	0	15	TrialsPROC	FC_008_F4.png	1	2	63	SessionSelectionList														nonlure	3	Face	2-Back	55	80	52	0	0	90	1	39	381395	1	14	73	379356	-1	380914	1	1558	3	3	2039	53	381409	-54	0													4			63												
WM080112	100408_fnca	1	1	1	971452773	1	75.031	75.031	2.0.10.147	2.0.10.242	2.0.10.242	1.0.0.439	7	234	2	3	Verdana	1	80	0	0	0	WM Stimuli\	0.8	1316	0.9	984.222222222222	1	1210.4	0.8	1342.375	0.9	936.444444444444	1	850.4	0.8	1255	0.9	941.222222222222	13	483567	2	483555	27	40	483594	-999999	483570	0	15	TrialsPROC	FC_012_F6.png	1	2	64	SessionSelectionList														lure	3	Face	2-Back	56	80	53	0	0	90	2	39	383967	3	14	72	381928	-1	383493	1	1565	3	3	2039	53	383981	-54	0													5			64												
WM080112	100408_fnca	1	1	1	971452773	1	75.031	75.031	2.0.10.147	2.0.10.242	2.0.10.242	1.0.0.439	7	234	2	3	Verdana	1	80	0	0	0	WM Stimuli\	0.8	1316	0.9	984.222222222222	1	1210.4	0.8	1342.375	0.9	936.444444444444	1	850.4	0.8	1255	0.9	941.222222222222	13	483567	2	483555	27	40	483594	-999999	483570	0	15	TrialsPROC	FC_008_F4.png	1	2	65	SessionSelectionList														target	2	Face	2-Back	57	80	54	0	0	90	1	39	386539	3	14	72	384500	-1	385406	1	906	2	2	2039	53	386553	-54	0													6			65												
WM080112	100408_fnca	1	1	1	971452773	1	75.031	75.031	2.0.10.147	2.0.10.242	2.0.10.242	1.0.0.439	7	234	2	3	Verdana	1	80	0	0	0	WM Stimuli\	0.8	1316	0.9	984.222222222222	1	1210.4	0.8	1342.375	0.9	936.444444444444	1	850.4	0.8	1255	0.9	941.222222222222	13	483567	2	483555	27	40	483594	-999999	483570	0	15	TrialsPROC	FC_007_M4.png	1	2	66	SessionSelectionList														nonlure	3	Face	2-Back	58	80	55	0	0	90	1	39	389112	2	13	73	387073	-1	387978	1	905	3	3	2039	52	389125	-53	0													7			66												
WM080112	100408_fnca	1	1	1	971452773	1	75.031	75.031	2.0.10.147	2.0.10.242	2.0.10.242	1.0.0.439	7	234	2	3	Verdana	1	80	0	0	0	WM Stimuli\	0.8	1316	0.9	984.222222222222	1	1210.4	0.8	1342.375	0.9	936.444444444444	1	850.4	0.8	1255	0.9	941.222222222222	13	483567	2	483555	27	40	483594	-999999	483570	0	15	TrialsPROC	FC_007_M4.png	1	2	67	SessionSelectionList														lure	3	Face	2-Back	59	80	56	0	0	90	2	39	391684	2	14	72	389645	-1	390835	1	1190	3	3	2039	53	391698	-54	0													8			67												
WM080112	100408_fnca	1	1	1	971452773	1	75.031	75.031	2.0.10.147	2.0.10.242	2.0.10.242	1.0.0.439	7	234	2	3	Verdana	1	80	0	0	0	WM Stimuli\	0.8	1316	0.9	984.222222222222	1	1210.4	0.8	1342.375	0.9	936.444444444444	1	850.4	0.8	1255	0.9	941.222222222222	13	483567	2	483555	27	40	483594	-999999	483570	0	15	TrialsPROC	FC_009_M5.png	1	2	68	SessionSelectionList														nonlure	3	Face	2-Back	60	80	57	0	0	90	3	39	394256	2	14	72	392217	-1	393401	1	1184	3	3	2039	53	394270	-54	0													9			68												
WM080112	100408_fnca	1	1	1	971452773	1	75.031	75.031	2.0.10.147	2.0.10.242	2.0.10.242	1.0.0.439	7	234	2	3	Verdana	1	80	0	0	0	WM Stimuli\	0.8	1316	0.9	984.222222222222	1	1210.4	0.8	1342.375	0.9	936.444444444444	1	850.4	0.8	1255	0.9	941.222222222222	13	483567	2	483555	27	40	483594	-999999	483570	0	15	TrialsPROC	FC_011_M6.png	1	2	69	SessionSelectionList														nonlure	3	Face	2-Back	61	80	58	0	0	90	4	40	396829	2	13	72	394789	-1	395741	1	952	3	3	2040	53	396842	-54	0													10			69												
WM080112	100408_fnca	1	1	1	971452773	1	75.031	75.031	2.0.10.147	2.0.10.242	2.0.10.242	1.0.0.439	7	234	2	3	Verdana	1	80	0	0	0	WM Stimuli\	0.8	1316	0.9	984.222222222222	1	1210.4	0.8	1342.375	0.9	936.444444444444	1	850.4	0.8	1255	0.9	941.222222222222	13	483567	2	483555	27	40	483594	-999999	483570	0	16	Fix15secPROC	""	1	2	70	SessionSelectionList																																															6	397295	-7	0							70												
WM080112	100408_fnca	1	1	1	971452773	1	75.031	75.031	2.0.10.147	2.0.10.242	2.0.10.242	1.0.0.439	7	234	2	3	Verdana	1	80	0	0	0	WM Stimuli\	0.8	1316	0.9	984.222222222222	1	1210.4	0.8	1342.375	0.9	936.444444444444	1	850.4	0.8	1255	0.9	941.222222222222	13	483567	2	483555	27	40	483594	-999999	483570	0	17	Cue0BackPROC	TO_007_TOOL7_BA.png	1	2	71	SessionSelectionList																																										13	412302	-14	0												71												
WM080112	100408_fnca	1	1	1	971452773	1	75.031	75.031	2.0.10.147	2.0.10.242	2.0.10.242	1.0.0.439	7	234	2	3	Verdana	1	80	0	0	0	WM Stimuli\	0.8	1316	0.9	984.222222222222	1	1210.4	0.8	1342.375	0.9	936.444444444444	1	850.4	0.8	1255	0.9	941.222222222222	13	483567	2	483555	27	40	483594	-999999	483570	0	18	TrialsPROC	TO_010_TOOL10_BA.png	1	2	72	SessionSelectionList														nonlure	3	Tools	0-Back	62	80	58	0	1	87	4	39	416887	2	14	59	414848	-1	0	0	0	""	3	2039	53	416901	-54	0														1		72												
WM080112	100408_fnca	1	1	1	971452773	1	75.031	75.031	2.0.10.147	2.0.10.242	2.0.10.242	1.0.0.439	7	234	2	3	Verdana	1	80	0	0	0	WM Stimuli\	0.8	1316	0.9	984.222222222222	1	1210.4	0.8	1342.375	0.9	936.444444444444	1	850.4	0.8	1255	0.9	941.222222222222	13	483567	2	483555	27	40	483594	-999999	483570	0	18	TrialsPROC	TO_009_TOOL9_BA.png	1	2	73	SessionSelectionList														nonlure	3	Tools	0-Back	63	80	59	0	0	88	1	39	419446	2	14	59	417407	-1	419064	1	1657	3	3	2039	53	419460	-54	0														2		73												
WM080112	100408_fnca	1	1	1	971452773	1	75.031	75.031	2.0.10.147	2.0.10.242	2.0.10.242	1.0.0.439	7	234	2	3	Verdana	1	80	0	0	0	WM Stimuli\	0.8	1316	0.9	984.222222222222	1	1210.4	0.8	1342.375	0.9	936.444444444444	1	850.4	0.8	1255	0.9	941.222222222222	13	483567	2	483555	27	40	483594	-999999	483570	0	18	TrialsPROC	TO_009_TOOL9_BA.png	1	2	74	SessionSelectionList														lure	3	Tools	0-Back	64	80	60	0	0	88	2	39	422005	1	14	59	419966	-1	421071	1	1105	3	3	2039	53	422019	-54	0														3		74												
WM080112	100408_fnca	1	1	1	971452773	1	75.031	75.031	2.0.10.147	2.0.10.242	2.0.10.242	1.0.0.439	7	234	2	3	Verdana	1	80	0	0	0	WM Stimuli\	0.8	1316	0.9	984.222222222222	1	1210.4	0.8	1342.375	0.9	936.444444444444	1	850.4	0.8	1255	0.9	941.222222222222	13	483567	2	483555	27	40	483594	-999999	483570	0	18	TrialsPROC	TO_008_TOOL8_BA.png	1	2	75	SessionSelectionList														nonlure	3	Tools	0-Back	65	80	61	0	0	88	3	39	424564	1	14	59	422525	-1	423830	1	1305	3	3	2039	53	424578	-54	0														4		75												
WM080112	100408_fnca	1	1	1	971452773	1	75.031	75.031	2.0.10.147	2.0.10.242	2.0.10.242	1.0.0.439	7	234	2	3	Verdana	1	80	0	0	0	WM Stimuli\	0.8	1316	0.9	984.222222222222	1	1210.4	0.8	1342.375	0.9	936.444444444444	1	850.4	0.8	1255	0.9	941.222222222222	13	483567	2	483555	27	40	483594	-999999	483570	0	18	TrialsPROC	TO_011_TOOL11_BA.png	1	2	76	SessionSelectionList														nonlure	3	Tools	0-Back	66	80	62	0	0	89	4	39	427123	2	14	59	425084	-1	425946	1	862	3	3	2039	53	427137	-54	0														5		76												
WM080112	100408_fnca	1	1	1	971452773	1	75.031	75.031	2.0.10.147	2.0.10.242	2.0.10.242	1.0.0.439	7	234	2	3	Verdana	1	80	0	0	0	WM Stimuli\	0.8	1316	0.9	984.222222222222	1	1210.4	0.8	1342.375	0.9	936.444444444444	1	850.4	0.8	1255	0.9	941.222222222222	13	483567	2	483555	27	40	483594	-999999	483570	0	18	TrialsPROC	TO_012_TOOL12_BA.png	1	2	77	SessionSelectionList														nonlure	3	Tools	0-Back	67	80	63	0	0	89	5	39	429682	1	14	59	427643	-1	428458	1	815	3	3	2039	53	429696	-54	0														6		77												
WM080112	100408_fnca	1	1	1	971452773	1	75.031	75.031	2.0.10.147	2.0.10.242	2.0.10.242	1.0.0.439	7	234	2	3	Verdana	1	80	0	0	0	WM Stimuli\	0.8	1316	0.9	984.222222222222	1	1210.4	0.8	1342.375	0.9	936.444444444444	1	850.4	0.8	1255	0.9	941.222222222222	13	483567	2	483555	27	40	483594	-999999	483570	0	18	TrialsPROC	TO_010_TOOL10_BA.png	1	2	78	SessionSelectionList														lure	3	Tools	0-Back	68	80	64	0	0	89	6	39	432241	1	14	59	430202	-1	430985	1	783	3	3	2039	53	432255	-54	0														7		78												
WM080112	100408_fnca	1	1	1	971452773	1	75.031	75.031	2.0.10.147	2.0.10.242	2.0.10.242	1.0.0.439	7	234	2	3	Verdana	1	80	0	0	0	WM Stimuli\	0.8	1316	0.9	984.222222222222	1	1210.4	0.8	1342.375	0.9	936.444444444444	1	850.4	0.8	1255	0.9	941.222222222222	13	483567	2	483555	27	40	483594	-999999	483570	0	18	TrialsPROC	TO_007_TOOL7_BA.png	1	2	79	SessionSelectionList														target	2	Tools	0-Back	69	80	65	0	0	89	1	39	434800	1	14	59	432761	-1	433378	1	617	2	2	2039	53	434814	-54	0														8		79												
WM080112	100408_fnca	1	1	1	971452773	1	75.031	75.031	2.0.10.147	2.0.10.242	2.0.10.242	1.0.0.439	7	234	2	3	Verdana	1	80	0	0	0	WM Stimuli\	0.8	1316	0.9	984.222222222222	1	1210.4	0.8	1342.375	0.9	936.444444444444	1	850.4	0.8	1255	0.9	941.222222222222	13	483567	2	483555	27	40	483594	-999999	483570	0	18	TrialsPROC	TO_008_TOOL8_BA.png	1	2	80	SessionSelectionList														lure	3	Tools	0-Back	70	80	66	0	0	90	1	39	437359	2	14	59	435320	-1	436116	1	796	3	3	2039	53	437373	-54	0														9		80												
WM080112	100408_fnca	1	1	1	971452773	1	75.031	75.031	2.0.10.147	2.0.10.242	2.0.10.242	1.0.0.439	7	234	2	3	Verdana	1	80	0	0	0	WM Stimuli\	0.8	1316	0.9	984.222222222222	1	1210.4	0.8	1342.375	0.9	936.444444444444	1	850.4	0.8	1255	0.9	941.222222222222	13	483567	2	483555	27	40	483594	-999999	483570	0	18	TrialsPROC	TO_007_TOOL7_BA.png	1	2	81	SessionSelectionList														target	2	Tools	0-Back	71	80	67	0	0	90	1	39	439918	2	14	59	437879	-1	438410	1	531	2	2	2039	53	439932	-54	0														10		81												
WM080112	100408_fnca	1	1	1	971452773	1	75.031	75.031	2.0.10.147	2.0.10.242	2.0.10.242	1.0.0.439	7	234	2	3	Verdana	1	80	0	0	0	WM Stimuli\	0.8	1316	0.9	984.222222222222	1	1210.4	0.8	1342.375	0.9	936.444444444444	1	850.4	0.8	1255	0.9	941.222222222222	13	483567	2	483555	27	40	483594	-999999	483570	0	19	Cue2BackPROC	""	1	2	82	SessionSelectionList									5	440384	-6	0																																													82												
WM080112	100408_fnca	1	1	1	971452773	1	75.031	75.031	2.0.10.147	2.0.10.242	2.0.10.242	1.0.0.439	7	234	2	3	Verdana	1	80	0	0	0	WM Stimuli\	0.8	1316	0.9	984.222222222222	1	1210.4	0.8	1342.375	0.9	936.444444444444	1	850.4	0.8	1255	0.9	941.222222222222	13	483567	2	483555	27	40	483594	-999999	483570	0	20	TrialsPROC	PL_007_92026.png	1	2	83	SessionSelectionList														nonlure	3	Place	2-Back	72	80	67	0	1	90	1	39	444982	3	14	64	442943	-1	0	0	0	""	3	2039	53	444996	-54	0															1	83												
WM080112	100408_fnca	1	1	1	971452773	1	75.031	75.031	2.0.10.147	2.0.10.242	2.0.10.242	1.0.0.439	7	234	2	3	Verdana	1	80	0	0	0	WM Stimuli\	0.8	1316	0.9	984.222222222222	1	1210.4	0.8	1342.375	0.9	936.444444444444	1	850.4	0.8	1255	0.9	941.222222222222	13	483567	2	483555	27	40	483594	-999999	483570	0	20	TrialsPROC	PL_007_92026.png	1	2	84	SessionSelectionList														lure	3	Place	2-Back	73	80	68	0	0	90	1	40	447555	1	13	72	445515	-1	446065	1	550	3	3	2040	53	447568	-54	0															2	84												
WM080112	100408_fnca	1	1	1	971452773	1	75.031	75.031	2.0.10.147	2.0.10.242	2.0.10.242	1.0.0.439	7	234	2	3	Verdana	1	80	0	0	0	WM Stimuli\	0.8	1316	0.9	984.222222222222	1	1210.4	0.8	1342.375	0.9	936.444444444444	1	850.4	0.8	1255	0.9	941.222222222222	13	483567	2	483555	27	40	483594	-999999	483570	0	20	TrialsPROC	PL_010_92038.png	1	2	85	SessionSelectionList														nonlure	3	Place	2-Back	74	80	69	0	0	90	2	39	450127	1	14	73	448088	-1	449357	1	1269	3	3	2039	53	450141	-54	0															3	85												
WM080112	100408_fnca	1	1	1	971452773	1	75.031	75.031	2.0.10.147	2.0.10.242	2.0.10.242	1.0.0.439	7	234	2	3	Verdana	1	80	0	0	0	WM Stimuli\	0.8	1316	0.9	984.222222222222	1	1210.4	0.8	1342.375	0.9	936.444444444444	1	850.4	0.8	1255	0.9	941.222222222222	13	483567	2	483555	27	40	483594	-999999	483570	0	20	TrialsPROC	PL_009_92037.png	1	2	86	SessionSelectionList														nonlure	3	Place	2-Back	75	80	70	0	0	90	3	39	452699	3	14	72	450660	-1	451433	1	773	3	3	2039	53	452713	-54	0															4	86												
WM080112	100408_fnca	1	1	1	971452773	1	75.031	75.031	2.0.10.147	2.0.10.242	2.0.10.242	1.0.0.439	7	234	2	3	Verdana	1	80	0	0	0	WM Stimuli\	0.8	1316	0.9	984.222222222222	1	1210.4	0.8	1342.375	0.9	936.444444444444	1	850.4	0.8	1255	0.9	941.222222222222	13	483567	2	483555	27	40	483594	-999999	483570	0	20	TrialsPROC	PL_010_92038.png	1	2	87	SessionSelectionList														target	2	Place	2-Back	76	80	71	0	0	90	1	38	455258	3	14	60	453220	-1	454139	1	919	2	2	2038	52	455272	-53	0															5	87												
WM080112	100408_fnca	1	1	1	971452773	1	75.031	75.031	2.0.10.147	2.0.10.242	2.0.10.242	1.0.0.439	7	234	2	3	Verdana	1	80	0	0	0	WM Stimuli\	0.8	1316	0.9	984.222222222222	1	1210.4	0.8	1342.375	0.9	936.444444444444	1	850.4	0.8	1255	0.9	941.222222222222	13	483567	2	483555	27	40	483594	-999999	483570	0	20	TrialsPROC	PL_009_92037.png	1	2	88	SessionSelectionList														target	2	Place	2-Back	77	80	72	0	0	90	2	39	457817	2	14	58	455778	-1	456698	1	920	2	2	2039	53	457831	-54	0															6	88												
WM080112	100408_fnca	1	1	1	971452773	1	75.031	75.031	2.0.10.147	2.0.10.242	2.0.10.242	1.0.0.439	7	234	2	3	Verdana	1	80	0	0	0	WM Stimuli\	0.8	1316	0.9	984.222222222222	1	1210.4	0.8	1342.375	0.9	936.444444444444	1	850.4	0.8	1255	0.9	941.222222222222	13	483567	2	483555	27	40	483594	-999999	483570	0	20	TrialsPROC	PL_008_92033.png	1	2	89	SessionSelectionList														nonlure	3	Place	2-Back	78	80	73	0	0	90	1	39	460389	3	14	72	458350	-1	459381	1	1031	3	3	2039	53	460403	-54	0															7	89												
WM080112	100408_fnca	1	1	1	971452773	1	75.031	75.031	2.0.10.147	2.0.10.242	2.0.10.242	1.0.0.439	7	234	2	3	Verdana	1	80	0	0	0	WM Stimuli\	0.8	1316	0.9	984.222222222222	1	1210.4	0.8	1342.375	0.9	936.444444444444	1	850.4	0.8	1255	0.9	941.222222222222	13	483567	2	483555	27	40	483594	-999999	483570	0	20	TrialsPROC	PL_012_92047.png	1	2	90	SessionSelectionList														nonlure	3	Place	2-Back	79	80	74	0	0	90	2	39	462962	1	13	73	460923	-1	462019	1	1096	3	3	2039	52	462975	-53	0															8	90												
WM080112	100408_fnca	1	1	1	971452773	1	75.031	75.031	2.0.10.147	2.0.10.242	2.0.10.242	1.0.0.439	7	234	2	3	Verdana	1	80	0	0	0	WM Stimuli\	0.8	1316	0.9	984.222222222222	1	1210.4	0.8	1342.375	0.9	936.444444444444	1	850.4	0.8	1255	0.9	941.222222222222	13	483567	2	483555	27	40	483594	-999999	483570	0	20	TrialsPROC	PL_012_92047.png	1	2	91	SessionSelectionList														lure	3	Place	2-Back	80	80	75	0	0	90	3	39	465521	2	13	59	463482	-1	464316	1	834	3	3	2039	52	465534	-53	0															9	91												
WM080112	100408_fnca	1	1	1	971452773	1	75.031	75.031	2.0.10.147	2.0.10.242	2.0.10.242	1.0.0.439	7	234	2	3	Verdana	1	80	0	0	0	WM Stimuli\	0.8	1316	0.9	984.222222222222	1	1210.4	0.8	1342.375	0.9	936.444444444444	1	850.4	0.8	1255	0.9	941.222222222222	13	483567	2	483555	27	40	483594	-999999	483570	0	20	TrialsPROC	PL_011_92044.png	1	2	92	SessionSelectionList														nonlure	3	Place	2-Back	80	80	76	0	0	90	4	39	468093	2	14	72	466054	-1	467090	1	1036	3	3	2039	53	468107	-54	0															10	92												
WM080112	100408_fnca	1	1	1	971452773	1	75.031	75.031	2.0.10.147	2.0.10.242	2.0.10.242	1.0.0.439	7	234	2	3	Verdana	1	80	0	0	0	WM Stimuli\	0.8	1316	0.9	984.222222222222	1	1210.4	0.8	1342.375	0.9	936.444444444444	1	850.4	0.8	1255	0.9	941.222222222222	13	483567	2	483555	27	40	483594	-999999	483570	0	21	Fix15secPROC	""	1	2	93	SessionSelectionList																																															6	468560	-7	0							93												
