ExperimentName	HCPID	RunNumber	Subject	Session	RandomSeed	Group	Laptop.RefreshRate	ScannerD2.RefreshRate	StudioVersion	RuntimeVersion	RuntimeVersionExpected	ExperimentVersion	triggercode	Allowed	Target	Nontarget	FontStyle	RunTrialNumber[Session]	TrialsPerRun[Session]	TotalRespGreater200[Session]	ConsecRTLess200[Session]	ConsecNonResp[Session]	StimuliDir	ACC_2_Back_Body	Avg_RT_For_Correct_Trials_2_Back_Body	ACC_0_Back_Body	Avg_RT_For_Correct_Trials_0_Back_Body	ACC_2_Back_Face	Avg_RT_For_Correct_Trials_2_Back_Face	ACC_0_Back_Face	Avg_RT_For_Correct_Trials_0_Back_Face	ACC_2_Back_Place	Avg_RT_For_Correct_Trials_2_Back_Place	ACC_0_Back_Place	Avg_RT_For_Correct_Trials_0_Back_Place	ACC_2_Back_Tools	Avg_RT_For_Correct_Trials_2_Back_Tools	ACC_0_Back_Tools	Avg_RT_For_Correct_Trials_0_Back_Tools	ExpInstrucFeelFreeToRest.OnsetDelay	ExpInstrucFeelFreeToRest.OnsetTime	ExpInstrucFeelFreeToRest.DurationError	ExpInstrucFeelFreeToRest.StartTime	ExpInstrucFeelFreeToRest.OnsetToOnsetTime	FeelFreeToRest.OnsetDelay	FeelFreeToRest.OnsetTime	FeelFreeToRest.DurationError	FeelFreeToRest.StartTime	FeelFreeToRest.OnsetToOnsetTime	SessionSelectionList	Procedure[Block]	Stimulus[Block]	RunNumberFilterValue	SessionSelectionList.Cycle	SessionSelectionList.Sample	Running[Block]	IntroButtonMap.OnsetDelay	IntroButtonMap.OnsetTime	IntroButtonMap.DurationError	IntroButtonMap.OnsetToOnsetTime	GetReady.OnsetDelay	GetReady.OnsetTime	GetReady.DurationError	GetReady.OnsetToOnsetTime	Cue2Back.OnsetDelay	Cue2Back.OnsetTime	Cue2Back.DurationError	Cue2Back.OnsetToOnsetTime	Run1Block1	TargetType	CorrectResponse	StimType	BlockType	RunTrialNumber[Block]	TrialsPerRun[Block]	TotalRespGreater200[Block]	ConsecRTLess200[Block]	ConsecNonResp[Block]	ControlAcc	ConsecSameResp	ExperimenterWindow.OnsetDelay	ExperimenterWindow.OnsetTime	ExperimenterWindow.DurationError	ExperimenterWindow.OnsetToOnsetTime	Stim.OnsetDelay	Stim.OnsetTime	Stim.DurationError	Stim.RTTime	Stim.ACC	Stim.RT	Stim.RESP	Stim.CRESP	Stim.OnsetToOnsetTime	Fix.OnsetDelay	Fix.OnsetTime	Fix.DurationError	Fix.OnsetToOnsetTime	CueTarget.OnsetDelay	CueTarget.OnsetTime	CueTarget.DurationError	CueTarget.OnsetToOnsetTime	Run1Block2	Fix15sec.OnsetDelay	Fix15sec.OnsetTime	Fix15sec.DurationError	Fix15sec.OnsetToOnsetTime	Run1Block3	Run1Block4	Run1Block5	Run1Block6	Run1Block7	Run1Block8	Block	Procedure[Trial]	Stimulus[Trial]	ReadyList	Running[Trial]	ReadyList.Cycle	ReadyList.Sample	SyncSlide.OnsetDelay	SyncSlide.OnsetTime	SyncSlide.DurationError	SyncSlide.FinishTime	SyncSlide.OnsetToOnsetTime	Trial
WM080112	189450_fnca	3	1	1	-319984605	1	75.032	75.031	2.0.10.147	2.0.10.242	2.0.10.242	1.0.0.439	7	234	2	3	Verdana	1	80	0	0	0	WM Stimuli\	0.6	939.666666666667	1	1019.6	0.7	1234.14285714286	1	777.3	0.9	1213.66666666667	1	603.7	0.8	1190	1	800.9	13	316346	2	316334	27	40	316373	-999999	316349	0	43	TRSyncPROC	""	3	2	1	SessionSelectionList	107	6396	-999999	0	36	6663	-999999	0																																																	1	InitialTR	4	1	ReadyList	1	1	14	22069	-15	24054	0	1
WM080112	189450_fnca	3	1	1	-319984605	1	75.032	75.031	2.0.10.147	2.0.10.242	2.0.10.242	1.0.0.439	7	234	2	3	Verdana	1	80	0	0	0	WM Stimuli\	0.6	939.666666666667	1	1019.6	0.7	1234.14285714286	1	777.3	0.9	1213.66666666667	1	603.7	0.8	1190	1	800.9	13	316346	2	316334	27	40	316373	-999999	316349	0	43	TRSyncPROC	""	3	2	1	SessionSelectionList	107	6396	-999999	0	36	6663	-999999	0																																																	1	InitialTR	3	2	ReadyList	1	2	13	24068	-14	26054	0	2
WM080112	189450_fnca	3	1	1	-319984605	1	75.032	75.031	2.0.10.147	2.0.10.242	2.0.10.242	1.0.0.439	7	234	2	3	Verdana	1	80	0	0	0	WM Stimuli\	0.6	939.666666666667	1	1019.6	0.7	1234.14285714286	1	777.3	0.9	1213.66666666667	1	603.7	0.8	1190	1	800.9	13	316346	2	316334	27	40	316373	-999999	316349	0	43	TRSyncPROC	""	3	2	1	SessionSelectionList	107	6396	-999999	0	36	6663	-999999	0																																																	1	InitialTR	2	3	ReadyList	1	3	13	26068	-14	28054	0	3
WM080112	189450_fnca	3	1	1	-319984605	1	75.032	75.031	2.0.10.147	2.0.10.242	2.0.10.242	1.0.0.439	7	234	2	3	Verdana	1	80	0	0	0	WM Stimuli\	0.6	939.666666666667	1	1019.6	0.7	1234.14285714286	1	777.3	0.9	1213.66666666667	1	603.7	0.8	1190	1	800.9	13	316346	2	316334	27	40	316373	-999999	316349	0	43	TRSyncPROC	""	3	2	1	SessionSelectionList	107	6396	-999999	0	36	6663	-999999	0																																																	1	InitialTR	1	4	ReadyList	1	4	12	28067	-13	30054	0	4
WM080112	189450_fnca	3	1	1	-319984605	1	75.032	75.031	2.0.10.147	2.0.10.242	2.0.10.242	1.0.0.439	7	234	2	3	Verdana	1	80	0	0	0	WM Stimuli\	0.6	939.666666666667	1	1019.6	0.7	1234.14285714286	1	777.3	0.9	1213.66666666667	1	603.7	0.8	1190	1	800.9	13	316346	2	316334	27	40	316373	-999999	316349	0	44	Cue0BackPROC	TO_025_TOOL25_BA.png	3	2	2	SessionSelectionList																																										38	30093	-39	0												2												
WM080112	189450_fnca	3	1	1	-319984605	1	75.032	75.031	2.0.10.147	2.0.10.242	2.0.10.242	1.0.0.439	7	234	2	3	Verdana	1	80	0	0	0	WM Stimuli\	0.6	939.666666666667	1	1019.6	0.7	1234.14285714286	1	777.3	0.9	1213.66666666667	1	603.7	0.8	1190	1	800.9	13	316346	2	316334	27	40	316373	-999999	316349	0	45	TrialsPROC	TO_028_TOOL28_BA.png	3	2	3	SessionSelectionList														nonlure	3	Tools	0-Back	2	80	1	0	0	100	1	53	34731	2	13	123	32678	-1	34004	1	1326	3	3	2053	66	34744	-67	0																3												
WM080112	189450_fnca	3	1	1	-319984605	1	75.032	75.031	2.0.10.147	2.0.10.242	2.0.10.242	1.0.0.439	7	234	2	3	Verdana	1	80	0	0	0	WM Stimuli\	0.6	939.666666666667	1	1019.6	0.7	1234.14285714286	1	777.3	0.9	1213.66666666667	1	603.7	0.8	1190	1	800.9	13	316346	2	316334	27	40	316373	-999999	316349	0	45	TrialsPROC	TO_026_TOOL26_BA.png	3	2	4	SessionSelectionList														nonlure	3	Tools	0-Back	3	80	2	0	0	100	2	40	37290	2	13	72	35250	-1	36087	1	837	3	3	2040	53	37303	-54	0																4												
WM080112	189450_fnca	3	1	1	-319984605	1	75.032	75.031	2.0.10.147	2.0.10.242	2.0.10.242	1.0.0.439	7	234	2	3	Verdana	1	80	0	0	0	WM Stimuli\	0.6	939.666666666667	1	1019.6	0.7	1234.14285714286	1	777.3	0.9	1213.66666666667	1	603.7	0.8	1190	1	800.9	13	316346	2	316334	27	40	316373	-999999	316349	0	45	TrialsPROC	TO_025_TOOL25_BA.png	3	2	5	SessionSelectionList														target	2	Tools	0-Back	4	80	3	0	0	100	1	39	39848	2	14	59	37809	-1	38534	1	725	2	2	2039	53	39862	-54	0																5												
WM080112	189450_fnca	3	1	1	-319984605	1	75.032	75.031	2.0.10.147	2.0.10.242	2.0.10.242	1.0.0.439	7	234	2	3	Verdana	1	80	0	0	0	WM Stimuli\	0.6	939.666666666667	1	1019.6	0.7	1234.14285714286	1	777.3	0.9	1213.66666666667	1	603.7	0.8	1190	1	800.9	13	316346	2	316334	27	40	316373	-999999	316349	0	45	TrialsPROC	TO_026_TOOL26_BA.png	3	2	6	SessionSelectionList														lure	3	Tools	0-Back	5	80	4	0	0	100	1	39	42421	1	13	73	40382	-1	41133	1	751	3	3	2039	52	42434	-53	0																6												
WM080112	189450_fnca	3	1	1	-319984605	1	75.032	75.031	2.0.10.147	2.0.10.242	2.0.10.242	1.0.0.439	7	234	2	3	Verdana	1	80	0	0	0	WM Stimuli\	0.6	939.666666666667	1	1019.6	0.7	1234.14285714286	1	777.3	0.9	1213.66666666667	1	603.7	0.8	1190	1	800.9	13	316346	2	316334	27	40	316373	-999999	316349	0	45	TrialsPROC	TO_030_TOOL30_BA.png	3	2	7	SessionSelectionList														nonlure	3	Tools	0-Back	6	80	5	0	0	100	2	39	45006	2	14	85	42967	-1	43614	1	647	3	3	2039	53	45020	-54	0																7												
WM080112	189450_fnca	3	1	1	-319984605	1	75.032	75.031	2.0.10.147	2.0.10.242	2.0.10.242	1.0.0.439	7	234	2	3	Verdana	1	80	0	0	0	WM Stimuli\	0.6	939.666666666667	1	1019.6	0.7	1234.14285714286	1	777.3	0.9	1213.66666666667	1	603.7	0.8	1190	1	800.9	13	316346	2	316334	27	40	316373	-999999	316349	0	45	TrialsPROC	TO_025_TOOL25_BA.png	3	2	8	SessionSelectionList														target	2	Tools	0-Back	7	80	6	0	0	100	1	39	47565	2	14	59	45526	-1	46201	1	675	2	2	2039	53	47579	-54	0																8												
WM080112	189450_fnca	3	1	1	-319984605	1	75.032	75.031	2.0.10.147	2.0.10.242	2.0.10.242	1.0.0.439	7	234	2	3	Verdana	1	80	0	0	0	WM Stimuli\	0.6	939.666666666667	1	1019.6	0.7	1234.14285714286	1	777.3	0.9	1213.66666666667	1	603.7	0.8	1190	1	800.9	13	316346	2	316334	27	40	316373	-999999	316349	0	45	TrialsPROC	TO_027_TOOL27_BA.png	3	2	9	SessionSelectionList														nonlure	3	Tools	0-Back	8	80	7	0	0	100	1	39	50151	1	13	86	48112	-1	49066	1	954	3	3	2039	52	50164	-53	0																9												
WM080112	189450_fnca	3	1	1	-319984605	1	75.032	75.031	2.0.10.147	2.0.10.242	2.0.10.242	1.0.0.439	7	234	2	3	Verdana	1	80	0	0	0	WM Stimuli\	0.6	939.666666666667	1	1019.6	0.7	1234.14285714286	1	777.3	0.9	1213.66666666667	1	603.7	0.8	1190	1	800.9	13	316346	2	316334	27	40	316373	-999999	316349	0	45	TrialsPROC	TO_030_TOOL30_BA.png	3	2	10	SessionSelectionList														lure	3	Tools	0-Back	9	80	8	0	0	100	2	39	52710	1	13	59	50671	-1	51278	1	607	3	3	2039	52	52723	-53	0																10												
WM080112	189450_fnca	3	1	1	-319984605	1	75.032	75.031	2.0.10.147	2.0.10.242	2.0.10.242	1.0.0.439	7	234	2	3	Verdana	1	80	0	0	0	WM Stimuli\	0.6	939.666666666667	1	1019.6	0.7	1234.14285714286	1	777.3	0.9	1213.66666666667	1	603.7	0.8	1190	1	800.9	13	316346	2	316334	27	40	316373	-999999	316349	0	45	TrialsPROC	TO_028_TOOL28_BA.png	3	2	11	SessionSelectionList														lure	3	Tools	0-Back	10	80	9	0	0	100	3	39	55269	1	13	59	53230	-1	53939	1	709	3	3	2039	52	55282	-53	0																11												
WM080112	189450_fnca	3	1	1	-319984605	1	75.032	75.031	2.0.10.147	2.0.10.242	2.0.10.242	1.0.0.439	7	234	2	3	Verdana	1	80	0	0	0	WM Stimuli\	0.6	939.666666666667	1	1019.6	0.7	1234.14285714286	1	777.3	0.9	1213.66666666667	1	603.7	0.8	1190	1	800.9	13	316346	2	316334	27	40	316373	-999999	316349	0	45	TrialsPROC	TO_029_TOOL29_BA.png	3	2	12	SessionSelectionList														nonlure	3	Tools	0-Back	11	80	10	0	0	100	4	39	57854	2	14	85	55815	-1	56593	1	778	3	3	2039	53	57868	-54	0																12												
WM080112	189450_fnca	3	1	1	-319984605	1	75.032	75.031	2.0.10.147	2.0.10.242	2.0.10.242	1.0.0.439	7	234	2	3	Verdana	1	80	0	0	0	WM Stimuli\	0.6	939.666666666667	1	1019.6	0.7	1234.14285714286	1	777.3	0.9	1213.66666666667	1	603.7	0.8	1190	1	800.9	13	316346	2	316334	27	40	316373	-999999	316349	0	46	Cue2BackPROC	""	3	2	13	SessionSelectionList									6	58321	-7	0																																													13												
WM080112	189450_fnca	3	1	1	-319984605	1	75.032	75.031	2.0.10.147	2.0.10.242	2.0.10.242	1.0.0.439	7	234	2	3	Verdana	1	80	0	0	0	WM Stimuli\	0.6	939.666666666667	1	1019.6	0.7	1234.14285714286	1	777.3	0.9	1213.66666666667	1	603.7	0.8	1190	1	800.9	13	316346	2	316334	27	40	316373	-999999	316349	0	47	TrialsPROC	FC_029_M15.png	3	2	14	SessionSelectionList														nonlure	3	Face	2-Back	12	80	11	0	0	100	5	39	62945	2	14	91	60906	-1	61611	1	705	3	3	2039	53	62959	-54	0																14												
WM080112	189450_fnca	3	1	1	-319984605	1	75.032	75.031	2.0.10.147	2.0.10.242	2.0.10.242	1.0.0.439	7	234	2	3	Verdana	1	80	0	0	0	WM Stimuli\	0.6	939.666666666667	1	1019.6	0.7	1234.14285714286	1	777.3	0.9	1213.66666666667	1	603.7	0.8	1190	1	800.9	13	316346	2	316334	27	40	316373	-999999	316349	0	47	TrialsPROC	FC_026_F13.png	3	2	15	SessionSelectionList														nonlure	3	Face	2-Back	13	80	12	0	0	100	6	39	65531	1	14	86	63492	-1	64754	1	1262	3	3	2039	53	65545	-54	0																15												
WM080112	189450_fnca	3	1	1	-319984605	1	75.032	75.031	2.0.10.147	2.0.10.242	2.0.10.242	1.0.0.439	7	234	2	3	Verdana	1	80	0	0	0	WM Stimuli\	0.6	939.666666666667	1	1019.6	0.7	1234.14285714286	1	777.3	0.9	1213.66666666667	1	603.7	0.8	1190	1	800.9	13	316346	2	316334	27	40	316373	-999999	316349	0	47	TrialsPROC	FC_029_M15.png	3	2	16	SessionSelectionList														target	2	Face	2-Back	14	80	13	0	0	100	1	39	68103	2	14	72	66064	-1	66751	1	687	2	2	2039	53	68117	-54	0																16												
WM080112	189450_fnca	3	1	1	-319984605	1	75.032	75.031	2.0.10.147	2.0.10.242	2.0.10.242	1.0.0.439	7	234	2	3	Verdana	1	80	0	0	0	WM Stimuli\	0.6	939.666666666667	1	1019.6	0.7	1234.14285714286	1	777.3	0.9	1213.66666666667	1	603.7	0.8	1190	1	800.9	13	316346	2	316334	27	40	316373	-999999	316349	0	47	TrialsPROC	FC_028_F14.png	3	2	17	SessionSelectionList														nonlure	3	Face	2-Back	15	80	14	0	0	100	1	39	70702	2	14	99	68663	-1	70224	1	1561	3	3	2039	53	70716	-54	0																17												
WM080112	189450_fnca	3	1	1	-319984605	1	75.032	75.031	2.0.10.147	2.0.10.242	2.0.10.242	1.0.0.439	7	234	2	3	Verdana	1	80	0	0	0	WM Stimuli\	0.6	939.666666666667	1	1019.6	0.7	1234.14285714286	1	777.3	0.9	1213.66666666667	1	603.7	0.8	1190	1	800.9	13	316346	2	316334	27	40	316373	-999999	316349	0	47	TrialsPROC	FC_025_M13.png	3	2	18	SessionSelectionList														nonlure	3	Face	2-Back	16	80	15	0	0	100	2	39	73288	1	13	86	71249	-1	72603	1	1354	3	3	2039	52	73301	-53	0																18												
WM080112	189450_fnca	3	1	1	-319984605	1	75.032	75.031	2.0.10.147	2.0.10.242	2.0.10.242	1.0.0.439	7	234	2	3	Verdana	1	80	0	0	0	WM Stimuli\	0.6	939.666666666667	1	1019.6	0.7	1234.14285714286	1	777.3	0.9	1213.66666666667	1	603.7	0.8	1190	1	800.9	13	316346	2	316334	27	40	316373	-999999	316349	0	47	TrialsPROC	FC_026_F13.png	3	2	19	SessionSelectionList														lure	3	Face	2-Back	17	80	16	0	0	100	3	39	75860	1	14	72	73821	-1	75172	1	1351	3	3	2039	53	75874	-54	0																19												
WM080112	189450_fnca	3	1	1	-319984605	1	75.032	75.031	2.0.10.147	2.0.10.242	2.0.10.242	1.0.0.439	7	234	2	3	Verdana	1	80	0	0	0	WM Stimuli\	0.6	939.666666666667	1	1019.6	0.7	1234.14285714286	1	777.3	0.9	1213.66666666667	1	603.7	0.8	1190	1	800.9	13	316346	2	316334	27	40	316373	-999999	316349	0	47	TrialsPROC	FC_027_M14.png	3	2	20	SessionSelectionList														nonlure	3	Face	2-Back	18	80	17	0	0	100	4	40	78446	1	13	85	76406	-1	78125	1	1719	3	3	2040	53	78459	-54	0																20												
WM080112	189450_fnca	3	1	1	-319984605	1	75.032	75.031	2.0.10.147	2.0.10.242	2.0.10.242	1.0.0.439	7	234	2	3	Verdana	1	80	0	0	0	WM Stimuli\	0.6	939.666666666667	1	1019.6	0.7	1234.14285714286	1	777.3	0.9	1213.66666666667	1	603.7	0.8	1190	1	800.9	13	316346	2	316334	27	40	316373	-999999	316349	0	47	TrialsPROC	FC_028_F14.png	3	2	21	SessionSelectionList														lure	3	Face	2-Back	19	80	18	0	0	100	1	39	81018	1	13	73	78979	-1	80387	0	1408	2	3	2039	52	81031	-53	0																21												
WM080112	189450_fnca	3	1	1	-319984605	1	75.032	75.031	2.0.10.147	2.0.10.242	2.0.10.242	1.0.0.439	7	234	2	3	Verdana	1	80	0	0	0	WM Stimuli\	0.6	939.666666666667	1	1019.6	0.7	1234.14285714286	1	777.3	0.9	1213.66666666667	1	603.7	0.8	1190	1	800.9	13	316346	2	316334	27	40	316373	-999999	316349	0	47	TrialsPROC	FC_027_M14.png	3	2	22	SessionSelectionList														target	2	Face	2-Back	20	80	19	0	0	100	1	39	83590	2	14	72	81551	-1	83195	0	1644	3	2	2039	53	83604	-54	0																22												
WM080112	189450_fnca	3	1	1	-319984605	1	75.032	75.031	2.0.10.147	2.0.10.242	2.0.10.242	1.0.0.439	7	234	2	3	Verdana	1	80	0	0	0	WM Stimuli\	0.6	939.666666666667	1	1019.6	0.7	1234.14285714286	1	777.3	0.9	1213.66666666667	1	603.7	0.8	1190	1	800.9	13	316346	2	316334	27	40	316373	-999999	316349	0	47	TrialsPROC	FC_030_F15.png	3	2	23	SessionSelectionList														nonlure	3	Face	2-Back	21	80	19	0	1	100	1	39	86189	1	14	99	84150	-1	0	0	0	""	3	2039	53	86203	-54	0																23												
WM080112	189450_fnca	3	1	1	-319984605	1	75.032	75.031	2.0.10.147	2.0.10.242	2.0.10.242	1.0.0.439	7	234	2	3	Verdana	1	80	0	0	0	WM Stimuli\	0.6	939.666666666667	1	1019.6	0.7	1234.14285714286	1	777.3	0.9	1213.66666666667	1	603.7	0.8	1190	1	800.9	13	316346	2	316334	27	40	316373	-999999	316349	0	48	Fix15secPROC	""	3	2	24	SessionSelectionList																																															6	86656	-7	0							24												
WM080112	189450_fnca	3	1	1	-319984605	1	75.032	75.031	2.0.10.147	2.0.10.242	2.0.10.242	1.0.0.439	7	234	2	3	Verdana	1	80	0	0	0	WM Stimuli\	0.6	939.666666666667	1	1019.6	0.7	1234.14285714286	1	777.3	0.9	1213.66666666667	1	603.7	0.8	1190	1	800.9	13	316346	2	316334	27	40	316373	-999999	316349	0	49	Cue0BackPROC	BP_026_H8-T_BA.png	3	2	25	SessionSelectionList																																										39	101689	-40	0												25												
WM080112	189450_fnca	3	1	1	-319984605	1	75.032	75.031	2.0.10.147	2.0.10.242	2.0.10.242	1.0.0.439	7	234	2	3	Verdana	1	80	0	0	0	WM Stimuli\	0.6	939.666666666667	1	1019.6	0.7	1234.14285714286	1	777.3	0.9	1213.66666666667	1	603.7	0.8	1190	1	800.9	13	316346	2	316334	27	40	316373	-999999	316349	0	50	TrialsPROC	BP_026_H8-T_BA.png	3	2	26	SessionSelectionList														target	2	Body	0-Back	22	80	20	0	0	100	1	39	106247	2	14	58	104208	-1	105968	1	1760	2	2	2039	53	106261	-54	0																26												
WM080112	189450_fnca	3	1	1	-319984605	1	75.032	75.031	2.0.10.147	2.0.10.242	2.0.10.242	1.0.0.439	7	234	2	3	Verdana	1	80	0	0	0	WM Stimuli\	0.6	939.666666666667	1	1019.6	0.7	1234.14285714286	1	777.3	0.9	1213.66666666667	1	603.7	0.8	1190	1	800.9	13	316346	2	316334	27	40	316373	-999999	316349	0	50	TrialsPROC	BP_031_FLBHS_BA.png	3	2	27	SessionSelectionList														nonlure	3	Body	0-Back	23	80	21	0	0	100	1	39	108846	2	14	99	106807	-1	108044	1	1237	3	3	2039	53	108860	-54	0																27												
WM080112	189450_fnca	3	1	1	-319984605	1	75.032	75.031	2.0.10.147	2.0.10.242	2.0.10.242	1.0.0.439	7	234	2	3	Verdana	1	80	0	0	0	WM Stimuli\	0.6	939.666666666667	1	1019.6	0.7	1234.14285714286	1	777.3	0.9	1213.66666666667	1	603.7	0.8	1190	1	800.9	13	316346	2	316334	27	40	316373	-999999	316349	0	50	TrialsPROC	BP_027_FBBHI_BA.png	3	2	28	SessionSelectionList														nonlure	3	Body	0-Back	24	80	22	0	0	100	2	39	111432	1	13	86	109393	-1	110176	1	783	3	3	2039	52	111445	-53	0																28												
WM080112	189450_fnca	3	1	1	-319984605	1	75.032	75.031	2.0.10.147	2.0.10.242	2.0.10.242	1.0.0.439	7	234	2	3	Verdana	1	80	0	0	0	WM Stimuli\	0.6	939.666666666667	1	1019.6	0.7	1234.14285714286	1	777.3	0.9	1213.66666666667	1	603.7	0.8	1190	1	800.9	13	316346	2	316334	27	40	316373	-999999	316349	0	50	TrialsPROC	BP_026_H8-T_BA.png	3	2	29	SessionSelectionList														target	2	Body	0-Back	25	80	23	0	0	100	1	39	113991	1	13	59	111952	-1	112702	1	750	2	2	2039	52	114004	-53	0																29												
WM080112	189450_fnca	3	1	1	-319984605	1	75.032	75.031	2.0.10.147	2.0.10.242	2.0.10.242	1.0.0.439	7	234	2	3	Verdana	1	80	0	0	0	WM Stimuli\	0.6	939.666666666667	1	1019.6	0.7	1234.14285714286	1	777.3	0.9	1213.66666666667	1	603.7	0.8	1190	1	800.9	13	316346	2	316334	27	40	316373	-999999	316349	0	50	TrialsPROC	BP_027_FBBHI_BA.png	3	2	30	SessionSelectionList														lure	3	Body	0-Back	26	80	24	0	0	100	1	39	116550	1	13	59	114511	-1	115229	1	718	3	3	2039	52	116563	-53	0																30												
WM080112	189450_fnca	3	1	1	-319984605	1	75.032	75.031	2.0.10.147	2.0.10.242	2.0.10.242	1.0.0.439	7	234	2	3	Verdana	1	80	0	0	0	WM Stimuli\	0.6	939.666666666667	1	1019.6	0.7	1234.14285714286	1	777.3	0.9	1213.66666666667	1	603.7	0.8	1190	1	800.9	13	316346	2	316334	27	40	316373	-999999	316349	0	50	TrialsPROC	BP_030_FLBFS_BA.png	3	2	31	SessionSelectionList														nonlure	3	Body	0-Back	27	80	25	0	0	100	2	39	119135	2	14	85	117096	-1	118512	1	1416	3	3	2039	53	119149	-54	0																31												
WM080112	189450_fnca	3	1	1	-319984605	1	75.032	75.031	2.0.10.147	2.0.10.242	2.0.10.242	1.0.0.439	7	234	2	3	Verdana	1	80	0	0	0	WM Stimuli\	0.6	939.666666666667	1	1019.6	0.7	1234.14285714286	1	777.3	0.9	1213.66666666667	1	603.7	0.8	1190	1	800.9	13	316346	2	316334	27	40	316373	-999999	316349	0	50	TrialsPROC	BP_029_FLBAS_BA.png	3	2	32	SessionSelectionList														nonlure	3	Body	0-Back	28	80	26	0	0	100	3	39	121721	1	13	86	119682	-1	121445	1	1763	3	3	2039	52	121734	-53	0																32												
WM080112	189450_fnca	3	1	1	-319984605	1	75.032	75.031	2.0.10.147	2.0.10.242	2.0.10.242	1.0.0.439	7	234	2	3	Verdana	1	80	0	0	0	WM Stimuli\	0.6	939.666666666667	1	1019.6	0.7	1234.14285714286	1	777.3	0.9	1213.66666666667	1	603.7	0.8	1190	1	800.9	13	316346	2	316334	27	40	316373	-999999	316349	0	50	TrialsPROC	BP_028_FBBHS_BA.png	3	2	33	SessionSelectionList														nonlure	3	Body	0-Back	29	80	27	0	0	100	4	39	124293	2	14	72	122254	-1	122850	1	596	3	3	2039	53	124307	-54	0																33												
WM080112	189450_fnca	3	1	1	-319984605	1	75.032	75.031	2.0.10.147	2.0.10.242	2.0.10.242	1.0.0.439	7	234	2	3	Verdana	1	80	0	0	0	WM Stimuli\	0.6	939.666666666667	1	1019.6	0.7	1234.14285714286	1	777.3	0.9	1213.66666666667	1	603.7	0.8	1190	1	800.9	13	316346	2	316334	27	40	316373	-999999	316349	0	50	TrialsPROC	BP_031_FLBHS_BA.png	3	2	34	SessionSelectionList														lure	3	Body	0-Back	30	80	28	0	0	100	5	39	126852	1	14	59	124813	-1	125282	1	469	3	3	2039	53	126866	-54	0																34												
WM080112	189450_fnca	3	1	1	-319984605	1	75.032	75.031	2.0.10.147	2.0.10.242	2.0.10.242	1.0.0.439	7	234	2	3	Verdana	1	80	0	0	0	WM Stimuli\	0.6	939.666666666667	1	1019.6	0.7	1234.14285714286	1	777.3	0.9	1213.66666666667	1	603.7	0.8	1190	1	800.9	13	316346	2	316334	27	40	316373	-999999	316349	0	50	TrialsPROC	BP_030_FLBFS_BA.png	3	2	35	SessionSelectionList														lure	3	Body	0-Back	31	80	29	0	0	100	6	39	129411	1	14	59	127372	-1	128076	1	704	3	3	2039	53	129425	-54	0																35												
WM080112	189450_fnca	3	1	1	-319984605	1	75.032	75.031	2.0.10.147	2.0.10.242	2.0.10.242	1.0.0.439	7	234	2	3	Verdana	1	80	0	0	0	WM Stimuli\	0.6	939.666666666667	1	1019.6	0.7	1234.14285714286	1	777.3	0.9	1213.66666666667	1	603.7	0.8	1190	1	800.9	13	316346	2	316334	27	40	316373	-999999	316349	0	51	Cue2BackPROC	""	3	2	36	SessionSelectionList									5	129877	-6	0																																													36												
WM080112	189450_fnca	3	1	1	-319984605	1	75.032	75.031	2.0.10.147	2.0.10.242	2.0.10.242	1.0.0.439	7	234	2	3	Verdana	1	80	0	0	0	WM Stimuli\	0.6	939.666666666667	1	1019.6	0.7	1234.14285714286	1	777.3	0.9	1213.66666666667	1	603.7	0.8	1190	1	800.9	13	316346	2	316334	27	40	316373	-999999	316349	0	52	TrialsPROC	TO_033_TOOL33_BA.png	3	2	37	SessionSelectionList														nonlure	3	Tools	2-Back	32	80	30	0	0	100	7	39	134502	2	14	91	132463	-1	133290	1	827	3	3	2039	53	134516	-54	0																37												
WM080112	189450_fnca	3	1	1	-319984605	1	75.032	75.031	2.0.10.147	2.0.10.242	2.0.10.242	1.0.0.439	7	234	2	3	Verdana	1	80	0	0	0	WM Stimuli\	0.6	939.666666666667	1	1019.6	0.7	1234.14285714286	1	777.3	0.9	1213.66666666667	1	603.7	0.8	1190	1	800.9	13	316346	2	316334	27	40	316373	-999999	316349	0	52	TrialsPROC	TO_031_TOOL31_BA.png	3	2	38	SessionSelectionList														nonlure	3	Tools	2-Back	33	80	31	0	0	100	8	39	137088	1	13	86	135049	-1	136330	1	1281	3	3	2039	52	137101	-53	0																38												
WM080112	189450_fnca	3	1	1	-319984605	1	75.032	75.031	2.0.10.147	2.0.10.242	2.0.10.242	1.0.0.439	7	234	2	3	Verdana	1	80	0	0	0	WM Stimuli\	0.6	939.666666666667	1	1019.6	0.7	1234.14285714286	1	777.3	0.9	1213.66666666667	1	603.7	0.8	1190	1	800.9	13	316346	2	316334	27	40	316373	-999999	316349	0	52	TrialsPROC	TO_031_TOOL31_BA.png	3	2	39	SessionSelectionList														lure	3	Tools	2-Back	34	80	32	0	0	100	9	40	139647	1	13	58	137607	-1	139332	1	1725	3	3	2040	53	139660	-54	0																39												
WM080112	189450_fnca	3	1	1	-319984605	1	75.032	75.031	2.0.10.147	2.0.10.242	2.0.10.242	1.0.0.439	7	234	2	3	Verdana	1	80	0	0	0	WM Stimuli\	0.6	939.666666666667	1	1019.6	0.7	1234.14285714286	1	777.3	0.9	1213.66666666667	1	603.7	0.8	1190	1	800.9	13	316346	2	316334	27	40	316373	-999999	316349	0	52	TrialsPROC	TO_033_TOOL33_BA.png	3	2	40	SessionSelectionList														lure	3	Tools	2-Back	35	80	33	0	0	100	1	40	142206	1	13	59	140166	-1	141109	0	943	2	3	2040	53	142219	-54	0																40												
WM080112	189450_fnca	3	1	1	-319984605	1	75.032	75.031	2.0.10.147	2.0.10.242	2.0.10.242	1.0.0.439	7	234	2	3	Verdana	1	80	0	0	0	WM Stimuli\	0.6	939.666666666667	1	1019.6	0.7	1234.14285714286	1	777.3	0.9	1213.66666666667	1	603.7	0.8	1190	1	800.9	13	316346	2	316334	27	40	316373	-999999	316349	0	52	TrialsPROC	TO_036_TOOL36_BA.png	3	2	41	SessionSelectionList														nonlure	3	Tools	2-Back	36	80	34	0	0	100	1	39	144804	2	14	99	142765	-1	143665	1	900	3	3	2039	53	144818	-54	0																41												
WM080112	189450_fnca	3	1	1	-319984605	1	75.032	75.031	2.0.10.147	2.0.10.242	2.0.10.242	1.0.0.439	7	234	2	3	Verdana	1	80	0	0	0	WM Stimuli\	0.6	939.666666666667	1	1019.6	0.7	1234.14285714286	1	777.3	0.9	1213.66666666667	1	603.7	0.8	1190	1	800.9	13	316346	2	316334	27	40	316373	-999999	316349	0	52	TrialsPROC	TO_034_TOOL34_BA.png	3	2	42	SessionSelectionList														nonlure	3	Tools	2-Back	37	80	35	0	0	100	2	39	147390	1	14	86	145351	-1	146555	1	1204	3	3	2039	53	147404	-54	0																42												
WM080112	189450_fnca	3	1	1	-319984605	1	75.032	75.031	2.0.10.147	2.0.10.242	2.0.10.242	1.0.0.439	7	234	2	3	Verdana	1	80	0	0	0	WM Stimuli\	0.6	939.666666666667	1	1019.6	0.7	1234.14285714286	1	777.3	0.9	1213.66666666667	1	603.7	0.8	1190	1	800.9	13	316346	2	316334	27	40	316373	-999999	316349	0	52	TrialsPROC	TO_032_TOOL32_BA.png	3	2	43	SessionSelectionList														nonlure	3	Tools	2-Back	38	80	36	0	0	100	3	40	149976	1	13	85	147936	-1	148951	1	1015	3	3	2040	53	149989	-54	0																43												
WM080112	189450_fnca	3	1	1	-319984605	1	75.032	75.031	2.0.10.147	2.0.10.242	2.0.10.242	1.0.0.439	7	234	2	3	Verdana	1	80	0	0	0	WM Stimuli\	0.6	939.666666666667	1	1019.6	0.7	1234.14285714286	1	777.3	0.9	1213.66666666667	1	603.7	0.8	1190	1	800.9	13	316346	2	316334	27	40	316373	-999999	316349	0	52	TrialsPROC	TO_034_TOOL34_BA.png	3	2	44	SessionSelectionList														target	2	Tools	2-Back	39	80	37	0	0	100	1	40	152535	1	13	59	150495	-1	151785	1	1290	2	2	2040	53	152548	-54	0																44												
WM080112	189450_fnca	3	1	1	-319984605	1	75.032	75.031	2.0.10.147	2.0.10.242	2.0.10.242	1.0.0.439	7	234	2	3	Verdana	1	80	0	0	0	WM Stimuli\	0.6	939.666666666667	1	1019.6	0.7	1234.14285714286	1	777.3	0.9	1213.66666666667	1	603.7	0.8	1190	1	800.9	13	316346	2	316334	27	40	316373	-999999	316349	0	52	TrialsPROC	TO_032_TOOL32_BA.png	3	2	45	SessionSelectionList														target	2	Tools	2-Back	40	80	37	0	1	100	1	39	155093	2	14	59	153054	-1	0	0	0	""	2	2039	53	155107	-54	0																45												
WM080112	189450_fnca	3	1	1	-319984605	1	75.032	75.031	2.0.10.147	2.0.10.242	2.0.10.242	1.0.0.439	7	234	2	3	Verdana	1	80	0	0	0	WM Stimuli\	0.6	939.666666666667	1	1019.6	0.7	1234.14285714286	1	777.3	0.9	1213.66666666667	1	603.7	0.8	1190	1	800.9	13	316346	2	316334	27	40	316373	-999999	316349	0	52	TrialsPROC	TO_035_TOOL35_BA.png	3	2	46	SessionSelectionList														nonlure	3	Tools	2-Back	41	80	38	0	0	100	1	39	157679	1	14	86	155640	-1	156918	1	1278	3	3	2039	53	157693	-54	0																46												
WM080112	189450_fnca	3	1	1	-319984605	1	75.032	75.031	2.0.10.147	2.0.10.242	2.0.10.242	1.0.0.439	7	234	2	3	Verdana	1	80	0	0	0	WM Stimuli\	0.6	939.666666666667	1	1019.6	0.7	1234.14285714286	1	777.3	0.9	1213.66666666667	1	603.7	0.8	1190	1	800.9	13	316346	2	316334	27	40	316373	-999999	316349	0	53	Fix15secPROC	""	3	2	47	SessionSelectionList																																															6	158146	-7	0							47												
WM080112	189450_fnca	3	1	1	-319984605	1	75.032	75.031	2.0.10.147	2.0.10.242	2.0.10.242	1.0.0.439	7	234	2	3	Verdana	1	80	0	0	0	WM Stimuli\	0.6	939.666666666667	1	1019.6	0.7	1234.14285714286	1	777.3	0.9	1213.66666666667	1	603.7	0.8	1190	1	800.9	13	316346	2	316334	27	40	316373	-999999	316349	0	54	Cue2BackPROC	""	3	2	48	SessionSelectionList									13	173153	-14	0																																													48												
WM080112	189450_fnca	3	1	1	-319984605	1	75.032	75.031	2.0.10.147	2.0.10.242	2.0.10.242	1.0.0.439	7	234	2	3	Verdana	1	80	0	0	0	WM Stimuli\	0.6	939.666666666667	1	1019.6	0.7	1234.14285714286	1	777.3	0.9	1213.66666666667	1	603.7	0.8	1190	1	800.9	13	316346	2	316334	27	40	316373	-999999	316349	0	55	TrialsPROC	PL_032_COLORADO.png	3	2	49	SessionSelectionList														nonlure	3	Place	2-Back	42	80	39	0	0	100	2	39	177777	2	14	98	175738	-1	176952	1	1214	3	3	2039	53	177791	-54	0																49												
WM080112	189450_fnca	3	1	1	-319984605	1	75.032	75.031	2.0.10.147	2.0.10.242	2.0.10.242	1.0.0.439	7	234	2	3	Verdana	1	80	0	0	0	WM Stimuli\	0.6	939.666666666667	1	1019.6	0.7	1234.14285714286	1	777.3	0.9	1213.66666666667	1	603.7	0.8	1190	1	800.9	13	316346	2	316334	27	40	316373	-999999	316349	0	55	TrialsPROC	PL_029_SCENE_39.png	3	2	50	SessionSelectionList														nonlure	3	Place	2-Back	43	80	40	0	0	100	3	39	180376	2	14	99	178337	-1	180228	1	1891	3	3	2039	53	180390	-54	0																50												
WM080112	189450_fnca	3	1	1	-319984605	1	75.032	75.031	2.0.10.147	2.0.10.242	2.0.10.242	1.0.0.439	7	234	2	3	Verdana	1	80	0	0	0	WM Stimuli\	0.6	939.666666666667	1	1019.6	0.7	1234.14285714286	1	777.3	0.9	1213.66666666667	1	603.7	0.8	1190	1	800.9	13	316346	2	316334	27	40	316373	-999999	316349	0	55	TrialsPROC	PL_032_COLORADO.png	3	2	51	SessionSelectionList														target	2	Place	2-Back	44	80	41	0	0	100	1	39	182935	2	14	59	180896	-1	181915	1	1019	2	2	2039	53	182949	-54	0																51												
WM080112	189450_fnca	3	1	1	-319984605	1	75.032	75.031	2.0.10.147	2.0.10.242	2.0.10.242	1.0.0.439	7	234	2	3	Verdana	1	80	0	0	0	WM Stimuli\	0.6	939.666666666667	1	1019.6	0.7	1234.14285714286	1	777.3	0.9	1213.66666666667	1	603.7	0.8	1190	1	800.9	13	316346	2	316334	27	40	316373	-999999	316349	0	55	TrialsPROC	PL_028_SCENE_35.png	3	2	52	SessionSelectionList														nonlure	3	Place	2-Back	45	80	42	0	0	100	1	39	185534	1	14	99	183495	-1	184650	1	1155	3	3	2039	53	185548	-54	0																52												
WM080112	189450_fnca	3	1	1	-319984605	1	75.032	75.031	2.0.10.147	2.0.10.242	2.0.10.242	1.0.0.439	7	234	2	3	Verdana	1	80	0	0	0	WM Stimuli\	0.6	939.666666666667	1	1019.6	0.7	1234.14285714286	1	777.3	0.9	1213.66666666667	1	603.7	0.8	1190	1	800.9	13	316346	2	316334	27	40	316373	-999999	316349	0	55	TrialsPROC	PL_031_CANAL.png	3	2	53	SessionSelectionList														nonlure	3	Place	2-Back	46	80	43	0	0	100	2	40	188120	1	13	85	186080	-1	187115	1	1035	3	3	2040	53	188133	-54	0																53												
WM080112	189450_fnca	3	1	1	-319984605	1	75.032	75.031	2.0.10.147	2.0.10.242	2.0.10.242	1.0.0.439	7	234	2	3	Verdana	1	80	0	0	0	WM Stimuli\	0.6	939.666666666667	1	1019.6	0.7	1234.14285714286	1	777.3	0.9	1213.66666666667	1	603.7	0.8	1190	1	800.9	13	316346	2	316334	27	40	316373	-999999	316349	0	55	TrialsPROC	PL_030_SCENE_40.png	3	2	54	SessionSelectionList														nonlure	3	Place	2-Back	47	80	44	0	0	100	3	39	190705	2	14	86	188666	-1	189636	1	970	3	3	2039	53	190719	-54	0																54												
WM080112	189450_fnca	3	1	1	-319984605	1	75.032	75.031	2.0.10.147	2.0.10.242	2.0.10.242	1.0.0.439	7	234	2	3	Verdana	1	80	0	0	0	WM Stimuli\	0.6	939.666666666667	1	1019.6	0.7	1234.14285714286	1	777.3	0.9	1213.66666666667	1	603.7	0.8	1190	1	800.9	13	316346	2	316334	27	40	316373	-999999	316349	0	55	TrialsPROC	PL_031_CANAL.png	3	2	55	SessionSelectionList														target	2	Place	2-Back	48	80	45	0	0	100	1	39	193264	2	14	59	191225	-1	192256	1	1031	2	2	2039	53	193278	-54	0																55												
WM080112	189450_fnca	3	1	1	-319984605	1	75.032	75.031	2.0.10.147	2.0.10.242	2.0.10.242	1.0.0.439	7	234	2	3	Verdana	1	80	0	0	0	WM Stimuli\	0.6	939.666666666667	1	1019.6	0.7	1234.14285714286	1	777.3	0.9	1213.66666666667	1	603.7	0.8	1190	1	800.9	13	316346	2	316334	27	40	316373	-999999	316349	0	55	TrialsPROC	PL_028_SCENE_35.png	3	2	56	SessionSelectionList														lure	3	Place	2-Back	49	80	46	0	0	100	1	39	195836	2	14	72	193797	-1	195475	1	1678	3	3	2039	53	195850	-54	0																56												
WM080112	189450_fnca	3	1	1	-319984605	1	75.032	75.031	2.0.10.147	2.0.10.242	2.0.10.242	1.0.0.439	7	234	2	3	Verdana	1	80	0	0	0	WM Stimuli\	0.6	939.666666666667	1	1019.6	0.7	1234.14285714286	1	777.3	0.9	1213.66666666667	1	603.7	0.8	1190	1	800.9	13	316346	2	316334	27	40	316373	-999999	316349	0	55	TrialsPROC	PL_027_SCENE_27.png	3	2	57	SessionSelectionList														nonlure	3	Place	2-Back	50	80	47	0	0	100	2	39	198435	2	14	99	196396	-1	197326	1	930	3	3	2039	53	198449	-54	0																57												
WM080112	189450_fnca	3	1	1	-319984605	1	75.032	75.031	2.0.10.147	2.0.10.242	2.0.10.242	1.0.0.439	7	234	2	3	Verdana	1	80	0	0	0	WM Stimuli\	0.6	939.666666666667	1	1019.6	0.7	1234.14285714286	1	777.3	0.9	1213.66666666667	1	603.7	0.8	1190	1	800.9	13	316346	2	316334	27	40	316373	-999999	316349	0	55	TrialsPROC	PL_027_SCENE_27.png	3	2	58	SessionSelectionList														lure	3	Place	2-Back	51	80	47	0	1	100	2	40	201008	1	13	72	198968	-1	0	0	0	""	3	2040	53	201021	-54	0																58												
WM080112	189450_fnca	3	1	1	-319984605	1	75.032	75.031	2.0.10.147	2.0.10.242	2.0.10.242	1.0.0.439	7	234	2	3	Verdana	1	80	0	0	0	WM Stimuli\	0.6	939.666666666667	1	1019.6	0.7	1234.14285714286	1	777.3	0.9	1213.66666666667	1	603.7	0.8	1190	1	800.9	13	316346	2	316334	27	40	316373	-999999	316349	0	56	Cue0BackPROC	FC_032_F16.png	3	2	59	SessionSelectionList																																										46	201514	-47	0												59												
WM080112	189450_fnca	3	1	1	-319984605	1	75.032	75.031	2.0.10.147	2.0.10.242	2.0.10.242	1.0.0.439	7	234	2	3	Verdana	1	80	0	0	0	WM Stimuli\	0.6	939.666666666667	1	1019.6	0.7	1234.14285714286	1	777.3	0.9	1213.66666666667	1	603.7	0.8	1190	1	800.9	13	316346	2	316334	27	40	316373	-999999	316349	0	57	TrialsPROC	FC_033_M17.png	3	2	60	SessionSelectionList														nonlure	3	Face	0-Back	52	80	48	0	0	100	1	39	206085	2	14	78	204046	-1	205051	1	1005	3	3	2039	53	206099	-54	0																60												
WM080112	189450_fnca	3	1	1	-319984605	1	75.032	75.031	2.0.10.147	2.0.10.242	2.0.10.242	1.0.0.439	7	234	2	3	Verdana	1	80	0	0	0	WM Stimuli\	0.6	939.666666666667	1	1019.6	0.7	1234.14285714286	1	777.3	0.9	1213.66666666667	1	603.7	0.8	1190	1	800.9	13	316346	2	316334	27	40	316373	-999999	316349	0	57	TrialsPROC	FC_032_F16.png	3	2	61	SessionSelectionList														target	2	Face	0-Back	53	80	49	0	0	100	1	39	208658	1	13	73	206619	-1	207287	1	668	2	2	2039	52	208671	-53	0																61												
WM080112	189450_fnca	3	1	1	-319984605	1	75.032	75.031	2.0.10.147	2.0.10.242	2.0.10.242	1.0.0.439	7	234	2	3	Verdana	1	80	0	0	0	WM Stimuli\	0.6	939.666666666667	1	1019.6	0.7	1234.14285714286	1	777.3	0.9	1213.66666666667	1	603.7	0.8	1190	1	800.9	13	316346	2	316334	27	40	316373	-999999	316349	0	57	TrialsPROC	FC_035_M18.png	3	2	62	SessionSelectionList														nonlure	3	Face	0-Back	54	80	50	0	0	100	1	39	211270	1	14	112	209231	-1	209909	1	678	3	3	2039	53	211284	-54	0																62												
WM080112	189450_fnca	3	1	1	-319984605	1	75.032	75.031	2.0.10.147	2.0.10.242	2.0.10.242	1.0.0.439	7	234	2	3	Verdana	1	80	0	0	0	WM Stimuli\	0.6	939.666666666667	1	1019.6	0.7	1234.14285714286	1	777.3	0.9	1213.66666666667	1	603.7	0.8	1190	1	800.9	13	316346	2	316334	27	40	316373	-999999	316349	0	57	TrialsPROC	FC_036_F18.png	3	2	63	SessionSelectionList														nonlure	3	Face	0-Back	55	80	51	0	0	100	2	39	213869	1	13	99	211830	-1	212485	1	655	3	3	2039	52	213882	-53	0																63												
WM080112	189450_fnca	3	1	1	-319984605	1	75.032	75.031	2.0.10.147	2.0.10.242	2.0.10.242	1.0.0.439	7	234	2	3	Verdana	1	80	0	0	0	WM Stimuli\	0.6	939.666666666667	1	1019.6	0.7	1234.14285714286	1	777.3	0.9	1213.66666666667	1	603.7	0.8	1190	1	800.9	13	316346	2	316334	27	40	316373	-999999	316349	0	57	TrialsPROC	FC_032_F16.png	3	2	64	SessionSelectionList														target	2	Face	0-Back	56	80	52	0	0	100	1	39	216441	1	14	72	214402	-1	215098	1	696	2	2	2039	53	216455	-54	0																64												
WM080112	189450_fnca	3	1	1	-319984605	1	75.032	75.031	2.0.10.147	2.0.10.242	2.0.10.242	1.0.0.439	7	234	2	3	Verdana	1	80	0	0	0	WM Stimuli\	0.6	939.666666666667	1	1019.6	0.7	1234.14285714286	1	777.3	0.9	1213.66666666667	1	603.7	0.8	1190	1	800.9	13	316346	2	316334	27	40	316373	-999999	316349	0	57	TrialsPROC	FC_031_M16.png	3	2	65	SessionSelectionList														nonlure	3	Face	0-Back	57	80	53	0	0	100	1	39	219040	1	14	99	217001	-1	218241	1	1240	3	3	2039	53	219054	-54	0																65												
WM080112	189450_fnca	3	1	1	-319984605	1	75.032	75.031	2.0.10.147	2.0.10.242	2.0.10.242	1.0.0.439	7	234	2	3	Verdana	1	80	0	0	0	WM Stimuli\	0.6	939.666666666667	1	1019.6	0.7	1234.14285714286	1	777.3	0.9	1213.66666666667	1	603.7	0.8	1190	1	800.9	13	316346	2	316334	27	40	316373	-999999	316349	0	57	TrialsPROC	FC_036_F18.png	3	2	66	SessionSelectionList														lure	3	Face	0-Back	58	80	54	0	0	100	2	39	221612	2	14	72	219573	-1	220501	1	928	3	3	2039	53	221626	-54	0																66												
WM080112	189450_fnca	3	1	1	-319984605	1	75.032	75.031	2.0.10.147	2.0.10.242	2.0.10.242	1.0.0.439	7	234	2	3	Verdana	1	80	0	0	0	WM Stimuli\	0.6	939.666666666667	1	1019.6	0.7	1234.14285714286	1	777.3	0.9	1213.66666666667	1	603.7	0.8	1190	1	800.9	13	316346	2	316334	27	40	316373	-999999	316349	0	57	TrialsPROC	FC_035_M18.png	3	2	67	SessionSelectionList														lure	3	Face	0-Back	59	80	55	0	0	100	3	40	224185	1	13	72	222145	-1	222661	1	516	3	3	2040	53	224198	-54	0																67												
WM080112	189450_fnca	3	1	1	-319984605	1	75.032	75.031	2.0.10.147	2.0.10.242	2.0.10.242	1.0.0.439	7	234	2	3	Verdana	1	80	0	0	0	WM Stimuli\	0.6	939.666666666667	1	1019.6	0.7	1234.14285714286	1	777.3	0.9	1213.66666666667	1	603.7	0.8	1190	1	800.9	13	316346	2	316334	27	40	316373	-999999	316349	0	57	TrialsPROC	FC_034_F17.png	3	2	68	SessionSelectionList														nonlure	3	Face	0-Back	60	80	56	0	0	100	4	39	226783	2	14	99	224744	-1	225592	1	848	3	3	2039	53	226797	-54	0																68												
WM080112	189450_fnca	3	1	1	-319984605	1	75.032	75.031	2.0.10.147	2.0.10.242	2.0.10.242	1.0.0.439	7	234	2	3	Verdana	1	80	0	0	0	WM Stimuli\	0.6	939.666666666667	1	1019.6	0.7	1234.14285714286	1	777.3	0.9	1213.66666666667	1	603.7	0.8	1190	1	800.9	13	316346	2	316334	27	40	316373	-999999	316349	0	57	TrialsPROC	FC_033_M17.png	3	2	69	SessionSelectionList														lure	3	Face	0-Back	61	80	57	0	0	100	5	39	229356	1	13	73	227317	-1	227856	1	539	3	3	2039	52	229369	-53	0																69												
WM080112	189450_fnca	3	1	1	-319984605	1	75.032	75.031	2.0.10.147	2.0.10.242	2.0.10.242	1.0.0.439	7	234	2	3	Verdana	1	80	0	0	0	WM Stimuli\	0.6	939.666666666667	1	1019.6	0.7	1234.14285714286	1	777.3	0.9	1213.66666666667	1	603.7	0.8	1190	1	800.9	13	316346	2	316334	27	40	316373	-999999	316349	0	58	Fix15secPROC	""	3	2	70	SessionSelectionList																																															5	229822	-6	0							70												
WM080112	189450_fnca	3	1	1	-319984605	1	75.032	75.031	2.0.10.147	2.0.10.242	2.0.10.242	1.0.0.439	7	234	2	3	Verdana	1	80	0	0	0	WM Stimuli\	0.6	939.666666666667	1	1019.6	0.7	1234.14285714286	1	777.3	0.9	1213.66666666667	1	603.7	0.8	1190	1	800.9	13	316346	2	316334	27	40	316373	-999999	316349	0	59	Cue0BackPROC	PL_033_DESERT.png	3	2	71	SessionSelectionList																																										39	244856	-40	0												71												
WM080112	189450_fnca	3	1	1	-319984605	1	75.032	75.031	2.0.10.147	2.0.10.242	2.0.10.242	1.0.0.439	7	234	2	3	Verdana	1	80	0	0	0	WM Stimuli\	0.6	939.666666666667	1	1019.6	0.7	1234.14285714286	1	777.3	0.9	1213.66666666667	1	603.7	0.8	1190	1	800.9	13	316346	2	316334	27	40	316373	-999999	316349	0	60	TrialsPROC	PL_035_LEXINGTON02.png	3	2	72	SessionSelectionList														nonlure	3	Place	0-Back	62	80	58	0	0	100	6	40	249441	1	13	84	247401	-1	248294	1	893	3	3	2040	53	249454	-54	0																72												
WM080112	189450_fnca	3	1	1	-319984605	1	75.032	75.031	2.0.10.147	2.0.10.242	2.0.10.242	1.0.0.439	7	234	2	3	Verdana	1	80	0	0	0	WM Stimuli\	0.6	939.666666666667	1	1019.6	0.7	1234.14285714286	1	777.3	0.9	1213.66666666667	1	603.7	0.8	1190	1	800.9	13	316346	2	316334	27	40	316373	-999999	316349	0	60	TrialsPROC	PL_038_LEXINGTON05.png	3	2	73	SessionSelectionList														nonlure	3	Place	0-Back	63	80	59	0	0	100	7	40	252040	1	13	99	250000	-1	250564	1	564	3	3	2040	53	252053	-54	0																73												
WM080112	189450_fnca	3	1	1	-319984605	1	75.032	75.031	2.0.10.147	2.0.10.242	2.0.10.242	1.0.0.439	7	234	2	3	Verdana	1	80	0	0	0	WM Stimuli\	0.6	939.666666666667	1	1019.6	0.7	1234.14285714286	1	777.3	0.9	1213.66666666667	1	603.7	0.8	1190	1	800.9	13	316346	2	316334	27	40	316373	-999999	316349	0	60	TrialsPROC	PL_033_DESERT.png	3	2	74	SessionSelectionList														target	2	Place	0-Back	64	80	60	0	0	100	1	39	254598	2	14	59	252559	-1	253249	1	690	2	2	2039	53	254612	-54	0																74												
WM080112	189450_fnca	3	1	1	-319984605	1	75.032	75.031	2.0.10.147	2.0.10.242	2.0.10.242	1.0.0.439	7	234	2	3	Verdana	1	80	0	0	0	WM Stimuli\	0.6	939.666666666667	1	1019.6	0.7	1234.14285714286	1	777.3	0.9	1213.66666666667	1	603.7	0.8	1190	1	800.9	13	316346	2	316334	27	40	316373	-999999	316349	0	60	TrialsPROC	PL_037_LEXINGTON04.png	3	2	75	SessionSelectionList														nonlure	3	Place	0-Back	65	80	61	0	0	100	1	39	257184	1	14	86	255145	-1	255868	1	723	3	3	2039	53	257198	-54	0																75												
WM080112	189450_fnca	3	1	1	-319984605	1	75.032	75.031	2.0.10.147	2.0.10.242	2.0.10.242	1.0.0.439	7	234	2	3	Verdana	1	80	0	0	0	WM Stimuli\	0.6	939.666666666667	1	1019.6	0.7	1234.14285714286	1	777.3	0.9	1213.66666666667	1	603.7	0.8	1190	1	800.9	13	316346	2	316334	27	40	316373	-999999	316349	0	60	TrialsPROC	PL_037_LEXINGTON04.png	3	2	76	SessionSelectionList														lure	3	Place	0-Back	66	80	62	0	0	100	2	39	259743	1	14	59	257704	-1	258254	1	550	3	3	2039	53	259757	-54	0																76												
WM080112	189450_fnca	3	1	1	-319984605	1	75.032	75.031	2.0.10.147	2.0.10.242	2.0.10.242	1.0.0.439	7	234	2	3	Verdana	1	80	0	0	0	WM Stimuli\	0.6	939.666666666667	1	1019.6	0.7	1234.14285714286	1	777.3	0.9	1213.66666666667	1	603.7	0.8	1190	1	800.9	13	316346	2	316334	27	40	316373	-999999	316349	0	60	TrialsPROC	PL_038_LEXINGTON05.png	3	2	77	SessionSelectionList														lure	3	Place	0-Back	67	80	63	0	0	100	3	39	262302	1	14	59	260263	-1	260710	1	447	3	3	2039	53	262316	-54	0																77												
WM080112	189450_fnca	3	1	1	-319984605	1	75.032	75.031	2.0.10.147	2.0.10.242	2.0.10.242	1.0.0.439	7	234	2	3	Verdana	1	80	0	0	0	WM Stimuli\	0.6	939.666666666667	1	1019.6	0.7	1234.14285714286	1	777.3	0.9	1213.66666666667	1	603.7	0.8	1190	1	800.9	13	316346	2	316334	27	40	316373	-999999	316349	0	60	TrialsPROC	PL_034_FOXISLAND.png	3	2	78	SessionSelectionList														nonlure	3	Place	0-Back	68	80	64	0	0	100	4	39	264887	2	14	85	262848	-1	263456	1	608	3	3	2039	53	264901	-54	0																78												
WM080112	189450_fnca	3	1	1	-319984605	1	75.032	75.031	2.0.10.147	2.0.10.242	2.0.10.242	1.0.0.439	7	234	2	3	Verdana	1	80	0	0	0	WM Stimuli\	0.6	939.666666666667	1	1019.6	0.7	1234.14285714286	1	777.3	0.9	1213.66666666667	1	603.7	0.8	1190	1	800.9	13	316346	2	316334	27	40	316373	-999999	316349	0	60	TrialsPROC	PL_036_LEXINGTON03.png	3	2	79	SessionSelectionList														nonlure	3	Place	0-Back	69	80	65	0	0	100	5	39	267473	1	14	86	265434	-1	265960	1	526	3	3	2039	53	267487	-54	0																79												
WM080112	189450_fnca	3	1	1	-319984605	1	75.032	75.031	2.0.10.147	2.0.10.242	2.0.10.242	1.0.0.439	7	234	2	3	Verdana	1	80	0	0	0	WM Stimuli\	0.6	939.666666666667	1	1019.6	0.7	1234.14285714286	1	777.3	0.9	1213.66666666667	1	603.7	0.8	1190	1	800.9	13	316346	2	316334	27	40	316373	-999999	316349	0	60	TrialsPROC	PL_033_DESERT.png	3	2	80	SessionSelectionList														target	2	Place	0-Back	70	80	66	0	0	100	1	39	270032	1	14	59	267993	-1	268602	1	609	2	2	2039	53	270046	-54	0																80												
WM080112	189450_fnca	3	1	1	-319984605	1	75.032	75.031	2.0.10.147	2.0.10.242	2.0.10.242	1.0.0.439	7	234	2	3	Verdana	1	80	0	0	0	WM Stimuli\	0.6	939.666666666667	1	1019.6	0.7	1234.14285714286	1	777.3	0.9	1213.66666666667	1	603.7	0.8	1190	1	800.9	13	316346	2	316334	27	40	316373	-999999	316349	0	60	TrialsPROC	PL_036_LEXINGTON03.png	3	2	81	SessionSelectionList														lure	3	Place	0-Back	71	80	67	0	0	100	1	39	272591	1	14	59	270552	-1	270979	1	427	3	3	2039	53	272605	-54	0																81												
WM080112	189450_fnca	3	1	1	-319984605	1	75.032	75.031	2.0.10.147	2.0.10.242	2.0.10.242	1.0.0.439	7	234	2	3	Verdana	1	80	0	0	0	WM Stimuli\	0.6	939.666666666667	1	1019.6	0.7	1234.14285714286	1	777.3	0.9	1213.66666666667	1	603.7	0.8	1190	1	800.9	13	316346	2	316334	27	40	316373	-999999	316349	0	61	Cue2BackPROC	""	3	2	82	SessionSelectionList									5	273057	-6	0																																													82												
WM080112	189450_fnca	3	1	1	-319984605	1	75.032	75.031	2.0.10.147	2.0.10.242	2.0.10.242	1.0.0.439	7	234	2	3	Verdana	1	80	0	0	0	WM Stimuli\	0.6	939.666666666667	1	1019.6	0.7	1234.14285714286	1	777.3	0.9	1213.66666666667	1	603.7	0.8	1190	1	800.9	13	316346	2	316334	27	40	316373	-999999	316349	0	62	TrialsPROC	BP_035_FLPUS_BA.png	3	2	83	SessionSelectionList														nonlure	3	Body	2-Back	72	80	68	0	0	100	2	39	277682	1	14	91	275643	-1	276272	1	629	3	3	2039	53	277696	-54	0																83												
WM080112	189450_fnca	3	1	1	-319984605	1	75.032	75.031	2.0.10.147	2.0.10.242	2.0.10.242	1.0.0.439	7	234	2	3	Verdana	1	80	0	0	0	WM Stimuli\	0.6	939.666666666667	1	1019.6	0.7	1234.14285714286	1	777.3	0.9	1213.66666666667	1	603.7	0.8	1190	1	800.9	13	316346	2	316334	27	40	316373	-999999	316349	0	62	TrialsPROC	BP_037_FRBFS_BA.png	3	2	84	SessionSelectionList														nonlure	3	Body	2-Back	73	80	69	0	0	100	3	39	280268	1	13	86	278229	-1	279098	1	869	3	3	2039	52	280281	-53	0																84												
WM080112	189450_fnca	3	1	1	-319984605	1	75.032	75.031	2.0.10.147	2.0.10.242	2.0.10.242	1.0.0.439	7	234	2	3	Verdana	1	80	0	0	0	WM Stimuli\	0.6	939.666666666667	1	1019.6	0.7	1234.14285714286	1	777.3	0.9	1213.66666666667	1	603.7	0.8	1190	1	800.9	13	316346	2	316334	27	40	316373	-999999	316349	0	62	TrialsPROC	BP_036_FRBAI_BA.png	3	2	85	SessionSelectionList														nonlure	3	Body	2-Back	74	80	70	0	0	100	4	39	282853	2	14	85	280814	-1	282193	1	1379	3	3	2039	53	282867	-54	0																85												
WM080112	189450_fnca	3	1	1	-319984605	1	75.032	75.031	2.0.10.147	2.0.10.242	2.0.10.242	1.0.0.439	7	234	2	3	Verdana	1	80	0	0	0	WM Stimuli\	0.6	939.666666666667	1	1019.6	0.7	1234.14285714286	1	777.3	0.9	1213.66666666667	1	603.7	0.8	1190	1	800.9	13	316346	2	316334	27	40	316373	-999999	316349	0	62	TrialsPROC	BP_037_FRBFS_BA.png	3	2	86	SessionSelectionList														target	2	Body	2-Back	75	80	71	0	0	100	1	39	285412	2	14	59	283373	-1	283986	1	613	2	2	2039	53	285426	-54	0																86												
WM080112	189450_fnca	3	1	1	-319984605	1	75.032	75.031	2.0.10.147	2.0.10.242	2.0.10.242	1.0.0.439	7	234	2	3	Verdana	1	80	0	0	0	WM Stimuli\	0.6	939.666666666667	1	1019.6	0.7	1234.14285714286	1	777.3	0.9	1213.66666666667	1	603.7	0.8	1190	1	800.9	13	316346	2	316334	27	40	316373	-999999	316349	0	62	TrialsPROC	BP_036_FRBAI_BA.png	3	2	87	SessionSelectionList														target	2	Body	2-Back	76	80	72	0	0	100	1	39	287984	2	14	72	285945	-1	286705	0	760	3	2	2039	53	287998	-54	0																87												
WM080112	189450_fnca	3	1	1	-319984605	1	75.032	75.031	2.0.10.147	2.0.10.242	2.0.10.242	1.0.0.439	7	234	2	3	Verdana	1	80	0	0	0	WM Stimuli\	0.6	939.666666666667	1	1019.6	0.7	1234.14285714286	1	777.3	0.9	1213.66666666667	1	603.7	0.8	1190	1	800.9	13	316346	2	316334	27	40	316373	-999999	316349	0	62	TrialsPROC	BP_033_FLCHS_BA.png	3	2	88	SessionSelectionList														nonlure	3	Body	2-Back	77	80	73	0	0	100	2	39	290570	1	14	86	288531	-1	289624	1	1093	3	3	2039	53	290584	-54	0																88												
WM080112	189450_fnca	3	1	1	-319984605	1	75.032	75.031	2.0.10.147	2.0.10.242	2.0.10.242	1.0.0.439	7	234	2	3	Verdana	1	80	0	0	0	WM Stimuli\	0.6	939.666666666667	1	1019.6	0.7	1234.14285714286	1	777.3	0.9	1213.66666666667	1	603.7	0.8	1190	1	800.9	13	316346	2	316334	27	40	316373	-999999	316349	0	62	TrialsPROC	BP_032_FLCHI_BA.png	3	2	89	SessionSelectionList														nonlure	3	Body	2-Back	78	80	74	0	0	100	3	40	293156	2	13	85	291116	-1	292171	1	1055	3	3	2040	53	293169	-54	0																89												
WM080112	189450_fnca	3	1	1	-319984605	1	75.032	75.031	2.0.10.147	2.0.10.242	2.0.10.242	1.0.0.439	7	234	2	3	Verdana	1	80	0	0	0	WM Stimuli\	0.6	939.666666666667	1	1019.6	0.7	1234.14285714286	1	777.3	0.9	1213.66666666667	1	603.7	0.8	1190	1	800.9	13	316346	2	316334	27	40	316373	-999999	316349	0	62	TrialsPROC	BP_034_FLPUI_BA.png	3	2	90	SessionSelectionList														nonlure	3	Body	2-Back	79	80	75	0	0	100	1	40	295755	1	13	99	293715	-1	295566	0	1851	2	3	2040	53	295768	-54	0																90												
WM080112	189450_fnca	3	1	1	-319984605	1	75.032	75.031	2.0.10.147	2.0.10.242	2.0.10.242	1.0.0.439	7	234	2	3	Verdana	1	80	0	0	0	WM Stimuli\	0.6	939.666666666667	1	1019.6	0.7	1234.14285714286	1	777.3	0.9	1213.66666666667	1	603.7	0.8	1190	1	800.9	13	316346	2	316334	27	40	316373	-999999	316349	0	62	TrialsPROC	BP_034_FLPUI_BA.png	3	2	91	SessionSelectionList														lure	3	Body	2-Back	80	80	76	0	0	100	2	38	298313	2	14	60	296275	-1	298091	0	1816	2	3	2038	52	298327	-53	0																91												
WM080112	189450_fnca	3	1	1	-319984605	1	75.032	75.031	2.0.10.147	2.0.10.242	2.0.10.242	1.0.0.439	7	234	2	3	Verdana	1	80	0	0	0	WM Stimuli\	0.6	939.666666666667	1	1019.6	0.7	1234.14285714286	1	777.3	0.9	1213.66666666667	1	603.7	0.8	1190	1	800.9	13	316346	2	316334	27	40	316373	-999999	316349	0	62	TrialsPROC	BP_033_FLCHS_BA.png	3	2	92	SessionSelectionList														lure	3	Body	2-Back	80	80	77	0	0	100	3	39	300872	2	14	58	298833	-1	300201	0	1368	2	3	2039	53	300886	-54	0																92												
WM080112	189450_fnca	3	1	1	-319984605	1	75.032	75.031	2.0.10.147	2.0.10.242	2.0.10.242	1.0.0.439	7	234	2	3	Verdana	1	80	0	0	0	WM Stimuli\	0.6	939.666666666667	1	1019.6	0.7	1234.14285714286	1	777.3	0.9	1213.66666666667	1	603.7	0.8	1190	1	800.9	13	316346	2	316334	27	40	316373	-999999	316349	0	63	Fix15secPROC	""	3	2	93	SessionSelectionList																																															6	301339	-7	0							93												
