ExperimentName	HCPID	RunNumber	Subject	Session	RandomSeed	Group	Laptop.RefreshRate	ScannerD2.RefreshRate	StudioVersion	RuntimeVersion	RuntimeVersionExpected	ExperimentVersion	triggercode	Allowed	Target	Nontarget	FontStyle	RunTrialNumber[Session]	TrialsPerRun[Session]	TotalRespGreater200[Session]	ConsecRTLess200[Session]	ConsecNonResp[Session]	StimuliDir	ACC_2_Back_Body	Avg_RT_For_Correct_Trials_2_Back_Body	ACC_0_Back_Body	Avg_RT_For_Correct_Trials_0_Back_Body	ACC_2_Back_Face	Avg_RT_For_Correct_Trials_2_Back_Face	ACC_0_Back_Face	Avg_RT_For_Correct_Trials_0_Back_Face	ACC_2_Back_Place	Avg_RT_For_Correct_Trials_2_Back_Place	ACC_0_Back_Place	Avg_RT_For_Correct_Trials_0_Back_Place	ACC_2_Back_Tools	Avg_RT_For_Correct_Trials_2_Back_Tools	ACC_0_Back_Tools	Avg_RT_For_Correct_Trials_0_Back_Tools	ExpInstrucFeelFreeToRest.OnsetDelay	ExpInstrucFeelFreeToRest.OnsetTime	ExpInstrucFeelFreeToRest.DurationError	ExpInstrucFeelFreeToRest.StartTime	ExpInstrucFeelFreeToRest.OnsetToOnsetTime	FeelFreeToRest.OnsetDelay	FeelFreeToRest.OnsetTime	FeelFreeToRest.DurationError	FeelFreeToRest.StartTime	FeelFreeToRest.OnsetToOnsetTime	SessionSelectionList	Procedure[Block]	Stimulus[Block]	RunNumberFilterValue	SessionSelectionList.Cycle	SessionSelectionList.Sample	Running[Block]	IntroButtonMap.OnsetDelay	IntroButtonMap.OnsetTime	IntroButtonMap.DurationError	IntroButtonMap.OnsetToOnsetTime	GetReady.OnsetDelay	GetReady.OnsetTime	GetReady.DurationError	GetReady.OnsetToOnsetTime	Cue2Back.OnsetDelay	Cue2Back.OnsetTime	Cue2Back.DurationError	Cue2Back.OnsetToOnsetTime	Run1Block1	TargetType	CorrectResponse	StimType	BlockType	RunTrialNumber[Block]	TrialsPerRun[Block]	TotalRespGreater200[Block]	ConsecRTLess200[Block]	ConsecNonResp[Block]	ControlAcc	ConsecSameResp	ExperimenterWindow.OnsetDelay	ExperimenterWindow.OnsetTime	ExperimenterWindow.DurationError	ExperimenterWindow.OnsetToOnsetTime	Stim.OnsetDelay	Stim.OnsetTime	Stim.DurationError	Stim.RTTime	Stim.ACC	Stim.RT	Stim.RESP	Stim.CRESP	Stim.OnsetToOnsetTime	Fix.OnsetDelay	Fix.OnsetTime	Fix.DurationError	Fix.OnsetToOnsetTime	CueTarget.OnsetDelay	CueTarget.OnsetTime	CueTarget.DurationError	CueTarget.OnsetToOnsetTime	Run1Block2	Fix15sec.OnsetDelay	Fix15sec.OnsetTime	Fix15sec.DurationError	Fix15sec.OnsetToOnsetTime	Run1Block3	Run1Block4	Run1Block5	Run1Block6	Run1Block7	Run1Block8	Block	Procedure[Trial]	Stimulus[Trial]	ReadyList	Running[Trial]	ReadyList.Cycle	ReadyList.Sample	SyncSlide.OnsetDelay	SyncSlide.OnsetTime	SyncSlide.DurationError	SyncSlide.FinishTime	SyncSlide.OnsetToOnsetTime	Trial
WM080112	110411_fnca	1	1	1	-819122525	1	75.030	75.030	2.0.10.147	2.0.10.242	2.0.10.242	1.0.0.439	7	234	2	3	Verdana	1	80	0	0	0	WM Stimuli\	0.8	1051	0.8	973.5	1	912.3	1	919.6	0.9	867	1	765.9	0.9	1113.22222222222	1	580	13	534302	2	534290	26	39	534328	-999999	534305	0	1	TRSyncPROC	""	1	2	1	SessionSelectionList	114	20336	-999999	0	38	226413	-999999	0																																																	1	InitialTR	4	1	ReadyList	1	1	21	240407	-22	242385	0	1
WM080112	110411_fnca	1	1	1	-819122525	1	75.030	75.030	2.0.10.147	2.0.10.242	2.0.10.242	1.0.0.439	7	234	2	3	Verdana	1	80	0	0	0	WM Stimuli\	0.8	1051	0.8	973.5	1	912.3	1	919.6	0.9	867	1	765.9	0.9	1113.22222222222	1	580	13	534302	2	534290	26	39	534328	-999999	534305	0	1	TRSyncPROC	""	1	2	1	SessionSelectionList	114	20336	-999999	0	38	226413	-999999	0																																																	1	InitialTR	3	2	ReadyList	1	2	7	242393	-8	244385	0	2
WM080112	110411_fnca	1	1	1	-819122525	1	75.030	75.030	2.0.10.147	2.0.10.242	2.0.10.242	1.0.0.439	7	234	2	3	Verdana	1	80	0	0	0	WM Stimuli\	0.8	1051	0.8	973.5	1	912.3	1	919.6	0.9	867	1	765.9	0.9	1113.22222222222	1	580	13	534302	2	534290	26	39	534328	-999999	534305	0	1	TRSyncPROC	""	1	2	1	SessionSelectionList	114	20336	-999999	0	38	226413	-999999	0																																																	1	InitialTR	2	3	ReadyList	1	3	6	244392	-7	246385	0	3
WM080112	110411_fnca	1	1	1	-819122525	1	75.030	75.030	2.0.10.147	2.0.10.242	2.0.10.242	1.0.0.439	7	234	2	3	Verdana	1	80	0	0	0	WM Stimuli\	0.8	1051	0.8	973.5	1	912.3	1	919.6	0.9	867	1	765.9	0.9	1113.22222222222	1	580	13	534302	2	534290	26	39	534328	-999999	534305	0	1	TRSyncPROC	""	1	2	1	SessionSelectionList	114	20336	-999999	0	38	226413	-999999	0																																																	1	InitialTR	1	4	ReadyList	1	4	5	246391	-6	248385	0	4
WM080112	110411_fnca	1	1	1	-819122525	1	75.030	75.030	2.0.10.147	2.0.10.242	2.0.10.242	1.0.0.439	7	234	2	3	Verdana	1	80	0	0	0	WM Stimuli\	0.8	1051	0.8	973.5	1	912.3	1	919.6	0.9	867	1	765.9	0.9	1113.22222222222	1	580	13	534302	2	534290	26	39	534328	-999999	534305	0	2	Cue2BackPROC	""	1	2	2	SessionSelectionList									18	248404	-19	0																																													2												
WM080112	110411_fnca	1	1	1	-819122525	1	75.030	75.030	2.0.10.147	2.0.10.242	2.0.10.242	1.0.0.439	7	234	2	3	Verdana	1	80	0	0	0	WM Stimuli\	0.8	1051	0.8	973.5	1	912.3	1	919.6	0.9	867	1	765.9	0.9	1113.22222222222	1	580	13	534302	2	534290	26	39	534328	-999999	534305	0	3	TrialsPROC	BP_002_BP10_BA.png	1	2	3	SessionSelectionList													1	nonlure	3	Body	2-Back	2	80	0	0	1	0	0	53	253042	3	13	103	250989	-1	0	0	0	""	3	2053	66	253055	-67	0																3												
WM080112	110411_fnca	1	1	1	-819122525	1	75.030	75.030	2.0.10.147	2.0.10.242	2.0.10.242	1.0.0.439	7	234	2	3	Verdana	1	80	0	0	0	WM Stimuli\	0.8	1051	0.8	973.5	1	912.3	1	919.6	0.9	867	1	765.9	0.9	1113.22222222222	1	580	13	534302	2	534290	26	39	534328	-999999	534305	0	3	TrialsPROC	BP_001_BP1_BA.png	1	2	4	SessionSelectionList													2	nonlure	3	Body	2-Back	3	80	1	0	0	0	1	39	255601	2	13	73	253562	-1	254685	1	1123	3	3	2039	52	255614	-53	0																4												
WM080112	110411_fnca	1	1	1	-819122525	1	75.030	75.030	2.0.10.147	2.0.10.242	2.0.10.242	1.0.0.439	7	234	2	3	Verdana	1	80	0	0	0	WM Stimuli\	0.8	1051	0.8	973.5	1	912.3	1	919.6	0.9	867	1	765.9	0.9	1113.22222222222	1	580	13	534302	2	534290	26	39	534328	-999999	534305	0	3	TrialsPROC	BP_006_BP2_BA.png	1	2	5	SessionSelectionList													3	nonlure	3	Body	2-Back	4	80	2	0	0	0	2	39	258160	1	13	59	256121	-1	257127	1	1006	3	3	2039	52	258173	-53	0																5												
WM080112	110411_fnca	1	1	1	-819122525	1	75.030	75.030	2.0.10.147	2.0.10.242	2.0.10.242	1.0.0.439	7	234	2	3	Verdana	1	80	0	0	0	WM Stimuli\	0.8	1051	0.8	973.5	1	912.3	1	919.6	0.9	867	1	765.9	0.9	1113.22222222222	1	580	13	534302	2	534290	26	39	534328	-999999	534305	0	3	TrialsPROC	BP_001_BP1_BA.png	1	2	6	SessionSelectionList													4	target	2	Body	2-Back	5	80	3	0	0	0	1	39	260732	2	14	72	258693	-1	259551	1	858	2	2	2039	53	260746	-54	0																6												
WM080112	110411_fnca	1	1	1	-819122525	1	75.030	75.030	2.0.10.147	2.0.10.242	2.0.10.242	1.0.0.439	7	234	2	3	Verdana	1	80	0	0	0	WM Stimuli\	0.8	1051	0.8	973.5	1	912.3	1	919.6	0.9	867	1	765.9	0.9	1113.22222222222	1	580	13	534302	2	534290	26	39	534328	-999999	534305	0	3	TrialsPROC	BP_005_BP19_BA.png	1	2	7	SessionSelectionList													5	nonlure	3	Body	2-Back	6	80	4	0	0	0	1	39	263304	2	14	72	261265	-1	262442	1	1177	3	3	2039	53	263318	-54	0																7												
WM080112	110411_fnca	1	1	1	-819122525	1	75.030	75.030	2.0.10.147	2.0.10.242	2.0.10.242	1.0.0.439	7	234	2	3	Verdana	1	80	0	0	0	WM Stimuli\	0.8	1051	0.8	973.5	1	912.3	1	919.6	0.9	867	1	765.9	0.9	1113.22222222222	1	580	13	534302	2	534290	26	39	534328	-999999	534305	0	3	TrialsPROC	BP_003_BP16_BA.png	1	2	8	SessionSelectionList													6	nonlure	3	Body	2-Back	7	80	5	0	0	0	2	39	265863	2	14	59	263824	-1	264836	1	1012	3	3	2039	53	265877	-54	0																8												
WM080112	110411_fnca	1	1	1	-819122525	1	75.030	75.030	2.0.10.147	2.0.10.242	2.0.10.242	1.0.0.439	7	234	2	3	Verdana	1	80	0	0	0	WM Stimuli\	0.8	1051	0.8	973.5	1	912.3	1	919.6	0.9	867	1	765.9	0.9	1113.22222222222	1	580	13	534302	2	534290	26	39	534328	-999999	534305	0	3	TrialsPROC	BP_006_BP2_BA.png	1	2	9	SessionSelectionList													7	lure	3	Body	2-Back	8	80	6	0	0	0	1	39	268422	2	14	59	266383	-1	267629	0	1246	2	3	2039	53	268436	-54	0																9												
WM080112	110411_fnca	1	1	1	-819122525	1	75.030	75.030	2.0.10.147	2.0.10.242	2.0.10.242	1.0.0.439	7	234	2	3	Verdana	1	80	0	0	0	WM Stimuli\	0.8	1051	0.8	973.5	1	912.3	1	919.6	0.9	867	1	765.9	0.9	1113.22222222222	1	580	13	534302	2	534290	26	39	534328	-999999	534305	0	3	TrialsPROC	BP_004_BP18_BA.png	1	2	10	SessionSelectionList													8	nonlure	3	Body	2-Back	9	80	7	0	0	0	1	39	270981	2	14	59	268942	-1	269910	1	968	3	3	2039	53	270995	-54	0																10												
WM080112	110411_fnca	1	1	1	-819122525	1	75.030	75.030	2.0.10.147	2.0.10.242	2.0.10.242	1.0.0.439	7	234	2	3	Verdana	1	80	0	0	0	WM Stimuli\	0.8	1051	0.8	973.5	1	912.3	1	919.6	0.9	867	1	765.9	0.9	1113.22222222222	1	580	13	534302	2	534290	26	39	534328	-999999	534305	0	3	TrialsPROC	BP_005_BP19_BA.png	1	2	11	SessionSelectionList													9	lure	3	Body	2-Back	10	80	8	0	0	0	2	39	273540	2	14	59	271501	-1	272626	1	1125	3	3	2039	53	273554	-54	0																11												
WM080112	110411_fnca	1	1	1	-819122525	1	75.030	75.030	2.0.10.147	2.0.10.242	2.0.10.242	1.0.0.439	7	234	2	3	Verdana	1	80	0	0	0	WM Stimuli\	0.8	1051	0.8	973.5	1	912.3	1	919.6	0.9	867	1	765.9	0.9	1113.22222222222	1	580	13	534302	2	534290	26	39	534328	-999999	534305	0	3	TrialsPROC	BP_004_BP18_BA.png	1	2	12	SessionSelectionList													10	target	2	Body	2-Back	11	80	9	0	0	0	1	39	276099	2	14	59	274060	-1	275199	1	1139	2	2	2039	53	276113	-54	0																12												
WM080112	110411_fnca	1	1	1	-819122525	1	75.030	75.030	2.0.10.147	2.0.10.242	2.0.10.242	1.0.0.439	7	234	2	3	Verdana	1	80	0	0	0	WM Stimuli\	0.8	1051	0.8	973.5	1	912.3	1	919.6	0.9	867	1	765.9	0.9	1113.22222222222	1	580	13	534302	2	534290	26	39	534328	-999999	534305	0	4	Cue0BackPROC	FC_001_M1.png	1	2	13	SessionSelectionList																																										46	276606	-47	0												13												
WM080112	110411_fnca	1	1	1	-819122525	1	75.030	75.030	2.0.10.147	2.0.10.242	2.0.10.242	1.0.0.439	7	234	2	3	Verdana	1	80	0	0	0	WM Stimuli\	0.8	1051	0.8	973.5	1	912.3	1	919.6	0.9	867	1	765.9	0.9	1113.22222222222	1	580	13	534302	2	534290	26	39	534328	-999999	534305	0	5	TrialsPROC	FC_005_M3.png	1	2	14	SessionSelectionList														nonlure	3	Face	0-Back	12	80	10	0	0	100	1	39	281164	2	13	65	279125	-1	280455	1	1330	3	3	2039	52	281177	-53	0					1											14												
WM080112	110411_fnca	1	1	1	-819122525	1	75.030	75.030	2.0.10.147	2.0.10.242	2.0.10.242	1.0.0.439	7	234	2	3	Verdana	1	80	0	0	0	WM Stimuli\	0.8	1051	0.8	973.5	1	912.3	1	919.6	0.9	867	1	765.9	0.9	1113.22222222222	1	580	13	534302	2	534290	26	39	534328	-999999	534305	0	5	TrialsPROC	FC_001_M1.png	1	2	15	SessionSelectionList														target	2	Face	0-Back	13	80	11	0	0	100	1	39	283736	2	14	72	281697	-1	282451	1	754	2	2	2039	53	283750	-54	0					2											15												
WM080112	110411_fnca	1	1	1	-819122525	1	75.030	75.030	2.0.10.147	2.0.10.242	2.0.10.242	1.0.0.439	7	234	2	3	Verdana	1	80	0	0	0	WM Stimuli\	0.8	1051	0.8	973.5	1	912.3	1	919.6	0.9	867	1	765.9	0.9	1113.22222222222	1	580	13	534302	2	534290	26	39	534328	-999999	534305	0	5	TrialsPROC	FC_003_M2.png	1	2	16	SessionSelectionList														nonlure	3	Face	0-Back	14	80	12	0	0	100	1	40	286309	1	13	72	284269	-1	285229	1	960	3	3	2040	53	286322	-54	0					3											16												
WM080112	110411_fnca	1	1	1	-819122525	1	75.030	75.030	2.0.10.147	2.0.10.242	2.0.10.242	1.0.0.439	7	234	2	3	Verdana	1	80	0	0	0	WM Stimuli\	0.8	1051	0.8	973.5	1	912.3	1	919.6	0.9	867	1	765.9	0.9	1113.22222222222	1	580	13	534302	2	534290	26	39	534328	-999999	534305	0	5	TrialsPROC	FC_004_F2.png	1	2	17	SessionSelectionList														nonlure	3	Face	0-Back	15	80	13	0	0	100	2	39	288881	1	13	73	286842	-1	287493	1	651	3	3	2039	52	288894	-53	0					4											17												
WM080112	110411_fnca	1	1	1	-819122525	1	75.030	75.030	2.0.10.147	2.0.10.242	2.0.10.242	1.0.0.439	7	234	2	3	Verdana	1	80	0	0	0	WM Stimuli\	0.8	1051	0.8	973.5	1	912.3	1	919.6	0.9	867	1	765.9	0.9	1113.22222222222	1	580	13	534302	2	534290	26	39	534328	-999999	534305	0	5	TrialsPROC	FC_004_F2.png	1	2	18	SessionSelectionList														lure	3	Face	0-Back	16	80	14	0	0	100	3	39	291453	1	14	72	289414	-1	290194	1	780	3	3	2039	53	291467	-54	0					5											18												
WM080112	110411_fnca	1	1	1	-819122525	1	75.030	75.030	2.0.10.147	2.0.10.242	2.0.10.242	1.0.0.439	7	234	2	3	Verdana	1	80	0	0	0	WM Stimuli\	0.8	1051	0.8	973.5	1	912.3	1	919.6	0.9	867	1	765.9	0.9	1113.22222222222	1	580	13	534302	2	534290	26	39	534328	-999999	534305	0	5	TrialsPROC	FC_001_M1.png	1	2	19	SessionSelectionList														target	2	Face	0-Back	17	80	15	0	0	100	1	39	294025	3	14	72	291986	-1	293121	1	1135	2	2	2039	53	294039	-54	0					6											19												
WM080112	110411_fnca	1	1	1	-819122525	1	75.030	75.030	2.0.10.147	2.0.10.242	2.0.10.242	1.0.0.439	7	234	2	3	Verdana	1	80	0	0	0	WM Stimuli\	0.8	1051	0.8	973.5	1	912.3	1	919.6	0.9	867	1	765.9	0.9	1113.22222222222	1	580	13	534302	2	534290	26	39	534328	-999999	534305	0	5	TrialsPROC	FC_006_F3.png	1	2	20	SessionSelectionList														nonlure	3	Face	0-Back	18	80	16	0	0	100	1	39	296598	1	13	73	294559	-1	295355	1	796	3	3	2039	52	296611	-53	0					7											20												
WM080112	110411_fnca	1	1	1	-819122525	1	75.030	75.030	2.0.10.147	2.0.10.242	2.0.10.242	1.0.0.439	7	234	2	3	Verdana	1	80	0	0	0	WM Stimuli\	0.8	1051	0.8	973.5	1	912.3	1	919.6	0.9	867	1	765.9	0.9	1113.22222222222	1	580	13	534302	2	534290	26	39	534328	-999999	534305	0	5	TrialsPROC	FC_006_F3.png	1	2	21	SessionSelectionList														lure	3	Face	0-Back	19	80	17	0	0	100	2	39	299170	1	13	72	297131	-1	298028	1	897	3	3	2039	52	299183	-53	0					8											21												
WM080112	110411_fnca	1	1	1	-819122525	1	75.030	75.030	2.0.10.147	2.0.10.242	2.0.10.242	1.0.0.439	7	234	2	3	Verdana	1	80	0	0	0	WM Stimuli\	0.8	1051	0.8	973.5	1	912.3	1	919.6	0.9	867	1	765.9	0.9	1113.22222222222	1	580	13	534302	2	534290	26	39	534328	-999999	534305	0	5	TrialsPROC	FC_003_M2.png	1	2	22	SessionSelectionList														lure	3	Face	0-Back	20	80	18	0	0	100	3	39	301742	2	14	72	299703	-1	300682	1	979	3	3	2039	53	301756	-54	0					9											22												
WM080112	110411_fnca	1	1	1	-819122525	1	75.030	75.030	2.0.10.147	2.0.10.242	2.0.10.242	1.0.0.439	7	234	2	3	Verdana	1	80	0	0	0	WM Stimuli\	0.8	1051	0.8	973.5	1	912.3	1	919.6	0.9	867	1	765.9	0.9	1113.22222222222	1	580	13	534302	2	534290	26	39	534328	-999999	534305	0	5	TrialsPROC	FC_002_F1.png	1	2	23	SessionSelectionList														nonlure	3	Face	0-Back	21	80	19	0	0	100	4	39	304341	2	14	99	302302	-1	303216	1	914	3	3	2039	53	304355	-54	0					10											23												
WM080112	110411_fnca	1	1	1	-819122525	1	75.030	75.030	2.0.10.147	2.0.10.242	2.0.10.242	1.0.0.439	7	234	2	3	Verdana	1	80	0	0	0	WM Stimuli\	0.8	1051	0.8	973.5	1	912.3	1	919.6	0.9	867	1	765.9	0.9	1113.22222222222	1	580	13	534302	2	534290	26	39	534328	-999999	534305	0	6	Fix15secPROC	""	1	2	24	SessionSelectionList																																															6	304808	-7	0							24												
WM080112	110411_fnca	1	1	1	-819122525	1	75.030	75.030	2.0.10.147	2.0.10.242	2.0.10.242	1.0.0.439	7	234	2	3	Verdana	1	80	0	0	0	WM Stimuli\	0.8	1051	0.8	973.5	1	912.3	1	919.6	0.9	867	1	765.9	0.9	1113.22222222222	1	580	13	534302	2	534290	26	39	534328	-999999	534305	0	7	Cue2BackPROC	""	1	2	25	SessionSelectionList									13	319815	-14	0																																													25												
WM080112	110411_fnca	1	1	1	-819122525	1	75.030	75.030	2.0.10.147	2.0.10.242	2.0.10.242	1.0.0.439	7	234	2	3	Verdana	1	80	0	0	0	WM Stimuli\	0.8	1051	0.8	973.5	1	912.3	1	919.6	0.9	867	1	765.9	0.9	1113.22222222222	1	580	13	534302	2	534290	26	39	534328	-999999	534305	0	8	TrialsPROC	TO_001_TOOL1_BA.png	1	2	26	SessionSelectionList														nonlure	3	Tools	2-Back	22	80	20	0	0	100	5	39	324426	2	14	85	322387	-1	324229	1	1842	3	3	2039	53	324440	-54	0										1						26												
WM080112	110411_fnca	1	1	1	-819122525	1	75.030	75.030	2.0.10.147	2.0.10.242	2.0.10.242	1.0.0.439	7	234	2	3	Verdana	1	80	0	0	0	WM Stimuli\	0.8	1051	0.8	973.5	1	912.3	1	919.6	0.9	867	1	765.9	0.9	1113.22222222222	1	580	13	534302	2	534290	26	39	534328	-999999	534305	0	8	TrialsPROC	TO_002_TOOL2_BA.png	1	2	27	SessionSelectionList														nonlure	3	Tools	2-Back	23	80	21	0	0	100	6	39	327025	3	14	99	324986	-1	326311	1	1325	3	3	2039	53	327039	-54	0										2						27												
WM080112	110411_fnca	1	1	1	-819122525	1	75.030	75.030	2.0.10.147	2.0.10.242	2.0.10.242	1.0.0.439	7	234	2	3	Verdana	1	80	0	0	0	WM Stimuli\	0.8	1051	0.8	973.5	1	912.3	1	919.6	0.9	867	1	765.9	0.9	1113.22222222222	1	580	13	534302	2	534290	26	39	534328	-999999	534305	0	8	TrialsPROC	TO_004_TOOL4_BA.png	1	2	28	SessionSelectionList														nonlure	3	Tools	2-Back	24	80	22	0	0	100	7	39	329598	1	13	73	327559	-1	328395	1	836	3	3	2039	52	329611	-53	0										3						28												
WM080112	110411_fnca	1	1	1	-819122525	1	75.030	75.030	2.0.10.147	2.0.10.242	2.0.10.242	1.0.0.439	7	234	2	3	Verdana	1	80	0	0	0	WM Stimuli\	0.8	1051	0.8	973.5	1	912.3	1	919.6	0.9	867	1	765.9	0.9	1113.22222222222	1	580	13	534302	2	534290	26	39	534328	-999999	534305	0	8	TrialsPROC	TO_002_TOOL2_BA.png	1	2	29	SessionSelectionList														target	2	Tools	2-Back	25	80	23	0	0	100	1	40	332157	1	13	58	330117	-1	331164	1	1047	2	2	2040	53	332170	-54	0										4						29												
WM080112	110411_fnca	1	1	1	-819122525	1	75.030	75.030	2.0.10.147	2.0.10.242	2.0.10.242	1.0.0.439	7	234	2	3	Verdana	1	80	0	0	0	WM Stimuli\	0.8	1051	0.8	973.5	1	912.3	1	919.6	0.9	867	1	765.9	0.9	1113.22222222222	1	580	13	534302	2	534290	26	39	534328	-999999	534305	0	8	TrialsPROC	TO_001_TOOL1_BA.png	1	2	30	SessionSelectionList														lure	3	Tools	2-Back	26	80	24	0	0	100	1	40	334716	1	13	59	332676	-1	333478	1	802	3	3	2040	53	334729	-54	0										5						30												
WM080112	110411_fnca	1	1	1	-819122525	1	75.030	75.030	2.0.10.147	2.0.10.242	2.0.10.242	1.0.0.439	7	234	2	3	Verdana	1	80	0	0	0	WM Stimuli\	0.8	1051	0.8	973.5	1	912.3	1	919.6	0.9	867	1	765.9	0.9	1113.22222222222	1	580	13	534302	2	534290	26	39	534328	-999999	534305	0	8	TrialsPROC	TO_004_TOOL4_BA.png	1	2	31	SessionSelectionList														lure	3	Tools	2-Back	27	80	25	0	0	100	1	40	337275	1	13	59	335235	-1	336163	0	928	2	3	2040	53	337288	-54	0										6						31												
WM080112	110411_fnca	1	1	1	-819122525	1	75.030	75.030	2.0.10.147	2.0.10.242	2.0.10.242	1.0.0.439	7	234	2	3	Verdana	1	80	0	0	0	WM Stimuli\	0.8	1051	0.8	973.5	1	912.3	1	919.6	0.9	867	1	765.9	0.9	1113.22222222222	1	580	13	534302	2	534290	26	39	534328	-999999	534305	0	8	TrialsPROC	TO_006_TOOL6_BA.png	1	2	32	SessionSelectionList														nonlure	3	Tools	2-Back	28	80	26	0	0	100	1	40	339874	1	13	99	337834	-1	339246	1	1412	3	3	2040	53	339887	-54	0										7						32												
WM080112	110411_fnca	1	1	1	-819122525	1	75.030	75.030	2.0.10.147	2.0.10.242	2.0.10.242	1.0.0.439	7	234	2	3	Verdana	1	80	0	0	0	WM Stimuli\	0.8	1051	0.8	973.5	1	912.3	1	919.6	0.9	867	1	765.9	0.9	1113.22222222222	1	580	13	534302	2	534290	26	39	534328	-999999	534305	0	8	TrialsPROC	TO_005_TOOL5_BA.png	1	2	33	SessionSelectionList														nonlure	3	Tools	2-Back	29	80	27	0	0	100	2	39	342446	1	13	73	340407	-1	341633	1	1226	3	3	2039	52	342459	-53	0										8						33												
WM080112	110411_fnca	1	1	1	-819122525	1	75.030	75.030	2.0.10.147	2.0.10.242	2.0.10.242	1.0.0.439	7	234	2	3	Verdana	1	80	0	0	0	WM Stimuli\	0.8	1051	0.8	973.5	1	912.3	1	919.6	0.9	867	1	765.9	0.9	1113.22222222222	1	580	13	534302	2	534290	26	39	534328	-999999	534305	0	8	TrialsPROC	TO_006_TOOL6_BA.png	1	2	34	SessionSelectionList														target	2	Tools	2-Back	30	80	28	0	0	100	1	39	345005	1	13	59	342966	-1	343900	1	934	2	2	2039	52	345018	-53	0										9						34												
WM080112	110411_fnca	1	1	1	-819122525	1	75.030	75.030	2.0.10.147	2.0.10.242	2.0.10.242	1.0.0.439	7	234	2	3	Verdana	1	80	0	0	0	WM Stimuli\	0.8	1051	0.8	973.5	1	912.3	1	919.6	0.9	867	1	765.9	0.9	1113.22222222222	1	580	13	534302	2	534290	26	39	534328	-999999	534305	0	8	TrialsPROC	TO_003_TOOL3_BA.png	1	2	35	SessionSelectionList														nonlure	3	Tools	2-Back	31	80	29	0	0	100	1	39	347564	1	13	59	345525	-1	346120	1	595	3	3	2039	52	347577	-53	0										10						35												
WM080112	110411_fnca	1	1	1	-819122525	1	75.030	75.030	2.0.10.147	2.0.10.242	2.0.10.242	1.0.0.439	7	234	2	3	Verdana	1	80	0	0	0	WM Stimuli\	0.8	1051	0.8	973.5	1	912.3	1	919.6	0.9	867	1	765.9	0.9	1113.22222222222	1	580	13	534302	2	534290	26	39	534328	-999999	534305	0	9	Cue0BackPROC	BP_007_BP20_BA.png	1	2	36	SessionSelectionList																																										45	348070	-46	0												36												
WM080112	110411_fnca	1	1	1	-819122525	1	75.030	75.030	2.0.10.147	2.0.10.242	2.0.10.242	1.0.0.439	7	234	2	3	Verdana	1	80	0	0	0	WM Stimuli\	0.8	1051	0.8	973.5	1	912.3	1	919.6	0.9	867	1	765.9	0.9	1113.22222222222	1	580	13	534302	2	534290	26	39	534328	-999999	534305	0	10	TrialsPROC	BP_007_BP20_BA.png	1	2	37	SessionSelectionList														target	2	Body	0-Back	32	80	30	0	0	100	1	39	352615	1	14	51	350576	-1	352252	1	1676	2	2	2039	53	352629	-54	0											1					37												
WM080112	110411_fnca	1	1	1	-819122525	1	75.030	75.030	2.0.10.147	2.0.10.242	2.0.10.242	1.0.0.439	7	234	2	3	Verdana	1	80	0	0	0	WM Stimuli\	0.8	1051	0.8	973.5	1	912.3	1	919.6	0.9	867	1	765.9	0.9	1113.22222222222	1	580	13	534302	2	534290	26	39	534328	-999999	534305	0	10	TrialsPROC	BP_011_BP4_BA.png	1	2	38	SessionSelectionList														nonlure	3	Body	0-Back	33	80	31	0	0	100	1	39	355187	2	14	72	353148	-1	354098	1	950	3	3	2039	53	355201	-54	0											2					38												
WM080112	110411_fnca	1	1	1	-819122525	1	75.030	75.030	2.0.10.147	2.0.10.242	2.0.10.242	1.0.0.439	7	234	2	3	Verdana	1	80	0	0	0	WM Stimuli\	0.8	1051	0.8	973.5	1	912.3	1	919.6	0.9	867	1	765.9	0.9	1113.22222222222	1	580	13	534302	2	534290	26	39	534328	-999999	534305	0	10	TrialsPROC	BP_010_BP3_BA.png	1	2	39	SessionSelectionList														nonlure	3	Body	0-Back	34	80	32	0	0	100	2	39	357746	2	14	59	355707	-1	356531	1	824	3	3	2039	53	357760	-54	0											3					39												
WM080112	110411_fnca	1	1	1	-819122525	1	75.030	75.030	2.0.10.147	2.0.10.242	2.0.10.242	1.0.0.439	7	234	2	3	Verdana	1	80	0	0	0	WM Stimuli\	0.8	1051	0.8	973.5	1	912.3	1	919.6	0.9	867	1	765.9	0.9	1113.22222222222	1	580	13	534302	2	534290	26	39	534328	-999999	534305	0	10	TrialsPROC	BP_008_BP21_BA.png	1	2	40	SessionSelectionList														nonlure	3	Body	0-Back	35	80	33	0	0	100	3	39	360305	2	14	59	358266	-1	359074	1	808	3	3	2039	53	360319	-54	0											4					40												
WM080112	110411_fnca	1	1	1	-819122525	1	75.030	75.030	2.0.10.147	2.0.10.242	2.0.10.242	1.0.0.439	7	234	2	3	Verdana	1	80	0	0	0	WM Stimuli\	0.8	1051	0.8	973.5	1	912.3	1	919.6	0.9	867	1	765.9	0.9	1113.22222222222	1	580	13	534302	2	534290	26	39	534328	-999999	534305	0	10	TrialsPROC	BP_011_BP4_BA.png	1	2	41	SessionSelectionList														lure	3	Body	0-Back	36	80	34	0	0	93	1	40	362878	1	13	72	360838	-1	361738	0	900	2	3	2040	53	362891	-54	0											5					41												
WM080112	110411_fnca	1	1	1	-819122525	1	75.030	75.030	2.0.10.147	2.0.10.242	2.0.10.242	1.0.0.439	7	234	2	3	Verdana	1	80	0	0	0	WM Stimuli\	0.8	1051	0.8	973.5	1	912.3	1	919.6	0.9	867	1	765.9	0.9	1113.22222222222	1	580	13	534302	2	534290	26	39	534328	-999999	534305	0	10	TrialsPROC	BP_009_BP22_BA.png	1	2	42	SessionSelectionList														nonlure	3	Body	0-Back	37	80	35	0	0	94	1	40	365437	1	13	59	363397	-1	364123	1	726	3	3	2040	53	365450	-54	0											6					42												
WM080112	110411_fnca	1	1	1	-819122525	1	75.030	75.030	2.0.10.147	2.0.10.242	2.0.10.242	1.0.0.439	7	234	2	3	Verdana	1	80	0	0	0	WM Stimuli\	0.8	1051	0.8	973.5	1	912.3	1	919.6	0.9	867	1	765.9	0.9	1113.22222222222	1	580	13	534302	2	534290	26	39	534328	-999999	534305	0	10	TrialsPROC	BP_009_BP22_BA.png	1	2	43	SessionSelectionList														lure	3	Body	0-Back	38	80	36	0	0	94	2	40	367996	1	13	59	365956	-1	366838	1	882	3	3	2040	53	368009	-54	0											7					43												
WM080112	110411_fnca	1	1	1	-819122525	1	75.030	75.030	2.0.10.147	2.0.10.242	2.0.10.242	1.0.0.439	7	234	2	3	Verdana	1	80	0	0	0	WM Stimuli\	0.8	1051	0.8	973.5	1	912.3	1	919.6	0.9	867	1	765.9	0.9	1113.22222222222	1	580	13	534302	2	534290	26	39	534328	-999999	534305	0	10	TrialsPROC	BP_008_BP21_BA.png	1	2	44	SessionSelectionList														lure	3	Body	0-Back	39	80	37	0	0	94	3	39	370554	2	14	59	368515	-1	369744	1	1229	3	3	2039	53	370568	-54	0											8					44												
WM080112	110411_fnca	1	1	1	-819122525	1	75.030	75.030	2.0.10.147	2.0.10.242	2.0.10.242	1.0.0.439	7	234	2	3	Verdana	1	80	0	0	0	WM Stimuli\	0.8	1051	0.8	973.5	1	912.3	1	919.6	0.9	867	1	765.9	0.9	1113.22222222222	1	580	13	534302	2	534290	26	39	534328	-999999	534305	0	10	TrialsPROC	BP_007_BP20_BA.png	1	2	45	SessionSelectionList														target	2	Body	0-Back	40	80	38	0	0	89	4	39	373113	2	14	59	371074	-1	372168	0	1094	3	2	2039	53	373127	-54	0											9					45												
WM080112	110411_fnca	1	1	1	-819122525	1	75.030	75.030	2.0.10.147	2.0.10.242	2.0.10.242	1.0.0.439	7	234	2	3	Verdana	1	80	0	0	0	WM Stimuli\	0.8	1051	0.8	973.5	1	912.3	1	919.6	0.9	867	1	765.9	0.9	1113.22222222222	1	580	13	534302	2	534290	26	39	534328	-999999	534305	0	10	TrialsPROC	BP_012_BP5_BA.png	1	2	46	SessionSelectionList														nonlure	3	Body	0-Back	41	80	39	0	0	90	5	39	375686	1	13	73	373647	-1	374340	1	693	3	3	2039	52	375699	-53	0											10					46												
WM080112	110411_fnca	1	1	1	-819122525	1	75.030	75.030	2.0.10.147	2.0.10.242	2.0.10.242	1.0.0.439	7	234	2	3	Verdana	1	80	0	0	0	WM Stimuli\	0.8	1051	0.8	973.5	1	912.3	1	919.6	0.9	867	1	765.9	0.9	1113.22222222222	1	580	13	534302	2	534290	26	39	534328	-999999	534305	0	11	Fix15secPROC	""	1	2	47	SessionSelectionList																																															5	376152	-6	0							47												
WM080112	110411_fnca	1	1	1	-819122525	1	75.030	75.030	2.0.10.147	2.0.10.242	2.0.10.242	1.0.0.439	7	234	2	3	Verdana	1	80	0	0	0	WM Stimuli\	0.8	1051	0.8	973.5	1	912.3	1	919.6	0.9	867	1	765.9	0.9	1113.22222222222	1	580	13	534302	2	534290	26	39	534328	-999999	534305	0	12	Cue0BackPROC	PL_001_92012.png	1	2	48	SessionSelectionList																																										52	391199	-53	0												48												
WM080112	110411_fnca	1	1	1	-819122525	1	75.030	75.030	2.0.10.147	2.0.10.242	2.0.10.242	1.0.0.439	7	234	2	3	Verdana	1	80	0	0	0	WM Stimuli\	0.8	1051	0.8	973.5	1	912.3	1	919.6	0.9	867	1	765.9	0.9	1113.22222222222	1	580	13	534302	2	534290	26	39	534328	-999999	534305	0	13	TrialsPROC	PL_003_92016.png	1	2	49	SessionSelectionList														nonlure	3	Place	0-Back	42	80	40	0	0	90	6	40	395758	1	13	71	393718	-1	394810	1	1092	3	3	2040	53	395771	-54	0												1				49												
WM080112	110411_fnca	1	1	1	-819122525	1	75.030	75.030	2.0.10.147	2.0.10.242	2.0.10.242	1.0.0.439	7	234	2	3	Verdana	1	80	0	0	0	WM Stimuli\	0.8	1051	0.8	973.5	1	912.3	1	919.6	0.9	867	1	765.9	0.9	1113.22222222222	1	580	13	534302	2	534290	26	39	534328	-999999	534305	0	13	TrialsPROC	PL_003_92016.png	1	2	50	SessionSelectionList														lure	3	Place	0-Back	43	80	41	0	0	91	7	39	398330	1	13	73	396291	-1	397153	1	862	3	3	2039	52	398343	-53	0												2				50												
WM080112	110411_fnca	1	1	1	-819122525	1	75.030	75.030	2.0.10.147	2.0.10.242	2.0.10.242	1.0.0.439	7	234	2	3	Verdana	1	80	0	0	0	WM Stimuli\	0.8	1051	0.8	973.5	1	912.3	1	919.6	0.9	867	1	765.9	0.9	1113.22222222222	1	580	13	534302	2	534290	26	39	534328	-999999	534305	0	13	TrialsPROC	PL_006_92025.png	1	2	51	SessionSelectionList														nonlure	3	Place	0-Back	44	80	42	0	0	91	8	40	400916	1	13	85	398876	-1	399552	1	676	3	3	2040	53	400929	-54	0												3				51												
WM080112	110411_fnca	1	1	1	-819122525	1	75.030	75.030	2.0.10.147	2.0.10.242	2.0.10.242	1.0.0.439	7	234	2	3	Verdana	1	80	0	0	0	WM Stimuli\	0.8	1051	0.8	973.5	1	912.3	1	919.6	0.9	867	1	765.9	0.9	1113.22222222222	1	580	13	534302	2	534290	26	39	534328	-999999	534305	0	13	TrialsPROC	PL_001_92012.png	1	2	52	SessionSelectionList														target	2	Place	0-Back	45	80	43	0	0	92	1	39	403488	1	13	73	401449	-1	402306	1	857	2	2	2039	52	403501	-53	0												4				52												
WM080112	110411_fnca	1	1	1	-819122525	1	75.030	75.030	2.0.10.147	2.0.10.242	2.0.10.242	1.0.0.439	7	234	2	3	Verdana	1	80	0	0	0	WM Stimuli\	0.8	1051	0.8	973.5	1	912.3	1	919.6	0.9	867	1	765.9	0.9	1113.22222222222	1	580	13	534302	2	534290	26	39	534328	-999999	534305	0	13	TrialsPROC	PL_004_92023.png	1	2	53	SessionSelectionList														nonlure	3	Place	0-Back	46	80	44	0	0	92	1	39	406087	1	13	99	404048	-1	404710	1	662	3	3	2039	52	406100	-53	0												5				53												
WM080112	110411_fnca	1	1	1	-819122525	1	75.030	75.030	2.0.10.147	2.0.10.242	2.0.10.242	1.0.0.439	7	234	2	3	Verdana	1	80	0	0	0	WM Stimuli\	0.8	1051	0.8	973.5	1	912.3	1	919.6	0.9	867	1	765.9	0.9	1113.22222222222	1	580	13	534302	2	534290	26	39	534328	-999999	534305	0	13	TrialsPROC	PL_005_92024.png	1	2	54	SessionSelectionList														nonlure	3	Place	0-Back	47	80	45	0	0	92	2	39	408659	1	14	72	406620	-1	407329	1	709	3	3	2039	53	408673	-54	0												6				54												
WM080112	110411_fnca	1	1	1	-819122525	1	75.030	75.030	2.0.10.147	2.0.10.242	2.0.10.242	1.0.0.439	7	234	2	3	Verdana	1	80	0	0	0	WM Stimuli\	0.8	1051	0.8	973.5	1	912.3	1	919.6	0.9	867	1	765.9	0.9	1113.22222222222	1	580	13	534302	2	534290	26	39	534328	-999999	534305	0	13	TrialsPROC	PL_001_92012.png	1	2	55	SessionSelectionList														target	2	Place	0-Back	48	80	46	0	0	93	1	39	411231	2	14	72	409192	-1	409986	1	794	2	2	2039	53	411245	-54	0												7				55												
WM080112	110411_fnca	1	1	1	-819122525	1	75.030	75.030	2.0.10.147	2.0.10.242	2.0.10.242	1.0.0.439	7	234	2	3	Verdana	1	80	0	0	0	WM Stimuli\	0.8	1051	0.8	973.5	1	912.3	1	919.6	0.9	867	1	765.9	0.9	1113.22222222222	1	580	13	534302	2	534290	26	39	534328	-999999	534305	0	13	TrialsPROC	PL_002_92014.png	1	2	56	SessionSelectionList														nonlure	3	Place	0-Back	49	80	47	0	0	93	1	39	413804	2	13	73	411765	-1	412460	1	695	3	3	2039	52	413817	-53	0												8				56												
WM080112	110411_fnca	1	1	1	-819122525	1	75.030	75.030	2.0.10.147	2.0.10.242	2.0.10.242	1.0.0.439	7	234	2	3	Verdana	1	80	0	0	0	WM Stimuli\	0.8	1051	0.8	973.5	1	912.3	1	919.6	0.9	867	1	765.9	0.9	1113.22222222222	1	580	13	534302	2	534290	26	39	534328	-999999	534305	0	13	TrialsPROC	PL_004_92023.png	1	2	57	SessionSelectionList														lure	3	Place	0-Back	50	80	48	0	0	93	2	39	416376	1	13	72	414337	-1	414975	1	638	3	3	2039	52	416389	-53	0												9				57												
WM080112	110411_fnca	1	1	1	-819122525	1	75.030	75.030	2.0.10.147	2.0.10.242	2.0.10.242	1.0.0.439	7	234	2	3	Verdana	1	80	0	0	0	WM Stimuli\	0.8	1051	0.8	973.5	1	912.3	1	919.6	0.9	867	1	765.9	0.9	1113.22222222222	1	580	13	534302	2	534290	26	39	534328	-999999	534305	0	13	TrialsPROC	PL_006_92025.png	1	2	58	SessionSelectionList														lure	3	Place	0-Back	51	80	49	0	0	93	3	39	418948	2	14	72	416909	-1	417583	1	674	3	3	2039	53	418962	-54	0												10				58												
WM080112	110411_fnca	1	1	1	-819122525	1	75.030	75.030	2.0.10.147	2.0.10.242	2.0.10.242	1.0.0.439	7	234	2	3	Verdana	1	80	0	0	0	WM Stimuli\	0.8	1051	0.8	973.5	1	912.3	1	919.6	0.9	867	1	765.9	0.9	1113.22222222222	1	580	13	534302	2	534290	26	39	534328	-999999	534305	0	14	Cue2BackPROC	""	1	2	59	SessionSelectionList									6	419415	-7	0																																													59												
WM080112	110411_fnca	1	1	1	-819122525	1	75.030	75.030	2.0.10.147	2.0.10.242	2.0.10.242	1.0.0.439	7	234	2	3	Verdana	1	80	0	0	0	WM Stimuli\	0.8	1051	0.8	973.5	1	912.3	1	919.6	0.9	867	1	765.9	0.9	1113.22222222222	1	580	13	534302	2	534290	26	39	534328	-999999	534305	0	15	TrialsPROC	FC_010_F5.png	1	2	60	SessionSelectionList														nonlure	3	Face	2-Back	52	80	50	0	0	93	4	40	424040	1	13	91	422000	-1	423472	1	1472	3	3	2040	53	424053	-54	0													1			60												
WM080112	110411_fnca	1	1	1	-819122525	1	75.030	75.030	2.0.10.147	2.0.10.242	2.0.10.242	1.0.0.439	7	234	2	3	Verdana	1	80	0	0	0	WM Stimuli\	0.8	1051	0.8	973.5	1	912.3	1	919.6	0.9	867	1	765.9	0.9	1113.22222222222	1	580	13	534302	2	534290	26	39	534328	-999999	534305	0	15	TrialsPROC	FC_012_F6.png	1	2	61	SessionSelectionList														nonlure	3	Face	2-Back	53	80	51	0	0	93	5	39	426612	1	13	73	424573	-1	425933	1	1360	3	3	2039	52	426625	-53	0													2			61												
WM080112	110411_fnca	1	1	1	-819122525	1	75.030	75.030	2.0.10.147	2.0.10.242	2.0.10.242	1.0.0.439	7	234	2	3	Verdana	1	80	0	0	0	WM Stimuli\	0.8	1051	0.8	973.5	1	912.3	1	919.6	0.9	867	1	765.9	0.9	1113.22222222222	1	580	13	534302	2	534290	26	39	534328	-999999	534305	0	15	TrialsPROC	FC_010_F5.png	1	2	62	SessionSelectionList														target	2	Face	2-Back	54	80	52	0	0	93	1	39	429184	1	14	72	427145	-1	427999	1	854	2	2	2039	53	429198	-54	0													3			62												
WM080112	110411_fnca	1	1	1	-819122525	1	75.030	75.030	2.0.10.147	2.0.10.242	2.0.10.242	1.0.0.439	7	234	2	3	Verdana	1	80	0	0	0	WM Stimuli\	0.8	1051	0.8	973.5	1	912.3	1	919.6	0.9	867	1	765.9	0.9	1113.22222222222	1	580	13	534302	2	534290	26	39	534328	-999999	534305	0	15	TrialsPROC	FC_008_F4.png	1	2	63	SessionSelectionList														nonlure	3	Face	2-Back	55	80	53	0	0	93	1	39	431783	1	14	99	429744	-1	430605	1	861	3	3	2039	53	431797	-54	0													4			63												
WM080112	110411_fnca	1	1	1	-819122525	1	75.030	75.030	2.0.10.147	2.0.10.242	2.0.10.242	1.0.0.439	7	234	2	3	Verdana	1	80	0	0	0	WM Stimuli\	0.8	1051	0.8	973.5	1	912.3	1	919.6	0.9	867	1	765.9	0.9	1113.22222222222	1	580	13	534302	2	534290	26	39	534328	-999999	534305	0	15	TrialsPROC	FC_012_F6.png	1	2	64	SessionSelectionList														lure	3	Face	2-Back	56	80	54	0	0	93	2	39	434355	2	14	72	432316	-1	433248	1	932	3	3	2039	53	434369	-54	0													5			64												
WM080112	110411_fnca	1	1	1	-819122525	1	75.030	75.030	2.0.10.147	2.0.10.242	2.0.10.242	1.0.0.439	7	234	2	3	Verdana	1	80	0	0	0	WM Stimuli\	0.8	1051	0.8	973.5	1	912.3	1	919.6	0.9	867	1	765.9	0.9	1113.22222222222	1	580	13	534302	2	534290	26	39	534328	-999999	534305	0	15	TrialsPROC	FC_008_F4.png	1	2	65	SessionSelectionList														target	2	Face	2-Back	57	80	55	0	0	93	1	40	436928	1	13	72	434888	-1	435577	1	689	2	2	2040	53	436941	-54	0													6			65												
WM080112	110411_fnca	1	1	1	-819122525	1	75.030	75.030	2.0.10.147	2.0.10.242	2.0.10.242	1.0.0.439	7	234	2	3	Verdana	1	80	0	0	0	WM Stimuli\	0.8	1051	0.8	973.5	1	912.3	1	919.6	0.9	867	1	765.9	0.9	1113.22222222222	1	580	13	534302	2	534290	26	39	534328	-999999	534305	0	15	TrialsPROC	FC_007_M4.png	1	2	66	SessionSelectionList														nonlure	3	Face	2-Back	58	80	56	0	0	93	1	39	439513	2	14	86	437474	-1	437962	1	488	3	3	2039	53	439527	-54	0													7			66												
WM080112	110411_fnca	1	1	1	-819122525	1	75.030	75.030	2.0.10.147	2.0.10.242	2.0.10.242	1.0.0.439	7	234	2	3	Verdana	1	80	0	0	0	WM Stimuli\	0.8	1051	0.8	973.5	1	912.3	1	919.6	0.9	867	1	765.9	0.9	1113.22222222222	1	580	13	534302	2	534290	26	39	534328	-999999	534305	0	15	TrialsPROC	FC_007_M4.png	1	2	67	SessionSelectionList														lure	3	Face	2-Back	59	80	57	0	0	93	2	40	442086	1	13	72	440046	-1	440925	1	879	3	3	2040	53	442099	-54	0													8			67												
WM080112	110411_fnca	1	1	1	-819122525	1	75.030	75.030	2.0.10.147	2.0.10.242	2.0.10.242	1.0.0.439	7	234	2	3	Verdana	1	80	0	0	0	WM Stimuli\	0.8	1051	0.8	973.5	1	912.3	1	919.6	0.9	867	1	765.9	0.9	1113.22222222222	1	580	13	534302	2	534290	26	39	534328	-999999	534305	0	15	TrialsPROC	FC_009_M5.png	1	2	68	SessionSelectionList														nonlure	3	Face	2-Back	60	80	58	0	0	93	3	40	444685	1	13	99	442645	-1	443457	1	812	3	3	2040	53	444698	-54	0													9			68												
WM080112	110411_fnca	1	1	1	-819122525	1	75.030	75.030	2.0.10.147	2.0.10.242	2.0.10.242	1.0.0.439	7	234	2	3	Verdana	1	80	0	0	0	WM Stimuli\	0.8	1051	0.8	973.5	1	912.3	1	919.6	0.9	867	1	765.9	0.9	1113.22222222222	1	580	13	534302	2	534290	26	39	534328	-999999	534305	0	15	TrialsPROC	FC_011_M6.png	1	2	69	SessionSelectionList														nonlure	3	Face	2-Back	61	80	59	0	0	93	4	39	447270	3	14	86	445231	-1	446007	1	776	3	3	2039	53	447284	-54	0													10			69												
WM080112	110411_fnca	1	1	1	-819122525	1	75.030	75.030	2.0.10.147	2.0.10.242	2.0.10.242	1.0.0.439	7	234	2	3	Verdana	1	80	0	0	0	WM Stimuli\	0.8	1051	0.8	973.5	1	912.3	1	919.6	0.9	867	1	765.9	0.9	1113.22222222222	1	580	13	534302	2	534290	26	39	534328	-999999	534305	0	16	Fix15secPROC	""	1	2	70	SessionSelectionList																																															6	447737	-7	0							70												
WM080112	110411_fnca	1	1	1	-819122525	1	75.030	75.030	2.0.10.147	2.0.10.242	2.0.10.242	1.0.0.439	7	234	2	3	Verdana	1	80	0	0	0	WM Stimuli\	0.8	1051	0.8	973.5	1	912.3	1	919.6	0.9	867	1	765.9	0.9	1113.22222222222	1	580	13	534302	2	534290	26	39	534328	-999999	534305	0	17	Cue0BackPROC	TO_007_TOOL7_BA.png	1	2	71	SessionSelectionList																																										40	462771	-41	0												71												
WM080112	110411_fnca	1	1	1	-819122525	1	75.030	75.030	2.0.10.147	2.0.10.242	2.0.10.242	1.0.0.439	7	234	2	3	Verdana	1	80	0	0	0	WM Stimuli\	0.8	1051	0.8	973.5	1	912.3	1	919.6	0.9	867	1	765.9	0.9	1113.22222222222	1	580	13	534302	2	534290	26	39	534328	-999999	534305	0	18	TrialsPROC	TO_010_TOOL10_BA.png	1	2	72	SessionSelectionList														nonlure	3	Tools	0-Back	62	80	60	0	0	94	5	39	467369	1	13	99	465330	-1	466188	1	858	3	3	2039	52	467382	-53	0														1		72												
WM080112	110411_fnca	1	1	1	-819122525	1	75.030	75.030	2.0.10.147	2.0.10.242	2.0.10.242	1.0.0.439	7	234	2	3	Verdana	1	80	0	0	0	WM Stimuli\	0.8	1051	0.8	973.5	1	912.3	1	919.6	0.9	867	1	765.9	0.9	1113.22222222222	1	580	13	534302	2	534290	26	39	534328	-999999	534305	0	18	TrialsPROC	TO_009_TOOL9_BA.png	1	2	73	SessionSelectionList														nonlure	3	Tools	0-Back	63	80	61	0	0	94	6	39	469954	2	14	85	467915	-1	468445	1	530	3	3	2039	53	469968	-54	0														2		73												
WM080112	110411_fnca	1	1	1	-819122525	1	75.030	75.030	2.0.10.147	2.0.10.242	2.0.10.242	1.0.0.439	7	234	2	3	Verdana	1	80	0	0	0	WM Stimuli\	0.8	1051	0.8	973.5	1	912.3	1	919.6	0.9	867	1	765.9	0.9	1113.22222222222	1	580	13	534302	2	534290	26	39	534328	-999999	534305	0	18	TrialsPROC	TO_009_TOOL9_BA.png	1	2	74	SessionSelectionList														lure	3	Tools	0-Back	64	80	62	0	0	94	7	39	472513	2	14	59	470474	-1	470955	1	481	3	3	2039	53	472527	-54	0														3		74												
WM080112	110411_fnca	1	1	1	-819122525	1	75.030	75.030	2.0.10.147	2.0.10.242	2.0.10.242	1.0.0.439	7	234	2	3	Verdana	1	80	0	0	0	WM Stimuli\	0.8	1051	0.8	973.5	1	912.3	1	919.6	0.9	867	1	765.9	0.9	1113.22222222222	1	580	13	534302	2	534290	26	39	534328	-999999	534305	0	18	TrialsPROC	TO_008_TOOL8_BA.png	1	2	75	SessionSelectionList														nonlure	3	Tools	0-Back	65	80	63	0	0	94	8	39	475099	1	13	86	473060	-1	473622	1	562	3	3	2039	52	475112	-53	0														4		75												
WM080112	110411_fnca	1	1	1	-819122525	1	75.030	75.030	2.0.10.147	2.0.10.242	2.0.10.242	1.0.0.439	7	234	2	3	Verdana	1	80	0	0	0	WM Stimuli\	0.8	1051	0.8	973.5	1	912.3	1	919.6	0.9	867	1	765.9	0.9	1113.22222222222	1	580	13	534302	2	534290	26	39	534328	-999999	534305	0	18	TrialsPROC	TO_011_TOOL11_BA.png	1	2	76	SessionSelectionList														nonlure	3	Tools	0-Back	66	80	64	0	0	94	9	40	477685	1	13	85	475645	-1	476194	1	549	3	3	2040	53	477698	-54	0														5		76												
WM080112	110411_fnca	1	1	1	-819122525	1	75.030	75.030	2.0.10.147	2.0.10.242	2.0.10.242	1.0.0.439	7	234	2	3	Verdana	1	80	0	0	0	WM Stimuli\	0.8	1051	0.8	973.5	1	912.3	1	919.6	0.9	867	1	765.9	0.9	1113.22222222222	1	580	13	534302	2	534290	26	39	534328	-999999	534305	0	18	TrialsPROC	TO_012_TOOL12_BA.png	1	2	77	SessionSelectionList														nonlure	3	Tools	0-Back	67	80	65	0	0	94	10	39	480283	2	14	99	478244	-1	478754	1	510	3	3	2039	53	480297	-54	0														6		77												
WM080112	110411_fnca	1	1	1	-819122525	1	75.030	75.030	2.0.10.147	2.0.10.242	2.0.10.242	1.0.0.439	7	234	2	3	Verdana	1	80	0	0	0	WM Stimuli\	0.8	1051	0.8	973.5	1	912.3	1	919.6	0.9	867	1	765.9	0.9	1113.22222222222	1	580	13	534302	2	534290	26	39	534328	-999999	534305	0	18	TrialsPROC	TO_010_TOOL10_BA.png	1	2	78	SessionSelectionList														lure	3	Tools	0-Back	68	80	66	0	0	95	11	39	482842	2	14	59	480803	-1	481352	1	549	3	3	2039	53	482856	-54	0														7		78												
WM080112	110411_fnca	1	1	1	-819122525	1	75.030	75.030	2.0.10.147	2.0.10.242	2.0.10.242	1.0.0.439	7	234	2	3	Verdana	1	80	0	0	0	WM Stimuli\	0.8	1051	0.8	973.5	1	912.3	1	919.6	0.9	867	1	765.9	0.9	1113.22222222222	1	580	13	534302	2	534290	26	39	534328	-999999	534305	0	18	TrialsPROC	TO_007_TOOL7_BA.png	1	2	79	SessionSelectionList														target	2	Tools	0-Back	69	80	67	0	0	95	1	39	485401	2	14	59	483362	-1	483935	1	573	2	2	2039	53	485415	-54	0														8		79												
WM080112	110411_fnca	1	1	1	-819122525	1	75.030	75.030	2.0.10.147	2.0.10.242	2.0.10.242	1.0.0.439	7	234	2	3	Verdana	1	80	0	0	0	WM Stimuli\	0.8	1051	0.8	973.5	1	912.3	1	919.6	0.9	867	1	765.9	0.9	1113.22222222222	1	580	13	534302	2	534290	26	39	534328	-999999	534305	0	18	TrialsPROC	TO_008_TOOL8_BA.png	1	2	80	SessionSelectionList														lure	3	Tools	0-Back	70	80	68	0	0	95	1	39	487960	2	14	59	485921	-1	486431	1	510	3	3	2039	53	487974	-54	0														9		80												
WM080112	110411_fnca	1	1	1	-819122525	1	75.030	75.030	2.0.10.147	2.0.10.242	2.0.10.242	1.0.0.439	7	234	2	3	Verdana	1	80	0	0	0	WM Stimuli\	0.8	1051	0.8	973.5	1	912.3	1	919.6	0.9	867	1	765.9	0.9	1113.22222222222	1	580	13	534302	2	534290	26	39	534328	-999999	534305	0	18	TrialsPROC	TO_007_TOOL7_BA.png	1	2	81	SessionSelectionList														target	2	Tools	0-Back	71	80	69	0	0	95	1	39	490519	2	14	59	488480	-1	489158	1	678	2	2	2039	53	490533	-54	0														10		81												
WM080112	110411_fnca	1	1	1	-819122525	1	75.030	75.030	2.0.10.147	2.0.10.242	2.0.10.242	1.0.0.439	7	234	2	3	Verdana	1	80	0	0	0	WM Stimuli\	0.8	1051	0.8	973.5	1	912.3	1	919.6	0.9	867	1	765.9	0.9	1113.22222222222	1	580	13	534302	2	534290	26	39	534328	-999999	534305	0	19	Cue2BackPROC	""	1	2	82	SessionSelectionList									6	490986	-7	0																																													82												
WM080112	110411_fnca	1	1	1	-819122525	1	75.030	75.030	2.0.10.147	2.0.10.242	2.0.10.242	1.0.0.439	7	234	2	3	Verdana	1	80	0	0	0	WM Stimuli\	0.8	1051	0.8	973.5	1	912.3	1	919.6	0.9	867	1	765.9	0.9	1113.22222222222	1	580	13	534302	2	534290	26	39	534328	-999999	534305	0	20	TrialsPROC	PL_007_92026.png	1	2	83	SessionSelectionList														nonlure	3	Place	2-Back	72	80	69	0	1	95	1	39	495597	2	14	78	493558	-1	0	0	0	""	3	2039	53	495611	-54	0															1	83												
WM080112	110411_fnca	1	1	1	-819122525	1	75.030	75.030	2.0.10.147	2.0.10.242	2.0.10.242	1.0.0.439	7	234	2	3	Verdana	1	80	0	0	0	WM Stimuli\	0.8	1051	0.8	973.5	1	912.3	1	919.6	0.9	867	1	765.9	0.9	1113.22222222222	1	580	13	534302	2	534290	26	39	534328	-999999	534305	0	20	TrialsPROC	PL_007_92026.png	1	2	84	SessionSelectionList														lure	3	Place	2-Back	73	80	70	0	0	95	1	40	498170	1	13	72	496130	-1	497256	1	1126	3	3	2040	53	498183	-54	0															2	84												
WM080112	110411_fnca	1	1	1	-819122525	1	75.030	75.030	2.0.10.147	2.0.10.242	2.0.10.242	1.0.0.439	7	234	2	3	Verdana	1	80	0	0	0	WM Stimuli\	0.8	1051	0.8	973.5	1	912.3	1	919.6	0.9	867	1	765.9	0.9	1113.22222222222	1	580	13	534302	2	534290	26	39	534328	-999999	534305	0	20	TrialsPROC	PL_010_92038.png	1	2	85	SessionSelectionList														nonlure	3	Place	2-Back	74	80	71	0	0	95	2	39	500755	2	14	86	498716	-1	499676	1	960	3	3	2039	53	500769	-54	0															3	85												
WM080112	110411_fnca	1	1	1	-819122525	1	75.030	75.030	2.0.10.147	2.0.10.242	2.0.10.242	1.0.0.439	7	234	2	3	Verdana	1	80	0	0	0	WM Stimuli\	0.8	1051	0.8	973.5	1	912.3	1	919.6	0.9	867	1	765.9	0.9	1113.22222222222	1	580	13	534302	2	534290	26	39	534328	-999999	534305	0	20	TrialsPROC	PL_009_92037.png	1	2	86	SessionSelectionList														nonlure	3	Place	2-Back	75	80	72	0	0	95	3	39	503354	2	14	99	501315	-1	502313	1	998	3	3	2039	53	503368	-54	0															4	86												
WM080112	110411_fnca	1	1	1	-819122525	1	75.030	75.030	2.0.10.147	2.0.10.242	2.0.10.242	1.0.0.439	7	234	2	3	Verdana	1	80	0	0	0	WM Stimuli\	0.8	1051	0.8	973.5	1	912.3	1	919.6	0.9	867	1	765.9	0.9	1113.22222222222	1	580	13	534302	2	534290	26	39	534328	-999999	534305	0	20	TrialsPROC	PL_010_92038.png	1	2	87	SessionSelectionList														target	2	Place	2-Back	76	80	73	0	0	95	1	39	505926	2	14	72	503887	-1	504549	1	662	2	2	2039	53	505940	-54	0															5	87												
WM080112	110411_fnca	1	1	1	-819122525	1	75.030	75.030	2.0.10.147	2.0.10.242	2.0.10.242	1.0.0.439	7	234	2	3	Verdana	1	80	0	0	0	WM Stimuli\	0.8	1051	0.8	973.5	1	912.3	1	919.6	0.9	867	1	765.9	0.9	1113.22222222222	1	580	13	534302	2	534290	26	39	534328	-999999	534305	0	20	TrialsPROC	PL_009_92037.png	1	2	88	SessionSelectionList														target	2	Place	2-Back	77	80	74	0	0	95	2	38	508485	2	14	60	506447	-1	507680	1	1233	2	2	2038	52	508499	-53	0															6	88												
WM080112	110411_fnca	1	1	1	-819122525	1	75.030	75.030	2.0.10.147	2.0.10.242	2.0.10.242	1.0.0.439	7	234	2	3	Verdana	1	80	0	0	0	WM Stimuli\	0.8	1051	0.8	973.5	1	912.3	1	919.6	0.9	867	1	765.9	0.9	1113.22222222222	1	580	13	534302	2	534290	26	39	534328	-999999	534305	0	20	TrialsPROC	PL_008_92033.png	1	2	89	SessionSelectionList														nonlure	3	Place	2-Back	78	80	75	0	0	95	1	39	511084	2	14	98	509045	-1	509730	1	685	3	3	2039	53	511098	-54	0															7	89												
WM080112	110411_fnca	1	1	1	-819122525	1	75.030	75.030	2.0.10.147	2.0.10.242	2.0.10.242	1.0.0.439	7	234	2	3	Verdana	1	80	0	0	0	WM Stimuli\	0.8	1051	0.8	973.5	1	912.3	1	919.6	0.9	867	1	765.9	0.9	1113.22222222222	1	580	13	534302	2	534290	26	39	534328	-999999	534305	0	20	TrialsPROC	PL_012_92047.png	1	2	90	SessionSelectionList														nonlure	3	Place	2-Back	79	80	76	0	0	95	2	40	513657	1	13	72	511617	-1	512154	1	537	3	3	2040	53	513670	-54	0															8	90												
WM080112	110411_fnca	1	1	1	-819122525	1	75.030	75.030	2.0.10.147	2.0.10.242	2.0.10.242	1.0.0.439	7	234	2	3	Verdana	1	80	0	0	0	WM Stimuli\	0.8	1051	0.8	973.5	1	912.3	1	919.6	0.9	867	1	765.9	0.9	1113.22222222222	1	580	13	534302	2	534290	26	39	534328	-999999	534305	0	20	TrialsPROC	PL_012_92047.png	1	2	91	SessionSelectionList														lure	3	Place	2-Back	80	80	77	0	0	95	3	39	516229	1	13	73	514190	-1	514985	1	795	3	3	2039	52	516242	-53	0															9	91												
WM080112	110411_fnca	1	1	1	-819122525	1	75.030	75.030	2.0.10.147	2.0.10.242	2.0.10.242	1.0.0.439	7	234	2	3	Verdana	1	80	0	0	0	WM Stimuli\	0.8	1051	0.8	973.5	1	912.3	1	919.6	0.9	867	1	765.9	0.9	1113.22222222222	1	580	13	534302	2	534290	26	39	534328	-999999	534305	0	20	TrialsPROC	PL_011_92044.png	1	2	92	SessionSelectionList														nonlure	3	Place	2-Back	80	80	78	0	0	95	4	39	518828	1	13	99	516789	-1	517596	1	807	3	3	2039	52	518841	-53	0															10	92												
WM080112	110411_fnca	1	1	1	-819122525	1	75.030	75.030	2.0.10.147	2.0.10.242	2.0.10.242	1.0.0.439	7	234	2	3	Verdana	1	80	0	0	0	WM Stimuli\	0.8	1051	0.8	973.5	1	912.3	1	919.6	0.9	867	1	765.9	0.9	1113.22222222222	1	580	13	534302	2	534290	26	39	534328	-999999	534305	0	21	Fix15secPROC	""	1	2	93	SessionSelectionList																																															6	519295	-7	0							93												
