ExperimentName	HCPID	RunNumber	Subject	Session	RandomSeed	Group	Laptop.RefreshRate	ScannerD2.RefreshRate	StudioVersion	RuntimeVersion	RuntimeVersionExpected	ExperimentVersion	triggercode	Allowed	Target	Nontarget	FontStyle	RunTrialNumber[Session]	TrialsPerRun[Session]	TotalRespGreater200[Session]	ConsecRTLess200[Session]	ConsecNonResp[Session]	StimuliDir	ACC_2_Back_Body	Avg_RT_For_Correct_Trials_2_Back_Body	ACC_0_Back_Body	Avg_RT_For_Correct_Trials_0_Back_Body	ACC_2_Back_Face	Avg_RT_For_Correct_Trials_2_Back_Face	ACC_0_Back_Face	Avg_RT_For_Correct_Trials_0_Back_Face	ACC_2_Back_Place	Avg_RT_For_Correct_Trials_2_Back_Place	ACC_0_Back_Place	Avg_RT_For_Correct_Trials_0_Back_Place	ACC_2_Back_Tools	Avg_RT_For_Correct_Trials_2_Back_Tools	ACC_0_Back_Tools	Avg_RT_For_Correct_Trials_0_Back_Tools	ExpInstrucFeelFreeToRest.OnsetDelay	ExpInstrucFeelFreeToRest.OnsetTime	ExpInstrucFeelFreeToRest.DurationError	ExpInstrucFeelFreeToRest.StartTime	ExpInstrucFeelFreeToRest.OnsetToOnsetTime	FeelFreeToRest.OnsetDelay	FeelFreeToRest.OnsetTime	FeelFreeToRest.DurationError	FeelFreeToRest.StartTime	FeelFreeToRest.OnsetToOnsetTime	SessionSelectionList	Procedure[Block]	Stimulus[Block]	RunNumberFilterValue	SessionSelectionList.Cycle	SessionSelectionList.Sample	Running[Block]	IntroButtonMap.OnsetDelay	IntroButtonMap.OnsetTime	IntroButtonMap.DurationError	IntroButtonMap.OnsetToOnsetTime	GetReady.OnsetDelay	GetReady.OnsetTime	GetReady.DurationError	GetReady.OnsetToOnsetTime	Cue2Back.OnsetDelay	Cue2Back.OnsetTime	Cue2Back.DurationError	Cue2Back.OnsetToOnsetTime	Run1Block1	TargetType	CorrectResponse	StimType	BlockType	RunTrialNumber[Block]	TrialsPerRun[Block]	TotalRespGreater200[Block]	ConsecRTLess200[Block]	ConsecNonResp[Block]	ControlAcc	ConsecSameResp	ExperimenterWindow.OnsetDelay	ExperimenterWindow.OnsetTime	ExperimenterWindow.DurationError	ExperimenterWindow.OnsetToOnsetTime	Stim.OnsetDelay	Stim.OnsetTime	Stim.DurationError	Stim.RTTime	Stim.ACC	Stim.RT	Stim.RESP	Stim.CRESP	Stim.OnsetToOnsetTime	Fix.OnsetDelay	Fix.OnsetTime	Fix.DurationError	Fix.OnsetToOnsetTime	CueTarget.OnsetDelay	CueTarget.OnsetTime	CueTarget.DurationError	CueTarget.OnsetToOnsetTime	Run1Block2	Fix15sec.OnsetDelay	Fix15sec.OnsetTime	Fix15sec.DurationError	Fix15sec.OnsetToOnsetTime	Run1Block3	Run1Block4	Run1Block5	Run1Block6	Run1Block7	Run1Block8	Block	Procedure[Trial]	Stimulus[Trial]	ReadyList	Running[Trial]	ReadyList.Cycle	ReadyList.Sample	SyncSlide.OnsetDelay	SyncSlide.OnsetTime	SyncSlide.DurationError	SyncSlide.FinishTime	SyncSlide.OnsetToOnsetTime	Trial
WM080112	162733_fnca	2	1	1	1121939093	1	75.031	75.031	2.0.10.147	2.0.10.242	2.0.10.242	1.0.0.439	7	234	2	3	Verdana	1	80	0	0	0	WM Stimuli\	0.9	1219.55555555556	1	766.8	0.5	1041.4	0.9	670.111111111111	1	1097.7	1	817.7	1	1287.4	0.7	773.142857142857	13	322896	2	322884	27	40	322923	-999999	322899	0	22	TRSyncPROC	""	2	2	1	SessionSelectionList	105	5840	-999999	0	35	16062	-999999	0																																																	1	InitialTR	4	1	ReadyList	1	1	11	29376	-12	31364	0	1
WM080112	162733_fnca	2	1	1	1121939093	1	75.031	75.031	2.0.10.147	2.0.10.242	2.0.10.242	1.0.0.439	7	234	2	3	Verdana	1	80	0	0	0	WM Stimuli\	0.9	1219.55555555556	1	766.8	0.5	1041.4	0.9	670.111111111111	1	1097.7	1	817.7	1	1287.4	0.7	773.142857142857	13	322896	2	322884	27	40	322923	-999999	322899	0	22	TRSyncPROC	""	2	2	1	SessionSelectionList	105	5840	-999999	0	35	16062	-999999	0																																																	1	InitialTR	3	2	ReadyList	1	2	10	31375	-11	33364	0	2
WM080112	162733_fnca	2	1	1	1121939093	1	75.031	75.031	2.0.10.147	2.0.10.242	2.0.10.242	1.0.0.439	7	234	2	3	Verdana	1	80	0	0	0	WM Stimuli\	0.9	1219.55555555556	1	766.8	0.5	1041.4	0.9	670.111111111111	1	1097.7	1	817.7	1	1287.4	0.7	773.142857142857	13	322896	2	322884	27	40	322923	-999999	322899	0	22	TRSyncPROC	""	2	2	1	SessionSelectionList	105	5840	-999999	0	35	16062	-999999	0																																																	1	InitialTR	2	3	ReadyList	1	3	10	33375	-11	35364	0	3
WM080112	162733_fnca	2	1	1	1121939093	1	75.031	75.031	2.0.10.147	2.0.10.242	2.0.10.242	1.0.0.439	7	234	2	3	Verdana	1	80	0	0	0	WM Stimuli\	0.9	1219.55555555556	1	766.8	0.5	1041.4	0.9	670.111111111111	1	1097.7	1	817.7	1	1287.4	0.7	773.142857142857	13	322896	2	322884	27	40	322923	-999999	322899	0	22	TRSyncPROC	""	2	2	1	SessionSelectionList	105	5840	-999999	0	35	16062	-999999	0																																																	1	InitialTR	1	4	ReadyList	1	4	9	35374	-10	37364	0	4
WM080112	162733_fnca	2	1	1	1121939093	1	75.031	75.031	2.0.10.147	2.0.10.242	2.0.10.242	1.0.0.439	7	234	2	3	Verdana	1	80	0	0	0	WM Stimuli\	0.9	1219.55555555556	1	766.8	0.5	1041.4	0.9	670.111111111111	1	1097.7	1	817.7	1	1287.4	0.7	773.142857142857	13	322896	2	322884	27	40	322923	-999999	322899	0	23	Cue2BackPROC	""	2	2	2	SessionSelectionList									8	37373	-9	0																																													2												
WM080112	162733_fnca	2	1	1	1121939093	1	75.031	75.031	2.0.10.147	2.0.10.242	2.0.10.242	1.0.0.439	7	234	2	3	Verdana	1	80	0	0	0	WM Stimuli\	0.9	1219.55555555556	1	766.8	0.5	1041.4	0.9	670.111111111111	1	1097.7	1	817.7	1	1287.4	0.7	773.142857142857	13	322896	2	322884	27	40	322923	-999999	322899	0	24	TrialsPROC	TO_014_TOOL14_BA.png	2	2	3	SessionSelectionList														nonlure	3	Tools	2-Back	2	80	1	0	0	0	1	53	41998	3	14	80	39945	-1	41282	1	1337	3	3	2053	67	42012	-68	0																3												
WM080112	162733_fnca	2	1	1	1121939093	1	75.031	75.031	2.0.10.147	2.0.10.242	2.0.10.242	1.0.0.439	7	234	2	3	Verdana	1	80	0	0	0	WM Stimuli\	0.9	1219.55555555556	1	766.8	0.5	1041.4	0.9	670.111111111111	1	1097.7	1	817.7	1	1287.4	0.7	773.142857142857	13	322896	2	322884	27	40	322923	-999999	322899	0	24	TrialsPROC	TO_013_TOOL13_BA.png	2	2	4	SessionSelectionList														nonlure	3	Tools	2-Back	3	80	2	0	0	0	2	39	44543	2	14	59	42504	-1	43689	1	1185	3	3	2039	53	44557	-54	0																4												
WM080112	162733_fnca	2	1	1	1121939093	1	75.031	75.031	2.0.10.147	2.0.10.242	2.0.10.242	1.0.0.439	7	234	2	3	Verdana	1	80	0	0	0	WM Stimuli\	0.9	1219.55555555556	1	766.8	0.5	1041.4	0.9	670.111111111111	1	1097.7	1	817.7	1	1287.4	0.7	773.142857142857	13	322896	2	322884	27	40	322923	-999999	322899	0	24	TrialsPROC	TO_016_TOOL16_BA.png	2	2	5	SessionSelectionList														nonlure	3	Tools	2-Back	4	80	3	0	0	0	3	38	47102	2	14	60	45064	-1	46082	1	1018	3	3	2038	52	47116	-53	0																5												
WM080112	162733_fnca	2	1	1	1121939093	1	75.031	75.031	2.0.10.147	2.0.10.242	2.0.10.242	1.0.0.439	7	234	2	3	Verdana	1	80	0	0	0	WM Stimuli\	0.9	1219.55555555556	1	766.8	0.5	1041.4	0.9	670.111111111111	1	1097.7	1	817.7	1	1287.4	0.7	773.142857142857	13	322896	2	322884	27	40	322923	-999999	322899	0	24	TrialsPROC	TO_014_TOOL14_BA.png	2	2	6	SessionSelectionList														lure	3	Tools	2-Back	5	80	4	0	0	0	4	40	49675	1	13	71	47635	-1	49227	1	1592	3	3	2040	53	49688	-54	0																6												
WM080112	162733_fnca	2	1	1	1121939093	1	75.031	75.031	2.0.10.147	2.0.10.242	2.0.10.242	1.0.0.439	7	234	2	3	Verdana	1	80	0	0	0	WM Stimuli\	0.9	1219.55555555556	1	766.8	0.5	1041.4	0.9	670.111111111111	1	1097.7	1	817.7	1	1287.4	0.7	773.142857142857	13	322896	2	322884	27	40	322923	-999999	322899	0	24	TrialsPROC	TO_016_TOOL16_BA.png	2	2	7	SessionSelectionList														target	2	Tools	2-Back	6	80	5	0	0	0	1	39	52234	1	13	60	50195	-1	51519	1	1324	2	2	2039	52	52247	-53	0																7												
WM080112	162733_fnca	2	1	1	1121939093	1	75.031	75.031	2.0.10.147	2.0.10.242	2.0.10.242	1.0.0.439	7	234	2	3	Verdana	1	80	0	0	0	WM Stimuli\	0.9	1219.55555555556	1	766.8	0.5	1041.4	0.9	670.111111111111	1	1097.7	1	817.7	1	1287.4	0.7	773.142857142857	13	322896	2	322884	27	40	322923	-999999	322899	0	24	TrialsPROC	TO_018_TOOL18_BA.png	2	2	8	SessionSelectionList														nonlure	3	Tools	2-Back	7	80	6	0	0	0	1	39	54793	1	13	59	52754	-1	53951	1	1197	3	3	2039	52	54806	-53	0																8												
WM080112	162733_fnca	2	1	1	1121939093	1	75.031	75.031	2.0.10.147	2.0.10.242	2.0.10.242	1.0.0.439	7	234	2	3	Verdana	1	80	0	0	0	WM Stimuli\	0.9	1219.55555555556	1	766.8	0.5	1041.4	0.9	670.111111111111	1	1097.7	1	817.7	1	1287.4	0.7	773.142857142857	13	322896	2	322884	27	40	322923	-999999	322899	0	24	TrialsPROC	TO_017_TOOL17_BA.png	2	2	9	SessionSelectionList														nonlure	3	Tools	2-Back	8	80	7	0	0	0	2	40	57352	1	13	58	55312	-1	56892	1	1580	3	3	2040	53	57365	-54	0																9												
WM080112	162733_fnca	2	1	1	1121939093	1	75.031	75.031	2.0.10.147	2.0.10.242	2.0.10.242	1.0.0.439	7	234	2	3	Verdana	1	80	0	0	0	WM Stimuli\	0.9	1219.55555555556	1	766.8	0.5	1041.4	0.9	670.111111111111	1	1097.7	1	817.7	1	1287.4	0.7	773.142857142857	13	322896	2	322884	27	40	322923	-999999	322899	0	24	TrialsPROC	TO_018_TOOL18_BA.png	2	2	10	SessionSelectionList														target	2	Tools	2-Back	9	80	8	0	0	0	1	39	59910	2	14	59	57871	-1	58960	1	1089	2	2	2039	53	59924	-54	0																10												
WM080112	162733_fnca	2	1	1	1121939093	1	75.031	75.031	2.0.10.147	2.0.10.242	2.0.10.242	1.0.0.439	7	234	2	3	Verdana	1	80	0	0	0	WM Stimuli\	0.9	1219.55555555556	1	766.8	0.5	1041.4	0.9	670.111111111111	1	1097.7	1	817.7	1	1287.4	0.7	773.142857142857	13	322896	2	322884	27	40	322923	-999999	322899	0	24	TrialsPROC	TO_015_TOOL15_BA.png	2	2	11	SessionSelectionList														nonlure	3	Tools	2-Back	10	80	9	0	0	0	1	39	62469	2	14	59	60430	-1	61753	1	1323	3	3	2039	53	62483	-54	0																11												
WM080112	162733_fnca	2	1	1	1121939093	1	75.031	75.031	2.0.10.147	2.0.10.242	2.0.10.242	1.0.0.439	7	234	2	3	Verdana	1	80	0	0	0	WM Stimuli\	0.9	1219.55555555556	1	766.8	0.5	1041.4	0.9	670.111111111111	1	1097.7	1	817.7	1	1287.4	0.7	773.142857142857	13	322896	2	322884	27	40	322923	-999999	322899	0	24	TrialsPROC	TO_017_TOOL17_BA.png	2	2	12	SessionSelectionList														lure	3	Tools	2-Back	11	80	10	0	0	0	2	39	65028	2	14	59	62989	-1	64218	1	1229	3	3	2039	53	65042	-54	0																12												
WM080112	162733_fnca	2	1	1	1121939093	1	75.031	75.031	2.0.10.147	2.0.10.242	2.0.10.242	1.0.0.439	7	234	2	3	Verdana	1	80	0	0	0	WM Stimuli\	0.9	1219.55555555556	1	766.8	0.5	1041.4	0.9	670.111111111111	1	1097.7	1	817.7	1	1287.4	0.7	773.142857142857	13	322896	2	322884	27	40	322923	-999999	322899	0	25	Cue0BackPROC	BP_013_BP7_BA.png	2	2	13	SessionSelectionList																																										19	65508	-20	0												13												
WM080112	162733_fnca	2	1	1	1121939093	1	75.031	75.031	2.0.10.147	2.0.10.242	2.0.10.242	1.0.0.439	7	234	2	3	Verdana	1	80	0	0	0	WM Stimuli\	0.9	1219.55555555556	1	766.8	0.5	1041.4	0.9	670.111111111111	1	1097.7	1	817.7	1	1287.4	0.7	773.142857142857	13	322896	2	322884	27	40	322923	-999999	322899	0	26	TrialsPROC	BP_015_H10-T_BA.png	2	2	14	SessionSelectionList														nonlure	3	Body	0-Back	12	80	11	0	0	100	3	39	70093	1	14	65	68054	-1	69040	1	986	3	3	2039	53	70107	-54	0																14												
WM080112	162733_fnca	2	1	1	1121939093	1	75.031	75.031	2.0.10.147	2.0.10.242	2.0.10.242	1.0.0.439	7	234	2	3	Verdana	1	80	0	0	0	WM Stimuli\	0.9	1219.55555555556	1	766.8	0.5	1041.4	0.9	670.111111111111	1	1097.7	1	817.7	1	1287.4	0.7	773.142857142857	13	322896	2	322884	27	40	322923	-999999	322899	0	26	TrialsPROC	BP_018_H13-T_BA.png	2	2	15	SessionSelectionList														nonlure	3	Body	0-Back	13	80	12	0	0	100	4	39	72652	1	14	59	70613	-1	71125	1	512	3	3	2039	53	72666	-54	0																15												
WM080112	162733_fnca	2	1	1	1121939093	1	75.031	75.031	2.0.10.147	2.0.10.242	2.0.10.242	1.0.0.439	7	234	2	3	Verdana	1	80	0	0	0	WM Stimuli\	0.9	1219.55555555556	1	766.8	0.5	1041.4	0.9	670.111111111111	1	1097.7	1	817.7	1	1287.4	0.7	773.142857142857	13	322896	2	322884	27	40	322923	-999999	322899	0	26	TrialsPROC	BP_014_BP9_BA.png	2	2	16	SessionSelectionList														nonlure	3	Body	0-Back	14	80	13	0	0	100	5	39	75211	1	14	59	73172	-1	73875	1	703	3	3	2039	53	75225	-54	0																16												
WM080112	162733_fnca	2	1	1	1121939093	1	75.031	75.031	2.0.10.147	2.0.10.242	2.0.10.242	1.0.0.439	7	234	2	3	Verdana	1	80	0	0	0	WM Stimuli\	0.9	1219.55555555556	1	766.8	0.5	1041.4	0.9	670.111111111111	1	1097.7	1	817.7	1	1287.4	0.7	773.142857142857	13	322896	2	322884	27	40	322923	-999999	322899	0	26	TrialsPROC	BP_018_H13-T_BA.png	2	2	17	SessionSelectionList														lure	3	Body	0-Back	15	80	14	0	0	100	6	39	77770	1	13	59	75731	-1	76240	1	509	3	3	2039	52	77783	-53	0																17												
WM080112	162733_fnca	2	1	1	1121939093	1	75.031	75.031	2.0.10.147	2.0.10.242	2.0.10.242	1.0.0.439	7	234	2	3	Verdana	1	80	0	0	0	WM Stimuli\	0.9	1219.55555555556	1	766.8	0.5	1041.4	0.9	670.111111111111	1	1097.7	1	817.7	1	1287.4	0.7	773.142857142857	13	322896	2	322884	27	40	322923	-999999	322899	0	26	TrialsPROC	BP_013_BP7_BA.png	2	2	18	SessionSelectionList														target	2	Body	0-Back	16	80	15	0	0	100	1	39	80329	1	13	59	78290	-1	79115	1	825	2	2	2039	52	80342	-53	0																18												
WM080112	162733_fnca	2	1	1	1121939093	1	75.031	75.031	2.0.10.147	2.0.10.242	2.0.10.242	1.0.0.439	7	234	2	3	Verdana	1	80	0	0	0	WM Stimuli\	0.9	1219.55555555556	1	766.8	0.5	1041.4	0.9	670.111111111111	1	1097.7	1	817.7	1	1287.4	0.7	773.142857142857	13	322896	2	322884	27	40	322923	-999999	322899	0	26	TrialsPROC	BP_015_H10-T_BA.png	2	2	19	SessionSelectionList														lure	3	Body	0-Back	17	80	16	0	0	100	1	39	82888	1	13	59	80849	-1	81666	1	817	3	3	2039	52	82901	-53	0																19												
WM080112	162733_fnca	2	1	1	1121939093	1	75.031	75.031	2.0.10.147	2.0.10.242	2.0.10.242	1.0.0.439	7	234	2	3	Verdana	1	80	0	0	0	WM Stimuli\	0.9	1219.55555555556	1	766.8	0.5	1041.4	0.9	670.111111111111	1	1097.7	1	817.7	1	1287.4	0.7	773.142857142857	13	322896	2	322884	27	40	322923	-999999	322899	0	26	TrialsPROC	BP_016_H11-T_BA.png	2	2	20	SessionSelectionList														nonlure	3	Body	0-Back	18	80	17	0	0	100	2	39	85460	1	14	72	83421	-1	84282	1	861	3	3	2039	53	85474	-54	0																20												
WM080112	162733_fnca	2	1	1	1121939093	1	75.031	75.031	2.0.10.147	2.0.10.242	2.0.10.242	1.0.0.439	7	234	2	3	Verdana	1	80	0	0	0	WM Stimuli\	0.9	1219.55555555556	1	766.8	0.5	1041.4	0.9	670.111111111111	1	1097.7	1	817.7	1	1287.4	0.7	773.142857142857	13	322896	2	322884	27	40	322923	-999999	322899	0	26	TrialsPROC	BP_013_BP7_BA.png	2	2	21	SessionSelectionList														target	2	Body	0-Back	19	80	18	0	0	100	1	39	88019	1	14	59	85980	-1	86661	1	681	2	2	2039	53	88033	-54	0																21												
WM080112	162733_fnca	2	1	1	1121939093	1	75.031	75.031	2.0.10.147	2.0.10.242	2.0.10.242	1.0.0.439	7	234	2	3	Verdana	1	80	0	0	0	WM Stimuli\	0.9	1219.55555555556	1	766.8	0.5	1041.4	0.9	670.111111111111	1	1097.7	1	817.7	1	1287.4	0.7	773.142857142857	13	322896	2	322884	27	40	322923	-999999	322899	0	26	TrialsPROC	BP_017_H12-T_BA.png	2	2	22	SessionSelectionList														nonlure	3	Body	0-Back	20	80	19	0	0	100	1	39	90578	1	14	59	88539	-1	89478	1	939	3	3	2039	53	90592	-54	0																22												
WM080112	162733_fnca	2	1	1	1121939093	1	75.031	75.031	2.0.10.147	2.0.10.242	2.0.10.242	1.0.0.439	7	234	2	3	Verdana	1	80	0	0	0	WM Stimuli\	0.9	1219.55555555556	1	766.8	0.5	1041.4	0.9	670.111111111111	1	1097.7	1	817.7	1	1287.4	0.7	773.142857142857	13	322896	2	322884	27	40	322923	-999999	322899	0	26	TrialsPROC	BP_014_BP9_BA.png	2	2	23	SessionSelectionList														lure	3	Body	0-Back	21	80	20	0	0	100	2	39	93137	1	14	59	91098	-1	91933	1	835	3	3	2039	53	93151	-54	0																23												
WM080112	162733_fnca	2	1	1	1121939093	1	75.031	75.031	2.0.10.147	2.0.10.242	2.0.10.242	1.0.0.439	7	234	2	3	Verdana	1	80	0	0	0	WM Stimuli\	0.9	1219.55555555556	1	766.8	0.5	1041.4	0.9	670.111111111111	1	1097.7	1	817.7	1	1287.4	0.7	773.142857142857	13	322896	2	322884	27	40	322923	-999999	322899	0	27	Fix15secPROC	""	2	2	24	SessionSelectionList																																															6	93604	-7	0							24												
WM080112	162733_fnca	2	1	1	1121939093	1	75.031	75.031	2.0.10.147	2.0.10.242	2.0.10.242	1.0.0.439	7	234	2	3	Verdana	1	80	0	0	0	WM Stimuli\	0.9	1219.55555555556	1	766.8	0.5	1041.4	0.9	670.111111111111	1	1097.7	1	817.7	1	1287.4	0.7	773.142857142857	13	322896	2	322884	27	40	322923	-999999	322899	0	28	Cue2BackPROC	""	2	2	25	SessionSelectionList									12	108610	-13	0																																													25												
WM080112	162733_fnca	2	1	1	1121939093	1	75.031	75.031	2.0.10.147	2.0.10.242	2.0.10.242	1.0.0.439	7	234	2	3	Verdana	1	80	0	0	0	WM Stimuli\	0.9	1219.55555555556	1	766.8	0.5	1041.4	0.9	670.111111111111	1	1097.7	1	817.7	1	1287.4	0.7	773.142857142857	13	322896	2	322884	27	40	322923	-999999	322899	0	29	TrialsPROC	FC_015_M8.png	2	2	26	SessionSelectionList														nonlure	3	Face	2-Back	22	80	20	0	1	100	2	40	113209	1	13	71	111169	-1	0	0	0	""	3	2040	53	113222	-54	0																26												
WM080112	162733_fnca	2	1	1	1121939093	1	75.031	75.031	2.0.10.147	2.0.10.242	2.0.10.242	1.0.0.439	7	234	2	3	Verdana	1	80	0	0	0	WM Stimuli\	0.9	1219.55555555556	1	766.8	0.5	1041.4	0.9	670.111111111111	1	1097.7	1	817.7	1	1287.4	0.7	773.142857142857	13	322896	2	322884	27	40	322923	-999999	322899	0	29	TrialsPROC	FC_018_F9.png	2	2	27	SessionSelectionList														nonlure	3	Face	2-Back	23	80	20	0	2	100	2	39	115781	1	14	73	113742	-1	0	0	0	""	3	2039	53	115795	-54	0																27												
WM080112	162733_fnca	2	1	1	1121939093	1	75.031	75.031	2.0.10.147	2.0.10.242	2.0.10.242	1.0.0.439	7	234	2	3	Verdana	1	80	0	0	0	WM Stimuli\	0.9	1219.55555555556	1	766.8	0.5	1041.4	0.9	670.111111111111	1	1097.7	1	817.7	1	1287.4	0.7	773.142857142857	13	322896	2	322884	27	40	322923	-999999	322899	0	29	TrialsPROC	FC_018_F9.png	2	2	28	SessionSelectionList														lure	3	Face	2-Back	24	80	21	0	0	100	1	39	118353	1	14	72	116314	-1	117469	1	1155	3	3	2039	53	118367	-54	0																28												
WM080112	162733_fnca	2	1	1	1121939093	1	75.031	75.031	2.0.10.147	2.0.10.242	2.0.10.242	1.0.0.439	7	234	2	3	Verdana	1	80	0	0	0	WM Stimuli\	0.9	1219.55555555556	1	766.8	0.5	1041.4	0.9	670.111111111111	1	1097.7	1	817.7	1	1287.4	0.7	773.142857142857	13	322896	2	322884	27	40	322923	-999999	322899	0	29	TrialsPROC	FC_017_M9.png	2	2	29	SessionSelectionList														nonlure	3	Face	2-Back	25	80	22	0	0	100	2	39	120925	2	14	72	118886	-1	119994	1	1108	3	3	2039	53	120939	-54	0																29												
WM080112	162733_fnca	2	1	1	1121939093	1	75.031	75.031	2.0.10.147	2.0.10.242	2.0.10.242	1.0.0.439	7	234	2	3	Verdana	1	80	0	0	0	WM Stimuli\	0.9	1219.55555555556	1	766.8	0.5	1041.4	0.9	670.111111111111	1	1097.7	1	817.7	1	1287.4	0.7	773.142857142857	13	322896	2	322884	27	40	322923	-999999	322899	0	29	TrialsPROC	FC_017_M9.png	2	2	30	SessionSelectionList														lure	3	Face	2-Back	26	80	23	0	0	100	1	40	123498	1	13	72	121458	-1	122612	0	1154	2	3	2040	53	123511	-54	0																30												
WM080112	162733_fnca	2	1	1	1121939093	1	75.031	75.031	2.0.10.147	2.0.10.242	2.0.10.242	1.0.0.439	7	234	2	3	Verdana	1	80	0	0	0	WM Stimuli\	0.9	1219.55555555556	1	766.8	0.5	1041.4	0.9	670.111111111111	1	1097.7	1	817.7	1	1287.4	0.7	773.142857142857	13	322896	2	322884	27	40	322923	-999999	322899	0	29	TrialsPROC	FC_016_F8.png	2	2	31	SessionSelectionList														nonlure	3	Face	2-Back	27	80	24	0	0	100	1	39	126070	1	14	73	124031	-1	124828	1	797	3	3	2039	53	126084	-54	0																31												
WM080112	162733_fnca	2	1	1	1121939093	1	75.031	75.031	2.0.10.147	2.0.10.242	2.0.10.242	1.0.0.439	7	234	2	3	Verdana	1	80	0	0	0	WM Stimuli\	0.9	1219.55555555556	1	766.8	0.5	1041.4	0.9	670.111111111111	1	1097.7	1	817.7	1	1287.4	0.7	773.142857142857	13	322896	2	322884	27	40	322923	-999999	322899	0	29	TrialsPROC	FC_013_M7.png	2	2	32	SessionSelectionList														nonlure	3	Face	2-Back	28	80	25	0	0	100	2	39	128642	2	14	72	126603	-1	127838	1	1235	3	3	2039	53	128656	-54	0																32												
WM080112	162733_fnca	2	1	1	1121939093	1	75.031	75.031	2.0.10.147	2.0.10.242	2.0.10.242	1.0.0.439	7	234	2	3	Verdana	1	80	0	0	0	WM Stimuli\	0.9	1219.55555555556	1	766.8	0.5	1041.4	0.9	670.111111111111	1	1097.7	1	817.7	1	1287.4	0.7	773.142857142857	13	322896	2	322884	27	40	322923	-999999	322899	0	29	TrialsPROC	FC_014_F7.png	2	2	33	SessionSelectionList														nonlure	3	Face	2-Back	29	80	26	0	0	100	3	39	131214	2	14	72	129175	-1	130087	1	912	3	3	2039	53	131228	-54	0																33												
WM080112	162733_fnca	2	1	1	1121939093	1	75.031	75.031	2.0.10.147	2.0.10.242	2.0.10.242	1.0.0.439	7	234	2	3	Verdana	1	80	0	0	0	WM Stimuli\	0.9	1219.55555555556	1	766.8	0.5	1041.4	0.9	670.111111111111	1	1097.7	1	817.7	1	1287.4	0.7	773.142857142857	13	322896	2	322884	27	40	322923	-999999	322899	0	29	TrialsPROC	FC_013_M7.png	2	2	34	SessionSelectionList														target	2	Face	2-Back	30	80	27	0	0	100	4	39	133787	1	13	73	131748	-1	132658	0	910	3	2	2039	52	133800	-53	0																34												
WM080112	162733_fnca	2	1	1	1121939093	1	75.031	75.031	2.0.10.147	2.0.10.242	2.0.10.242	1.0.0.439	7	234	2	3	Verdana	1	80	0	0	0	WM Stimuli\	0.9	1219.55555555556	1	766.8	0.5	1041.4	0.9	670.111111111111	1	1097.7	1	817.7	1	1287.4	0.7	773.142857142857	13	322896	2	322884	27	40	322923	-999999	322899	0	29	TrialsPROC	FC_014_F7.png	2	2	35	SessionSelectionList														target	2	Face	2-Back	31	80	28	0	0	100	5	39	136359	1	14	72	134320	-1	135202	0	882	3	2	2039	53	136373	-54	0																35												
WM080112	162733_fnca	2	1	1	1121939093	1	75.031	75.031	2.0.10.147	2.0.10.242	2.0.10.242	1.0.0.439	7	234	2	3	Verdana	1	80	0	0	0	WM Stimuli\	0.9	1219.55555555556	1	766.8	0.5	1041.4	0.9	670.111111111111	1	1097.7	1	817.7	1	1287.4	0.7	773.142857142857	13	322896	2	322884	27	40	322923	-999999	322899	0	30	Cue0BackPROC	TO_019_TOOL19_BA.png	2	2	36	SessionSelectionList																																										19	136839	-20	0												36												
WM080112	162733_fnca	2	1	1	1121939093	1	75.031	75.031	2.0.10.147	2.0.10.242	2.0.10.242	1.0.0.439	7	234	2	3	Verdana	1	80	0	0	0	WM Stimuli\	0.9	1219.55555555556	1	766.8	0.5	1041.4	0.9	670.111111111111	1	1097.7	1	817.7	1	1287.4	0.7	773.142857142857	13	322896	2	322884	27	40	322923	-999999	322899	0	31	TrialsPROC	TO_019_TOOL19_BA.png	2	2	37	SessionSelectionList														target	2	Tools	0-Back	32	80	28	0	1	91	5	39	141410	2	14	51	139371	-1	0	0	0	""	2	2039	53	141424	-54	0																37												
WM080112	162733_fnca	2	1	1	1121939093	1	75.031	75.031	2.0.10.147	2.0.10.242	2.0.10.242	1.0.0.439	7	234	2	3	Verdana	1	80	0	0	0	WM Stimuli\	0.9	1219.55555555556	1	766.8	0.5	1041.4	0.9	670.111111111111	1	1097.7	1	817.7	1	1287.4	0.7	773.142857142857	13	322896	2	322884	27	40	322923	-999999	322899	0	31	TrialsPROC	TO_024_TOOL24_BA.png	2	2	38	SessionSelectionList														nonlure	3	Tools	0-Back	33	80	28	0	2	83	5	39	143969	2	14	59	141930	-1	0	0	0	""	3	2039	53	143983	-54	0																38												
WM080112	162733_fnca	2	1	1	1121939093	1	75.031	75.031	2.0.10.147	2.0.10.242	2.0.10.242	1.0.0.439	7	234	2	3	Verdana	1	80	0	0	0	WM Stimuli\	0.9	1219.55555555556	1	766.8	0.5	1041.4	0.9	670.111111111111	1	1097.7	1	817.7	1	1287.4	0.7	773.142857142857	13	322896	2	322884	27	40	322923	-999999	322899	0	31	TrialsPROC	TO_019_TOOL19_BA.png	2	2	39	SessionSelectionList														target	2	Tools	0-Back	34	80	29	0	0	77	1	39	146528	2	14	59	144489	-1	145774	0	1285	3	2	2039	53	146542	-54	0																39												
WM080112	162733_fnca	2	1	1	1121939093	1	75.031	75.031	2.0.10.147	2.0.10.242	2.0.10.242	1.0.0.439	7	234	2	3	Verdana	1	80	0	0	0	WM Stimuli\	0.9	1219.55555555556	1	766.8	0.5	1041.4	0.9	670.111111111111	1	1097.7	1	817.7	1	1287.4	0.7	773.142857142857	13	322896	2	322884	27	40	322923	-999999	322899	0	31	TrialsPROC	TO_023_TOOL23_BA.png	2	2	40	SessionSelectionList														nonlure	3	Tools	0-Back	35	80	30	0	0	79	2	39	149087	2	14	59	147048	-1	147979	1	931	3	3	2039	53	149101	-54	0																40												
WM080112	162733_fnca	2	1	1	1121939093	1	75.031	75.031	2.0.10.147	2.0.10.242	2.0.10.242	1.0.0.439	7	234	2	3	Verdana	1	80	0	0	0	WM Stimuli\	0.9	1219.55555555556	1	766.8	0.5	1041.4	0.9	670.111111111111	1	1097.7	1	817.7	1	1287.4	0.7	773.142857142857	13	322896	2	322884	27	40	322923	-999999	322899	0	31	TrialsPROC	TO_020_TOOL20_BA.png	2	2	41	SessionSelectionList														nonlure	3	Tools	0-Back	36	80	31	0	0	80	3	39	151646	1	14	59	149607	-1	150377	1	770	3	3	2039	53	151660	-54	0																41												
WM080112	162733_fnca	2	1	1	1121939093	1	75.031	75.031	2.0.10.147	2.0.10.242	2.0.10.242	1.0.0.439	7	234	2	3	Verdana	1	80	0	0	0	WM Stimuli\	0.9	1219.55555555556	1	766.8	0.5	1041.4	0.9	670.111111111111	1	1097.7	1	817.7	1	1287.4	0.7	773.142857142857	13	322896	2	322884	27	40	322923	-999999	322899	0	31	TrialsPROC	TO_020_TOOL20_BA.png	2	2	42	SessionSelectionList														lure	3	Tools	0-Back	37	80	32	0	0	81	4	39	154205	1	14	59	152166	-1	152961	1	795	3	3	2039	53	154219	-54	0																42												
WM080112	162733_fnca	2	1	1	1121939093	1	75.031	75.031	2.0.10.147	2.0.10.242	2.0.10.242	1.0.0.439	7	234	2	3	Verdana	1	80	0	0	0	WM Stimuli\	0.9	1219.55555555556	1	766.8	0.5	1041.4	0.9	670.111111111111	1	1097.7	1	817.7	1	1287.4	0.7	773.142857142857	13	322896	2	322884	27	40	322923	-999999	322899	0	31	TrialsPROC	TO_022_TOOL22_BA.png	2	2	43	SessionSelectionList														nonlure	3	Tools	0-Back	38	80	33	0	0	82	5	39	156764	1	14	59	154725	-1	155643	1	918	3	3	2039	53	156778	-54	0																43												
WM080112	162733_fnca	2	1	1	1121939093	1	75.031	75.031	2.0.10.147	2.0.10.242	2.0.10.242	1.0.0.439	7	234	2	3	Verdana	1	80	0	0	0	WM Stimuli\	0.9	1219.55555555556	1	766.8	0.5	1041.4	0.9	670.111111111111	1	1097.7	1	817.7	1	1287.4	0.7	773.142857142857	13	322896	2	322884	27	40	322923	-999999	322899	0	31	TrialsPROC	TO_022_TOOL22_BA.png	2	2	44	SessionSelectionList														lure	3	Tools	0-Back	39	80	34	0	0	83	6	39	159323	1	14	59	157284	-1	157738	1	454	3	3	2039	53	159337	-54	0																44												
WM080112	162733_fnca	2	1	1	1121939093	1	75.031	75.031	2.0.10.147	2.0.10.242	2.0.10.242	1.0.0.439	7	234	2	3	Verdana	1	80	0	0	0	WM Stimuli\	0.9	1219.55555555556	1	766.8	0.5	1041.4	0.9	670.111111111111	1	1097.7	1	817.7	1	1287.4	0.7	773.142857142857	13	322896	2	322884	27	40	322923	-999999	322899	0	31	TrialsPROC	TO_021_TOOL21_BA.png	2	2	45	SessionSelectionList														nonlure	3	Tools	0-Back	40	80	35	0	0	84	7	39	161882	1	14	59	159843	-1	160724	1	881	3	3	2039	53	161896	-54	0																45												
WM080112	162733_fnca	2	1	1	1121939093	1	75.031	75.031	2.0.10.147	2.0.10.242	2.0.10.242	1.0.0.439	7	234	2	3	Verdana	1	80	0	0	0	WM Stimuli\	0.9	1219.55555555556	1	766.8	0.5	1041.4	0.9	670.111111111111	1	1097.7	1	817.7	1	1287.4	0.7	773.142857142857	13	322896	2	322884	27	40	322923	-999999	322899	0	31	TrialsPROC	TO_021_TOOL21_BA.png	2	2	46	SessionSelectionList														lure	3	Tools	0-Back	41	80	36	0	0	85	8	39	164441	1	14	59	162402	-1	163065	1	663	3	3	2039	53	164455	-54	0																46												
WM080112	162733_fnca	2	1	1	1121939093	1	75.031	75.031	2.0.10.147	2.0.10.242	2.0.10.242	1.0.0.439	7	234	2	3	Verdana	1	80	0	0	0	WM Stimuli\	0.9	1219.55555555556	1	766.8	0.5	1041.4	0.9	670.111111111111	1	1097.7	1	817.7	1	1287.4	0.7	773.142857142857	13	322896	2	322884	27	40	322923	-999999	322899	0	32	Fix15secPROC	""	2	2	47	SessionSelectionList																																															6	164908	-7	0							47												
WM080112	162733_fnca	2	1	1	1121939093	1	75.031	75.031	2.0.10.147	2.0.10.242	2.0.10.242	1.0.0.439	7	234	2	3	Verdana	1	80	0	0	0	WM Stimuli\	0.9	1219.55555555556	1	766.8	0.5	1041.4	0.9	670.111111111111	1	1097.7	1	817.7	1	1287.4	0.7	773.142857142857	13	322896	2	322884	27	40	322923	-999999	322899	0	33	Cue2BackPROC	""	2	2	48	SessionSelectionList									12	179914	-13	0																																													48												
WM080112	162733_fnca	2	1	1	1121939093	1	75.031	75.031	2.0.10.147	2.0.10.242	2.0.10.242	1.0.0.439	7	234	2	3	Verdana	1	80	0	0	0	WM Stimuli\	0.9	1219.55555555556	1	766.8	0.5	1041.4	0.9	670.111111111111	1	1097.7	1	817.7	1	1287.4	0.7	773.142857142857	13	322896	2	322884	27	40	322923	-999999	322899	0	34	TrialsPROC	BP_020_H17-T_BA.png	2	2	49	SessionSelectionList														nonlure	3	Body	2-Back	42	80	37	0	0	85	9	40	184513	1	13	71	182473	-1	183853	1	1380	3	3	2040	53	184526	-54	0																49												
WM080112	162733_fnca	2	1	1	1121939093	1	75.031	75.031	2.0.10.147	2.0.10.242	2.0.10.242	1.0.0.439	7	234	2	3	Verdana	1	80	0	0	0	WM Stimuli\	0.9	1219.55555555556	1	766.8	0.5	1041.4	0.9	670.111111111111	1	1097.7	1	817.7	1	1287.4	0.7	773.142857142857	13	322896	2	322884	27	40	322923	-999999	322899	0	34	TrialsPROC	BP_019_H14-T_BA.png	2	2	50	SessionSelectionList														nonlure	3	Body	2-Back	43	80	38	0	0	85	10	39	187085	1	14	73	185046	-1	185928	1	882	3	3	2039	53	187099	-54	0																50												
WM080112	162733_fnca	2	1	1	1121939093	1	75.031	75.031	2.0.10.147	2.0.10.242	2.0.10.242	1.0.0.439	7	234	2	3	Verdana	1	80	0	0	0	WM Stimuli\	0.9	1219.55555555556	1	766.8	0.5	1041.4	0.9	670.111111111111	1	1097.7	1	817.7	1	1287.4	0.7	773.142857142857	13	322896	2	322884	27	40	322923	-999999	322899	0	34	TrialsPROC	BP_020_H17-T_BA.png	2	2	51	SessionSelectionList														target	2	Body	2-Back	44	80	39	0	0	85	1	39	189644	1	13	59	187605	-1	189455	1	1850	2	2	2039	52	189657	-53	0																51												
WM080112	162733_fnca	2	1	1	1121939093	1	75.031	75.031	2.0.10.147	2.0.10.242	2.0.10.242	1.0.0.439	7	234	2	3	Verdana	1	80	0	0	0	WM Stimuli\	0.9	1219.55555555556	1	766.8	0.5	1041.4	0.9	670.111111111111	1	1097.7	1	817.7	1	1287.4	0.7	773.142857142857	13	322896	2	322884	27	40	322923	-999999	322899	0	34	TrialsPROC	BP_019_H14-T_BA.png	2	2	52	SessionSelectionList														target	2	Body	2-Back	45	80	40	0	0	85	1	39	192203	1	13	59	190164	-1	190914	0	750	3	2	2039	52	192216	-53	0																52												
WM080112	162733_fnca	2	1	1	1121939093	1	75.031	75.031	2.0.10.147	2.0.10.242	2.0.10.242	1.0.0.439	7	234	2	3	Verdana	1	80	0	0	0	WM Stimuli\	0.9	1219.55555555556	1	766.8	0.5	1041.4	0.9	670.111111111111	1	1097.7	1	817.7	1	1287.4	0.7	773.142857142857	13	322896	2	322884	27	40	322923	-999999	322899	0	34	TrialsPROC	BP_024_H3-T_BA.png	2	2	53	SessionSelectionList														nonlure	3	Body	2-Back	46	80	41	0	0	85	2	39	194775	1	14	72	192736	-1	194477	1	1741	3	3	2039	53	194789	-54	0																53												
WM080112	162733_fnca	2	1	1	1121939093	1	75.031	75.031	2.0.10.147	2.0.10.242	2.0.10.242	1.0.0.439	7	234	2	3	Verdana	1	80	0	0	0	WM Stimuli\	0.9	1219.55555555556	1	766.8	0.5	1041.4	0.9	670.111111111111	1	1097.7	1	817.7	1	1287.4	0.7	773.142857142857	13	322896	2	322884	27	40	322923	-999999	322899	0	34	TrialsPROC	BP_024_H3-T_BA.png	2	2	54	SessionSelectionList														lure	3	Body	2-Back	47	80	42	0	0	85	3	39	197334	1	14	59	195295	-1	196310	1	1015	3	3	2039	53	197348	-54	0																54												
WM080112	162733_fnca	2	1	1	1121939093	1	75.031	75.031	2.0.10.147	2.0.10.242	2.0.10.242	1.0.0.439	7	234	2	3	Verdana	1	80	0	0	0	WM Stimuli\	0.9	1219.55555555556	1	766.8	0.5	1041.4	0.9	670.111111111111	1	1097.7	1	817.7	1	1287.4	0.7	773.142857142857	13	322896	2	322884	27	40	322923	-999999	322899	0	34	TrialsPROC	BP_025_H5-T_BA.png	2	2	55	SessionSelectionList														nonlure	3	Body	2-Back	48	80	43	0	0	85	4	39	199893	1	14	59	197854	-1	199390	1	1536	3	3	2039	53	199907	-54	0																55												
WM080112	162733_fnca	2	1	1	1121939093	1	75.031	75.031	2.0.10.147	2.0.10.242	2.0.10.242	1.0.0.439	7	234	2	3	Verdana	1	80	0	0	0	WM Stimuli\	0.9	1219.55555555556	1	766.8	0.5	1041.4	0.9	670.111111111111	1	1097.7	1	817.7	1	1287.4	0.7	773.142857142857	13	322896	2	322884	27	40	322923	-999999	322899	0	34	TrialsPROC	BP_023_H25-T_BA.png	2	2	56	SessionSelectionList														nonlure	3	Body	2-Back	49	80	44	0	0	85	5	39	202465	1	14	72	200426	-1	201361	1	935	3	3	2039	53	202479	-54	0																56												
WM080112	162733_fnca	2	1	1	1121939093	1	75.031	75.031	2.0.10.147	2.0.10.242	2.0.10.242	1.0.0.439	7	234	2	3	Verdana	1	80	0	0	0	WM Stimuli\	0.9	1219.55555555556	1	766.8	0.5	1041.4	0.9	670.111111111111	1	1097.7	1	817.7	1	1287.4	0.7	773.142857142857	13	322896	2	322884	27	40	322923	-999999	322899	0	34	TrialsPROC	BP_022_H24-T_BA.png	2	2	57	SessionSelectionList														nonlure	3	Body	2-Back	50	80	45	0	0	85	6	39	205024	1	14	59	202985	-1	203687	1	702	3	3	2039	53	205038	-54	0																57												
WM080112	162733_fnca	2	1	1	1121939093	1	75.031	75.031	2.0.10.147	2.0.10.242	2.0.10.242	1.0.0.439	7	234	2	3	Verdana	1	80	0	0	0	WM Stimuli\	0.9	1219.55555555556	1	766.8	0.5	1041.4	0.9	670.111111111111	1	1097.7	1	817.7	1	1287.4	0.7	773.142857142857	13	322896	2	322884	27	40	322923	-999999	322899	0	34	TrialsPROC	BP_022_H24-T_BA.png	2	2	58	SessionSelectionList														lure	3	Body	2-Back	51	80	46	0	0	85	7	39	207583	1	14	59	205544	-1	206479	1	935	3	3	2039	53	207597	-54	0																58												
WM080112	162733_fnca	2	1	1	1121939093	1	75.031	75.031	2.0.10.147	2.0.10.242	2.0.10.242	1.0.0.439	7	234	2	3	Verdana	1	80	0	0	0	WM Stimuli\	0.9	1219.55555555556	1	766.8	0.5	1041.4	0.9	670.111111111111	1	1097.7	1	817.7	1	1287.4	0.7	773.142857142857	13	322896	2	322884	27	40	322923	-999999	322899	0	35	Cue2BackPROC	""	2	2	59	SessionSelectionList									5	208049	-6	0																																													59												
WM080112	162733_fnca	2	1	1	1121939093	1	75.031	75.031	2.0.10.147	2.0.10.242	2.0.10.242	1.0.0.439	7	234	2	3	Verdana	1	80	0	0	0	WM Stimuli\	0.9	1219.55555555556	1	766.8	0.5	1041.4	0.9	670.111111111111	1	1097.7	1	817.7	1	1287.4	0.7	773.142857142857	13	322896	2	322884	27	40	322923	-999999	322899	0	36	TrialsPROC	PL_019_SCENE_05.png	2	2	60	SessionSelectionList														nonlure	3	Place	2-Back	52	80	47	0	0	85	8	40	212648	1	13	64	210608	-1	212059	1	1451	3	3	2040	53	212661	-54	0																60												
WM080112	162733_fnca	2	1	1	1121939093	1	75.031	75.031	2.0.10.147	2.0.10.242	2.0.10.242	1.0.0.439	7	234	2	3	Verdana	1	80	0	0	0	WM Stimuli\	0.9	1219.55555555556	1	766.8	0.5	1041.4	0.9	670.111111111111	1	1097.7	1	817.7	1	1287.4	0.7	773.142857142857	13	322896	2	322884	27	40	322923	-999999	322899	0	36	TrialsPROC	PL_017_SCENE_03.png	2	2	61	SessionSelectionList														nonlure	3	Place	2-Back	53	80	48	0	0	85	9	39	215220	1	14	73	213181	-1	214070	1	889	3	3	2039	53	215234	-54	0																61												
WM080112	162733_fnca	2	1	1	1121939093	1	75.031	75.031	2.0.10.147	2.0.10.242	2.0.10.242	1.0.0.439	7	234	2	3	Verdana	1	80	0	0	0	WM Stimuli\	0.9	1219.55555555556	1	766.8	0.5	1041.4	0.9	670.111111111111	1	1097.7	1	817.7	1	1287.4	0.7	773.142857142857	13	322896	2	322884	27	40	322923	-999999	322899	0	36	TrialsPROC	PL_017_SCENE_03.png	2	2	62	SessionSelectionList														lure	3	Place	2-Back	54	80	49	0	0	85	10	39	217792	2	14	72	215753	-1	216877	1	1124	3	3	2039	53	217806	-54	0																62												
WM080112	162733_fnca	2	1	1	1121939093	1	75.031	75.031	2.0.10.147	2.0.10.242	2.0.10.242	1.0.0.439	7	234	2	3	Verdana	1	80	0	0	0	WM Stimuli\	0.9	1219.55555555556	1	766.8	0.5	1041.4	0.9	670.111111111111	1	1097.7	1	817.7	1	1287.4	0.7	773.142857142857	13	322896	2	322884	27	40	322923	-999999	322899	0	36	TrialsPROC	PL_016_SCENE_02.png	2	2	63	SessionSelectionList														nonlure	3	Place	2-Back	55	80	50	0	0	85	11	39	220364	2	14	72	218325	-1	219393	1	1068	3	3	2039	53	220378	-54	0																63												
WM080112	162733_fnca	2	1	1	1121939093	1	75.031	75.031	2.0.10.147	2.0.10.242	2.0.10.242	1.0.0.439	7	234	2	3	Verdana	1	80	0	0	0	WM Stimuli\	0.9	1219.55555555556	1	766.8	0.5	1041.4	0.9	670.111111111111	1	1097.7	1	817.7	1	1287.4	0.7	773.142857142857	13	322896	2	322884	27	40	322923	-999999	322899	0	36	TrialsPROC	PL_015_SCENE_01.png	2	2	64	SessionSelectionList														nonlure	3	Place	2-Back	56	80	51	0	0	85	12	39	222937	1	13	73	220898	-1	221894	1	996	3	3	2039	52	222950	-53	0																64												
WM080112	162733_fnca	2	1	1	1121939093	1	75.031	75.031	2.0.10.147	2.0.10.242	2.0.10.242	1.0.0.439	7	234	2	3	Verdana	1	80	0	0	0	WM Stimuli\	0.9	1219.55555555556	1	766.8	0.5	1041.4	0.9	670.111111111111	1	1097.7	1	817.7	1	1287.4	0.7	773.142857142857	13	322896	2	322884	27	40	322923	-999999	322899	0	36	TrialsPROC	PL_016_SCENE_02.png	2	2	65	SessionSelectionList														target	2	Place	2-Back	57	80	52	0	0	85	1	39	225509	1	14	72	223470	-1	224506	1	1036	2	2	2039	53	225523	-54	0																65												
WM080112	162733_fnca	2	1	1	1121939093	1	75.031	75.031	2.0.10.147	2.0.10.242	2.0.10.242	1.0.0.439	7	234	2	3	Verdana	1	80	0	0	0	WM Stimuli\	0.9	1219.55555555556	1	766.8	0.5	1041.4	0.9	670.111111111111	1	1097.7	1	817.7	1	1287.4	0.7	773.142857142857	13	322896	2	322884	27	40	322923	-999999	322899	0	36	TrialsPROC	PL_015_SCENE_01.png	2	2	66	SessionSelectionList														target	2	Place	2-Back	58	80	53	0	0	85	2	39	228081	2	14	72	226042	-1	226940	1	898	2	2	2039	53	228095	-54	0																66												
WM080112	162733_fnca	2	1	1	1121939093	1	75.031	75.031	2.0.10.147	2.0.10.242	2.0.10.242	1.0.0.439	7	234	2	3	Verdana	1	80	0	0	0	WM Stimuli\	0.9	1219.55555555556	1	766.8	0.5	1041.4	0.9	670.111111111111	1	1097.7	1	817.7	1	1287.4	0.7	773.142857142857	13	322896	2	322884	27	40	322923	-999999	322899	0	36	TrialsPROC	PL_020_SCENE_06.png	2	2	67	SessionSelectionList														nonlure	3	Place	2-Back	59	80	54	0	0	85	1	40	230654	1	13	72	228614	-1	230012	1	1398	3	3	2040	53	230667	-54	0																67												
WM080112	162733_fnca	2	1	1	1121939093	1	75.031	75.031	2.0.10.147	2.0.10.242	2.0.10.242	1.0.0.439	7	234	2	3	Verdana	1	80	0	0	0	WM Stimuli\	0.9	1219.55555555556	1	766.8	0.5	1041.4	0.9	670.111111111111	1	1097.7	1	817.7	1	1287.4	0.7	773.142857142857	13	322896	2	322884	27	40	322923	-999999	322899	0	36	TrialsPROC	PL_020_SCENE_06.png	2	2	68	SessionSelectionList														lure	3	Place	2-Back	60	80	55	0	0	85	2	39	233226	1	14	73	231187	-1	232160	1	973	3	3	2039	53	233240	-54	0																68												
WM080112	162733_fnca	2	1	1	1121939093	1	75.031	75.031	2.0.10.147	2.0.10.242	2.0.10.242	1.0.0.439	7	234	2	3	Verdana	1	80	0	0	0	WM Stimuli\	0.9	1219.55555555556	1	766.8	0.5	1041.4	0.9	670.111111111111	1	1097.7	1	817.7	1	1287.4	0.7	773.142857142857	13	322896	2	322884	27	40	322923	-999999	322899	0	36	TrialsPROC	PL_018_SCENE_04.png	2	2	69	SessionSelectionList														nonlure	3	Place	2-Back	61	80	56	0	0	85	3	39	235825	1	13	99	233786	-1	234930	1	1144	3	3	2039	52	235838	-53	0																69												
WM080112	162733_fnca	2	1	1	1121939093	1	75.031	75.031	2.0.10.147	2.0.10.242	2.0.10.242	1.0.0.439	7	234	2	3	Verdana	1	80	0	0	0	WM Stimuli\	0.9	1219.55555555556	1	766.8	0.5	1041.4	0.9	670.111111111111	1	1097.7	1	817.7	1	1287.4	0.7	773.142857142857	13	322896	2	322884	27	40	322923	-999999	322899	0	37	Fix15secPROC	""	2	2	70	SessionSelectionList																																															6	236292	-7	0							70												
WM080112	162733_fnca	2	1	1	1121939093	1	75.031	75.031	2.0.10.147	2.0.10.242	2.0.10.242	1.0.0.439	7	234	2	3	Verdana	1	80	0	0	0	WM Stimuli\	0.9	1219.55555555556	1	766.8	0.5	1041.4	0.9	670.111111111111	1	1097.7	1	817.7	1	1287.4	0.7	773.142857142857	13	322896	2	322884	27	40	322923	-999999	322899	0	38	Cue0BackPROC	FC_020_F10.png	2	2	71	SessionSelectionList																																										39	251325	-40	0												71												
WM080112	162733_fnca	2	1	1	1121939093	1	75.031	75.031	2.0.10.147	2.0.10.242	2.0.10.242	1.0.0.439	7	234	2	3	Verdana	1	80	0	0	0	WM Stimuli\	0.9	1219.55555555556	1	766.8	0.5	1041.4	0.9	670.111111111111	1	1097.7	1	817.7	1	1287.4	0.7	773.142857142857	13	322896	2	322884	27	40	322923	-999999	322899	0	39	TrialsPROC	FC_024_F12.png	2	2	72	SessionSelectionList														nonlure	3	Face	0-Back	62	80	57	0	0	86	4	39	255910	2	14	85	253871	-1	254864	1	993	3	3	2039	53	255924	-54	0																72												
WM080112	162733_fnca	2	1	1	1121939093	1	75.031	75.031	2.0.10.147	2.0.10.242	2.0.10.242	1.0.0.439	7	234	2	3	Verdana	1	80	0	0	0	WM Stimuli\	0.9	1219.55555555556	1	766.8	0.5	1041.4	0.9	670.111111111111	1	1097.7	1	817.7	1	1287.4	0.7	773.142857142857	13	322896	2	322884	27	40	322923	-999999	322899	0	39	TrialsPROC	FC_023_M12.png	2	2	73	SessionSelectionList														nonlure	3	Face	0-Back	63	80	58	0	0	86	5	39	258509	1	14	99	256470	-1	256963	1	493	3	3	2039	53	258523	-54	0																73												
WM080112	162733_fnca	2	1	1	1121939093	1	75.031	75.031	2.0.10.147	2.0.10.242	2.0.10.242	1.0.0.439	7	234	2	3	Verdana	1	80	0	0	0	WM Stimuli\	0.9	1219.55555555556	1	766.8	0.5	1041.4	0.9	670.111111111111	1	1097.7	1	817.7	1	1287.4	0.7	773.142857142857	13	322896	2	322884	27	40	322923	-999999	322899	0	39	TrialsPROC	FC_020_F10.png	2	2	74	SessionSelectionList														target	2	Face	0-Back	64	80	59	0	0	83	6	39	261081	1	14	72	259042	-1	260875	0	1833	3	2	2039	53	261095	-54	0																74												
WM080112	162733_fnca	2	1	1	1121939093	1	75.031	75.031	2.0.10.147	2.0.10.242	2.0.10.242	1.0.0.439	7	234	2	3	Verdana	1	80	0	0	0	WM Stimuli\	0.9	1219.55555555556	1	766.8	0.5	1041.4	0.9	670.111111111111	1	1097.7	1	817.7	1	1287.4	0.7	773.142857142857	13	322896	2	322884	27	40	322923	-999999	322899	0	39	TrialsPROC	FC_024_F12.png	2	2	75	SessionSelectionList														lure	3	Face	0-Back	65	80	60	0	0	83	7	39	263653	2	14	72	261614	-1	262136	1	522	3	3	2039	53	263667	-54	0																75												
WM080112	162733_fnca	2	1	1	1121939093	1	75.031	75.031	2.0.10.147	2.0.10.242	2.0.10.242	1.0.0.439	7	234	2	3	Verdana	1	80	0	0	0	WM Stimuli\	0.9	1219.55555555556	1	766.8	0.5	1041.4	0.9	670.111111111111	1	1097.7	1	817.7	1	1287.4	0.7	773.142857142857	13	322896	2	322884	27	40	322923	-999999	322899	0	39	TrialsPROC	FC_020_F10.png	2	2	76	SessionSelectionList														target	2	Face	0-Back	66	80	61	0	0	84	1	40	266226	1	13	72	264186	-1	264833	1	647	2	2	2040	53	266239	-54	0																76												
WM080112	162733_fnca	2	1	1	1121939093	1	75.031	75.031	2.0.10.147	2.0.10.242	2.0.10.242	1.0.0.439	7	234	2	3	Verdana	1	80	0	0	0	WM Stimuli\	0.9	1219.55555555556	1	766.8	0.5	1041.4	0.9	670.111111111111	1	1097.7	1	817.7	1	1287.4	0.7	773.142857142857	13	322896	2	322884	27	40	322923	-999999	322899	0	39	TrialsPROC	FC_022_F11.png	2	2	77	SessionSelectionList														nonlure	3	Face	0-Back	67	80	62	0	0	85	1	39	268811	2	14	86	266772	-1	267380	1	608	3	3	2039	53	268825	-54	0																77												
WM080112	162733_fnca	2	1	1	1121939093	1	75.031	75.031	2.0.10.147	2.0.10.242	2.0.10.242	1.0.0.439	7	234	2	3	Verdana	1	80	0	0	0	WM Stimuli\	0.9	1219.55555555556	1	766.8	0.5	1041.4	0.9	670.111111111111	1	1097.7	1	817.7	1	1287.4	0.7	773.142857142857	13	322896	2	322884	27	40	322923	-999999	322899	0	39	TrialsPROC	FC_023_M12.png	2	2	78	SessionSelectionList														lure	3	Face	0-Back	68	80	63	0	0	85	2	39	271383	2	14	72	269344	-1	270202	1	858	3	3	2039	53	271397	-54	0																78												
WM080112	162733_fnca	2	1	1	1121939093	1	75.031	75.031	2.0.10.147	2.0.10.242	2.0.10.242	1.0.0.439	7	234	2	3	Verdana	1	80	0	0	0	WM Stimuli\	0.9	1219.55555555556	1	766.8	0.5	1041.4	0.9	670.111111111111	1	1097.7	1	817.7	1	1287.4	0.7	773.142857142857	13	322896	2	322884	27	40	322923	-999999	322899	0	39	TrialsPROC	FC_021_M11.png	2	2	79	SessionSelectionList														nonlure	3	Face	0-Back	69	80	64	0	0	86	3	39	273982	2	14	99	271943	-1	272796	1	853	3	3	2039	53	273996	-54	0																79												
WM080112	162733_fnca	2	1	1	1121939093	1	75.031	75.031	2.0.10.147	2.0.10.242	2.0.10.242	1.0.0.439	7	234	2	3	Verdana	1	80	0	0	0	WM Stimuli\	0.9	1219.55555555556	1	766.8	0.5	1041.4	0.9	670.111111111111	1	1097.7	1	817.7	1	1287.4	0.7	773.142857142857	13	322896	2	322884	27	40	322923	-999999	322899	0	39	TrialsPROC	FC_021_M11.png	2	2	80	SessionSelectionList														lure	3	Face	0-Back	70	80	65	0	0	86	4	40	276555	1	13	72	274515	-1	274924	1	409	3	3	2040	53	276568	-54	0																80												
WM080112	162733_fnca	2	1	1	1121939093	1	75.031	75.031	2.0.10.147	2.0.10.242	2.0.10.242	1.0.0.439	7	234	2	3	Verdana	1	80	0	0	0	WM Stimuli\	0.9	1219.55555555556	1	766.8	0.5	1041.4	0.9	670.111111111111	1	1097.7	1	817.7	1	1287.4	0.7	773.142857142857	13	322896	2	322884	27	40	322923	-999999	322899	0	39	TrialsPROC	FC_019_M10.png	2	2	81	SessionSelectionList														nonlure	3	Face	0-Back	71	80	66	0	0	87	5	40	279154	1	13	99	277114	-1	277762	1	648	3	3	2040	53	279167	-54	0																81												
WM080112	162733_fnca	2	1	1	1121939093	1	75.031	75.031	2.0.10.147	2.0.10.242	2.0.10.242	1.0.0.439	7	234	2	3	Verdana	1	80	0	0	0	WM Stimuli\	0.9	1219.55555555556	1	766.8	0.5	1041.4	0.9	670.111111111111	1	1097.7	1	817.7	1	1287.4	0.7	773.142857142857	13	322896	2	322884	27	40	322923	-999999	322899	0	40	Cue0BackPROC	PL_021_SCENE_07.png	2	2	82	SessionSelectionList																																										46	279660	-47	0												82												
WM080112	162733_fnca	2	1	1	1121939093	1	75.031	75.031	2.0.10.147	2.0.10.242	2.0.10.242	1.0.0.439	7	234	2	3	Verdana	1	80	0	0	0	WM Stimuli\	0.9	1219.55555555556	1	766.8	0.5	1041.4	0.9	670.111111111111	1	1097.7	1	817.7	1	1287.4	0.7	773.142857142857	13	322896	2	322884	27	40	322923	-999999	322899	0	41	TrialsPROC	PL_025_SCENE_18.png	2	2	83	SessionSelectionList														nonlure	3	Place	0-Back	72	80	67	0	0	87	6	39	284245	1	14	92	282206	-1	283099	1	893	3	3	2039	53	284259	-54	0																83												
WM080112	162733_fnca	2	1	1	1121939093	1	75.031	75.031	2.0.10.147	2.0.10.242	2.0.10.242	1.0.0.439	7	234	2	3	Verdana	1	80	0	0	0	WM Stimuli\	0.9	1219.55555555556	1	766.8	0.5	1041.4	0.9	670.111111111111	1	1097.7	1	817.7	1	1287.4	0.7	773.142857142857	13	322896	2	322884	27	40	322923	-999999	322899	0	41	TrialsPROC	PL_026_SCENE_24.png	2	2	84	SessionSelectionList														nonlure	3	Place	0-Back	73	80	68	0	0	88	7	39	286830	2	14	85	284791	-1	285340	1	549	3	3	2039	53	286844	-54	0																84												
WM080112	162733_fnca	2	1	1	1121939093	1	75.031	75.031	2.0.10.147	2.0.10.242	2.0.10.242	1.0.0.439	7	234	2	3	Verdana	1	80	0	0	0	WM Stimuli\	0.9	1219.55555555556	1	766.8	0.5	1041.4	0.9	670.111111111111	1	1097.7	1	817.7	1	1287.4	0.7	773.142857142857	13	322896	2	322884	27	40	322923	-999999	322899	0	41	TrialsPROC	PL_025_SCENE_18.png	2	2	85	SessionSelectionList														lure	3	Place	0-Back	74	80	69	0	0	88	8	39	289403	1	13	73	287364	-1	288318	1	954	3	3	2039	52	289416	-53	0																85												
WM080112	162733_fnca	2	1	1	1121939093	1	75.031	75.031	2.0.10.147	2.0.10.242	2.0.10.242	1.0.0.439	7	234	2	3	Verdana	1	80	0	0	0	WM Stimuli\	0.9	1219.55555555556	1	766.8	0.5	1041.4	0.9	670.111111111111	1	1097.7	1	817.7	1	1287.4	0.7	773.142857142857	13	322896	2	322884	27	40	322923	-999999	322899	0	41	TrialsPROC	PL_022_SCENE_08.png	2	2	86	SessionSelectionList														nonlure	3	Place	0-Back	75	80	70	0	0	88	9	39	291975	1	14	72	289936	-1	290508	1	572	3	3	2039	53	291989	-54	0																86												
WM080112	162733_fnca	2	1	1	1121939093	1	75.031	75.031	2.0.10.147	2.0.10.242	2.0.10.242	1.0.0.439	7	234	2	3	Verdana	1	80	0	0	0	WM Stimuli\	0.9	1219.55555555556	1	766.8	0.5	1041.4	0.9	670.111111111111	1	1097.7	1	817.7	1	1287.4	0.7	773.142857142857	13	322896	2	322884	27	40	322923	-999999	322899	0	41	TrialsPROC	PL_026_SCENE_24.png	2	2	87	SessionSelectionList														lure	3	Place	0-Back	76	80	71	0	0	89	10	39	294547	2	14	72	292508	-1	293440	1	932	3	3	2039	53	294561	-54	0																87												
WM080112	162733_fnca	2	1	1	1121939093	1	75.031	75.031	2.0.10.147	2.0.10.242	2.0.10.242	1.0.0.439	7	234	2	3	Verdana	1	80	0	0	0	WM Stimuli\	0.9	1219.55555555556	1	766.8	0.5	1041.4	0.9	670.111111111111	1	1097.7	1	817.7	1	1287.4	0.7	773.142857142857	13	322896	2	322884	27	40	322923	-999999	322899	0	41	TrialsPROC	PL_021_SCENE_07.png	2	2	88	SessionSelectionList														target	2	Place	0-Back	77	80	72	0	0	89	1	40	297120	1	13	72	295080	-1	296592	1	1512	2	2	2040	53	297133	-54	0																88												
WM080112	162733_fnca	2	1	1	1121939093	1	75.031	75.031	2.0.10.147	2.0.10.242	2.0.10.242	1.0.0.439	7	234	2	3	Verdana	1	80	0	0	0	WM Stimuli\	0.9	1219.55555555556	1	766.8	0.5	1041.4	0.9	670.111111111111	1	1097.7	1	817.7	1	1287.4	0.7	773.142857142857	13	322896	2	322884	27	40	322923	-999999	322899	0	41	TrialsPROC	PL_021_SCENE_07.png	2	2	89	SessionSelectionList														target	2	Place	0-Back	78	80	73	0	0	89	2	39	299692	1	14	73	297653	-1	298145	1	492	2	2	2039	53	299706	-54	0																89												
WM080112	162733_fnca	2	1	1	1121939093	1	75.031	75.031	2.0.10.147	2.0.10.242	2.0.10.242	1.0.0.439	7	234	2	3	Verdana	1	80	0	0	0	WM Stimuli\	0.9	1219.55555555556	1	766.8	0.5	1041.4	0.9	670.111111111111	1	1097.7	1	817.7	1	1287.4	0.7	773.142857142857	13	322896	2	322884	27	40	322923	-999999	322899	0	41	TrialsPROC	PL_023_SCENE_09.png	2	2	90	SessionSelectionList														nonlure	3	Place	0-Back	79	80	74	0	0	89	1	39	302277	2	14	85	300238	-1	300879	1	641	3	3	2039	53	302291	-54	0																90												
WM080112	162733_fnca	2	1	1	1121939093	1	75.031	75.031	2.0.10.147	2.0.10.242	2.0.10.242	1.0.0.439	7	234	2	3	Verdana	1	80	0	0	0	WM Stimuli\	0.9	1219.55555555556	1	766.8	0.5	1041.4	0.9	670.111111111111	1	1097.7	1	817.7	1	1287.4	0.7	773.142857142857	13	322896	2	322884	27	40	322923	-999999	322899	0	41	TrialsPROC	PL_024_SCENE_10.png	2	2	91	SessionSelectionList														nonlure	3	Place	0-Back	80	80	75	0	0	90	2	39	304850	1	13	73	302811	-1	303933	1	1122	3	3	2039	52	304863	-53	0																91												
WM080112	162733_fnca	2	1	1	1121939093	1	75.031	75.031	2.0.10.147	2.0.10.242	2.0.10.242	1.0.0.439	7	234	2	3	Verdana	1	80	0	0	0	WM Stimuli\	0.9	1219.55555555556	1	766.8	0.5	1041.4	0.9	670.111111111111	1	1097.7	1	817.7	1	1287.4	0.7	773.142857142857	13	322896	2	322884	27	40	322923	-999999	322899	0	41	TrialsPROC	PL_022_SCENE_08.png	2	2	92	SessionSelectionList														lure	3	Place	0-Back	80	80	76	0	0	90	3	39	307422	1	14	72	305383	-1	305893	1	510	3	3	2039	53	307436	-54	0																92												
WM080112	162733_fnca	2	1	1	1121939093	1	75.031	75.031	2.0.10.147	2.0.10.242	2.0.10.242	1.0.0.439	7	234	2	3	Verdana	1	80	0	0	0	WM Stimuli\	0.9	1219.55555555556	1	766.8	0.5	1041.4	0.9	670.111111111111	1	1097.7	1	817.7	1	1287.4	0.7	773.142857142857	13	322896	2	322884	27	40	322923	-999999	322899	0	42	Fix15secPROC	""	2	2	93	SessionSelectionList																																															6	307889	-7	0							93												
