ExperimentName	HCPID	RunNumber	Subject	Session	RandomSeed	Group	Laptop.RefreshRate	ScannerD2.RefreshRate	StudioVersion	RuntimeVersion	RuntimeVersionExpected	ExperimentVersion	triggercode	Allowed	Target	Nontarget	FontStyle	RunTrialNumber[Session]	TrialsPerRun[Session]	TotalRespGreater200[Session]	ConsecRTLess200[Session]	ConsecNonResp[Session]	StimuliDir	ACC_2_Back_Body	Avg_RT_For_Correct_Trials_2_Back_Body	ACC_0_Back_Body	Avg_RT_For_Correct_Trials_0_Back_Body	ACC_2_Back_Face	Avg_RT_For_Correct_Trials_2_Back_Face	ACC_0_Back_Face	Avg_RT_For_Correct_Trials_0_Back_Face	ACC_2_Back_Place	Avg_RT_For_Correct_Trials_2_Back_Place	ACC_0_Back_Place	Avg_RT_For_Correct_Trials_0_Back_Place	ACC_2_Back_Tools	Avg_RT_For_Correct_Trials_2_Back_Tools	ACC_0_Back_Tools	Avg_RT_For_Correct_Trials_0_Back_Tools	ExpInstrucFeelFreeToRest.OnsetDelay	ExpInstrucFeelFreeToRest.OnsetTime	ExpInstrucFeelFreeToRest.DurationError	ExpInstrucFeelFreeToRest.StartTime	ExpInstrucFeelFreeToRest.OnsetToOnsetTime	FeelFreeToRest.OnsetDelay	FeelFreeToRest.OnsetTime	FeelFreeToRest.DurationError	FeelFreeToRest.StartTime	FeelFreeToRest.OnsetToOnsetTime	SessionSelectionList	Procedure[Block]	Stimulus[Block]	RunNumberFilterValue	SessionSelectionList.Cycle	SessionSelectionList.Sample	Running[Block]	IntroButtonMap.OnsetDelay	IntroButtonMap.OnsetTime	IntroButtonMap.DurationError	IntroButtonMap.OnsetToOnsetTime	GetReady.OnsetDelay	GetReady.OnsetTime	GetReady.DurationError	GetReady.OnsetToOnsetTime	Cue2Back.OnsetDelay	Cue2Back.OnsetTime	Cue2Back.DurationError	Cue2Back.OnsetToOnsetTime	Run1Block1	TargetType	CorrectResponse	StimType	BlockType	RunTrialNumber[Block]	TrialsPerRun[Block]	TotalRespGreater200[Block]	ConsecRTLess200[Block]	ConsecNonResp[Block]	ControlAcc	ConsecSameResp	ExperimenterWindow.OnsetDelay	ExperimenterWindow.OnsetTime	ExperimenterWindow.DurationError	ExperimenterWindow.OnsetToOnsetTime	Stim.OnsetDelay	Stim.OnsetTime	Stim.DurationError	Stim.RTTime	Stim.ACC	Stim.RT	Stim.RESP	Stim.CRESP	Stim.OnsetToOnsetTime	Fix.OnsetDelay	Fix.OnsetTime	Fix.DurationError	Fix.OnsetToOnsetTime	CueTarget.OnsetDelay	CueTarget.OnsetTime	CueTarget.DurationError	CueTarget.OnsetToOnsetTime	Run1Block2	Fix15sec.OnsetDelay	Fix15sec.OnsetTime	Fix15sec.DurationError	Fix15sec.OnsetToOnsetTime	Run1Block3	Run1Block4	Run1Block5	Run1Block6	Run1Block7	Run1Block8	Block	Procedure[Trial]	Stimulus[Trial]	ReadyList	Running[Trial]	ReadyList.Cycle	ReadyList.Sample	SyncSlide.OnsetDelay	SyncSlide.OnsetTime	SyncSlide.DurationError	SyncSlide.FinishTime	SyncSlide.OnsetToOnsetTime	Trial
WM080112	133019_fnca	1	1	1	-270386550	1	75.030	75.030	2.0.10.147	2.0.10.242	2.0.10.242	1.0.0.439	7	234	2	3	Verdana	1	80	0	0	0	WM Stimuli\	0.9	1081.55555555556	0.7	1051.42857142857	0.9	987.111111111111	1	650	1	974.5	1	651.2	0.9	1029.33333333333	1	576.3	12	531422	3	531411	27	39	531449	-999999	531425	0	1	TRSyncPROC	""	1	2	1	SessionSelectionList	110	15404	-999999	0	30	224587	-999999	0																																																	1	InitialTR	4	1	ReadyList	1	1	11	237954	-12	239942	0	1
WM080112	133019_fnca	1	1	1	-270386550	1	75.030	75.030	2.0.10.147	2.0.10.242	2.0.10.242	1.0.0.439	7	234	2	3	Verdana	1	80	0	0	0	WM Stimuli\	0.9	1081.55555555556	0.7	1051.42857142857	0.9	987.111111111111	1	650	1	974.5	1	651.2	0.9	1029.33333333333	1	576.3	12	531422	3	531411	27	39	531449	-999999	531425	0	1	TRSyncPROC	""	1	2	1	SessionSelectionList	110	15404	-999999	0	30	224587	-999999	0																																																	1	InitialTR	3	2	ReadyList	1	2	10	239953	-11	241942	0	2
WM080112	133019_fnca	1	1	1	-270386550	1	75.030	75.030	2.0.10.147	2.0.10.242	2.0.10.242	1.0.0.439	7	234	2	3	Verdana	1	80	0	0	0	WM Stimuli\	0.9	1081.55555555556	0.7	1051.42857142857	0.9	987.111111111111	1	650	1	974.5	1	651.2	0.9	1029.33333333333	1	576.3	12	531422	3	531411	27	39	531449	-999999	531425	0	1	TRSyncPROC	""	1	2	1	SessionSelectionList	110	15404	-999999	0	30	224587	-999999	0																																																	1	InitialTR	2	3	ReadyList	1	3	10	241953	-11	243942	0	3
WM080112	133019_fnca	1	1	1	-270386550	1	75.030	75.030	2.0.10.147	2.0.10.242	2.0.10.242	1.0.0.439	7	234	2	3	Verdana	1	80	0	0	0	WM Stimuli\	0.9	1081.55555555556	0.7	1051.42857142857	0.9	987.111111111111	1	650	1	974.5	1	651.2	0.9	1029.33333333333	1	576.3	12	531422	3	531411	27	39	531449	-999999	531425	0	1	TRSyncPROC	""	1	2	1	SessionSelectionList	110	15404	-999999	0	30	224587	-999999	0																																																	1	InitialTR	1	4	ReadyList	1	4	9	243952	-10	245942	0	4
WM080112	133019_fnca	1	1	1	-270386550	1	75.030	75.030	2.0.10.147	2.0.10.242	2.0.10.242	1.0.0.439	7	234	2	3	Verdana	1	80	0	0	0	WM Stimuli\	0.9	1081.55555555556	0.7	1051.42857142857	0.9	987.111111111111	1	650	1	974.5	1	651.2	0.9	1029.33333333333	1	576.3	12	531422	3	531411	27	39	531449	-999999	531425	0	2	Cue2BackPROC	""	1	2	2	SessionSelectionList									8	245951	-9	0																																													2												
WM080112	133019_fnca	1	1	1	-270386550	1	75.030	75.030	2.0.10.147	2.0.10.242	2.0.10.242	1.0.0.439	7	234	2	3	Verdana	1	80	0	0	0	WM Stimuli\	0.9	1081.55555555556	0.7	1051.42857142857	0.9	987.111111111111	1	650	1	974.5	1	651.2	0.9	1029.33333333333	1	576.3	12	531422	3	531411	27	39	531449	-999999	531425	0	3	TrialsPROC	BP_002_BP10_BA.png	1	2	3	SessionSelectionList													1	nonlure	3	Body	2-Back	2	80	1	0	0	0	1	53	250576	3	14	80	248523	-1	249006	1	483	3	3	2053	67	250590	-68	0																3												
WM080112	133019_fnca	1	1	1	-270386550	1	75.030	75.030	2.0.10.147	2.0.10.242	2.0.10.242	1.0.0.439	7	234	2	3	Verdana	1	80	0	0	0	WM Stimuli\	0.9	1081.55555555556	0.7	1051.42857142857	0.9	987.111111111111	1	650	1	974.5	1	651.2	0.9	1029.33333333333	1	576.3	12	531422	3	531411	27	39	531449	-999999	531425	0	3	TrialsPROC	BP_001_BP1_BA.png	1	2	4	SessionSelectionList													2	nonlure	3	Body	2-Back	3	80	2	0	0	0	2	39	253135	2	14	73	251096	-1	252532	1	1436	3	3	2039	53	253149	-54	0																4												
WM080112	133019_fnca	1	1	1	-270386550	1	75.030	75.030	2.0.10.147	2.0.10.242	2.0.10.242	1.0.0.439	7	234	2	3	Verdana	1	80	0	0	0	WM Stimuli\	0.9	1081.55555555556	0.7	1051.42857142857	0.9	987.111111111111	1	650	1	974.5	1	651.2	0.9	1029.33333333333	1	576.3	12	531422	3	531411	27	39	531449	-999999	531425	0	3	TrialsPROC	BP_006_BP2_BA.png	1	2	5	SessionSelectionList													3	nonlure	3	Body	2-Back	4	80	3	0	0	0	1	39	255694	1	14	59	253655	-1	254757	0	1102	2	3	2039	53	255708	-54	0																5												
WM080112	133019_fnca	1	1	1	-270386550	1	75.030	75.030	2.0.10.147	2.0.10.242	2.0.10.242	1.0.0.439	7	234	2	3	Verdana	1	80	0	0	0	WM Stimuli\	0.9	1081.55555555556	0.7	1051.42857142857	0.9	987.111111111111	1	650	1	974.5	1	651.2	0.9	1029.33333333333	1	576.3	12	531422	3	531411	27	39	531449	-999999	531425	0	3	TrialsPROC	BP_001_BP1_BA.png	1	2	6	SessionSelectionList													4	target	2	Body	2-Back	5	80	4	0	0	0	2	39	258266	3	14	72	256227	-1	257099	1	872	2	2	2039	53	258280	-54	0																6												
WM080112	133019_fnca	1	1	1	-270386550	1	75.030	75.030	2.0.10.147	2.0.10.242	2.0.10.242	1.0.0.439	7	234	2	3	Verdana	1	80	0	0	0	WM Stimuli\	0.9	1081.55555555556	0.7	1051.42857142857	0.9	987.111111111111	1	650	1	974.5	1	651.2	0.9	1029.33333333333	1	576.3	12	531422	3	531411	27	39	531449	-999999	531425	0	3	TrialsPROC	BP_005_BP19_BA.png	1	2	7	SessionSelectionList													5	nonlure	3	Body	2-Back	6	80	5	0	0	0	1	39	260838	2	14	72	258799	-1	260010	1	1211	3	3	2039	53	260852	-54	0																7												
WM080112	133019_fnca	1	1	1	-270386550	1	75.030	75.030	2.0.10.147	2.0.10.242	2.0.10.242	1.0.0.439	7	234	2	3	Verdana	1	80	0	0	0	WM Stimuli\	0.9	1081.55555555556	0.7	1051.42857142857	0.9	987.111111111111	1	650	1	974.5	1	651.2	0.9	1029.33333333333	1	576.3	12	531422	3	531411	27	39	531449	-999999	531425	0	3	TrialsPROC	BP_003_BP16_BA.png	1	2	8	SessionSelectionList													6	nonlure	3	Body	2-Back	7	80	6	0	0	0	2	39	263397	2	14	59	261358	-1	262193	1	835	3	3	2039	53	263411	-54	0																8												
WM080112	133019_fnca	1	1	1	-270386550	1	75.030	75.030	2.0.10.147	2.0.10.242	2.0.10.242	1.0.0.439	7	234	2	3	Verdana	1	80	0	0	0	WM Stimuli\	0.9	1081.55555555556	0.7	1051.42857142857	0.9	987.111111111111	1	650	1	974.5	1	651.2	0.9	1029.33333333333	1	576.3	12	531422	3	531411	27	39	531449	-999999	531425	0	3	TrialsPROC	BP_006_BP2_BA.png	1	2	9	SessionSelectionList													7	lure	3	Body	2-Back	8	80	7	0	0	0	3	39	265956	2	14	59	263917	-1	265030	1	1113	3	3	2039	53	265970	-54	0																9												
WM080112	133019_fnca	1	1	1	-270386550	1	75.030	75.030	2.0.10.147	2.0.10.242	2.0.10.242	1.0.0.439	7	234	2	3	Verdana	1	80	0	0	0	WM Stimuli\	0.9	1081.55555555556	0.7	1051.42857142857	0.9	987.111111111111	1	650	1	974.5	1	651.2	0.9	1029.33333333333	1	576.3	12	531422	3	531411	27	39	531449	-999999	531425	0	3	TrialsPROC	BP_004_BP18_BA.png	1	2	10	SessionSelectionList													8	nonlure	3	Body	2-Back	9	80	8	0	0	0	4	39	268515	2	14	59	266476	-1	267408	1	932	3	3	2039	53	268529	-54	0																10												
WM080112	133019_fnca	1	1	1	-270386550	1	75.030	75.030	2.0.10.147	2.0.10.242	2.0.10.242	1.0.0.439	7	234	2	3	Verdana	1	80	0	0	0	WM Stimuli\	0.9	1081.55555555556	0.7	1051.42857142857	0.9	987.111111111111	1	650	1	974.5	1	651.2	0.9	1029.33333333333	1	576.3	12	531422	3	531411	27	39	531449	-999999	531425	0	3	TrialsPROC	BP_005_BP19_BA.png	1	2	11	SessionSelectionList													9	lure	3	Body	2-Back	10	80	9	0	0	0	5	39	271074	2	14	59	269035	-1	270966	1	1931	3	3	2039	53	271088	-54	0																11												
WM080112	133019_fnca	1	1	1	-270386550	1	75.030	75.030	2.0.10.147	2.0.10.242	2.0.10.242	1.0.0.439	7	234	2	3	Verdana	1	80	0	0	0	WM Stimuli\	0.9	1081.55555555556	0.7	1051.42857142857	0.9	987.111111111111	1	650	1	974.5	1	651.2	0.9	1029.33333333333	1	576.3	12	531422	3	531411	27	39	531449	-999999	531425	0	3	TrialsPROC	BP_004_BP18_BA.png	1	2	12	SessionSelectionList													10	target	2	Body	2-Back	11	80	10	0	0	0	1	39	273633	3	14	59	271594	-1	272515	1	921	2	2	2039	53	273647	-54	0																12												
WM080112	133019_fnca	1	1	1	-270386550	1	75.030	75.030	2.0.10.147	2.0.10.242	2.0.10.242	1.0.0.439	7	234	2	3	Verdana	1	80	0	0	0	WM Stimuli\	0.9	1081.55555555556	0.7	1051.42857142857	0.9	987.111111111111	1	650	1	974.5	1	651.2	0.9	1029.33333333333	1	576.3	12	531422	3	531411	27	39	531449	-999999	531425	0	4	Cue0BackPROC	FC_001_M1.png	1	2	13	SessionSelectionList																																										19	274113	-20	0												13												
WM080112	133019_fnca	1	1	1	-270386550	1	75.030	75.030	2.0.10.147	2.0.10.242	2.0.10.242	1.0.0.439	7	234	2	3	Verdana	1	80	0	0	0	WM Stimuli\	0.9	1081.55555555556	0.7	1051.42857142857	0.9	987.111111111111	1	650	1	974.5	1	651.2	0.9	1029.33333333333	1	576.3	12	531422	3	531411	27	39	531449	-999999	531425	0	5	TrialsPROC	FC_005_M3.png	1	2	14	SessionSelectionList														nonlure	3	Face	0-Back	12	80	11	0	0	100	1	39	278698	1	14	65	276659	-1	277326	1	667	3	3	2039	53	278712	-54	0					1											14												
WM080112	133019_fnca	1	1	1	-270386550	1	75.030	75.030	2.0.10.147	2.0.10.242	2.0.10.242	1.0.0.439	7	234	2	3	Verdana	1	80	0	0	0	WM Stimuli\	0.9	1081.55555555556	0.7	1051.42857142857	0.9	987.111111111111	1	650	1	974.5	1	651.2	0.9	1029.33333333333	1	576.3	12	531422	3	531411	27	39	531449	-999999	531425	0	5	TrialsPROC	FC_001_M1.png	1	2	15	SessionSelectionList														target	2	Face	0-Back	13	80	12	0	0	100	1	39	281270	1	14	72	279231	-1	279861	1	630	2	2	2039	53	281284	-54	0					2											15												
WM080112	133019_fnca	1	1	1	-270386550	1	75.030	75.030	2.0.10.147	2.0.10.242	2.0.10.242	1.0.0.439	7	234	2	3	Verdana	1	80	0	0	0	WM Stimuli\	0.9	1081.55555555556	0.7	1051.42857142857	0.9	987.111111111111	1	650	1	974.5	1	651.2	0.9	1029.33333333333	1	576.3	12	531422	3	531411	27	39	531449	-999999	531425	0	5	TrialsPROC	FC_003_M2.png	1	2	16	SessionSelectionList														nonlure	3	Face	0-Back	14	80	13	0	0	100	1	39	283842	3	14	72	281803	-1	282686	1	883	3	3	2039	53	283856	-54	0					3											16												
WM080112	133019_fnca	1	1	1	-270386550	1	75.030	75.030	2.0.10.147	2.0.10.242	2.0.10.242	1.0.0.439	7	234	2	3	Verdana	1	80	0	0	0	WM Stimuli\	0.9	1081.55555555556	0.7	1051.42857142857	0.9	987.111111111111	1	650	1	974.5	1	651.2	0.9	1029.33333333333	1	576.3	12	531422	3	531411	27	39	531449	-999999	531425	0	5	TrialsPROC	FC_004_F2.png	1	2	17	SessionSelectionList														nonlure	3	Face	0-Back	15	80	14	0	0	100	2	39	286415	1	13	73	284376	-1	284875	1	499	3	3	2039	52	286428	-53	0					4											17												
WM080112	133019_fnca	1	1	1	-270386550	1	75.030	75.030	2.0.10.147	2.0.10.242	2.0.10.242	1.0.0.439	7	234	2	3	Verdana	1	80	0	0	0	WM Stimuli\	0.9	1081.55555555556	0.7	1051.42857142857	0.9	987.111111111111	1	650	1	974.5	1	651.2	0.9	1029.33333333333	1	576.3	12	531422	3	531411	27	39	531449	-999999	531425	0	5	TrialsPROC	FC_004_F2.png	1	2	18	SessionSelectionList														lure	3	Face	0-Back	16	80	15	0	0	100	3	39	288987	1	14	72	286948	-1	287408	1	460	3	3	2039	53	289001	-54	0					5											18												
WM080112	133019_fnca	1	1	1	-270386550	1	75.030	75.030	2.0.10.147	2.0.10.242	2.0.10.242	1.0.0.439	7	234	2	3	Verdana	1	80	0	0	0	WM Stimuli\	0.9	1081.55555555556	0.7	1051.42857142857	0.9	987.111111111111	1	650	1	974.5	1	651.2	0.9	1029.33333333333	1	576.3	12	531422	3	531411	27	39	531449	-999999	531425	0	5	TrialsPROC	FC_001_M1.png	1	2	19	SessionSelectionList														target	2	Face	0-Back	17	80	16	0	0	100	1	39	291559	2	14	72	289520	-1	290127	1	607	2	2	2039	53	291573	-54	0					6											19												
WM080112	133019_fnca	1	1	1	-270386550	1	75.030	75.030	2.0.10.147	2.0.10.242	2.0.10.242	1.0.0.439	7	234	2	3	Verdana	1	80	0	0	0	WM Stimuli\	0.9	1081.55555555556	0.7	1051.42857142857	0.9	987.111111111111	1	650	1	974.5	1	651.2	0.9	1029.33333333333	1	576.3	12	531422	3	531411	27	39	531449	-999999	531425	0	5	TrialsPROC	FC_006_F3.png	1	2	20	SessionSelectionList														nonlure	3	Face	0-Back	18	80	17	0	0	100	1	40	294132	1	13	72	292092	-1	292850	1	758	3	3	2040	53	294145	-54	0					7											20												
WM080112	133019_fnca	1	1	1	-270386550	1	75.030	75.030	2.0.10.147	2.0.10.242	2.0.10.242	1.0.0.439	7	234	2	3	Verdana	1	80	0	0	0	WM Stimuli\	0.9	1081.55555555556	0.7	1051.42857142857	0.9	987.111111111111	1	650	1	974.5	1	651.2	0.9	1029.33333333333	1	576.3	12	531422	3	531411	27	39	531449	-999999	531425	0	5	TrialsPROC	FC_006_F3.png	1	2	21	SessionSelectionList														lure	3	Face	0-Back	19	80	18	0	0	100	2	39	296704	2	14	73	294665	-1	295244	1	579	3	3	2039	53	296718	-54	0					8											21												
WM080112	133019_fnca	1	1	1	-270386550	1	75.030	75.030	2.0.10.147	2.0.10.242	2.0.10.242	1.0.0.439	7	234	2	3	Verdana	1	80	0	0	0	WM Stimuli\	0.9	1081.55555555556	0.7	1051.42857142857	0.9	987.111111111111	1	650	1	974.5	1	651.2	0.9	1029.33333333333	1	576.3	12	531422	3	531411	27	39	531449	-999999	531425	0	5	TrialsPROC	FC_003_M2.png	1	2	22	SessionSelectionList														lure	3	Face	0-Back	20	80	19	0	0	100	3	39	299276	2	14	72	297237	-1	297842	1	605	3	3	2039	53	299290	-54	0					9											22												
WM080112	133019_fnca	1	1	1	-270386550	1	75.030	75.030	2.0.10.147	2.0.10.242	2.0.10.242	1.0.0.439	7	234	2	3	Verdana	1	80	0	0	0	WM Stimuli\	0.9	1081.55555555556	0.7	1051.42857142857	0.9	987.111111111111	1	650	1	974.5	1	651.2	0.9	1029.33333333333	1	576.3	12	531422	3	531411	27	39	531449	-999999	531425	0	5	TrialsPROC	FC_002_F1.png	1	2	23	SessionSelectionList														nonlure	3	Face	0-Back	21	80	20	0	0	100	4	39	301848	2	14	72	299809	-1	300621	1	812	3	3	2039	53	301862	-54	0					10											23												
WM080112	133019_fnca	1	1	1	-270386550	1	75.030	75.030	2.0.10.147	2.0.10.242	2.0.10.242	1.0.0.439	7	234	2	3	Verdana	1	80	0	0	0	WM Stimuli\	0.9	1081.55555555556	0.7	1051.42857142857	0.9	987.111111111111	1	650	1	974.5	1	651.2	0.9	1029.33333333333	1	576.3	12	531422	3	531411	27	39	531449	-999999	531425	0	6	Fix15secPROC	""	1	2	24	SessionSelectionList																																															6	302315	-7	0							24												
WM080112	133019_fnca	1	1	1	-270386550	1	75.030	75.030	2.0.10.147	2.0.10.242	2.0.10.242	1.0.0.439	7	234	2	3	Verdana	1	80	0	0	0	WM Stimuli\	0.9	1081.55555555556	0.7	1051.42857142857	0.9	987.111111111111	1	650	1	974.5	1	651.2	0.9	1029.33333333333	1	576.3	12	531422	3	531411	27	39	531449	-999999	531425	0	7	Cue2BackPROC	""	1	2	25	SessionSelectionList									13	317322	-14	0																																													25												
WM080112	133019_fnca	1	1	1	-270386550	1	75.030	75.030	2.0.10.147	2.0.10.242	2.0.10.242	1.0.0.439	7	234	2	3	Verdana	1	80	0	0	0	WM Stimuli\	0.9	1081.55555555556	0.7	1051.42857142857	0.9	987.111111111111	1	650	1	974.5	1	651.2	0.9	1029.33333333333	1	576.3	12	531422	3	531411	27	39	531449	-999999	531425	0	8	TrialsPROC	TO_001_TOOL1_BA.png	1	2	26	SessionSelectionList														nonlure	3	Tools	2-Back	22	80	21	0	0	100	5	39	321907	3	14	59	319868	-1	320913	1	1045	3	3	2039	53	321921	-54	0										1						26												
WM080112	133019_fnca	1	1	1	-270386550	1	75.030	75.030	2.0.10.147	2.0.10.242	2.0.10.242	1.0.0.439	7	234	2	3	Verdana	1	80	0	0	0	WM Stimuli\	0.9	1081.55555555556	0.7	1051.42857142857	0.9	987.111111111111	1	650	1	974.5	1	651.2	0.9	1029.33333333333	1	576.3	12	531422	3	531411	27	39	531449	-999999	531425	0	8	TrialsPROC	TO_002_TOOL2_BA.png	1	2	27	SessionSelectionList														nonlure	3	Tools	2-Back	23	80	22	0	0	100	6	39	324466	2	14	59	322427	-1	323319	1	892	3	3	2039	53	324480	-54	0										2						27												
WM080112	133019_fnca	1	1	1	-270386550	1	75.030	75.030	2.0.10.147	2.0.10.242	2.0.10.242	1.0.0.439	7	234	2	3	Verdana	1	80	0	0	0	WM Stimuli\	0.9	1081.55555555556	0.7	1051.42857142857	0.9	987.111111111111	1	650	1	974.5	1	651.2	0.9	1029.33333333333	1	576.3	12	531422	3	531411	27	39	531449	-999999	531425	0	8	TrialsPROC	TO_004_TOOL4_BA.png	1	2	28	SessionSelectionList														nonlure	3	Tools	2-Back	24	80	23	0	0	100	7	39	327038	3	14	72	324999	-1	325615	1	616	3	3	2039	53	327052	-54	0										3						28												
WM080112	133019_fnca	1	1	1	-270386550	1	75.030	75.030	2.0.10.147	2.0.10.242	2.0.10.242	1.0.0.439	7	234	2	3	Verdana	1	80	0	0	0	WM Stimuli\	0.9	1081.55555555556	0.7	1051.42857142857	0.9	987.111111111111	1	650	1	974.5	1	651.2	0.9	1029.33333333333	1	576.3	12	531422	3	531411	27	39	531449	-999999	531425	0	8	TrialsPROC	TO_002_TOOL2_BA.png	1	2	29	SessionSelectionList														target	2	Tools	2-Back	25	80	24	0	0	100	1	39	329597	3	14	59	327558	-1	328402	1	844	2	2	2039	53	329611	-54	0										4						29												
WM080112	133019_fnca	1	1	1	-270386550	1	75.030	75.030	2.0.10.147	2.0.10.242	2.0.10.242	1.0.0.439	7	234	2	3	Verdana	1	80	0	0	0	WM Stimuli\	0.9	1081.55555555556	0.7	1051.42857142857	0.9	987.111111111111	1	650	1	974.5	1	651.2	0.9	1029.33333333333	1	576.3	12	531422	3	531411	27	39	531449	-999999	531425	0	8	TrialsPROC	TO_001_TOOL1_BA.png	1	2	30	SessionSelectionList														lure	3	Tools	2-Back	26	80	25	0	0	100	1	39	332156	2	14	59	330117	-1	331347	1	1230	3	3	2039	53	332170	-54	0										5						30												
WM080112	133019_fnca	1	1	1	-270386550	1	75.030	75.030	2.0.10.147	2.0.10.242	2.0.10.242	1.0.0.439	7	234	2	3	Verdana	1	80	0	0	0	WM Stimuli\	0.9	1081.55555555556	0.7	1051.42857142857	0.9	987.111111111111	1	650	1	974.5	1	651.2	0.9	1029.33333333333	1	576.3	12	531422	3	531411	27	39	531449	-999999	531425	0	8	TrialsPROC	TO_004_TOOL4_BA.png	1	2	31	SessionSelectionList														lure	3	Tools	2-Back	27	80	25	0	1	100	1	39	334715	2	14	59	332676	-1	0	0	0	""	3	2039	53	334729	-54	0										6						31												
WM080112	133019_fnca	1	1	1	-270386550	1	75.030	75.030	2.0.10.147	2.0.10.242	2.0.10.242	1.0.0.439	7	234	2	3	Verdana	1	80	0	0	0	WM Stimuli\	0.9	1081.55555555556	0.7	1051.42857142857	0.9	987.111111111111	1	650	1	974.5	1	651.2	0.9	1029.33333333333	1	576.3	12	531422	3	531411	27	39	531449	-999999	531425	0	8	TrialsPROC	TO_006_TOOL6_BA.png	1	2	32	SessionSelectionList														nonlure	3	Tools	2-Back	28	80	26	0	0	100	1	39	337274	3	14	59	335235	-1	336517	1	1282	3	3	2039	53	337288	-54	0										7						32												
WM080112	133019_fnca	1	1	1	-270386550	1	75.030	75.030	2.0.10.147	2.0.10.242	2.0.10.242	1.0.0.439	7	234	2	3	Verdana	1	80	0	0	0	WM Stimuli\	0.9	1081.55555555556	0.7	1051.42857142857	0.9	987.111111111111	1	650	1	974.5	1	651.2	0.9	1029.33333333333	1	576.3	12	531422	3	531411	27	39	531449	-999999	531425	0	8	TrialsPROC	TO_005_TOOL5_BA.png	1	2	33	SessionSelectionList														nonlure	3	Tools	2-Back	29	80	27	0	0	100	2	39	339833	2	14	59	337794	-1	338754	1	960	3	3	2039	53	339847	-54	0										8						33												
WM080112	133019_fnca	1	1	1	-270386550	1	75.030	75.030	2.0.10.147	2.0.10.242	2.0.10.242	1.0.0.439	7	234	2	3	Verdana	1	80	0	0	0	WM Stimuli\	0.9	1081.55555555556	0.7	1051.42857142857	0.9	987.111111111111	1	650	1	974.5	1	651.2	0.9	1029.33333333333	1	576.3	12	531422	3	531411	27	39	531449	-999999	531425	0	8	TrialsPROC	TO_006_TOOL6_BA.png	1	2	34	SessionSelectionList														target	2	Tools	2-Back	30	80	28	0	0	100	1	39	342392	1	14	59	340353	-1	341285	1	932	2	2	2039	53	342406	-54	0										9						34												
WM080112	133019_fnca	1	1	1	-270386550	1	75.030	75.030	2.0.10.147	2.0.10.242	2.0.10.242	1.0.0.439	7	234	2	3	Verdana	1	80	0	0	0	WM Stimuli\	0.9	1081.55555555556	0.7	1051.42857142857	0.9	987.111111111111	1	650	1	974.5	1	651.2	0.9	1029.33333333333	1	576.3	12	531422	3	531411	27	39	531449	-999999	531425	0	8	TrialsPROC	TO_003_TOOL3_BA.png	1	2	35	SessionSelectionList														nonlure	3	Tools	2-Back	31	80	29	0	0	100	1	39	344951	3	14	59	342912	-1	344375	1	1463	3	3	2039	53	344965	-54	0										10						35												
WM080112	133019_fnca	1	1	1	-270386550	1	75.030	75.030	2.0.10.147	2.0.10.242	2.0.10.242	1.0.0.439	7	234	2	3	Verdana	1	80	0	0	0	WM Stimuli\	0.9	1081.55555555556	0.7	1051.42857142857	0.9	987.111111111111	1	650	1	974.5	1	651.2	0.9	1029.33333333333	1	576.3	12	531422	3	531411	27	39	531449	-999999	531425	0	9	Cue0BackPROC	BP_007_BP20_BA.png	1	2	36	SessionSelectionList																																										19	345431	-20	0												36												
WM080112	133019_fnca	1	1	1	-270386550	1	75.030	75.030	2.0.10.147	2.0.10.242	2.0.10.242	1.0.0.439	7	234	2	3	Verdana	1	80	0	0	0	WM Stimuli\	0.9	1081.55555555556	0.7	1051.42857142857	0.9	987.111111111111	1	650	1	974.5	1	651.2	0.9	1029.33333333333	1	576.3	12	531422	3	531411	27	39	531449	-999999	531425	0	10	TrialsPROC	BP_007_BP20_BA.png	1	2	37	SessionSelectionList														target	2	Body	0-Back	32	80	30	0	0	91	2	39	350002	3	14	51	347963	-1	349365	0	1402	3	2	2039	53	350016	-54	0											1					37												
WM080112	133019_fnca	1	1	1	-270386550	1	75.030	75.030	2.0.10.147	2.0.10.242	2.0.10.242	1.0.0.439	7	234	2	3	Verdana	1	80	0	0	0	WM Stimuli\	0.9	1081.55555555556	0.7	1051.42857142857	0.9	987.111111111111	1	650	1	974.5	1	651.2	0.9	1029.33333333333	1	576.3	12	531422	3	531411	27	39	531449	-999999	531425	0	10	TrialsPROC	BP_011_BP4_BA.png	1	2	38	SessionSelectionList														nonlure	3	Body	0-Back	33	80	31	0	0	92	3	40	352575	1	13	72	350535	-1	351486	1	951	3	3	2040	53	352588	-54	0											2					38												
WM080112	133019_fnca	1	1	1	-270386550	1	75.030	75.030	2.0.10.147	2.0.10.242	2.0.10.242	1.0.0.439	7	234	2	3	Verdana	1	80	0	0	0	WM Stimuli\	0.9	1081.55555555556	0.7	1051.42857142857	0.9	987.111111111111	1	650	1	974.5	1	651.2	0.9	1029.33333333333	1	576.3	12	531422	3	531411	27	39	531449	-999999	531425	0	10	TrialsPROC	BP_010_BP3_BA.png	1	2	39	SessionSelectionList														nonlure	3	Body	0-Back	34	80	32	0	0	92	4	39	355147	1	14	73	353108	-1	354018	1	910	3	3	2039	53	355161	-54	0											3					39												
WM080112	133019_fnca	1	1	1	-270386550	1	75.030	75.030	2.0.10.147	2.0.10.242	2.0.10.242	1.0.0.439	7	234	2	3	Verdana	1	80	0	0	0	WM Stimuli\	0.9	1081.55555555556	0.7	1051.42857142857	0.9	987.111111111111	1	650	1	974.5	1	651.2	0.9	1029.33333333333	1	576.3	12	531422	3	531411	27	39	531449	-999999	531425	0	10	TrialsPROC	BP_008_BP21_BA.png	1	2	40	SessionSelectionList														nonlure	3	Body	0-Back	35	80	33	0	0	93	5	39	357706	2	14	59	355667	-1	356897	1	1230	3	3	2039	53	357720	-54	0											4					40												
WM080112	133019_fnca	1	1	1	-270386550	1	75.030	75.030	2.0.10.147	2.0.10.242	2.0.10.242	1.0.0.439	7	234	2	3	Verdana	1	80	0	0	0	WM Stimuli\	0.9	1081.55555555556	0.7	1051.42857142857	0.9	987.111111111111	1	650	1	974.5	1	651.2	0.9	1029.33333333333	1	576.3	12	531422	3	531411	27	39	531449	-999999	531425	0	10	TrialsPROC	BP_011_BP4_BA.png	1	2	41	SessionSelectionList														lure	3	Body	0-Back	36	80	34	0	0	87	1	39	360278	2	14	72	358239	-1	359786	0	1547	2	3	2039	53	360292	-54	0											5					41												
WM080112	133019_fnca	1	1	1	-270386550	1	75.030	75.030	2.0.10.147	2.0.10.242	2.0.10.242	1.0.0.439	7	234	2	3	Verdana	1	80	0	0	0	WM Stimuli\	0.9	1081.55555555556	0.7	1051.42857142857	0.9	987.111111111111	1	650	1	974.5	1	651.2	0.9	1029.33333333333	1	576.3	12	531422	3	531411	27	39	531449	-999999	531425	0	10	TrialsPROC	BP_009_BP22_BA.png	1	2	42	SessionSelectionList														nonlure	3	Body	0-Back	37	80	35	0	0	88	1	39	362837	3	14	59	360798	-1	361528	1	730	3	3	2039	53	362851	-54	0											6					42												
WM080112	133019_fnca	1	1	1	-270386550	1	75.030	75.030	2.0.10.147	2.0.10.242	2.0.10.242	1.0.0.439	7	234	2	3	Verdana	1	80	0	0	0	WM Stimuli\	0.9	1081.55555555556	0.7	1051.42857142857	0.9	987.111111111111	1	650	1	974.5	1	651.2	0.9	1029.33333333333	1	576.3	12	531422	3	531411	27	39	531449	-999999	531425	0	10	TrialsPROC	BP_009_BP22_BA.png	1	2	43	SessionSelectionList														lure	3	Body	0-Back	38	80	36	0	0	88	2	39	365396	3	14	59	363357	-1	364055	1	698	3	3	2039	53	365410	-54	0											7					43												
WM080112	133019_fnca	1	1	1	-270386550	1	75.030	75.030	2.0.10.147	2.0.10.242	2.0.10.242	1.0.0.439	7	234	2	3	Verdana	1	80	0	0	0	WM Stimuli\	0.9	1081.55555555556	0.7	1051.42857142857	0.9	987.111111111111	1	650	1	974.5	1	651.2	0.9	1029.33333333333	1	576.3	12	531422	3	531411	27	39	531449	-999999	531425	0	10	TrialsPROC	BP_008_BP21_BA.png	1	2	44	SessionSelectionList														lure	3	Body	0-Back	39	80	37	0	0	89	3	39	367955	2	14	59	365916	-1	367664	1	1748	3	3	2039	53	367969	-54	0											8					44												
WM080112	133019_fnca	1	1	1	-270386550	1	75.030	75.030	2.0.10.147	2.0.10.242	2.0.10.242	1.0.0.439	7	234	2	3	Verdana	1	80	0	0	0	WM Stimuli\	0.9	1081.55555555556	0.7	1051.42857142857	0.9	987.111111111111	1	650	1	974.5	1	651.2	0.9	1029.33333333333	1	576.3	12	531422	3	531411	27	39	531449	-999999	531425	0	10	TrialsPROC	BP_007_BP20_BA.png	1	2	45	SessionSelectionList														target	2	Body	0-Back	40	80	38	0	0	84	4	39	370514	1	14	59	368475	-1	369774	0	1299	3	2	2039	53	370528	-54	0											9					45												
WM080112	133019_fnca	1	1	1	-270386550	1	75.030	75.030	2.0.10.147	2.0.10.242	2.0.10.242	1.0.0.439	7	234	2	3	Verdana	1	80	0	0	0	WM Stimuli\	0.9	1081.55555555556	0.7	1051.42857142857	0.9	987.111111111111	1	650	1	974.5	1	651.2	0.9	1029.33333333333	1	576.3	12	531422	3	531411	27	39	531449	-999999	531425	0	10	TrialsPROC	BP_012_BP5_BA.png	1	2	46	SessionSelectionList														nonlure	3	Body	0-Back	41	80	39	0	0	85	5	39	373086	2	14	72	371047	-1	372140	1	1093	3	3	2039	53	373100	-54	0											10					46												
WM080112	133019_fnca	1	1	1	-270386550	1	75.030	75.030	2.0.10.147	2.0.10.242	2.0.10.242	1.0.0.439	7	234	2	3	Verdana	1	80	0	0	0	WM Stimuli\	0.9	1081.55555555556	0.7	1051.42857142857	0.9	987.111111111111	1	650	1	974.5	1	651.2	0.9	1029.33333333333	1	576.3	12	531422	3	531411	27	39	531449	-999999	531425	0	11	Fix15secPROC	""	1	2	47	SessionSelectionList																																															6	373553	-7	0							47												
WM080112	133019_fnca	1	1	1	-270386550	1	75.030	75.030	2.0.10.147	2.0.10.242	2.0.10.242	1.0.0.439	7	234	2	3	Verdana	1	80	0	0	0	WM Stimuli\	0.9	1081.55555555556	0.7	1051.42857142857	0.9	987.111111111111	1	650	1	974.5	1	651.2	0.9	1029.33333333333	1	576.3	12	531422	3	531411	27	39	531449	-999999	531425	0	12	Cue0BackPROC	PL_001_92012.png	1	2	48	SessionSelectionList																																										13	388560	-14	0												48												
WM080112	133019_fnca	1	1	1	-270386550	1	75.030	75.030	2.0.10.147	2.0.10.242	2.0.10.242	1.0.0.439	7	234	2	3	Verdana	1	80	0	0	0	WM Stimuli\	0.9	1081.55555555556	0.7	1051.42857142857	0.9	987.111111111111	1	650	1	974.5	1	651.2	0.9	1029.33333333333	1	576.3	12	531422	3	531411	27	39	531449	-999999	531425	0	13	TrialsPROC	PL_003_92016.png	1	2	49	SessionSelectionList														nonlure	3	Place	0-Back	42	80	40	0	0	86	6	39	393158	3	14	72	391119	-1	392546	1	1427	3	3	2039	53	393172	-54	0												1				49												
WM080112	133019_fnca	1	1	1	-270386550	1	75.030	75.030	2.0.10.147	2.0.10.242	2.0.10.242	1.0.0.439	7	234	2	3	Verdana	1	80	0	0	0	WM Stimuli\	0.9	1081.55555555556	0.7	1051.42857142857	0.9	987.111111111111	1	650	1	974.5	1	651.2	0.9	1029.33333333333	1	576.3	12	531422	3	531411	27	39	531449	-999999	531425	0	13	TrialsPROC	PL_003_92016.png	1	2	50	SessionSelectionList														lure	3	Place	0-Back	43	80	41	0	0	86	7	39	395730	2	14	72	393691	-1	394245	1	554	3	3	2039	53	395744	-54	0												2				50												
WM080112	133019_fnca	1	1	1	-270386550	1	75.030	75.030	2.0.10.147	2.0.10.242	2.0.10.242	1.0.0.439	7	234	2	3	Verdana	1	80	0	0	0	WM Stimuli\	0.9	1081.55555555556	0.7	1051.42857142857	0.9	987.111111111111	1	650	1	974.5	1	651.2	0.9	1029.33333333333	1	576.3	12	531422	3	531411	27	39	531449	-999999	531425	0	13	TrialsPROC	PL_006_92025.png	1	2	51	SessionSelectionList														nonlure	3	Place	0-Back	44	80	42	0	0	87	8	39	398303	2	13	73	396264	-1	397001	1	737	3	3	2039	52	398316	-53	0												3				51												
WM080112	133019_fnca	1	1	1	-270386550	1	75.030	75.030	2.0.10.147	2.0.10.242	2.0.10.242	1.0.0.439	7	234	2	3	Verdana	1	80	0	0	0	WM Stimuli\	0.9	1081.55555555556	0.7	1051.42857142857	0.9	987.111111111111	1	650	1	974.5	1	651.2	0.9	1029.33333333333	1	576.3	12	531422	3	531411	27	39	531449	-999999	531425	0	13	TrialsPROC	PL_001_92012.png	1	2	52	SessionSelectionList														target	2	Place	0-Back	45	80	43	0	0	88	1	39	400875	1	14	72	398836	-1	399480	1	644	2	2	2039	53	400889	-54	0												4				52												
WM080112	133019_fnca	1	1	1	-270386550	1	75.030	75.030	2.0.10.147	2.0.10.242	2.0.10.242	1.0.0.439	7	234	2	3	Verdana	1	80	0	0	0	WM Stimuli\	0.9	1081.55555555556	0.7	1051.42857142857	0.9	987.111111111111	1	650	1	974.5	1	651.2	0.9	1029.33333333333	1	576.3	12	531422	3	531411	27	39	531449	-999999	531425	0	13	TrialsPROC	PL_004_92023.png	1	2	53	SessionSelectionList														nonlure	3	Place	0-Back	46	80	44	0	0	88	1	39	403447	3	14	72	401408	-1	401876	1	468	3	3	2039	53	403461	-54	0												5				53												
WM080112	133019_fnca	1	1	1	-270386550	1	75.030	75.030	2.0.10.147	2.0.10.242	2.0.10.242	1.0.0.439	7	234	2	3	Verdana	1	80	0	0	0	WM Stimuli\	0.9	1081.55555555556	0.7	1051.42857142857	0.9	987.111111111111	1	650	1	974.5	1	651.2	0.9	1029.33333333333	1	576.3	12	531422	3	531411	27	39	531449	-999999	531425	0	13	TrialsPROC	PL_005_92024.png	1	2	54	SessionSelectionList														nonlure	3	Place	0-Back	47	80	45	0	0	88	2	40	406020	1	13	72	403980	-1	404465	1	485	3	3	2040	53	406033	-54	0												6				54												
WM080112	133019_fnca	1	1	1	-270386550	1	75.030	75.030	2.0.10.147	2.0.10.242	2.0.10.242	1.0.0.439	7	234	2	3	Verdana	1	80	0	0	0	WM Stimuli\	0.9	1081.55555555556	0.7	1051.42857142857	0.9	987.111111111111	1	650	1	974.5	1	651.2	0.9	1029.33333333333	1	576.3	12	531422	3	531411	27	39	531449	-999999	531425	0	13	TrialsPROC	PL_001_92012.png	1	2	55	SessionSelectionList														target	2	Place	0-Back	48	80	46	0	0	89	1	39	408592	1	14	73	406553	-1	407065	1	512	2	2	2039	53	408606	-54	0												7				55												
WM080112	133019_fnca	1	1	1	-270386550	1	75.030	75.030	2.0.10.147	2.0.10.242	2.0.10.242	1.0.0.439	7	234	2	3	Verdana	1	80	0	0	0	WM Stimuli\	0.9	1081.55555555556	0.7	1051.42857142857	0.9	987.111111111111	1	650	1	974.5	1	651.2	0.9	1029.33333333333	1	576.3	12	531422	3	531411	27	39	531449	-999999	531425	0	13	TrialsPROC	PL_002_92014.png	1	2	56	SessionSelectionList														nonlure	3	Place	0-Back	49	80	47	0	0	89	1	39	411164	2	14	72	409125	-1	409666	1	541	3	3	2039	53	411178	-54	0												8				56												
WM080112	133019_fnca	1	1	1	-270386550	1	75.030	75.030	2.0.10.147	2.0.10.242	2.0.10.242	1.0.0.439	7	234	2	3	Verdana	1	80	0	0	0	WM Stimuli\	0.9	1081.55555555556	0.7	1051.42857142857	0.9	987.111111111111	1	650	1	974.5	1	651.2	0.9	1029.33333333333	1	576.3	12	531422	3	531411	27	39	531449	-999999	531425	0	13	TrialsPROC	PL_004_92023.png	1	2	57	SessionSelectionList														lure	3	Place	0-Back	50	80	48	0	0	90	2	40	413737	2	13	72	411697	-1	412232	1	535	3	3	2040	53	413750	-54	0												9				57												
WM080112	133019_fnca	1	1	1	-270386550	1	75.030	75.030	2.0.10.147	2.0.10.242	2.0.10.242	1.0.0.439	7	234	2	3	Verdana	1	80	0	0	0	WM Stimuli\	0.9	1081.55555555556	0.7	1051.42857142857	0.9	987.111111111111	1	650	1	974.5	1	651.2	0.9	1029.33333333333	1	576.3	12	531422	3	531411	27	39	531449	-999999	531425	0	13	TrialsPROC	PL_006_92025.png	1	2	58	SessionSelectionList														lure	3	Place	0-Back	51	80	49	0	0	90	3	39	416309	1	14	73	414270	-1	414879	1	609	3	3	2039	53	416323	-54	0												10				58												
WM080112	133019_fnca	1	1	1	-270386550	1	75.030	75.030	2.0.10.147	2.0.10.242	2.0.10.242	1.0.0.439	7	234	2	3	Verdana	1	80	0	0	0	WM Stimuli\	0.9	1081.55555555556	0.7	1051.42857142857	0.9	987.111111111111	1	650	1	974.5	1	651.2	0.9	1029.33333333333	1	576.3	12	531422	3	531411	27	39	531449	-999999	531425	0	14	Cue2BackPROC	""	1	2	59	SessionSelectionList									5	416775	-6	0																																													59												
WM080112	133019_fnca	1	1	1	-270386550	1	75.030	75.030	2.0.10.147	2.0.10.242	2.0.10.242	1.0.0.439	7	234	2	3	Verdana	1	80	0	0	0	WM Stimuli\	0.9	1081.55555555556	0.7	1051.42857142857	0.9	987.111111111111	1	650	1	974.5	1	651.2	0.9	1029.33333333333	1	576.3	12	531422	3	531411	27	39	531449	-999999	531425	0	15	TrialsPROC	FC_010_F5.png	1	2	60	SessionSelectionList														nonlure	3	Face	2-Back	52	80	50	0	0	90	4	39	421373	3	14	64	419334	-1	420805	1	1471	3	3	2039	53	421387	-54	0													1			60												
WM080112	133019_fnca	1	1	1	-270386550	1	75.030	75.030	2.0.10.147	2.0.10.242	2.0.10.242	1.0.0.439	7	234	2	3	Verdana	1	80	0	0	0	WM Stimuli\	0.9	1081.55555555556	0.7	1051.42857142857	0.9	987.111111111111	1	650	1	974.5	1	651.2	0.9	1029.33333333333	1	576.3	12	531422	3	531411	27	39	531449	-999999	531425	0	15	TrialsPROC	FC_012_F6.png	1	2	61	SessionSelectionList														nonlure	3	Face	2-Back	53	80	51	0	0	90	5	39	423946	2	13	73	421907	-1	423849	1	1942	3	3	2039	52	423959	-53	0													2			61												
WM080112	133019_fnca	1	1	1	-270386550	1	75.030	75.030	2.0.10.147	2.0.10.242	2.0.10.242	1.0.0.439	7	234	2	3	Verdana	1	80	0	0	0	WM Stimuli\	0.9	1081.55555555556	0.7	1051.42857142857	0.9	987.111111111111	1	650	1	974.5	1	651.2	0.9	1029.33333333333	1	576.3	12	531422	3	531411	27	39	531449	-999999	531425	0	15	TrialsPROC	FC_010_F5.png	1	2	62	SessionSelectionList														target	2	Face	2-Back	54	80	52	0	0	90	1	39	426518	1	14	72	424479	-1	424915	1	436	2	2	2039	53	426532	-54	0													3			62												
WM080112	133019_fnca	1	1	1	-270386550	1	75.030	75.030	2.0.10.147	2.0.10.242	2.0.10.242	1.0.0.439	7	234	2	3	Verdana	1	80	0	0	0	WM Stimuli\	0.9	1081.55555555556	0.7	1051.42857142857	0.9	987.111111111111	1	650	1	974.5	1	651.2	0.9	1029.33333333333	1	576.3	12	531422	3	531411	27	39	531449	-999999	531425	0	15	TrialsPROC	FC_008_F4.png	1	2	63	SessionSelectionList														nonlure	3	Face	2-Back	55	80	53	0	0	90	1	39	429090	3	14	72	427051	-1	427984	1	933	3	3	2039	53	429104	-54	0													4			63												
WM080112	133019_fnca	1	1	1	-270386550	1	75.030	75.030	2.0.10.147	2.0.10.242	2.0.10.242	1.0.0.439	7	234	2	3	Verdana	1	80	0	0	0	WM Stimuli\	0.9	1081.55555555556	0.7	1051.42857142857	0.9	987.111111111111	1	650	1	974.5	1	651.2	0.9	1029.33333333333	1	576.3	12	531422	3	531411	27	39	531449	-999999	531425	0	15	TrialsPROC	FC_012_F6.png	1	2	64	SessionSelectionList														lure	3	Face	2-Back	56	80	54	0	0	90	2	40	431663	1	13	72	429623	-1	430305	1	682	3	3	2040	53	431676	-54	0													5			64												
WM080112	133019_fnca	1	1	1	-270386550	1	75.030	75.030	2.0.10.147	2.0.10.242	2.0.10.242	1.0.0.439	7	234	2	3	Verdana	1	80	0	0	0	WM Stimuli\	0.9	1081.55555555556	0.7	1051.42857142857	0.9	987.111111111111	1	650	1	974.5	1	651.2	0.9	1029.33333333333	1	576.3	12	531422	3	531411	27	39	531449	-999999	531425	0	15	TrialsPROC	FC_008_F4.png	1	2	65	SessionSelectionList														target	2	Face	2-Back	57	80	55	0	0	90	1	39	434235	2	14	73	432196	-1	432751	1	555	2	2	2039	53	434249	-54	0													6			65												
WM080112	133019_fnca	1	1	1	-270386550	1	75.030	75.030	2.0.10.147	2.0.10.242	2.0.10.242	1.0.0.439	7	234	2	3	Verdana	1	80	0	0	0	WM Stimuli\	0.9	1081.55555555556	0.7	1051.42857142857	0.9	987.111111111111	1	650	1	974.5	1	651.2	0.9	1029.33333333333	1	576.3	12	531422	3	531411	27	39	531449	-999999	531425	0	15	TrialsPROC	FC_007_M4.png	1	2	66	SessionSelectionList														nonlure	3	Face	2-Back	58	80	56	0	0	90	1	39	436807	2	14	72	434768	-1	435445	1	677	3	3	2039	53	436821	-54	0													7			66												
WM080112	133019_fnca	1	1	1	-270386550	1	75.030	75.030	2.0.10.147	2.0.10.242	2.0.10.242	1.0.0.439	7	234	2	3	Verdana	1	80	0	0	0	WM Stimuli\	0.9	1081.55555555556	0.7	1051.42857142857	0.9	987.111111111111	1	650	1	974.5	1	651.2	0.9	1029.33333333333	1	576.3	12	531422	3	531411	27	39	531449	-999999	531425	0	15	TrialsPROC	FC_007_M4.png	1	2	67	SessionSelectionList														lure	3	Face	2-Back	59	80	57	0	0	90	2	39	439379	3	14	72	437340	-1	438094	1	754	3	3	2039	53	439393	-54	0													8			67												
WM080112	133019_fnca	1	1	1	-270386550	1	75.030	75.030	2.0.10.147	2.0.10.242	2.0.10.242	1.0.0.439	7	234	2	3	Verdana	1	80	0	0	0	WM Stimuli\	0.9	1081.55555555556	0.7	1051.42857142857	0.9	987.111111111111	1	650	1	974.5	1	651.2	0.9	1029.33333333333	1	576.3	12	531422	3	531411	27	39	531449	-999999	531425	0	15	TrialsPROC	FC_009_M5.png	1	2	68	SessionSelectionList														nonlure	3	Face	2-Back	60	80	58	0	0	90	3	39	441952	2	13	73	439913	-1	441347	1	1434	3	3	2039	52	441965	-53	0													9			68												
WM080112	133019_fnca	1	1	1	-270386550	1	75.030	75.030	2.0.10.147	2.0.10.242	2.0.10.242	1.0.0.439	7	234	2	3	Verdana	1	80	0	0	0	WM Stimuli\	0.9	1081.55555555556	0.7	1051.42857142857	0.9	987.111111111111	1	650	1	974.5	1	651.2	0.9	1029.33333333333	1	576.3	12	531422	3	531411	27	39	531449	-999999	531425	0	15	TrialsPROC	FC_011_M6.png	1	2	69	SessionSelectionList														nonlure	3	Face	2-Back	61	80	59	0	0	90	1	39	444524	1	14	72	442485	-1	442977	0	492	2	3	2039	53	444538	-54	0													10			69												
WM080112	133019_fnca	1	1	1	-270386550	1	75.030	75.030	2.0.10.147	2.0.10.242	2.0.10.242	1.0.0.439	7	234	2	3	Verdana	1	80	0	0	0	WM Stimuli\	0.9	1081.55555555556	0.7	1051.42857142857	0.9	987.111111111111	1	650	1	974.5	1	651.2	0.9	1029.33333333333	1	576.3	12	531422	3	531411	27	39	531449	-999999	531425	0	16	Fix15secPROC	""	1	2	70	SessionSelectionList																																															6	444991	-7	0							70												
WM080112	133019_fnca	1	1	1	-270386550	1	75.030	75.030	2.0.10.147	2.0.10.242	2.0.10.242	1.0.0.439	7	234	2	3	Verdana	1	80	0	0	0	WM Stimuli\	0.9	1081.55555555556	0.7	1051.42857142857	0.9	987.111111111111	1	650	1	974.5	1	651.2	0.9	1029.33333333333	1	576.3	12	531422	3	531411	27	39	531449	-999999	531425	0	17	Cue0BackPROC	TO_007_TOOL7_BA.png	1	2	71	SessionSelectionList																																										26	460011	-27	0												71												
WM080112	133019_fnca	1	1	1	-270386550	1	75.030	75.030	2.0.10.147	2.0.10.242	2.0.10.242	1.0.0.439	7	234	2	3	Verdana	1	80	0	0	0	WM Stimuli\	0.9	1081.55555555556	0.7	1051.42857142857	0.9	987.111111111111	1	650	1	974.5	1	651.2	0.9	1029.33333333333	1	576.3	12	531422	3	531411	27	39	531449	-999999	531425	0	18	TrialsPROC	TO_010_TOOL10_BA.png	1	2	72	SessionSelectionList														nonlure	3	Tools	0-Back	62	80	60	0	0	90	1	39	464596	1	14	72	462557	-1	463304	1	747	3	3	2039	53	464610	-54	0														1		72												
WM080112	133019_fnca	1	1	1	-270386550	1	75.030	75.030	2.0.10.147	2.0.10.242	2.0.10.242	1.0.0.439	7	234	2	3	Verdana	1	80	0	0	0	WM Stimuli\	0.9	1081.55555555556	0.7	1051.42857142857	0.9	987.111111111111	1	650	1	974.5	1	651.2	0.9	1029.33333333333	1	576.3	12	531422	3	531411	27	39	531449	-999999	531425	0	18	TrialsPROC	TO_009_TOOL9_BA.png	1	2	73	SessionSelectionList														nonlure	3	Tools	0-Back	63	80	61	0	0	91	2	40	467182	1	13	85	465142	-1	465612	1	470	3	3	2040	53	467195	-54	0														2		73												
WM080112	133019_fnca	1	1	1	-270386550	1	75.030	75.030	2.0.10.147	2.0.10.242	2.0.10.242	1.0.0.439	7	234	2	3	Verdana	1	80	0	0	0	WM Stimuli\	0.9	1081.55555555556	0.7	1051.42857142857	0.9	987.111111111111	1	650	1	974.5	1	651.2	0.9	1029.33333333333	1	576.3	12	531422	3	531411	27	39	531449	-999999	531425	0	18	TrialsPROC	TO_009_TOOL9_BA.png	1	2	74	SessionSelectionList														lure	3	Tools	0-Back	64	80	62	0	0	91	3	40	469741	1	13	59	467701	-1	468155	1	454	3	3	2040	53	469754	-54	0														3		74												
WM080112	133019_fnca	1	1	1	-270386550	1	75.030	75.030	2.0.10.147	2.0.10.242	2.0.10.242	1.0.0.439	7	234	2	3	Verdana	1	80	0	0	0	WM Stimuli\	0.9	1081.55555555556	0.7	1051.42857142857	0.9	987.111111111111	1	650	1	974.5	1	651.2	0.9	1029.33333333333	1	576.3	12	531422	3	531411	27	39	531449	-999999	531425	0	18	TrialsPROC	TO_008_TOOL8_BA.png	1	2	75	SessionSelectionList														nonlure	3	Tools	0-Back	65	80	63	0	0	91	4	39	472326	2	14	86	470287	-1	470737	1	450	3	3	2039	53	472340	-54	0														4		75												
WM080112	133019_fnca	1	1	1	-270386550	1	75.030	75.030	2.0.10.147	2.0.10.242	2.0.10.242	1.0.0.439	7	234	2	3	Verdana	1	80	0	0	0	WM Stimuli\	0.9	1081.55555555556	0.7	1051.42857142857	0.9	987.111111111111	1	650	1	974.5	1	651.2	0.9	1029.33333333333	1	576.3	12	531422	3	531411	27	39	531449	-999999	531425	0	18	TrialsPROC	TO_011_TOOL11_BA.png	1	2	76	SessionSelectionList														nonlure	3	Tools	0-Back	66	80	64	0	0	91	5	39	474912	1	13	86	472873	-1	473306	1	433	3	3	2039	52	474925	-53	0														5		76												
WM080112	133019_fnca	1	1	1	-270386550	1	75.030	75.030	2.0.10.147	2.0.10.242	2.0.10.242	1.0.0.439	7	234	2	3	Verdana	1	80	0	0	0	WM Stimuli\	0.9	1081.55555555556	0.7	1051.42857142857	0.9	987.111111111111	1	650	1	974.5	1	651.2	0.9	1029.33333333333	1	576.3	12	531422	3	531411	27	39	531449	-999999	531425	0	18	TrialsPROC	TO_012_TOOL12_BA.png	1	2	77	SessionSelectionList														nonlure	3	Tools	0-Back	67	80	65	0	0	92	6	39	477497	3	14	85	475458	-1	476053	1	595	3	3	2039	53	477511	-54	0														6		77												
WM080112	133019_fnca	1	1	1	-270386550	1	75.030	75.030	2.0.10.147	2.0.10.242	2.0.10.242	1.0.0.439	7	234	2	3	Verdana	1	80	0	0	0	WM Stimuli\	0.9	1081.55555555556	0.7	1051.42857142857	0.9	987.111111111111	1	650	1	974.5	1	651.2	0.9	1029.33333333333	1	576.3	12	531422	3	531411	27	39	531449	-999999	531425	0	18	TrialsPROC	TO_010_TOOL10_BA.png	1	2	78	SessionSelectionList														lure	3	Tools	0-Back	68	80	66	0	0	92	7	39	480056	3	14	59	478017	-1	478711	1	694	3	3	2039	53	480070	-54	0														7		78												
WM080112	133019_fnca	1	1	1	-270386550	1	75.030	75.030	2.0.10.147	2.0.10.242	2.0.10.242	1.0.0.439	7	234	2	3	Verdana	1	80	0	0	0	WM Stimuli\	0.9	1081.55555555556	0.7	1051.42857142857	0.9	987.111111111111	1	650	1	974.5	1	651.2	0.9	1029.33333333333	1	576.3	12	531422	3	531411	27	39	531449	-999999	531425	0	18	TrialsPROC	TO_007_TOOL7_BA.png	1	2	79	SessionSelectionList														target	2	Tools	0-Back	69	80	67	0	0	92	1	39	482615	3	14	59	480576	-1	481309	1	733	2	2	2039	53	482629	-54	0														8		79												
WM080112	133019_fnca	1	1	1	-270386550	1	75.030	75.030	2.0.10.147	2.0.10.242	2.0.10.242	1.0.0.439	7	234	2	3	Verdana	1	80	0	0	0	WM Stimuli\	0.9	1081.55555555556	0.7	1051.42857142857	0.9	987.111111111111	1	650	1	974.5	1	651.2	0.9	1029.33333333333	1	576.3	12	531422	3	531411	27	39	531449	-999999	531425	0	18	TrialsPROC	TO_008_TOOL8_BA.png	1	2	80	SessionSelectionList														lure	3	Tools	0-Back	70	80	68	0	0	92	1	39	485174	2	14	59	483135	-1	483695	1	560	3	3	2039	53	485188	-54	0														9		80												
WM080112	133019_fnca	1	1	1	-270386550	1	75.030	75.030	2.0.10.147	2.0.10.242	2.0.10.242	1.0.0.439	7	234	2	3	Verdana	1	80	0	0	0	WM Stimuli\	0.9	1081.55555555556	0.7	1051.42857142857	0.9	987.111111111111	1	650	1	974.5	1	651.2	0.9	1029.33333333333	1	576.3	12	531422	3	531411	27	39	531449	-999999	531425	0	18	TrialsPROC	TO_007_TOOL7_BA.png	1	2	81	SessionSelectionList														target	2	Tools	0-Back	71	80	69	0	0	92	1	39	487733	3	14	59	485694	-1	486321	1	627	2	2	2039	53	487747	-54	0														10		81												
WM080112	133019_fnca	1	1	1	-270386550	1	75.030	75.030	2.0.10.147	2.0.10.242	2.0.10.242	1.0.0.439	7	234	2	3	Verdana	1	80	0	0	0	WM Stimuli\	0.9	1081.55555555556	0.7	1051.42857142857	0.9	987.111111111111	1	650	1	974.5	1	651.2	0.9	1029.33333333333	1	576.3	12	531422	3	531411	27	39	531449	-999999	531425	0	19	Cue2BackPROC	""	1	2	82	SessionSelectionList									6	488200	-7	0																																													82												
WM080112	133019_fnca	1	1	1	-270386550	1	75.030	75.030	2.0.10.147	2.0.10.242	2.0.10.242	1.0.0.439	7	234	2	3	Verdana	1	80	0	0	0	WM Stimuli\	0.9	1081.55555555556	0.7	1051.42857142857	0.9	987.111111111111	1	650	1	974.5	1	651.2	0.9	1029.33333333333	1	576.3	12	531422	3	531411	27	39	531449	-999999	531425	0	20	TrialsPROC	PL_007_92026.png	1	2	83	SessionSelectionList														nonlure	3	Place	2-Back	72	80	70	0	0	92	1	39	492811	2	14	78	490772	-1	492669	1	1897	3	3	2039	53	492825	-54	0															1	83												
WM080112	133019_fnca	1	1	1	-270386550	1	75.030	75.030	2.0.10.147	2.0.10.242	2.0.10.242	1.0.0.439	7	234	2	3	Verdana	1	80	0	0	0	WM Stimuli\	0.9	1081.55555555556	0.7	1051.42857142857	0.9	987.111111111111	1	650	1	974.5	1	651.2	0.9	1029.33333333333	1	576.3	12	531422	3	531411	27	39	531449	-999999	531425	0	20	TrialsPROC	PL_007_92026.png	1	2	84	SessionSelectionList														lure	3	Place	2-Back	73	80	71	0	0	92	2	39	495383	2	14	72	493344	-1	494592	1	1248	3	3	2039	53	495397	-54	0															2	84												
WM080112	133019_fnca	1	1	1	-270386550	1	75.030	75.030	2.0.10.147	2.0.10.242	2.0.10.242	1.0.0.439	7	234	2	3	Verdana	1	80	0	0	0	WM Stimuli\	0.9	1081.55555555556	0.7	1051.42857142857	0.9	987.111111111111	1	650	1	974.5	1	651.2	0.9	1029.33333333333	1	576.3	12	531422	3	531411	27	39	531449	-999999	531425	0	20	TrialsPROC	PL_010_92038.png	1	2	85	SessionSelectionList														nonlure	3	Place	2-Back	74	80	72	0	0	92	3	39	497956	1	14	73	495917	-1	496981	1	1064	3	3	2039	53	497970	-54	0															3	85												
WM080112	133019_fnca	1	1	1	-270386550	1	75.030	75.030	2.0.10.147	2.0.10.242	2.0.10.242	1.0.0.439	7	234	2	3	Verdana	1	80	0	0	0	WM Stimuli\	0.9	1081.55555555556	0.7	1051.42857142857	0.9	987.111111111111	1	650	1	974.5	1	651.2	0.9	1029.33333333333	1	576.3	12	531422	3	531411	27	39	531449	-999999	531425	0	20	TrialsPROC	PL_009_92037.png	1	2	86	SessionSelectionList														nonlure	3	Place	2-Back	75	80	73	0	0	92	4	39	500528	1	14	72	498489	-1	499190	1	701	3	3	2039	53	500542	-54	0															4	86												
WM080112	133019_fnca	1	1	1	-270386550	1	75.030	75.030	2.0.10.147	2.0.10.242	2.0.10.242	1.0.0.439	7	234	2	3	Verdana	1	80	0	0	0	WM Stimuli\	0.9	1081.55555555556	0.7	1051.42857142857	0.9	987.111111111111	1	650	1	974.5	1	651.2	0.9	1029.33333333333	1	576.3	12	531422	3	531411	27	39	531449	-999999	531425	0	20	TrialsPROC	PL_010_92038.png	1	2	87	SessionSelectionList														target	2	Place	2-Back	76	80	74	0	0	92	1	39	503100	2	14	72	501061	-1	501690	1	629	2	2	2039	53	503114	-54	0															5	87												
WM080112	133019_fnca	1	1	1	-270386550	1	75.030	75.030	2.0.10.147	2.0.10.242	2.0.10.242	1.0.0.439	7	234	2	3	Verdana	1	80	0	0	0	WM Stimuli\	0.9	1081.55555555556	0.7	1051.42857142857	0.9	987.111111111111	1	650	1	974.5	1	651.2	0.9	1029.33333333333	1	576.3	12	531422	3	531411	27	39	531449	-999999	531425	0	20	TrialsPROC	PL_009_92037.png	1	2	88	SessionSelectionList														target	2	Place	2-Back	77	80	75	0	0	92	2	40	505673	1	13	72	503633	-1	504130	1	497	2	2	2040	53	505686	-54	0															6	88												
WM080112	133019_fnca	1	1	1	-270386550	1	75.030	75.030	2.0.10.147	2.0.10.242	2.0.10.242	1.0.0.439	7	234	2	3	Verdana	1	80	0	0	0	WM Stimuli\	0.9	1081.55555555556	0.7	1051.42857142857	0.9	987.111111111111	1	650	1	974.5	1	651.2	0.9	1029.33333333333	1	576.3	12	531422	3	531411	27	39	531449	-999999	531425	0	20	TrialsPROC	PL_008_92033.png	1	2	89	SessionSelectionList														nonlure	3	Place	2-Back	78	80	76	0	0	92	1	39	508245	1	14	73	506206	-1	507159	1	953	3	3	2039	53	508259	-54	0															7	89												
WM080112	133019_fnca	1	1	1	-270386550	1	75.030	75.030	2.0.10.147	2.0.10.242	2.0.10.242	1.0.0.439	7	234	2	3	Verdana	1	80	0	0	0	WM Stimuli\	0.9	1081.55555555556	0.7	1051.42857142857	0.9	987.111111111111	1	650	1	974.5	1	651.2	0.9	1029.33333333333	1	576.3	12	531422	3	531411	27	39	531449	-999999	531425	0	20	TrialsPROC	PL_012_92047.png	1	2	90	SessionSelectionList														nonlure	3	Place	2-Back	79	80	77	0	0	92	2	39	510817	2	14	72	508778	-1	509590	1	812	3	3	2039	53	510831	-54	0															8	90												
WM080112	133019_fnca	1	1	1	-270386550	1	75.030	75.030	2.0.10.147	2.0.10.242	2.0.10.242	1.0.0.439	7	234	2	3	Verdana	1	80	0	0	0	WM Stimuli\	0.9	1081.55555555556	0.7	1051.42857142857	0.9	987.111111111111	1	650	1	974.5	1	651.2	0.9	1029.33333333333	1	576.3	12	531422	3	531411	27	39	531449	-999999	531425	0	20	TrialsPROC	PL_012_92047.png	1	2	91	SessionSelectionList														lure	3	Place	2-Back	80	80	78	0	0	92	3	40	513390	1	13	72	511350	-1	512407	1	1057	3	3	2040	53	513403	-54	0															9	91												
WM080112	133019_fnca	1	1	1	-270386550	1	75.030	75.030	2.0.10.147	2.0.10.242	2.0.10.242	1.0.0.439	7	234	2	3	Verdana	1	80	0	0	0	WM Stimuli\	0.9	1081.55555555556	0.7	1051.42857142857	0.9	987.111111111111	1	650	1	974.5	1	651.2	0.9	1029.33333333333	1	576.3	12	531422	3	531411	27	39	531449	-999999	531425	0	20	TrialsPROC	PL_011_92044.png	1	2	92	SessionSelectionList														nonlure	3	Place	2-Back	80	80	79	0	0	92	4	38	515948	3	14	60	513910	-1	514797	1	887	3	3	2038	52	515962	-53	0															10	92												
WM080112	133019_fnca	1	1	1	-270386550	1	75.030	75.030	2.0.10.147	2.0.10.242	2.0.10.242	1.0.0.439	7	234	2	3	Verdana	1	80	0	0	0	WM Stimuli\	0.9	1081.55555555556	0.7	1051.42857142857	0.9	987.111111111111	1	650	1	974.5	1	651.2	0.9	1029.33333333333	1	576.3	12	531422	3	531411	27	39	531449	-999999	531425	0	21	Fix15secPROC	""	1	2	93	SessionSelectionList																																															5	516415	-6	0							93												
