ExperimentName	HCPID	RunNumber	Subject	Session	RandomSeed	Group	Laptop.RefreshRate	ScannerD2.RefreshRate	StudioVersion	RuntimeVersion	RuntimeVersionExpected	ExperimentVersion	triggercode	Allowed	Target	Nontarget	FontStyle	RunTrialNumber[Session]	TrialsPerRun[Session]	TotalRespGreater200[Session]	ConsecRTLess200[Session]	ConsecNonResp[Session]	StimuliDir	ACC_2_Back_Body	Avg_RT_For_Correct_Trials_2_Back_Body	ACC_0_Back_Body	Avg_RT_For_Correct_Trials_0_Back_Body	ACC_2_Back_Face	Avg_RT_For_Correct_Trials_2_Back_Face	ACC_0_Back_Face	Avg_RT_For_Correct_Trials_0_Back_Face	ACC_2_Back_Place	Avg_RT_For_Correct_Trials_2_Back_Place	ACC_0_Back_Place	Avg_RT_For_Correct_Trials_0_Back_Place	ACC_2_Back_Tools	Avg_RT_For_Correct_Trials_2_Back_Tools	ACC_0_Back_Tools	Avg_RT_For_Correct_Trials_0_Back_Tools	ExpInstrucFeelFreeToRest.OnsetDelay	ExpInstrucFeelFreeToRest.OnsetTime	ExpInstrucFeelFreeToRest.DurationError	ExpInstrucFeelFreeToRest.StartTime	ExpInstrucFeelFreeToRest.OnsetToOnsetTime	FeelFreeToRest.OnsetDelay	FeelFreeToRest.OnsetTime	FeelFreeToRest.DurationError	FeelFreeToRest.StartTime	FeelFreeToRest.OnsetToOnsetTime	SessionSelectionList	Procedure[Block]	Stimulus[Block]	RunNumberFilterValue	SessionSelectionList.Cycle	SessionSelectionList.Sample	Running[Block]	IntroButtonMap.OnsetDelay	IntroButtonMap.OnsetTime	IntroButtonMap.DurationError	IntroButtonMap.OnsetToOnsetTime	GetReady.OnsetDelay	GetReady.OnsetTime	GetReady.DurationError	GetReady.OnsetToOnsetTime	Cue2Back.OnsetDelay	Cue2Back.OnsetTime	Cue2Back.DurationError	Cue2Back.OnsetToOnsetTime	Run1Block1	TargetType	CorrectResponse	StimType	BlockType	RunTrialNumber[Block]	TrialsPerRun[Block]	TotalRespGreater200[Block]	ConsecRTLess200[Block]	ConsecNonResp[Block]	ControlAcc	ConsecSameResp	ExperimenterWindow.OnsetDelay	ExperimenterWindow.OnsetTime	ExperimenterWindow.DurationError	ExperimenterWindow.OnsetToOnsetTime	Stim.OnsetDelay	Stim.OnsetTime	Stim.DurationError	Stim.RTTime	Stim.ACC	Stim.RT	Stim.RESP	Stim.CRESP	Stim.OnsetToOnsetTime	Fix.OnsetDelay	Fix.OnsetTime	Fix.DurationError	Fix.OnsetToOnsetTime	CueTarget.OnsetDelay	CueTarget.OnsetTime	CueTarget.DurationError	CueTarget.OnsetToOnsetTime	Run1Block2	Fix15sec.OnsetDelay	Fix15sec.OnsetTime	Fix15sec.DurationError	Fix15sec.OnsetToOnsetTime	Run1Block3	Run1Block4	Run1Block5	Run1Block6	Run1Block7	Run1Block8	Block	Procedure[Trial]	Stimulus[Trial]	ReadyList	Running[Trial]	ReadyList.Cycle	ReadyList.Sample	SyncSlide.OnsetDelay	SyncSlide.OnsetTime	SyncSlide.DurationError	SyncSlide.FinishTime	SyncSlide.OnsetToOnsetTime	Trial
WM080112	122620_fnca	1	1	1	-504889951	1	75.031	75.030	2.0.10.147	2.0.10.242	2.0.10.242	1.0.0.439	7	234	2	3	Verdana	1	80	0	0	0	WM Stimuli\	0.8	993.625	0.9	835	0.8	1004.375	1	789.6	0.9	1209.88888888889	0.8	792.125	0.9	1006	1	795	13	595365	2	595353	27	40	595392	-999999	595368	0	1	TRSyncPROC	""	1	2	1	SessionSelectionList	118	20809	-999999	0	32	288635	-999999	0																																																	1	InitialTR	4	1	ReadyList	1	1	17	301949	-18	303931	0	1
WM080112	122620_fnca	1	1	1	-504889951	1	75.031	75.030	2.0.10.147	2.0.10.242	2.0.10.242	1.0.0.439	7	234	2	3	Verdana	1	80	0	0	0	WM Stimuli\	0.8	993.625	0.9	835	0.8	1004.375	1	789.6	0.9	1209.88888888889	0.8	792.125	0.9	1006	1	795	13	595365	2	595353	27	40	595392	-999999	595368	0	1	TRSyncPROC	""	1	2	1	SessionSelectionList	118	20809	-999999	0	32	288635	-999999	0																																																	1	InitialTR	3	2	ReadyList	1	2	17	303949	-18	305931	0	2
WM080112	122620_fnca	1	1	1	-504889951	1	75.031	75.030	2.0.10.147	2.0.10.242	2.0.10.242	1.0.0.439	7	234	2	3	Verdana	1	80	0	0	0	WM Stimuli\	0.8	993.625	0.9	835	0.8	1004.375	1	789.6	0.9	1209.88888888889	0.8	792.125	0.9	1006	1	795	13	595365	2	595353	27	40	595392	-999999	595368	0	1	TRSyncPROC	""	1	2	1	SessionSelectionList	118	20809	-999999	0	32	288635	-999999	0																																																	1	InitialTR	2	3	ReadyList	1	3	16	305948	-17	307931	0	3
WM080112	122620_fnca	1	1	1	-504889951	1	75.031	75.030	2.0.10.147	2.0.10.242	2.0.10.242	1.0.0.439	7	234	2	3	Verdana	1	80	0	0	0	WM Stimuli\	0.8	993.625	0.9	835	0.8	1004.375	1	789.6	0.9	1209.88888888889	0.8	792.125	0.9	1006	1	795	13	595365	2	595353	27	40	595392	-999999	595368	0	1	TRSyncPROC	""	1	2	1	SessionSelectionList	118	20809	-999999	0	32	288635	-999999	0																																																	1	InitialTR	1	4	ReadyList	1	4	15	307947	-16	309931	0	4
WM080112	122620_fnca	1	1	1	-504889951	1	75.031	75.030	2.0.10.147	2.0.10.242	2.0.10.242	1.0.0.439	7	234	2	3	Verdana	1	80	0	0	0	WM Stimuli\	0.8	993.625	0.9	835	0.8	1004.375	1	789.6	0.9	1209.88888888889	0.8	792.125	0.9	1006	1	795	13	595365	2	595353	27	40	595392	-999999	595368	0	2	Cue2BackPROC	""	1	2	2	SessionSelectionList									14	309946	-15	0																																													2												
WM080112	122620_fnca	1	1	1	-504889951	1	75.031	75.030	2.0.10.147	2.0.10.242	2.0.10.242	1.0.0.439	7	234	2	3	Verdana	1	80	0	0	0	WM Stimuli\	0.8	993.625	0.9	835	0.8	1004.375	1	789.6	0.9	1209.88888888889	0.8	792.125	0.9	1006	1	795	13	595365	2	595353	27	40	595392	-999999	595368	0	3	TrialsPROC	BP_002_BP10_BA.png	1	2	3	SessionSelectionList													1	nonlure	3	Body	2-Back	2	80	1	0	0	0	1	53	314558	3	13	73	312505	-1	313388	1	883	3	3	2053	66	314571	-67	0																3												
WM080112	122620_fnca	1	1	1	-504889951	1	75.031	75.030	2.0.10.147	2.0.10.242	2.0.10.242	1.0.0.439	7	234	2	3	Verdana	1	80	0	0	0	WM Stimuli\	0.8	993.625	0.9	835	0.8	1004.375	1	789.6	0.9	1209.88888888889	0.8	792.125	0.9	1006	1	795	13	595365	2	595353	27	40	595392	-999999	595368	0	3	TrialsPROC	BP_001_BP1_BA.png	1	2	4	SessionSelectionList													2	nonlure	3	Body	2-Back	3	80	2	0	0	0	2	38	317103	3	14	60	315065	-1	316114	1	1049	3	3	2038	52	317117	-53	0																4												
WM080112	122620_fnca	1	1	1	-504889951	1	75.031	75.030	2.0.10.147	2.0.10.242	2.0.10.242	1.0.0.439	7	234	2	3	Verdana	1	80	0	0	0	WM Stimuli\	0.8	993.625	0.9	835	0.8	1004.375	1	789.6	0.9	1209.88888888889	0.8	792.125	0.9	1006	1	795	13	595365	2	595353	27	40	595392	-999999	595368	0	3	TrialsPROC	BP_006_BP2_BA.png	1	2	5	SessionSelectionList													3	nonlure	3	Body	2-Back	4	80	3	0	0	0	3	39	319662	3	14	58	317623	-1	319058	1	1435	3	3	2039	53	319676	-54	0																5												
WM080112	122620_fnca	1	1	1	-504889951	1	75.031	75.030	2.0.10.147	2.0.10.242	2.0.10.242	1.0.0.439	7	234	2	3	Verdana	1	80	0	0	0	WM Stimuli\	0.8	993.625	0.9	835	0.8	1004.375	1	789.6	0.9	1209.88888888889	0.8	792.125	0.9	1006	1	795	13	595365	2	595353	27	40	595392	-999999	595368	0	3	TrialsPROC	BP_001_BP1_BA.png	1	2	6	SessionSelectionList													4	target	2	Body	2-Back	5	80	3	0	1	0	3	40	322235	1	13	72	320195	-1	0	0	0	""	2	2040	53	322248	-54	0																6												
WM080112	122620_fnca	1	1	1	-504889951	1	75.031	75.030	2.0.10.147	2.0.10.242	2.0.10.242	1.0.0.439	7	234	2	3	Verdana	1	80	0	0	0	WM Stimuli\	0.8	993.625	0.9	835	0.8	1004.375	1	789.6	0.9	1209.88888888889	0.8	792.125	0.9	1006	1	795	13	595365	2	595353	27	40	595392	-999999	595368	0	3	TrialsPROC	BP_005_BP19_BA.png	1	2	7	SessionSelectionList													5	nonlure	3	Body	2-Back	6	80	4	0	0	0	1	39	324807	1	14	73	322768	-1	323861	1	1093	3	3	2039	53	324821	-54	0																7												
WM080112	122620_fnca	1	1	1	-504889951	1	75.031	75.030	2.0.10.147	2.0.10.242	2.0.10.242	1.0.0.439	7	234	2	3	Verdana	1	80	0	0	0	WM Stimuli\	0.8	993.625	0.9	835	0.8	1004.375	1	789.6	0.9	1209.88888888889	0.8	792.125	0.9	1006	1	795	13	595365	2	595353	27	40	595392	-999999	595368	0	3	TrialsPROC	BP_003_BP16_BA.png	1	2	8	SessionSelectionList													6	nonlure	3	Body	2-Back	7	80	5	0	0	0	2	39	327366	1	14	59	325327	-1	325981	1	654	3	3	2039	53	327380	-54	0																8												
WM080112	122620_fnca	1	1	1	-504889951	1	75.031	75.030	2.0.10.147	2.0.10.242	2.0.10.242	1.0.0.439	7	234	2	3	Verdana	1	80	0	0	0	WM Stimuli\	0.8	993.625	0.9	835	0.8	1004.375	1	789.6	0.9	1209.88888888889	0.8	792.125	0.9	1006	1	795	13	595365	2	595353	27	40	595392	-999999	595368	0	3	TrialsPROC	BP_006_BP2_BA.png	1	2	9	SessionSelectionList													7	lure	3	Body	2-Back	8	80	6	0	0	0	3	39	329925	1	14	59	327886	-1	329148	1	1262	3	3	2039	53	329939	-54	0																9												
WM080112	122620_fnca	1	1	1	-504889951	1	75.031	75.030	2.0.10.147	2.0.10.242	2.0.10.242	1.0.0.439	7	234	2	3	Verdana	1	80	0	0	0	WM Stimuli\	0.8	993.625	0.9	835	0.8	1004.375	1	789.6	0.9	1209.88888888889	0.8	792.125	0.9	1006	1	795	13	595365	2	595353	27	40	595392	-999999	595368	0	3	TrialsPROC	BP_004_BP18_BA.png	1	2	10	SessionSelectionList													8	nonlure	3	Body	2-Back	9	80	7	0	0	0	4	39	332484	1	13	59	330445	-1	331330	1	885	3	3	2039	52	332497	-53	0																10												
WM080112	122620_fnca	1	1	1	-504889951	1	75.031	75.030	2.0.10.147	2.0.10.242	2.0.10.242	1.0.0.439	7	234	2	3	Verdana	1	80	0	0	0	WM Stimuli\	0.8	993.625	0.9	835	0.8	1004.375	1	789.6	0.9	1209.88888888889	0.8	792.125	0.9	1006	1	795	13	595365	2	595353	27	40	595392	-999999	595368	0	3	TrialsPROC	BP_005_BP19_BA.png	1	2	11	SessionSelectionList													9	lure	3	Body	2-Back	10	80	8	0	0	0	5	39	335043	1	13	59	333004	-1	333692	1	688	3	3	2039	52	335056	-53	0																11												
WM080112	122620_fnca	1	1	1	-504889951	1	75.031	75.030	2.0.10.147	2.0.10.242	2.0.10.242	1.0.0.439	7	234	2	3	Verdana	1	80	0	0	0	WM Stimuli\	0.8	993.625	0.9	835	0.8	1004.375	1	789.6	0.9	1209.88888888889	0.8	792.125	0.9	1006	1	795	13	595365	2	595353	27	40	595392	-999999	595368	0	3	TrialsPROC	BP_004_BP18_BA.png	1	2	12	SessionSelectionList													10	target	2	Body	2-Back	11	80	9	0	0	0	6	39	337602	1	13	59	335563	-1	336686	0	1123	3	2	2039	52	337615	-53	0																12												
WM080112	122620_fnca	1	1	1	-504889951	1	75.031	75.030	2.0.10.147	2.0.10.242	2.0.10.242	1.0.0.439	7	234	2	3	Verdana	1	80	0	0	0	WM Stimuli\	0.8	993.625	0.9	835	0.8	1004.375	1	789.6	0.9	1209.88888888889	0.8	792.125	0.9	1006	1	795	13	595365	2	595353	27	40	595392	-999999	595368	0	4	Cue0BackPROC	FC_001_M1.png	1	2	13	SessionSelectionList																																										19	338082	-20	0												13												
WM080112	122620_fnca	1	1	1	-504889951	1	75.031	75.030	2.0.10.147	2.0.10.242	2.0.10.242	1.0.0.439	7	234	2	3	Verdana	1	80	0	0	0	WM Stimuli\	0.8	993.625	0.9	835	0.8	1004.375	1	789.6	0.9	1209.88888888889	0.8	792.125	0.9	1006	1	795	13	595365	2	595353	27	40	595392	-999999	595368	0	5	TrialsPROC	FC_005_M3.png	1	2	14	SessionSelectionList														nonlure	3	Face	0-Back	12	80	10	0	0	100	7	39	342666	3	14	64	340627	-1	341487	1	860	3	3	2039	53	342680	-54	0					1											14												
WM080112	122620_fnca	1	1	1	-504889951	1	75.031	75.030	2.0.10.147	2.0.10.242	2.0.10.242	1.0.0.439	7	234	2	3	Verdana	1	80	0	0	0	WM Stimuli\	0.8	993.625	0.9	835	0.8	1004.375	1	789.6	0.9	1209.88888888889	0.8	792.125	0.9	1006	1	795	13	595365	2	595353	27	40	595392	-999999	595368	0	5	TrialsPROC	FC_001_M1.png	1	2	15	SessionSelectionList														target	2	Face	0-Back	13	80	11	0	0	100	1	40	345239	1	13	72	343199	-1	343875	1	676	2	2	2040	53	345252	-54	0					2											15												
WM080112	122620_fnca	1	1	1	-504889951	1	75.031	75.030	2.0.10.147	2.0.10.242	2.0.10.242	1.0.0.439	7	234	2	3	Verdana	1	80	0	0	0	WM Stimuli\	0.8	993.625	0.9	835	0.8	1004.375	1	789.6	0.9	1209.88888888889	0.8	792.125	0.9	1006	1	795	13	595365	2	595353	27	40	595392	-999999	595368	0	5	TrialsPROC	FC_003_M2.png	1	2	16	SessionSelectionList														nonlure	3	Face	0-Back	14	80	12	0	0	100	1	39	347811	1	14	73	345772	-1	346714	1	942	3	3	2039	53	347825	-54	0					3											16												
WM080112	122620_fnca	1	1	1	-504889951	1	75.031	75.030	2.0.10.147	2.0.10.242	2.0.10.242	1.0.0.439	7	234	2	3	Verdana	1	80	0	0	0	WM Stimuli\	0.8	993.625	0.9	835	0.8	1004.375	1	789.6	0.9	1209.88888888889	0.8	792.125	0.9	1006	1	795	13	595365	2	595353	27	40	595392	-999999	595368	0	5	TrialsPROC	FC_004_F2.png	1	2	17	SessionSelectionList														nonlure	3	Face	0-Back	15	80	13	0	0	100	2	39	350383	3	14	72	348344	-1	349142	1	798	3	3	2039	53	350397	-54	0					4											17												
WM080112	122620_fnca	1	1	1	-504889951	1	75.031	75.030	2.0.10.147	2.0.10.242	2.0.10.242	1.0.0.439	7	234	2	3	Verdana	1	80	0	0	0	WM Stimuli\	0.8	993.625	0.9	835	0.8	1004.375	1	789.6	0.9	1209.88888888889	0.8	792.125	0.9	1006	1	795	13	595365	2	595353	27	40	595392	-999999	595368	0	5	TrialsPROC	FC_004_F2.png	1	2	18	SessionSelectionList														lure	3	Face	0-Back	16	80	14	0	0	100	3	40	352956	1	13	72	350916	-1	351884	1	968	3	3	2040	53	352969	-54	0					5											18												
WM080112	122620_fnca	1	1	1	-504889951	1	75.031	75.030	2.0.10.147	2.0.10.242	2.0.10.242	1.0.0.439	7	234	2	3	Verdana	1	80	0	0	0	WM Stimuli\	0.8	993.625	0.9	835	0.8	1004.375	1	789.6	0.9	1209.88888888889	0.8	792.125	0.9	1006	1	795	13	595365	2	595353	27	40	595392	-999999	595368	0	5	TrialsPROC	FC_001_M1.png	1	2	19	SessionSelectionList														target	2	Face	0-Back	17	80	15	0	0	100	1	39	355528	2	14	73	353489	-1	354123	1	634	2	2	2039	53	355542	-54	0					6											19												
WM080112	122620_fnca	1	1	1	-504889951	1	75.031	75.030	2.0.10.147	2.0.10.242	2.0.10.242	1.0.0.439	7	234	2	3	Verdana	1	80	0	0	0	WM Stimuli\	0.8	993.625	0.9	835	0.8	1004.375	1	789.6	0.9	1209.88888888889	0.8	792.125	0.9	1006	1	795	13	595365	2	595353	27	40	595392	-999999	595368	0	5	TrialsPROC	FC_006_F3.png	1	2	20	SessionSelectionList														nonlure	3	Face	0-Back	18	80	16	0	0	100	1	39	358100	2	14	72	356061	-1	356716	1	655	3	3	2039	53	358114	-54	0					7											20												
WM080112	122620_fnca	1	1	1	-504889951	1	75.031	75.030	2.0.10.147	2.0.10.242	2.0.10.242	1.0.0.439	7	234	2	3	Verdana	1	80	0	0	0	WM Stimuli\	0.8	993.625	0.9	835	0.8	1004.375	1	789.6	0.9	1209.88888888889	0.8	792.125	0.9	1006	1	795	13	595365	2	595353	27	40	595392	-999999	595368	0	5	TrialsPROC	FC_006_F3.png	1	2	21	SessionSelectionList														lure	3	Face	0-Back	19	80	17	0	0	100	2	39	360672	2	14	72	358633	-1	359525	1	892	3	3	2039	53	360686	-54	0					8											21												
WM080112	122620_fnca	1	1	1	-504889951	1	75.031	75.030	2.0.10.147	2.0.10.242	2.0.10.242	1.0.0.439	7	234	2	3	Verdana	1	80	0	0	0	WM Stimuli\	0.8	993.625	0.9	835	0.8	1004.375	1	789.6	0.9	1209.88888888889	0.8	792.125	0.9	1006	1	795	13	595365	2	595353	27	40	595392	-999999	595368	0	5	TrialsPROC	FC_003_M2.png	1	2	22	SessionSelectionList														lure	3	Face	0-Back	20	80	18	0	0	100	3	39	363245	2	13	73	361206	-1	362032	1	826	3	3	2039	52	363258	-53	0					9											22												
WM080112	122620_fnca	1	1	1	-504889951	1	75.031	75.030	2.0.10.147	2.0.10.242	2.0.10.242	1.0.0.439	7	234	2	3	Verdana	1	80	0	0	0	WM Stimuli\	0.8	993.625	0.9	835	0.8	1004.375	1	789.6	0.9	1209.88888888889	0.8	792.125	0.9	1006	1	795	13	595365	2	595353	27	40	595392	-999999	595368	0	5	TrialsPROC	FC_002_F1.png	1	2	23	SessionSelectionList														nonlure	3	Face	0-Back	21	80	19	0	0	100	4	39	365817	1	14	72	363778	-1	364423	1	645	3	3	2039	53	365831	-54	0					10											23												
WM080112	122620_fnca	1	1	1	-504889951	1	75.031	75.030	2.0.10.147	2.0.10.242	2.0.10.242	1.0.0.439	7	234	2	3	Verdana	1	80	0	0	0	WM Stimuli\	0.8	993.625	0.9	835	0.8	1004.375	1	789.6	0.9	1209.88888888889	0.8	792.125	0.9	1006	1	795	13	595365	2	595353	27	40	595392	-999999	595368	0	6	Fix15secPROC	""	1	2	24	SessionSelectionList																																															6	366284	-7	0							24												
WM080112	122620_fnca	1	1	1	-504889951	1	75.031	75.030	2.0.10.147	2.0.10.242	2.0.10.242	1.0.0.439	7	234	2	3	Verdana	1	80	0	0	0	WM Stimuli\	0.8	993.625	0.9	835	0.8	1004.375	1	789.6	0.9	1209.88888888889	0.8	792.125	0.9	1006	1	795	13	595365	2	595353	27	40	595392	-999999	595368	0	7	Cue2BackPROC	""	1	2	25	SessionSelectionList									13	381291	-14	0																																													25												
WM080112	122620_fnca	1	1	1	-504889951	1	75.031	75.030	2.0.10.147	2.0.10.242	2.0.10.242	1.0.0.439	7	234	2	3	Verdana	1	80	0	0	0	WM Stimuli\	0.8	993.625	0.9	835	0.8	1004.375	1	789.6	0.9	1209.88888888889	0.8	792.125	0.9	1006	1	795	13	595365	2	595353	27	40	595392	-999999	595368	0	8	TrialsPROC	TO_001_TOOL1_BA.png	1	2	26	SessionSelectionList														nonlure	3	Tools	2-Back	22	80	20	0	0	100	5	39	385876	1	13	59	383837	-1	384700	1	863	3	3	2039	52	385889	-53	0										1						26												
WM080112	122620_fnca	1	1	1	-504889951	1	75.031	75.030	2.0.10.147	2.0.10.242	2.0.10.242	1.0.0.439	7	234	2	3	Verdana	1	80	0	0	0	WM Stimuli\	0.8	993.625	0.9	835	0.8	1004.375	1	789.6	0.9	1209.88888888889	0.8	792.125	0.9	1006	1	795	13	595365	2	595353	27	40	595392	-999999	595368	0	8	TrialsPROC	TO_002_TOOL2_BA.png	1	2	27	SessionSelectionList														nonlure	3	Tools	2-Back	23	80	21	0	0	100	6	39	388435	2	13	59	386396	-1	387017	1	621	3	3	2039	52	388448	-53	0										2						27												
WM080112	122620_fnca	1	1	1	-504889951	1	75.031	75.030	2.0.10.147	2.0.10.242	2.0.10.242	1.0.0.439	7	234	2	3	Verdana	1	80	0	0	0	WM Stimuli\	0.8	993.625	0.9	835	0.8	1004.375	1	789.6	0.9	1209.88888888889	0.8	792.125	0.9	1006	1	795	13	595365	2	595353	27	40	595392	-999999	595368	0	8	TrialsPROC	TO_004_TOOL4_BA.png	1	2	28	SessionSelectionList														nonlure	3	Tools	2-Back	24	80	22	0	0	100	7	39	391007	1	14	72	388968	-1	389769	1	801	3	3	2039	53	391021	-54	0										3						28												
WM080112	122620_fnca	1	1	1	-504889951	1	75.031	75.030	2.0.10.147	2.0.10.242	2.0.10.242	1.0.0.439	7	234	2	3	Verdana	1	80	0	0	0	WM Stimuli\	0.8	993.625	0.9	835	0.8	1004.375	1	789.6	0.9	1209.88888888889	0.8	792.125	0.9	1006	1	795	13	595365	2	595353	27	40	595392	-999999	595368	0	8	TrialsPROC	TO_002_TOOL2_BA.png	1	2	29	SessionSelectionList														target	2	Tools	2-Back	25	80	23	0	0	100	1	39	393566	2	14	59	391527	-1	392709	1	1182	2	2	2039	53	393580	-54	0										4						29												
WM080112	122620_fnca	1	1	1	-504889951	1	75.031	75.030	2.0.10.147	2.0.10.242	2.0.10.242	1.0.0.439	7	234	2	3	Verdana	1	80	0	0	0	WM Stimuli\	0.8	993.625	0.9	835	0.8	1004.375	1	789.6	0.9	1209.88888888889	0.8	792.125	0.9	1006	1	795	13	595365	2	595353	27	40	595392	-999999	595368	0	8	TrialsPROC	TO_001_TOOL1_BA.png	1	2	30	SessionSelectionList														lure	3	Tools	2-Back	26	80	24	0	0	100	1	39	396125	1	14	59	394086	-1	395454	1	1368	3	3	2039	53	396139	-54	0										5						30												
WM080112	122620_fnca	1	1	1	-504889951	1	75.031	75.030	2.0.10.147	2.0.10.242	2.0.10.242	1.0.0.439	7	234	2	3	Verdana	1	80	0	0	0	WM Stimuli\	0.8	993.625	0.9	835	0.8	1004.375	1	789.6	0.9	1209.88888888889	0.8	792.125	0.9	1006	1	795	13	595365	2	595353	27	40	595392	-999999	595368	0	8	TrialsPROC	TO_004_TOOL4_BA.png	1	2	31	SessionSelectionList														lure	3	Tools	2-Back	27	80	25	0	0	100	1	39	398684	2	14	59	396645	-1	397503	0	858	2	3	2039	53	398698	-54	0										6						31												
WM080112	122620_fnca	1	1	1	-504889951	1	75.031	75.030	2.0.10.147	2.0.10.242	2.0.10.242	1.0.0.439	7	234	2	3	Verdana	1	80	0	0	0	WM Stimuli\	0.8	993.625	0.9	835	0.8	1004.375	1	789.6	0.9	1209.88888888889	0.8	792.125	0.9	1006	1	795	13	595365	2	595353	27	40	595392	-999999	595368	0	8	TrialsPROC	TO_006_TOOL6_BA.png	1	2	32	SessionSelectionList														nonlure	3	Tools	2-Back	28	80	26	0	0	100	1	39	401243	2	14	59	399204	-1	400641	1	1437	3	3	2039	53	401257	-54	0										7						32												
WM080112	122620_fnca	1	1	1	-504889951	1	75.031	75.030	2.0.10.147	2.0.10.242	2.0.10.242	1.0.0.439	7	234	2	3	Verdana	1	80	0	0	0	WM Stimuli\	0.8	993.625	0.9	835	0.8	1004.375	1	789.6	0.9	1209.88888888889	0.8	792.125	0.9	1006	1	795	13	595365	2	595353	27	40	595392	-999999	595368	0	8	TrialsPROC	TO_005_TOOL5_BA.png	1	2	33	SessionSelectionList														nonlure	3	Tools	2-Back	29	80	27	0	0	100	2	39	403802	2	14	59	401763	-1	402749	1	986	3	3	2039	53	403816	-54	0										8						33												
WM080112	122620_fnca	1	1	1	-504889951	1	75.031	75.030	2.0.10.147	2.0.10.242	2.0.10.242	1.0.0.439	7	234	2	3	Verdana	1	80	0	0	0	WM Stimuli\	0.8	993.625	0.9	835	0.8	1004.375	1	789.6	0.9	1209.88888888889	0.8	792.125	0.9	1006	1	795	13	595365	2	595353	27	40	595392	-999999	595368	0	8	TrialsPROC	TO_006_TOOL6_BA.png	1	2	34	SessionSelectionList														target	2	Tools	2-Back	30	80	28	0	0	100	1	39	406361	1	13	59	404322	-1	405229	1	907	2	2	2039	52	406374	-53	0										9						34												
WM080112	122620_fnca	1	1	1	-504889951	1	75.031	75.030	2.0.10.147	2.0.10.242	2.0.10.242	1.0.0.439	7	234	2	3	Verdana	1	80	0	0	0	WM Stimuli\	0.8	993.625	0.9	835	0.8	1004.375	1	789.6	0.9	1209.88888888889	0.8	792.125	0.9	1006	1	795	13	595365	2	595353	27	40	595392	-999999	595368	0	8	TrialsPROC	TO_003_TOOL3_BA.png	1	2	35	SessionSelectionList														nonlure	3	Tools	2-Back	31	80	29	0	0	100	1	39	408920	1	13	59	406881	-1	407770	1	889	3	3	2039	52	408933	-53	0										10						35												
WM080112	122620_fnca	1	1	1	-504889951	1	75.031	75.030	2.0.10.147	2.0.10.242	2.0.10.242	1.0.0.439	7	234	2	3	Verdana	1	80	0	0	0	WM Stimuli\	0.8	993.625	0.9	835	0.8	1004.375	1	789.6	0.9	1209.88888888889	0.8	792.125	0.9	1006	1	795	13	595365	2	595353	27	40	595392	-999999	595368	0	9	Cue0BackPROC	BP_007_BP20_BA.png	1	2	36	SessionSelectionList																																										19	409400	-20	0												36												
WM080112	122620_fnca	1	1	1	-504889951	1	75.031	75.030	2.0.10.147	2.0.10.242	2.0.10.242	1.0.0.439	7	234	2	3	Verdana	1	80	0	0	0	WM Stimuli\	0.8	993.625	0.9	835	0.8	1004.375	1	789.6	0.9	1209.88888888889	0.8	792.125	0.9	1006	1	795	13	595365	2	595353	27	40	595392	-999999	595368	0	10	TrialsPROC	BP_007_BP20_BA.png	1	2	37	SessionSelectionList														target	2	Body	0-Back	32	80	30	0	0	100	1	39	413971	1	14	51	411932	-1	413007	1	1075	2	2	2039	53	413985	-54	0											1					37												
WM080112	122620_fnca	1	1	1	-504889951	1	75.031	75.030	2.0.10.147	2.0.10.242	2.0.10.242	1.0.0.439	7	234	2	3	Verdana	1	80	0	0	0	WM Stimuli\	0.8	993.625	0.9	835	0.8	1004.375	1	789.6	0.9	1209.88888888889	0.8	792.125	0.9	1006	1	795	13	595365	2	595353	27	40	595392	-999999	595368	0	10	TrialsPROC	BP_011_BP4_BA.png	1	2	38	SessionSelectionList														nonlure	3	Body	0-Back	33	80	31	0	0	100	1	39	416530	3	14	59	414491	-1	415185	1	694	3	3	2039	53	416544	-54	0											2					38												
WM080112	122620_fnca	1	1	1	-504889951	1	75.031	75.030	2.0.10.147	2.0.10.242	2.0.10.242	1.0.0.439	7	234	2	3	Verdana	1	80	0	0	0	WM Stimuli\	0.8	993.625	0.9	835	0.8	1004.375	1	789.6	0.9	1209.88888888889	0.8	792.125	0.9	1006	1	795	13	595365	2	595353	27	40	595392	-999999	595368	0	10	TrialsPROC	BP_010_BP3_BA.png	1	2	39	SessionSelectionList														nonlure	3	Body	0-Back	34	80	31	0	1	92	1	39	419089	3	14	59	417050	-1	0	0	0	""	3	2039	53	419103	-54	0											3					39												
WM080112	122620_fnca	1	1	1	-504889951	1	75.031	75.030	2.0.10.147	2.0.10.242	2.0.10.242	1.0.0.439	7	234	2	3	Verdana	1	80	0	0	0	WM Stimuli\	0.8	993.625	0.9	835	0.8	1004.375	1	789.6	0.9	1209.88888888889	0.8	792.125	0.9	1006	1	795	13	595365	2	595353	27	40	595392	-999999	595368	0	10	TrialsPROC	BP_008_BP21_BA.png	1	2	40	SessionSelectionList														nonlure	3	Body	0-Back	35	80	32	0	0	93	1	39	421648	3	14	59	419609	-1	420359	1	750	3	3	2039	53	421662	-54	0											4					40												
WM080112	122620_fnca	1	1	1	-504889951	1	75.031	75.030	2.0.10.147	2.0.10.242	2.0.10.242	1.0.0.439	7	234	2	3	Verdana	1	80	0	0	0	WM Stimuli\	0.8	993.625	0.9	835	0.8	1004.375	1	789.6	0.9	1209.88888888889	0.8	792.125	0.9	1006	1	795	13	595365	2	595353	27	40	595392	-999999	595368	0	10	TrialsPROC	BP_011_BP4_BA.png	1	2	41	SessionSelectionList														lure	3	Body	0-Back	36	80	33	0	0	93	2	39	424207	2	14	59	422168	-1	422948	1	780	3	3	2039	53	424221	-54	0											5					41												
WM080112	122620_fnca	1	1	1	-504889951	1	75.031	75.030	2.0.10.147	2.0.10.242	2.0.10.242	1.0.0.439	7	234	2	3	Verdana	1	80	0	0	0	WM Stimuli\	0.8	993.625	0.9	835	0.8	1004.375	1	789.6	0.9	1209.88888888889	0.8	792.125	0.9	1006	1	795	13	595365	2	595353	27	40	595392	-999999	595368	0	10	TrialsPROC	BP_009_BP22_BA.png	1	2	42	SessionSelectionList														nonlure	3	Body	0-Back	37	80	34	0	0	94	3	39	426766	2	14	59	424727	-1	425616	1	889	3	3	2039	53	426780	-54	0											6					42												
WM080112	122620_fnca	1	1	1	-504889951	1	75.031	75.030	2.0.10.147	2.0.10.242	2.0.10.242	1.0.0.439	7	234	2	3	Verdana	1	80	0	0	0	WM Stimuli\	0.8	993.625	0.9	835	0.8	1004.375	1	789.6	0.9	1209.88888888889	0.8	792.125	0.9	1006	1	795	13	595365	2	595353	27	40	595392	-999999	595368	0	10	TrialsPROC	BP_009_BP22_BA.png	1	2	43	SessionSelectionList														lure	3	Body	0-Back	38	80	35	0	0	94	4	39	429325	1	14	59	427286	-1	428131	1	845	3	3	2039	53	429339	-54	0											7					43												
WM080112	122620_fnca	1	1	1	-504889951	1	75.031	75.030	2.0.10.147	2.0.10.242	2.0.10.242	1.0.0.439	7	234	2	3	Verdana	1	80	0	0	0	WM Stimuli\	0.8	993.625	0.9	835	0.8	1004.375	1	789.6	0.9	1209.88888888889	0.8	792.125	0.9	1006	1	795	13	595365	2	595353	27	40	595392	-999999	595368	0	10	TrialsPROC	BP_008_BP21_BA.png	1	2	44	SessionSelectionList														lure	3	Body	0-Back	39	80	36	0	0	94	5	39	431884	2	14	59	429845	-1	430471	1	626	3	3	2039	53	431898	-54	0											8					44												
WM080112	122620_fnca	1	1	1	-504889951	1	75.031	75.030	2.0.10.147	2.0.10.242	2.0.10.242	1.0.0.439	7	234	2	3	Verdana	1	80	0	0	0	WM Stimuli\	0.8	993.625	0.9	835	0.8	1004.375	1	789.6	0.9	1209.88888888889	0.8	792.125	0.9	1006	1	795	13	595365	2	595353	27	40	595392	-999999	595368	0	10	TrialsPROC	BP_007_BP20_BA.png	1	2	45	SessionSelectionList														target	2	Body	0-Back	40	80	37	0	0	95	1	39	434443	1	14	59	432404	-1	433530	1	1126	2	2	2039	53	434457	-54	0											9					45												
WM080112	122620_fnca	1	1	1	-504889951	1	75.031	75.030	2.0.10.147	2.0.10.242	2.0.10.242	1.0.0.439	7	234	2	3	Verdana	1	80	0	0	0	WM Stimuli\	0.8	993.625	0.9	835	0.8	1004.375	1	789.6	0.9	1209.88888888889	0.8	792.125	0.9	1006	1	795	13	595365	2	595353	27	40	595392	-999999	595368	0	10	TrialsPROC	BP_012_BP5_BA.png	1	2	46	SessionSelectionList														nonlure	3	Body	0-Back	41	80	38	0	0	95	1	39	437015	2	14	72	434976	-1	435706	1	730	3	3	2039	53	437029	-54	0											10					46												
WM080112	122620_fnca	1	1	1	-504889951	1	75.031	75.030	2.0.10.147	2.0.10.242	2.0.10.242	1.0.0.439	7	234	2	3	Verdana	1	80	0	0	0	WM Stimuli\	0.8	993.625	0.9	835	0.8	1004.375	1	789.6	0.9	1209.88888888889	0.8	792.125	0.9	1006	1	795	13	595365	2	595353	27	40	595392	-999999	595368	0	11	Fix15secPROC	""	1	2	47	SessionSelectionList																																															6	437482	-7	0							47												
WM080112	122620_fnca	1	1	1	-504889951	1	75.031	75.030	2.0.10.147	2.0.10.242	2.0.10.242	1.0.0.439	7	234	2	3	Verdana	1	80	0	0	0	WM Stimuli\	0.8	993.625	0.9	835	0.8	1004.375	1	789.6	0.9	1209.88888888889	0.8	792.125	0.9	1006	1	795	13	595365	2	595353	27	40	595392	-999999	595368	0	12	Cue0BackPROC	PL_001_92012.png	1	2	48	SessionSelectionList																																										13	452489	-14	0												48												
WM080112	122620_fnca	1	1	1	-504889951	1	75.031	75.030	2.0.10.147	2.0.10.242	2.0.10.242	1.0.0.439	7	234	2	3	Verdana	1	80	0	0	0	WM Stimuli\	0.8	993.625	0.9	835	0.8	1004.375	1	789.6	0.9	1209.88888888889	0.8	792.125	0.9	1006	1	795	13	595365	2	595353	27	40	595392	-999999	595368	0	13	TrialsPROC	PL_003_92016.png	1	2	49	SessionSelectionList														nonlure	3	Place	0-Back	42	80	39	0	0	95	2	39	457087	2	14	72	455048	-1	455927	1	879	3	3	2039	53	457101	-54	0												1				49												
WM080112	122620_fnca	1	1	1	-504889951	1	75.031	75.030	2.0.10.147	2.0.10.242	2.0.10.242	1.0.0.439	7	234	2	3	Verdana	1	80	0	0	0	WM Stimuli\	0.8	993.625	0.9	835	0.8	1004.375	1	789.6	0.9	1209.88888888889	0.8	792.125	0.9	1006	1	795	13	595365	2	595353	27	40	595392	-999999	595368	0	13	TrialsPROC	PL_003_92016.png	1	2	50	SessionSelectionList														lure	3	Place	0-Back	43	80	40	0	0	95	3	39	459646	2	14	59	457607	-1	458456	1	849	3	3	2039	53	459660	-54	0												2				50												
WM080112	122620_fnca	1	1	1	-504889951	1	75.031	75.030	2.0.10.147	2.0.10.242	2.0.10.242	1.0.0.439	7	234	2	3	Verdana	1	80	0	0	0	WM Stimuli\	0.8	993.625	0.9	835	0.8	1004.375	1	789.6	0.9	1209.88888888889	0.8	792.125	0.9	1006	1	795	13	595365	2	595353	27	40	595392	-999999	595368	0	13	TrialsPROC	PL_006_92025.png	1	2	51	SessionSelectionList														nonlure	3	Place	0-Back	44	80	41	0	0	96	4	39	462218	2	14	72	460179	-1	460950	1	771	3	3	2039	53	462232	-54	0												3				51												
WM080112	122620_fnca	1	1	1	-504889951	1	75.031	75.030	2.0.10.147	2.0.10.242	2.0.10.242	1.0.0.439	7	234	2	3	Verdana	1	80	0	0	0	WM Stimuli\	0.8	993.625	0.9	835	0.8	1004.375	1	789.6	0.9	1209.88888888889	0.8	792.125	0.9	1006	1	795	13	595365	2	595353	27	40	595392	-999999	595368	0	13	TrialsPROC	PL_001_92012.png	1	2	52	SessionSelectionList														target	2	Place	0-Back	45	80	42	0	0	92	5	40	464791	2	13	72	462751	-1	463501	0	750	3	2	2040	53	464804	-54	0												4				52												
WM080112	122620_fnca	1	1	1	-504889951	1	75.031	75.030	2.0.10.147	2.0.10.242	2.0.10.242	1.0.0.439	7	234	2	3	Verdana	1	80	0	0	0	WM Stimuli\	0.8	993.625	0.9	835	0.8	1004.375	1	789.6	0.9	1209.88888888889	0.8	792.125	0.9	1006	1	795	13	595365	2	595353	27	40	595392	-999999	595368	0	13	TrialsPROC	PL_004_92023.png	1	2	53	SessionSelectionList														nonlure	3	Place	0-Back	46	80	43	0	0	92	6	39	467363	1	14	73	465324	-1	465989	1	665	3	3	2039	53	467377	-54	0												5				53												
WM080112	122620_fnca	1	1	1	-504889951	1	75.031	75.030	2.0.10.147	2.0.10.242	2.0.10.242	1.0.0.439	7	234	2	3	Verdana	1	80	0	0	0	WM Stimuli\	0.8	993.625	0.9	835	0.8	1004.375	1	789.6	0.9	1209.88888888889	0.8	792.125	0.9	1006	1	795	13	595365	2	595353	27	40	595392	-999999	595368	0	13	TrialsPROC	PL_005_92024.png	1	2	54	SessionSelectionList														nonlure	3	Place	0-Back	47	80	44	0	0	92	7	39	469935	3	14	72	467896	-1	468623	1	727	3	3	2039	53	469949	-54	0												6				54												
WM080112	122620_fnca	1	1	1	-504889951	1	75.031	75.030	2.0.10.147	2.0.10.242	2.0.10.242	1.0.0.439	7	234	2	3	Verdana	1	80	0	0	0	WM Stimuli\	0.8	993.625	0.9	835	0.8	1004.375	1	789.6	0.9	1209.88888888889	0.8	792.125	0.9	1006	1	795	13	595365	2	595353	27	40	595392	-999999	595368	0	13	TrialsPROC	PL_001_92012.png	1	2	55	SessionSelectionList														target	2	Place	0-Back	48	80	45	0	0	89	8	40	472508	1	13	72	470468	-1	471231	0	763	3	2	2040	53	472521	-54	0												7				55												
WM080112	122620_fnca	1	1	1	-504889951	1	75.031	75.030	2.0.10.147	2.0.10.242	2.0.10.242	1.0.0.439	7	234	2	3	Verdana	1	80	0	0	0	WM Stimuli\	0.8	993.625	0.9	835	0.8	1004.375	1	789.6	0.9	1209.88888888889	0.8	792.125	0.9	1006	1	795	13	595365	2	595353	27	40	595392	-999999	595368	0	13	TrialsPROC	PL_002_92014.png	1	2	56	SessionSelectionList														nonlure	3	Place	0-Back	49	80	46	0	0	89	9	39	475080	1	14	73	473041	-1	473908	1	867	3	3	2039	53	475094	-54	0												8				56												
WM080112	122620_fnca	1	1	1	-504889951	1	75.031	75.030	2.0.10.147	2.0.10.242	2.0.10.242	1.0.0.439	7	234	2	3	Verdana	1	80	0	0	0	WM Stimuli\	0.8	993.625	0.9	835	0.8	1004.375	1	789.6	0.9	1209.88888888889	0.8	792.125	0.9	1006	1	795	13	595365	2	595353	27	40	595392	-999999	595368	0	13	TrialsPROC	PL_004_92023.png	1	2	57	SessionSelectionList														lure	3	Place	0-Back	50	80	47	0	0	90	10	39	477652	2	14	72	475613	-1	476404	1	791	3	3	2039	53	477666	-54	0												9				57												
WM080112	122620_fnca	1	1	1	-504889951	1	75.031	75.030	2.0.10.147	2.0.10.242	2.0.10.242	1.0.0.439	7	234	2	3	Verdana	1	80	0	0	0	WM Stimuli\	0.8	993.625	0.9	835	0.8	1004.375	1	789.6	0.9	1209.88888888889	0.8	792.125	0.9	1006	1	795	13	595365	2	595353	27	40	595392	-999999	595368	0	13	TrialsPROC	PL_006_92025.png	1	2	58	SessionSelectionList														lure	3	Place	0-Back	51	80	48	0	0	90	11	39	480224	3	14	72	478185	-1	478973	1	788	3	3	2039	53	480238	-54	0												10				58												
WM080112	122620_fnca	1	1	1	-504889951	1	75.031	75.030	2.0.10.147	2.0.10.242	2.0.10.242	1.0.0.439	7	234	2	3	Verdana	1	80	0	0	0	WM Stimuli\	0.8	993.625	0.9	835	0.8	1004.375	1	789.6	0.9	1209.88888888889	0.8	792.125	0.9	1006	1	795	13	595365	2	595353	27	40	595392	-999999	595368	0	14	Cue2BackPROC	""	1	2	59	SessionSelectionList									6	480691	-7	0																																													59												
WM080112	122620_fnca	1	1	1	-504889951	1	75.031	75.030	2.0.10.147	2.0.10.242	2.0.10.242	1.0.0.439	7	234	2	3	Verdana	1	80	0	0	0	WM Stimuli\	0.8	993.625	0.9	835	0.8	1004.375	1	789.6	0.9	1209.88888888889	0.8	792.125	0.9	1006	1	795	13	595365	2	595353	27	40	595392	-999999	595368	0	15	TrialsPROC	FC_010_F5.png	1	2	60	SessionSelectionList														nonlure	3	Face	2-Back	52	80	48	0	1	90	11	39	485289	3	14	65	483250	-1	0	0	0	""	3	2039	53	485303	-54	0													1			60												
WM080112	122620_fnca	1	1	1	-504889951	1	75.031	75.030	2.0.10.147	2.0.10.242	2.0.10.242	1.0.0.439	7	234	2	3	Verdana	1	80	0	0	0	WM Stimuli\	0.8	993.625	0.9	835	0.8	1004.375	1	789.6	0.9	1209.88888888889	0.8	792.125	0.9	1006	1	795	13	595365	2	595353	27	40	595392	-999999	595368	0	15	TrialsPROC	FC_012_F6.png	1	2	61	SessionSelectionList														nonlure	3	Face	2-Back	53	80	49	0	0	90	1	39	487861	3	14	72	485822	-1	486736	1	914	3	3	2039	53	487875	-54	0													2			61												
WM080112	122620_fnca	1	1	1	-504889951	1	75.031	75.030	2.0.10.147	2.0.10.242	2.0.10.242	1.0.0.439	7	234	2	3	Verdana	1	80	0	0	0	WM Stimuli\	0.8	993.625	0.9	835	0.8	1004.375	1	789.6	0.9	1209.88888888889	0.8	792.125	0.9	1006	1	795	13	595365	2	595353	27	40	595392	-999999	595368	0	15	TrialsPROC	FC_010_F5.png	1	2	62	SessionSelectionList														target	2	Face	2-Back	54	80	50	0	0	90	1	39	490434	1	13	73	488395	-1	489202	1	807	2	2	2039	52	490447	-53	0													3			62												
WM080112	122620_fnca	1	1	1	-504889951	1	75.031	75.030	2.0.10.147	2.0.10.242	2.0.10.242	1.0.0.439	7	234	2	3	Verdana	1	80	0	0	0	WM Stimuli\	0.8	993.625	0.9	835	0.8	1004.375	1	789.6	0.9	1209.88888888889	0.8	792.125	0.9	1006	1	795	13	595365	2	595353	27	40	595392	-999999	595368	0	15	TrialsPROC	FC_008_F4.png	1	2	63	SessionSelectionList														nonlure	3	Face	2-Back	55	80	51	0	0	90	1	39	493019	2	14	85	490980	-1	491983	1	1003	3	3	2039	53	493033	-54	0													4			63												
WM080112	122620_fnca	1	1	1	-504889951	1	75.031	75.030	2.0.10.147	2.0.10.242	2.0.10.242	1.0.0.439	7	234	2	3	Verdana	1	80	0	0	0	WM Stimuli\	0.8	993.625	0.9	835	0.8	1004.375	1	789.6	0.9	1209.88888888889	0.8	792.125	0.9	1006	1	795	13	595365	2	595353	27	40	595392	-999999	595368	0	15	TrialsPROC	FC_012_F6.png	1	2	64	SessionSelectionList														lure	3	Face	2-Back	56	80	52	0	0	90	2	40	495592	2	13	72	493552	-1	494875	1	1323	3	3	2040	53	495605	-54	0													5			64												
WM080112	122620_fnca	1	1	1	-504889951	1	75.031	75.030	2.0.10.147	2.0.10.242	2.0.10.242	1.0.0.439	7	234	2	3	Verdana	1	80	0	0	0	WM Stimuli\	0.8	993.625	0.9	835	0.8	1004.375	1	789.6	0.9	1209.88888888889	0.8	792.125	0.9	1006	1	795	13	595365	2	595353	27	40	595392	-999999	595368	0	15	TrialsPROC	FC_008_F4.png	1	2	65	SessionSelectionList														target	2	Face	2-Back	57	80	53	0	0	90	3	39	498164	2	14	73	496125	-1	497456	0	1331	3	2	2039	53	498178	-54	0													6			65												
WM080112	122620_fnca	1	1	1	-504889951	1	75.031	75.030	2.0.10.147	2.0.10.242	2.0.10.242	1.0.0.439	7	234	2	3	Verdana	1	80	0	0	0	WM Stimuli\	0.8	993.625	0.9	835	0.8	1004.375	1	789.6	0.9	1209.88888888889	0.8	792.125	0.9	1006	1	795	13	595365	2	595353	27	40	595392	-999999	595368	0	15	TrialsPROC	FC_007_M4.png	1	2	66	SessionSelectionList														nonlure	3	Face	2-Back	58	80	54	0	0	90	4	40	500750	2	13	85	498710	-1	499622	1	912	3	3	2040	53	500763	-54	0													7			66												
WM080112	122620_fnca	1	1	1	-504889951	1	75.031	75.030	2.0.10.147	2.0.10.242	2.0.10.242	1.0.0.439	7	234	2	3	Verdana	1	80	0	0	0	WM Stimuli\	0.8	993.625	0.9	835	0.8	1004.375	1	789.6	0.9	1209.88888888889	0.8	792.125	0.9	1006	1	795	13	595365	2	595353	27	40	595392	-999999	595368	0	15	TrialsPROC	FC_007_M4.png	1	2	67	SessionSelectionList														lure	3	Face	2-Back	59	80	55	0	0	90	5	39	503322	1	14	73	501283	-1	502339	1	1056	3	3	2039	53	503336	-54	0													8			67												
WM080112	122620_fnca	1	1	1	-504889951	1	75.031	75.030	2.0.10.147	2.0.10.242	2.0.10.242	1.0.0.439	7	234	2	3	Verdana	1	80	0	0	0	WM Stimuli\	0.8	993.625	0.9	835	0.8	1004.375	1	789.6	0.9	1209.88888888889	0.8	792.125	0.9	1006	1	795	13	595365	2	595353	27	40	595392	-999999	595368	0	15	TrialsPROC	FC_009_M5.png	1	2	68	SessionSelectionList														nonlure	3	Face	2-Back	60	80	56	0	0	90	6	39	505907	2	14	85	503868	-1	504926	1	1058	3	3	2039	53	505921	-54	0													9			68												
WM080112	122620_fnca	1	1	1	-504889951	1	75.031	75.030	2.0.10.147	2.0.10.242	2.0.10.242	1.0.0.439	7	234	2	3	Verdana	1	80	0	0	0	WM Stimuli\	0.8	993.625	0.9	835	0.8	1004.375	1	789.6	0.9	1209.88888888889	0.8	792.125	0.9	1006	1	795	13	595365	2	595353	27	40	595392	-999999	595368	0	15	TrialsPROC	FC_011_M6.png	1	2	69	SessionSelectionList														nonlure	3	Face	2-Back	61	80	57	0	0	90	7	39	508506	3	14	99	506467	-1	507429	1	962	3	3	2039	53	508520	-54	0													10			69												
WM080112	122620_fnca	1	1	1	-504889951	1	75.031	75.030	2.0.10.147	2.0.10.242	2.0.10.242	1.0.0.439	7	234	2	3	Verdana	1	80	0	0	0	WM Stimuli\	0.8	993.625	0.9	835	0.8	1004.375	1	789.6	0.9	1209.88888888889	0.8	792.125	0.9	1006	1	795	13	595365	2	595353	27	40	595392	-999999	595368	0	16	Fix15secPROC	""	1	2	70	SessionSelectionList																																															6	508973	-7	0							70												
WM080112	122620_fnca	1	1	1	-504889951	1	75.031	75.030	2.0.10.147	2.0.10.242	2.0.10.242	1.0.0.439	7	234	2	3	Verdana	1	80	0	0	0	WM Stimuli\	0.8	993.625	0.9	835	0.8	1004.375	1	789.6	0.9	1209.88888888889	0.8	792.125	0.9	1006	1	795	13	595365	2	595353	27	40	595392	-999999	595368	0	17	Cue0BackPROC	TO_007_TOOL7_BA.png	1	2	71	SessionSelectionList																																										40	524007	-41	0												71												
WM080112	122620_fnca	1	1	1	-504889951	1	75.031	75.030	2.0.10.147	2.0.10.242	2.0.10.242	1.0.0.439	7	234	2	3	Verdana	1	80	0	0	0	WM Stimuli\	0.8	993.625	0.9	835	0.8	1004.375	1	789.6	0.9	1209.88888888889	0.8	792.125	0.9	1006	1	795	13	595365	2	595353	27	40	595392	-999999	595368	0	18	TrialsPROC	TO_010_TOOL10_BA.png	1	2	72	SessionSelectionList														nonlure	3	Tools	0-Back	62	80	58	0	0	90	8	39	528578	2	14	72	526539	-1	527502	1	963	3	3	2039	53	528592	-54	0														1		72												
WM080112	122620_fnca	1	1	1	-504889951	1	75.031	75.030	2.0.10.147	2.0.10.242	2.0.10.242	1.0.0.439	7	234	2	3	Verdana	1	80	0	0	0	WM Stimuli\	0.8	993.625	0.9	835	0.8	1004.375	1	789.6	0.9	1209.88888888889	0.8	792.125	0.9	1006	1	795	13	595365	2	595353	27	40	595392	-999999	595368	0	18	TrialsPROC	TO_009_TOOL9_BA.png	1	2	73	SessionSelectionList														nonlure	3	Tools	0-Back	63	80	59	0	0	91	9	39	531177	3	14	99	529138	-1	529785	1	647	3	3	2039	53	531191	-54	0														2		73												
WM080112	122620_fnca	1	1	1	-504889951	1	75.031	75.030	2.0.10.147	2.0.10.242	2.0.10.242	1.0.0.439	7	234	2	3	Verdana	1	80	0	0	0	WM Stimuli\	0.8	993.625	0.9	835	0.8	1004.375	1	789.6	0.9	1209.88888888889	0.8	792.125	0.9	1006	1	795	13	595365	2	595353	27	40	595392	-999999	595368	0	18	TrialsPROC	TO_009_TOOL9_BA.png	1	2	74	SessionSelectionList														lure	3	Tools	0-Back	64	80	60	0	0	91	10	39	533736	3	14	59	531697	-1	532624	1	927	3	3	2039	53	533750	-54	0														3		74												
WM080112	122620_fnca	1	1	1	-504889951	1	75.031	75.030	2.0.10.147	2.0.10.242	2.0.10.242	1.0.0.439	7	234	2	3	Verdana	1	80	0	0	0	WM Stimuli\	0.8	993.625	0.9	835	0.8	1004.375	1	789.6	0.9	1209.88888888889	0.8	792.125	0.9	1006	1	795	13	595365	2	595353	27	40	595392	-999999	595368	0	18	TrialsPROC	TO_008_TOOL8_BA.png	1	2	75	SessionSelectionList														nonlure	3	Tools	0-Back	65	80	61	0	0	91	11	39	536322	2	14	86	534283	-1	535060	1	777	3	3	2039	53	536336	-54	0														4		75												
WM080112	122620_fnca	1	1	1	-504889951	1	75.031	75.030	2.0.10.147	2.0.10.242	2.0.10.242	1.0.0.439	7	234	2	3	Verdana	1	80	0	0	0	WM Stimuli\	0.8	993.625	0.9	835	0.8	1004.375	1	789.6	0.9	1209.88888888889	0.8	792.125	0.9	1006	1	795	13	595365	2	595353	27	40	595392	-999999	595368	0	18	TrialsPROC	TO_011_TOOL11_BA.png	1	2	76	SessionSelectionList														nonlure	3	Tools	0-Back	66	80	62	0	0	91	12	40	538908	1	13	85	536868	-1	537643	1	775	3	3	2040	53	538921	-54	0														5		76												
WM080112	122620_fnca	1	1	1	-504889951	1	75.031	75.030	2.0.10.147	2.0.10.242	2.0.10.242	1.0.0.439	7	234	2	3	Verdana	1	80	0	0	0	WM Stimuli\	0.8	993.625	0.9	835	0.8	1004.375	1	789.6	0.9	1209.88888888889	0.8	792.125	0.9	1006	1	795	13	595365	2	595353	27	40	595392	-999999	595368	0	18	TrialsPROC	TO_012_TOOL12_BA.png	1	2	77	SessionSelectionList														nonlure	3	Tools	0-Back	67	80	63	0	0	92	13	39	541493	2	14	86	539454	-1	540334	1	880	3	3	2039	53	541507	-54	0														6		77												
WM080112	122620_fnca	1	1	1	-504889951	1	75.031	75.030	2.0.10.147	2.0.10.242	2.0.10.242	1.0.0.439	7	234	2	3	Verdana	1	80	0	0	0	WM Stimuli\	0.8	993.625	0.9	835	0.8	1004.375	1	789.6	0.9	1209.88888888889	0.8	792.125	0.9	1006	1	795	13	595365	2	595353	27	40	595392	-999999	595368	0	18	TrialsPROC	TO_010_TOOL10_BA.png	1	2	78	SessionSelectionList														lure	3	Tools	0-Back	68	80	64	0	0	92	14	39	544052	2	14	59	542013	-1	542976	1	963	3	3	2039	53	544066	-54	0														7		78												
WM080112	122620_fnca	1	1	1	-504889951	1	75.031	75.030	2.0.10.147	2.0.10.242	2.0.10.242	1.0.0.439	7	234	2	3	Verdana	1	80	0	0	0	WM Stimuli\	0.8	993.625	0.9	835	0.8	1004.375	1	789.6	0.9	1209.88888888889	0.8	792.125	0.9	1006	1	795	13	595365	2	595353	27	40	595392	-999999	595368	0	18	TrialsPROC	TO_007_TOOL7_BA.png	1	2	79	SessionSelectionList														target	2	Tools	0-Back	69	80	65	0	0	92	1	39	546611	3	14	59	544572	-1	545287	1	715	2	2	2039	53	546625	-54	0														8		79												
WM080112	122620_fnca	1	1	1	-504889951	1	75.031	75.030	2.0.10.147	2.0.10.242	2.0.10.242	1.0.0.439	7	234	2	3	Verdana	1	80	0	0	0	WM Stimuli\	0.8	993.625	0.9	835	0.8	1004.375	1	789.6	0.9	1209.88888888889	0.8	792.125	0.9	1006	1	795	13	595365	2	595353	27	40	595392	-999999	595368	0	18	TrialsPROC	TO_008_TOOL8_BA.png	1	2	80	SessionSelectionList														lure	3	Tools	0-Back	70	80	66	0	0	92	1	39	549170	2	14	59	547131	-1	547812	1	681	3	3	2039	53	549184	-54	0														9		80												
WM080112	122620_fnca	1	1	1	-504889951	1	75.031	75.030	2.0.10.147	2.0.10.242	2.0.10.242	1.0.0.439	7	234	2	3	Verdana	1	80	0	0	0	WM Stimuli\	0.8	993.625	0.9	835	0.8	1004.375	1	789.6	0.9	1209.88888888889	0.8	792.125	0.9	1006	1	795	13	595365	2	595353	27	40	595392	-999999	595368	0	18	TrialsPROC	TO_007_TOOL7_BA.png	1	2	81	SessionSelectionList														target	2	Tools	0-Back	71	80	67	0	0	92	1	39	551729	3	14	59	549690	-1	550312	1	622	2	2	2039	53	551743	-54	0														10		81												
WM080112	122620_fnca	1	1	1	-504889951	1	75.031	75.030	2.0.10.147	2.0.10.242	2.0.10.242	1.0.0.439	7	234	2	3	Verdana	1	80	0	0	0	WM Stimuli\	0.8	993.625	0.9	835	0.8	1004.375	1	789.6	0.9	1209.88888888889	0.8	792.125	0.9	1006	1	795	13	595365	2	595353	27	40	595392	-999999	595368	0	19	Cue2BackPROC	""	1	2	82	SessionSelectionList									6	552196	-7	0																																													82												
WM080112	122620_fnca	1	1	1	-504889951	1	75.031	75.030	2.0.10.147	2.0.10.242	2.0.10.242	1.0.0.439	7	234	2	3	Verdana	1	80	0	0	0	WM Stimuli\	0.8	993.625	0.9	835	0.8	1004.375	1	789.6	0.9	1209.88888888889	0.8	792.125	0.9	1006	1	795	13	595365	2	595353	27	40	595392	-999999	595368	0	20	TrialsPROC	PL_007_92026.png	1	2	83	SessionSelectionList														nonlure	3	Place	2-Back	72	80	68	0	0	92	1	39	556794	2	13	65	554755	-1	556400	1	1645	3	3	2039	52	556807	-53	0															1	83												
WM080112	122620_fnca	1	1	1	-504889951	1	75.031	75.030	2.0.10.147	2.0.10.242	2.0.10.242	1.0.0.439	7	234	2	3	Verdana	1	80	0	0	0	WM Stimuli\	0.8	993.625	0.9	835	0.8	1004.375	1	789.6	0.9	1209.88888888889	0.8	792.125	0.9	1006	1	795	13	595365	2	595353	27	40	595392	-999999	595368	0	20	TrialsPROC	PL_007_92026.png	1	2	84	SessionSelectionList														lure	3	Place	2-Back	73	80	69	0	0	92	2	39	559366	1	14	72	557327	-1	558381	1	1054	3	3	2039	53	559380	-54	0															2	84												
WM080112	122620_fnca	1	1	1	-504889951	1	75.031	75.030	2.0.10.147	2.0.10.242	2.0.10.242	1.0.0.439	7	234	2	3	Verdana	1	80	0	0	0	WM Stimuli\	0.8	993.625	0.9	835	0.8	1004.375	1	789.6	0.9	1209.88888888889	0.8	792.125	0.9	1006	1	795	13	595365	2	595353	27	40	595392	-999999	595368	0	20	TrialsPROC	PL_010_92038.png	1	2	85	SessionSelectionList														nonlure	3	Place	2-Back	74	80	70	0	0	92	3	39	561938	2	14	72	559899	-1	561343	1	1444	3	3	2039	53	561952	-54	0															3	85												
WM080112	122620_fnca	1	1	1	-504889951	1	75.031	75.030	2.0.10.147	2.0.10.242	2.0.10.242	1.0.0.439	7	234	2	3	Verdana	1	80	0	0	0	WM Stimuli\	0.8	993.625	0.9	835	0.8	1004.375	1	789.6	0.9	1209.88888888889	0.8	792.125	0.9	1006	1	795	13	595365	2	595353	27	40	595392	-999999	595368	0	20	TrialsPROC	PL_009_92037.png	1	2	86	SessionSelectionList														nonlure	3	Place	2-Back	75	80	71	0	0	92	4	39	564497	3	14	59	562458	-1	563846	1	1388	3	3	2039	53	564511	-54	0															4	86												
WM080112	122620_fnca	1	1	1	-504889951	1	75.031	75.030	2.0.10.147	2.0.10.242	2.0.10.242	1.0.0.439	7	234	2	3	Verdana	1	80	0	0	0	WM Stimuli\	0.8	993.625	0.9	835	0.8	1004.375	1	789.6	0.9	1209.88888888889	0.8	792.125	0.9	1006	1	795	13	595365	2	595353	27	40	595392	-999999	595368	0	20	TrialsPROC	PL_010_92038.png	1	2	87	SessionSelectionList														target	2	Place	2-Back	76	80	72	0	0	92	5	38	567056	2	14	60	565018	-1	566298	0	1280	3	2	2038	52	567070	-53	0															5	87												
WM080112	122620_fnca	1	1	1	-504889951	1	75.031	75.030	2.0.10.147	2.0.10.242	2.0.10.242	1.0.0.439	7	234	2	3	Verdana	1	80	0	0	0	WM Stimuli\	0.8	993.625	0.9	835	0.8	1004.375	1	789.6	0.9	1209.88888888889	0.8	792.125	0.9	1006	1	795	13	595365	2	595353	27	40	595392	-999999	595368	0	20	TrialsPROC	PL_009_92037.png	1	2	88	SessionSelectionList														target	2	Place	2-Back	77	80	73	0	0	92	1	38	569615	2	14	59	567577	-1	568713	1	1136	2	2	2038	52	569629	-53	0															6	88												
WM080112	122620_fnca	1	1	1	-504889951	1	75.031	75.030	2.0.10.147	2.0.10.242	2.0.10.242	1.0.0.439	7	234	2	3	Verdana	1	80	0	0	0	WM Stimuli\	0.8	993.625	0.9	835	0.8	1004.375	1	789.6	0.9	1209.88888888889	0.8	792.125	0.9	1006	1	795	13	595365	2	595353	27	40	595392	-999999	595368	0	20	TrialsPROC	PL_008_92033.png	1	2	89	SessionSelectionList														nonlure	3	Place	2-Back	78	80	74	0	0	92	1	40	572188	1	13	71	570148	-1	571279	1	1131	3	3	2040	53	572201	-54	0															7	89												
WM080112	122620_fnca	1	1	1	-504889951	1	75.031	75.030	2.0.10.147	2.0.10.242	2.0.10.242	1.0.0.439	7	234	2	3	Verdana	1	80	0	0	0	WM Stimuli\	0.8	993.625	0.9	835	0.8	1004.375	1	789.6	0.9	1209.88888888889	0.8	792.125	0.9	1006	1	795	13	595365	2	595353	27	40	595392	-999999	595368	0	20	TrialsPROC	PL_012_92047.png	1	2	90	SessionSelectionList														nonlure	3	Place	2-Back	79	80	75	0	0	92	2	39	574747	2	13	60	572708	-1	573477	1	769	3	3	2039	52	574760	-53	0															8	90												
WM080112	122620_fnca	1	1	1	-504889951	1	75.031	75.030	2.0.10.147	2.0.10.242	2.0.10.242	1.0.0.439	7	234	2	3	Verdana	1	80	0	0	0	WM Stimuli\	0.8	993.625	0.9	835	0.8	1004.375	1	789.6	0.9	1209.88888888889	0.8	792.125	0.9	1006	1	795	13	595365	2	595353	27	40	595392	-999999	595368	0	20	TrialsPROC	PL_012_92047.png	1	2	91	SessionSelectionList														lure	3	Place	2-Back	80	80	76	0	0	92	3	39	577319	2	14	72	575280	-1	576240	1	960	3	3	2039	53	577333	-54	0															9	91												
WM080112	122620_fnca	1	1	1	-504889951	1	75.031	75.030	2.0.10.147	2.0.10.242	2.0.10.242	1.0.0.439	7	234	2	3	Verdana	1	80	0	0	0	WM Stimuli\	0.8	993.625	0.9	835	0.8	1004.375	1	789.6	0.9	1209.88888888889	0.8	792.125	0.9	1006	1	795	13	595365	2	595353	27	40	595392	-999999	595368	0	20	TrialsPROC	PL_011_92044.png	1	2	92	SessionSelectionList														nonlure	3	Place	2-Back	80	80	77	0	0	92	4	39	579891	2	14	72	577852	-1	579214	1	1362	3	3	2039	53	579905	-54	0															10	92												
WM080112	122620_fnca	1	1	1	-504889951	1	75.031	75.030	2.0.10.147	2.0.10.242	2.0.10.242	1.0.0.439	7	234	2	3	Verdana	1	80	0	0	0	WM Stimuli\	0.8	993.625	0.9	835	0.8	1004.375	1	789.6	0.9	1209.88888888889	0.8	792.125	0.9	1006	1	795	13	595365	2	595353	27	40	595392	-999999	595368	0	21	Fix15secPROC	""	1	2	93	SessionSelectionList																																															6	580358	-7	0							93												
