ExperimentName	HCPID	RunNumber	Subject	Session	RandomSeed	Group	Laptop.RefreshRate	ScannerD2.RefreshRate	StudioVersion	RuntimeVersion	RuntimeVersionExpected	ExperimentVersion	triggercode	Allowed	Target	Nontarget	FontStyle	RunTrialNumber[Session]	TrialsPerRun[Session]	TotalRespGreater200[Session]	ConsecRTLess200[Session]	ConsecNonResp[Session]	StimuliDir	ACC_2_Back_Body	Avg_RT_For_Correct_Trials_2_Back_Body	ACC_0_Back_Body	Avg_RT_For_Correct_Trials_0_Back_Body	ACC_2_Back_Face	Avg_RT_For_Correct_Trials_2_Back_Face	ACC_0_Back_Face	Avg_RT_For_Correct_Trials_0_Back_Face	ACC_2_Back_Place	Avg_RT_For_Correct_Trials_2_Back_Place	ACC_0_Back_Place	Avg_RT_For_Correct_Trials_0_Back_Place	ACC_2_Back_Tools	Avg_RT_For_Correct_Trials_2_Back_Tools	ACC_0_Back_Tools	Avg_RT_For_Correct_Trials_0_Back_Tools	ExpInstrucFeelFreeToRest.OnsetDelay	ExpInstrucFeelFreeToRest.OnsetTime	ExpInstrucFeelFreeToRest.DurationError	ExpInstrucFeelFreeToRest.StartTime	ExpInstrucFeelFreeToRest.OnsetToOnsetTime	FeelFreeToRest.OnsetDelay	FeelFreeToRest.OnsetTime	FeelFreeToRest.DurationError	FeelFreeToRest.StartTime	FeelFreeToRest.OnsetToOnsetTime	SessionSelectionList	Procedure[Block]	Stimulus[Block]	RunNumberFilterValue	SessionSelectionList.Cycle	SessionSelectionList.Sample	Running[Block]	IntroButtonMap.OnsetDelay	IntroButtonMap.OnsetTime	IntroButtonMap.DurationError	IntroButtonMap.OnsetToOnsetTime	GetReady.OnsetDelay	GetReady.OnsetTime	GetReady.DurationError	GetReady.OnsetToOnsetTime	Cue2Back.OnsetDelay	Cue2Back.OnsetTime	Cue2Back.DurationError	Cue2Back.OnsetToOnsetTime	Run1Block1	TargetType	CorrectResponse	StimType	BlockType	RunTrialNumber[Block]	TrialsPerRun[Block]	TotalRespGreater200[Block]	ConsecRTLess200[Block]	ConsecNonResp[Block]	ControlAcc	ConsecSameResp	ExperimenterWindow.OnsetDelay	ExperimenterWindow.OnsetTime	ExperimenterWindow.DurationError	ExperimenterWindow.OnsetToOnsetTime	Stim.OnsetDelay	Stim.OnsetTime	Stim.DurationError	Stim.RTTime	Stim.ACC	Stim.RT	Stim.RESP	Stim.CRESP	Stim.OnsetToOnsetTime	Fix.OnsetDelay	Fix.OnsetTime	Fix.DurationError	Fix.OnsetToOnsetTime	CueTarget.OnsetDelay	CueTarget.OnsetTime	CueTarget.DurationError	CueTarget.OnsetToOnsetTime	Run1Block2	Fix15sec.OnsetDelay	Fix15sec.OnsetTime	Fix15sec.DurationError	Fix15sec.OnsetToOnsetTime	Run1Block3	Run1Block4	Run1Block5	Run1Block6	Run1Block7	Run1Block8	Block	Procedure[Trial]	Stimulus[Trial]	ReadyList	Running[Trial]	ReadyList.Cycle	ReadyList.Sample	SyncSlide.OnsetDelay	SyncSlide.OnsetTime	SyncSlide.DurationError	SyncSlide.FinishTime	SyncSlide.OnsetToOnsetTime	Trial
WM080112	176542_fnca	2	1	1	1699413196	1	75.031	75.030	2.0.10.147	2.0.10.242	2.0.10.242	1.0.0.439	7	234	2	3	Verdana	1	80	0	0	0	WM Stimuli\	0.9	1209.22222222222	1	708.7	0.8	898.625	0.9	674.555555555556	1	997.5	1	894.3	0.9	798.777777777778	0.9	1048.44444444444	13	318649	2	318637	14	27	318663	-999999	318651	0	22	TRSyncPROC	""	2	2	1	SessionSelectionList	97	5377	-999999	0	30	12014	-999999	0																																																	1	InitialTR	4	1	ReadyList	1	1	16	25342	-17	27325	0	1
WM080112	176542_fnca	2	1	1	1699413196	1	75.031	75.030	2.0.10.147	2.0.10.242	2.0.10.242	1.0.0.439	7	234	2	3	Verdana	1	80	0	0	0	WM Stimuli\	0.9	1209.22222222222	1	708.7	0.8	898.625	0.9	674.555555555556	1	997.5	1	894.3	0.9	798.777777777778	0.9	1048.44444444444	13	318649	2	318637	14	27	318663	-999999	318651	0	22	TRSyncPROC	""	2	2	1	SessionSelectionList	97	5377	-999999	0	30	12014	-999999	0																																																	1	InitialTR	3	2	ReadyList	1	2	15	27341	-16	29325	0	2
WM080112	176542_fnca	2	1	1	1699413196	1	75.031	75.030	2.0.10.147	2.0.10.242	2.0.10.242	1.0.0.439	7	234	2	3	Verdana	1	80	0	0	0	WM Stimuli\	0.9	1209.22222222222	1	708.7	0.8	898.625	0.9	674.555555555556	1	997.5	1	894.3	0.9	798.777777777778	0.9	1048.44444444444	13	318649	2	318637	14	27	318663	-999999	318651	0	22	TRSyncPROC	""	2	2	1	SessionSelectionList	97	5377	-999999	0	30	12014	-999999	0																																																	1	InitialTR	2	3	ReadyList	1	3	14	29340	-15	31325	0	3
WM080112	176542_fnca	2	1	1	1699413196	1	75.031	75.030	2.0.10.147	2.0.10.242	2.0.10.242	1.0.0.439	7	234	2	3	Verdana	1	80	0	0	0	WM Stimuli\	0.9	1209.22222222222	1	708.7	0.8	898.625	0.9	674.555555555556	1	997.5	1	894.3	0.9	798.777777777778	0.9	1048.44444444444	13	318649	2	318637	14	27	318663	-999999	318651	0	22	TRSyncPROC	""	2	2	1	SessionSelectionList	97	5377	-999999	0	30	12014	-999999	0																																																	1	InitialTR	1	4	ReadyList	1	4	13	31339	-14	33325	0	4
WM080112	176542_fnca	2	1	1	1699413196	1	75.031	75.030	2.0.10.147	2.0.10.242	2.0.10.242	1.0.0.439	7	234	2	3	Verdana	1	80	0	0	0	WM Stimuli\	0.9	1209.22222222222	1	708.7	0.8	898.625	0.9	674.555555555556	1	997.5	1	894.3	0.9	798.777777777778	0.9	1048.44444444444	13	318649	2	318637	14	27	318663	-999999	318651	0	23	Cue2BackPROC	""	2	2	2	SessionSelectionList									13	33339	-14	0																																													2												
WM080112	176542_fnca	2	1	1	1699413196	1	75.031	75.030	2.0.10.147	2.0.10.242	2.0.10.242	1.0.0.439	7	234	2	3	Verdana	1	80	0	0	0	WM Stimuli\	0.9	1209.22222222222	1	708.7	0.8	898.625	0.9	674.555555555556	1	997.5	1	894.3	0.9	798.777777777778	0.9	1048.44444444444	13	318649	2	318637	14	27	318663	-999999	318651	0	24	TrialsPROC	TO_014_TOOL14_BA.png	2	2	3	SessionSelectionList														nonlure	3	Tools	2-Back	2	80	1	0	0	0	1	52	37963	3	14	85	35911	-1	36954	1	1043	3	3	2052	66	37977	-67	0																3												
WM080112	176542_fnca	2	1	1	1699413196	1	75.031	75.030	2.0.10.147	2.0.10.242	2.0.10.242	1.0.0.439	7	234	2	3	Verdana	1	80	0	0	0	WM Stimuli\	0.9	1209.22222222222	1	708.7	0.8	898.625	0.9	674.555555555556	1	997.5	1	894.3	0.9	798.777777777778	0.9	1048.44444444444	13	318649	2	318637	14	27	318663	-999999	318651	0	24	TrialsPROC	TO_013_TOOL13_BA.png	2	2	4	SessionSelectionList														nonlure	3	Tools	2-Back	3	80	2	0	0	0	2	39	40509	2	14	59	38470	-1	39064	1	594	3	3	2039	53	40523	-54	0																4												
WM080112	176542_fnca	2	1	1	1699413196	1	75.031	75.030	2.0.10.147	2.0.10.242	2.0.10.242	1.0.0.439	7	234	2	3	Verdana	1	80	0	0	0	WM Stimuli\	0.9	1209.22222222222	1	708.7	0.8	898.625	0.9	674.555555555556	1	997.5	1	894.3	0.9	798.777777777778	0.9	1048.44444444444	13	318649	2	318637	14	27	318663	-999999	318651	0	24	TrialsPROC	TO_016_TOOL16_BA.png	2	2	5	SessionSelectionList														nonlure	3	Tools	2-Back	4	80	3	0	0	0	3	39	43068	1	14	59	41029	-1	41663	1	634	3	3	2039	53	43082	-54	0																5												
WM080112	176542_fnca	2	1	1	1699413196	1	75.031	75.030	2.0.10.147	2.0.10.242	2.0.10.242	1.0.0.439	7	234	2	3	Verdana	1	80	0	0	0	WM Stimuli\	0.9	1209.22222222222	1	708.7	0.8	898.625	0.9	674.555555555556	1	997.5	1	894.3	0.9	798.777777777778	0.9	1048.44444444444	13	318649	2	318637	14	27	318663	-999999	318651	0	24	TrialsPROC	TO_014_TOOL14_BA.png	2	2	6	SessionSelectionList														lure	3	Tools	2-Back	5	80	4	0	0	0	1	39	45640	2	14	72	43601	-1	44895	0	1294	2	3	2039	53	45654	-54	0																6												
WM080112	176542_fnca	2	1	1	1699413196	1	75.031	75.030	2.0.10.147	2.0.10.242	2.0.10.242	1.0.0.439	7	234	2	3	Verdana	1	80	0	0	0	WM Stimuli\	0.9	1209.22222222222	1	708.7	0.8	898.625	0.9	674.555555555556	1	997.5	1	894.3	0.9	798.777777777778	0.9	1048.44444444444	13	318649	2	318637	14	27	318663	-999999	318651	0	24	TrialsPROC	TO_016_TOOL16_BA.png	2	2	7	SessionSelectionList														target	2	Tools	2-Back	6	80	5	0	0	0	2	40	48213	1	13	72	46173	-1	47986	1	1813	2	2	2040	53	48226	-54	0																7												
WM080112	176542_fnca	2	1	1	1699413196	1	75.031	75.030	2.0.10.147	2.0.10.242	2.0.10.242	1.0.0.439	7	234	2	3	Verdana	1	80	0	0	0	WM Stimuli\	0.9	1209.22222222222	1	708.7	0.8	898.625	0.9	674.555555555556	1	997.5	1	894.3	0.9	798.777777777778	0.9	1048.44444444444	13	318649	2	318637	14	27	318663	-999999	318651	0	24	TrialsPROC	TO_018_TOOL18_BA.png	2	2	8	SessionSelectionList														nonlure	3	Tools	2-Back	7	80	6	0	0	0	1	39	50771	3	14	59	48732	-1	49410	1	678	3	3	2039	53	50785	-54	0																8												
WM080112	176542_fnca	2	1	1	1699413196	1	75.031	75.030	2.0.10.147	2.0.10.242	2.0.10.242	1.0.0.439	7	234	2	3	Verdana	1	80	0	0	0	WM Stimuli\	0.9	1209.22222222222	1	708.7	0.8	898.625	0.9	674.555555555556	1	997.5	1	894.3	0.9	798.777777777778	0.9	1048.44444444444	13	318649	2	318637	14	27	318663	-999999	318651	0	24	TrialsPROC	TO_017_TOOL17_BA.png	2	2	9	SessionSelectionList														nonlure	3	Tools	2-Back	8	80	7	0	0	0	2	39	53330	2	14	59	51291	-1	51960	1	669	3	3	2039	53	53344	-54	0																9												
WM080112	176542_fnca	2	1	1	1699413196	1	75.031	75.030	2.0.10.147	2.0.10.242	2.0.10.242	1.0.0.439	7	234	2	3	Verdana	1	80	0	0	0	WM Stimuli\	0.9	1209.22222222222	1	708.7	0.8	898.625	0.9	674.555555555556	1	997.5	1	894.3	0.9	798.777777777778	0.9	1048.44444444444	13	318649	2	318637	14	27	318663	-999999	318651	0	24	TrialsPROC	TO_018_TOOL18_BA.png	2	2	10	SessionSelectionList														target	2	Tools	2-Back	9	80	8	0	0	0	1	39	55889	3	14	59	53850	-1	54444	1	594	2	2	2039	53	55903	-54	0																10												
WM080112	176542_fnca	2	1	1	1699413196	1	75.031	75.030	2.0.10.147	2.0.10.242	2.0.10.242	1.0.0.439	7	234	2	3	Verdana	1	80	0	0	0	WM Stimuli\	0.9	1209.22222222222	1	708.7	0.8	898.625	0.9	674.555555555556	1	997.5	1	894.3	0.9	798.777777777778	0.9	1048.44444444444	13	318649	2	318637	14	27	318663	-999999	318651	0	24	TrialsPROC	TO_015_TOOL15_BA.png	2	2	11	SessionSelectionList														nonlure	3	Tools	2-Back	10	80	9	0	0	0	1	39	58448	2	14	59	56409	-1	56960	1	551	3	3	2039	53	58462	-54	0																11												
WM080112	176542_fnca	2	1	1	1699413196	1	75.031	75.030	2.0.10.147	2.0.10.242	2.0.10.242	1.0.0.439	7	234	2	3	Verdana	1	80	0	0	0	WM Stimuli\	0.9	1209.22222222222	1	708.7	0.8	898.625	0.9	674.555555555556	1	997.5	1	894.3	0.9	798.777777777778	0.9	1048.44444444444	13	318649	2	318637	14	27	318663	-999999	318651	0	24	TrialsPROC	TO_017_TOOL17_BA.png	2	2	12	SessionSelectionList														lure	3	Tools	2-Back	11	80	10	0	0	0	2	39	61007	3	14	59	58968	-1	59581	1	613	3	3	2039	53	61021	-54	0																12												
WM080112	176542_fnca	2	1	1	1699413196	1	75.031	75.030	2.0.10.147	2.0.10.242	2.0.10.242	1.0.0.439	7	234	2	3	Verdana	1	80	0	0	0	WM Stimuli\	0.9	1209.22222222222	1	708.7	0.8	898.625	0.9	674.555555555556	1	997.5	1	894.3	0.9	798.777777777778	0.9	1048.44444444444	13	318649	2	318637	14	27	318663	-999999	318651	0	25	Cue0BackPROC	BP_013_BP7_BA.png	2	2	13	SessionSelectionList																																										19	61487	-20	0												13												
WM080112	176542_fnca	2	1	1	1699413196	1	75.031	75.030	2.0.10.147	2.0.10.242	2.0.10.242	1.0.0.439	7	234	2	3	Verdana	1	80	0	0	0	WM Stimuli\	0.9	1209.22222222222	1	708.7	0.8	898.625	0.9	674.555555555556	1	997.5	1	894.3	0.9	798.777777777778	0.9	1048.44444444444	13	318649	2	318637	14	27	318663	-999999	318651	0	26	TrialsPROC	BP_015_H10-T_BA.png	2	2	14	SessionSelectionList														nonlure	3	Body	0-Back	12	80	11	0	0	100	3	39	66072	1	14	65	64033	-1	64920	1	887	3	3	2039	53	66086	-54	0																14												
WM080112	176542_fnca	2	1	1	1699413196	1	75.031	75.030	2.0.10.147	2.0.10.242	2.0.10.242	1.0.0.439	7	234	2	3	Verdana	1	80	0	0	0	WM Stimuli\	0.9	1209.22222222222	1	708.7	0.8	898.625	0.9	674.555555555556	1	997.5	1	894.3	0.9	798.777777777778	0.9	1048.44444444444	13	318649	2	318637	14	27	318663	-999999	318651	0	26	TrialsPROC	BP_018_H13-T_BA.png	2	2	15	SessionSelectionList														nonlure	3	Body	0-Back	13	80	12	0	0	100	4	39	68631	1	14	59	66592	-1	67220	1	628	3	3	2039	53	68645	-54	0																15												
WM080112	176542_fnca	2	1	1	1699413196	1	75.031	75.030	2.0.10.147	2.0.10.242	2.0.10.242	1.0.0.439	7	234	2	3	Verdana	1	80	0	0	0	WM Stimuli\	0.9	1209.22222222222	1	708.7	0.8	898.625	0.9	674.555555555556	1	997.5	1	894.3	0.9	798.777777777778	0.9	1048.44444444444	13	318649	2	318637	14	27	318663	-999999	318651	0	26	TrialsPROC	BP_014_BP9_BA.png	2	2	16	SessionSelectionList														nonlure	3	Body	0-Back	14	80	13	0	0	100	5	39	71190	2	14	59	69151	-1	70208	1	1057	3	3	2039	53	71204	-54	0																16												
WM080112	176542_fnca	2	1	1	1699413196	1	75.031	75.030	2.0.10.147	2.0.10.242	2.0.10.242	1.0.0.439	7	234	2	3	Verdana	1	80	0	0	0	WM Stimuli\	0.9	1209.22222222222	1	708.7	0.8	898.625	0.9	674.555555555556	1	997.5	1	894.3	0.9	798.777777777778	0.9	1048.44444444444	13	318649	2	318637	14	27	318663	-999999	318651	0	26	TrialsPROC	BP_018_H13-T_BA.png	2	2	17	SessionSelectionList														lure	3	Body	0-Back	15	80	14	0	0	100	6	39	73749	2	14	59	71710	-1	72292	1	582	3	3	2039	53	73763	-54	0																17												
WM080112	176542_fnca	2	1	1	1699413196	1	75.031	75.030	2.0.10.147	2.0.10.242	2.0.10.242	1.0.0.439	7	234	2	3	Verdana	1	80	0	0	0	WM Stimuli\	0.9	1209.22222222222	1	708.7	0.8	898.625	0.9	674.555555555556	1	997.5	1	894.3	0.9	798.777777777778	0.9	1048.44444444444	13	318649	2	318637	14	27	318663	-999999	318651	0	26	TrialsPROC	BP_013_BP7_BA.png	2	2	18	SessionSelectionList														target	2	Body	0-Back	16	80	15	0	0	100	1	39	76308	2	13	59	74269	-1	74854	1	585	2	2	2039	52	76321	-53	0																18												
WM080112	176542_fnca	2	1	1	1699413196	1	75.031	75.030	2.0.10.147	2.0.10.242	2.0.10.242	1.0.0.439	7	234	2	3	Verdana	1	80	0	0	0	WM Stimuli\	0.9	1209.22222222222	1	708.7	0.8	898.625	0.9	674.555555555556	1	997.5	1	894.3	0.9	798.777777777778	0.9	1048.44444444444	13	318649	2	318637	14	27	318663	-999999	318651	0	26	TrialsPROC	BP_015_H10-T_BA.png	2	2	19	SessionSelectionList														lure	3	Body	0-Back	17	80	16	0	0	100	1	39	78867	1	13	59	76828	-1	77427	1	599	3	3	2039	52	78880	-53	0																19												
WM080112	176542_fnca	2	1	1	1699413196	1	75.031	75.030	2.0.10.147	2.0.10.242	2.0.10.242	1.0.0.439	7	234	2	3	Verdana	1	80	0	0	0	WM Stimuli\	0.9	1209.22222222222	1	708.7	0.8	898.625	0.9	674.555555555556	1	997.5	1	894.3	0.9	798.777777777778	0.9	1048.44444444444	13	318649	2	318637	14	27	318663	-999999	318651	0	26	TrialsPROC	BP_016_H11-T_BA.png	2	2	20	SessionSelectionList														nonlure	3	Body	0-Back	18	80	17	0	0	100	2	39	81426	1	13	59	79387	-1	79940	1	553	3	3	2039	52	81439	-53	0																20												
WM080112	176542_fnca	2	1	1	1699413196	1	75.031	75.030	2.0.10.147	2.0.10.242	2.0.10.242	1.0.0.439	7	234	2	3	Verdana	1	80	0	0	0	WM Stimuli\	0.9	1209.22222222222	1	708.7	0.8	898.625	0.9	674.555555555556	1	997.5	1	894.3	0.9	798.777777777778	0.9	1048.44444444444	13	318649	2	318637	14	27	318663	-999999	318651	0	26	TrialsPROC	BP_013_BP7_BA.png	2	2	21	SessionSelectionList														target	2	Body	0-Back	19	80	18	0	0	100	1	39	83998	2	14	72	81959	-1	82579	1	620	2	2	2039	53	84012	-54	0																21												
WM080112	176542_fnca	2	1	1	1699413196	1	75.031	75.030	2.0.10.147	2.0.10.242	2.0.10.242	1.0.0.439	7	234	2	3	Verdana	1	80	0	0	0	WM Stimuli\	0.9	1209.22222222222	1	708.7	0.8	898.625	0.9	674.555555555556	1	997.5	1	894.3	0.9	798.777777777778	0.9	1048.44444444444	13	318649	2	318637	14	27	318663	-999999	318651	0	26	TrialsPROC	BP_017_H12-T_BA.png	2	2	22	SessionSelectionList														nonlure	3	Body	0-Back	20	80	19	0	0	100	1	39	86557	1	14	59	84518	-1	85239	1	721	3	3	2039	53	86571	-54	0																22												
WM080112	176542_fnca	2	1	1	1699413196	1	75.031	75.030	2.0.10.147	2.0.10.242	2.0.10.242	1.0.0.439	7	234	2	3	Verdana	1	80	0	0	0	WM Stimuli\	0.9	1209.22222222222	1	708.7	0.8	898.625	0.9	674.555555555556	1	997.5	1	894.3	0.9	798.777777777778	0.9	1048.44444444444	13	318649	2	318637	14	27	318663	-999999	318651	0	26	TrialsPROC	BP_014_BP9_BA.png	2	2	23	SessionSelectionList														lure	3	Body	0-Back	21	80	20	0	0	100	2	39	89116	1	14	59	87077	-1	87932	1	855	3	3	2039	53	89130	-54	0																23												
WM080112	176542_fnca	2	1	1	1699413196	1	75.031	75.030	2.0.10.147	2.0.10.242	2.0.10.242	1.0.0.439	7	234	2	3	Verdana	1	80	0	0	0	WM Stimuli\	0.9	1209.22222222222	1	708.7	0.8	898.625	0.9	674.555555555556	1	997.5	1	894.3	0.9	798.777777777778	0.9	1048.44444444444	13	318649	2	318637	14	27	318663	-999999	318651	0	27	Fix15secPROC	""	2	2	24	SessionSelectionList																																															6	89583	-7	0							24												
WM080112	176542_fnca	2	1	1	1699413196	1	75.031	75.030	2.0.10.147	2.0.10.242	2.0.10.242	1.0.0.439	7	234	2	3	Verdana	1	80	0	0	0	WM Stimuli\	0.9	1209.22222222222	1	708.7	0.8	898.625	0.9	674.555555555556	1	997.5	1	894.3	0.9	798.777777777778	0.9	1048.44444444444	13	318649	2	318637	14	27	318663	-999999	318651	0	28	Cue2BackPROC	""	2	2	25	SessionSelectionList									13	104590	-14	0																																													25												
WM080112	176542_fnca	2	1	1	1699413196	1	75.031	75.030	2.0.10.147	2.0.10.242	2.0.10.242	1.0.0.439	7	234	2	3	Verdana	1	80	0	0	0	WM Stimuli\	0.9	1209.22222222222	1	708.7	0.8	898.625	0.9	674.555555555556	1	997.5	1	894.3	0.9	798.777777777778	0.9	1048.44444444444	13	318649	2	318637	14	27	318663	-999999	318651	0	29	TrialsPROC	FC_015_M8.png	2	2	26	SessionSelectionList														nonlure	3	Face	2-Back	22	80	20	0	1	100	2	39	109188	1	13	72	107149	-1	0	0	0	""	3	2039	52	109201	-53	0																26												
WM080112	176542_fnca	2	1	1	1699413196	1	75.031	75.030	2.0.10.147	2.0.10.242	2.0.10.242	1.0.0.439	7	234	2	3	Verdana	1	80	0	0	0	WM Stimuli\	0.9	1209.22222222222	1	708.7	0.8	898.625	0.9	674.555555555556	1	997.5	1	894.3	0.9	798.777777777778	0.9	1048.44444444444	13	318649	2	318637	14	27	318663	-999999	318651	0	29	TrialsPROC	FC_018_F9.png	2	2	27	SessionSelectionList														nonlure	3	Face	2-Back	23	80	21	0	0	100	1	39	111760	1	14	72	109721	-1	110528	1	807	3	3	2039	53	111774	-54	0																27												
WM080112	176542_fnca	2	1	1	1699413196	1	75.031	75.030	2.0.10.147	2.0.10.242	2.0.10.242	1.0.0.439	7	234	2	3	Verdana	1	80	0	0	0	WM Stimuli\	0.9	1209.22222222222	1	708.7	0.8	898.625	0.9	674.555555555556	1	997.5	1	894.3	0.9	798.777777777778	0.9	1048.44444444444	13	318649	2	318637	14	27	318663	-999999	318651	0	29	TrialsPROC	FC_018_F9.png	2	2	28	SessionSelectionList														lure	3	Face	2-Back	24	80	22	0	0	100	2	39	114332	2	14	72	112293	-1	112908	1	615	3	3	2039	53	114346	-54	0																28												
WM080112	176542_fnca	2	1	1	1699413196	1	75.031	75.030	2.0.10.147	2.0.10.242	2.0.10.242	1.0.0.439	7	234	2	3	Verdana	1	80	0	0	0	WM Stimuli\	0.9	1209.22222222222	1	708.7	0.8	898.625	0.9	674.555555555556	1	997.5	1	894.3	0.9	798.777777777778	0.9	1048.44444444444	13	318649	2	318637	14	27	318663	-999999	318651	0	29	TrialsPROC	FC_017_M9.png	2	2	29	SessionSelectionList														nonlure	3	Face	2-Back	25	80	23	0	0	100	3	40	116905	2	13	72	114865	-1	115769	1	904	3	3	2040	53	116918	-54	0																29												
WM080112	176542_fnca	2	1	1	1699413196	1	75.031	75.030	2.0.10.147	2.0.10.242	2.0.10.242	1.0.0.439	7	234	2	3	Verdana	1	80	0	0	0	WM Stimuli\	0.9	1209.22222222222	1	708.7	0.8	898.625	0.9	674.555555555556	1	997.5	1	894.3	0.9	798.777777777778	0.9	1048.44444444444	13	318649	2	318637	14	27	318663	-999999	318651	0	29	TrialsPROC	FC_017_M9.png	2	2	30	SessionSelectionList														lure	3	Face	2-Back	26	80	24	0	0	100	4	39	119477	1	14	73	117438	-1	118661	1	1223	3	3	2039	53	119491	-54	0																30												
WM080112	176542_fnca	2	1	1	1699413196	1	75.031	75.030	2.0.10.147	2.0.10.242	2.0.10.242	1.0.0.439	7	234	2	3	Verdana	1	80	0	0	0	WM Stimuli\	0.9	1209.22222222222	1	708.7	0.8	898.625	0.9	674.555555555556	1	997.5	1	894.3	0.9	798.777777777778	0.9	1048.44444444444	13	318649	2	318637	14	27	318663	-999999	318651	0	29	TrialsPROC	FC_016_F8.png	2	2	31	SessionSelectionList														nonlure	3	Face	2-Back	27	80	25	0	0	100	1	39	122049	3	14	72	120010	-1	120660	0	650	2	3	2039	53	122063	-54	0																31												
WM080112	176542_fnca	2	1	1	1699413196	1	75.031	75.030	2.0.10.147	2.0.10.242	2.0.10.242	1.0.0.439	7	234	2	3	Verdana	1	80	0	0	0	WM Stimuli\	0.9	1209.22222222222	1	708.7	0.8	898.625	0.9	674.555555555556	1	997.5	1	894.3	0.9	798.777777777778	0.9	1048.44444444444	13	318649	2	318637	14	27	318663	-999999	318651	0	29	TrialsPROC	FC_013_M7.png	2	2	32	SessionSelectionList														nonlure	3	Face	2-Back	28	80	26	0	0	100	1	39	124621	3	14	72	122582	-1	123918	1	1336	3	3	2039	53	124635	-54	0																32												
WM080112	176542_fnca	2	1	1	1699413196	1	75.031	75.030	2.0.10.147	2.0.10.242	2.0.10.242	1.0.0.439	7	234	2	3	Verdana	1	80	0	0	0	WM Stimuli\	0.9	1209.22222222222	1	708.7	0.8	898.625	0.9	674.555555555556	1	997.5	1	894.3	0.9	798.777777777778	0.9	1048.44444444444	13	318649	2	318637	14	27	318663	-999999	318651	0	29	TrialsPROC	FC_014_F7.png	2	2	33	SessionSelectionList														nonlure	3	Face	2-Back	29	80	27	0	0	100	2	39	127194	2	14	73	125155	-1	126023	1	868	3	3	2039	53	127208	-54	0																33												
WM080112	176542_fnca	2	1	1	1699413196	1	75.031	75.030	2.0.10.147	2.0.10.242	2.0.10.242	1.0.0.439	7	234	2	3	Verdana	1	80	0	0	0	WM Stimuli\	0.9	1209.22222222222	1	708.7	0.8	898.625	0.9	674.555555555556	1	997.5	1	894.3	0.9	798.777777777778	0.9	1048.44444444444	13	318649	2	318637	14	27	318663	-999999	318651	0	29	TrialsPROC	FC_013_M7.png	2	2	34	SessionSelectionList														target	2	Face	2-Back	30	80	28	0	0	100	1	39	129766	3	14	72	127727	-1	128312	1	585	2	2	2039	53	129780	-54	0																34												
WM080112	176542_fnca	2	1	1	1699413196	1	75.031	75.030	2.0.10.147	2.0.10.242	2.0.10.242	1.0.0.439	7	234	2	3	Verdana	1	80	0	0	0	WM Stimuli\	0.9	1209.22222222222	1	708.7	0.8	898.625	0.9	674.555555555556	1	997.5	1	894.3	0.9	798.777777777778	0.9	1048.44444444444	13	318649	2	318637	14	27	318663	-999999	318651	0	29	TrialsPROC	FC_014_F7.png	2	2	35	SessionSelectionList														target	2	Face	2-Back	31	80	29	0	0	100	2	39	132338	3	14	72	130299	-1	131150	1	851	2	2	2039	53	132352	-54	0																35												
WM080112	176542_fnca	2	1	1	1699413196	1	75.031	75.030	2.0.10.147	2.0.10.242	2.0.10.242	1.0.0.439	7	234	2	3	Verdana	1	80	0	0	0	WM Stimuli\	0.9	1209.22222222222	1	708.7	0.8	898.625	0.9	674.555555555556	1	997.5	1	894.3	0.9	798.777777777778	0.9	1048.44444444444	13	318649	2	318637	14	27	318663	-999999	318651	0	30	Cue0BackPROC	TO_019_TOOL19_BA.png	2	2	36	SessionSelectionList																																										19	132818	-20	0												36												
WM080112	176542_fnca	2	1	1	1699413196	1	75.031	75.030	2.0.10.147	2.0.10.242	2.0.10.242	1.0.0.439	7	234	2	3	Verdana	1	80	0	0	0	WM Stimuli\	0.9	1209.22222222222	1	708.7	0.8	898.625	0.9	674.555555555556	1	997.5	1	894.3	0.9	798.777777777778	0.9	1048.44444444444	13	318649	2	318637	14	27	318663	-999999	318651	0	31	TrialsPROC	TO_019_TOOL19_BA.png	2	2	37	SessionSelectionList														target	2	Tools	0-Back	32	80	30	0	0	91	1	40	137390	2	13	51	135350	-1	136660	0	1310	3	2	2040	53	137403	-54	0																37												
WM080112	176542_fnca	2	1	1	1699413196	1	75.031	75.030	2.0.10.147	2.0.10.242	2.0.10.242	1.0.0.439	7	234	2	3	Verdana	1	80	0	0	0	WM Stimuli\	0.9	1209.22222222222	1	708.7	0.8	898.625	0.9	674.555555555556	1	997.5	1	894.3	0.9	798.777777777778	0.9	1048.44444444444	13	318649	2	318637	14	27	318663	-999999	318651	0	31	TrialsPROC	TO_024_TOOL24_BA.png	2	2	38	SessionSelectionList														nonlure	3	Tools	0-Back	33	80	31	0	0	92	2	40	139949	2	13	59	137909	-1	139865	1	1956	3	3	2040	53	139962	-54	0																38												
WM080112	176542_fnca	2	1	1	1699413196	1	75.031	75.030	2.0.10.147	2.0.10.242	2.0.10.242	1.0.0.439	7	234	2	3	Verdana	1	80	0	0	0	WM Stimuli\	0.9	1209.22222222222	1	708.7	0.8	898.625	0.9	674.555555555556	1	997.5	1	894.3	0.9	798.777777777778	0.9	1048.44444444444	13	318649	2	318637	14	27	318663	-999999	318651	0	31	TrialsPROC	TO_019_TOOL19_BA.png	2	2	39	SessionSelectionList														target	2	Tools	0-Back	34	80	32	0	0	92	1	40	142508	1	13	59	140468	-1	141227	1	759	2	2	2040	53	142521	-54	0																39												
WM080112	176542_fnca	2	1	1	1699413196	1	75.031	75.030	2.0.10.147	2.0.10.242	2.0.10.242	1.0.0.439	7	234	2	3	Verdana	1	80	0	0	0	WM Stimuli\	0.9	1209.22222222222	1	708.7	0.8	898.625	0.9	674.555555555556	1	997.5	1	894.3	0.9	798.777777777778	0.9	1048.44444444444	13	318649	2	318637	14	27	318663	-999999	318651	0	31	TrialsPROC	TO_023_TOOL23_BA.png	2	2	40	SessionSelectionList														nonlure	3	Tools	0-Back	35	80	33	0	0	93	1	40	145067	1	13	59	143027	-1	143639	1	612	3	3	2040	53	145080	-54	0																40												
WM080112	176542_fnca	2	1	1	1699413196	1	75.031	75.030	2.0.10.147	2.0.10.242	2.0.10.242	1.0.0.439	7	234	2	3	Verdana	1	80	0	0	0	WM Stimuli\	0.9	1209.22222222222	1	708.7	0.8	898.625	0.9	674.555555555556	1	997.5	1	894.3	0.9	798.777777777778	0.9	1048.44444444444	13	318649	2	318637	14	27	318663	-999999	318651	0	31	TrialsPROC	TO_020_TOOL20_BA.png	2	2	41	SessionSelectionList														nonlure	3	Tools	0-Back	36	80	34	0	0	93	2	39	147625	2	14	59	145586	-1	146893	1	1307	3	3	2039	53	147639	-54	0																41												
WM080112	176542_fnca	2	1	1	1699413196	1	75.031	75.030	2.0.10.147	2.0.10.242	2.0.10.242	1.0.0.439	7	234	2	3	Verdana	1	80	0	0	0	WM Stimuli\	0.9	1209.22222222222	1	708.7	0.8	898.625	0.9	674.555555555556	1	997.5	1	894.3	0.9	798.777777777778	0.9	1048.44444444444	13	318649	2	318637	14	27	318663	-999999	318651	0	31	TrialsPROC	TO_020_TOOL20_BA.png	2	2	42	SessionSelectionList														lure	3	Tools	0-Back	37	80	35	0	0	94	3	39	150184	2	14	59	148145	-1	148827	1	682	3	3	2039	53	150198	-54	0																42												
WM080112	176542_fnca	2	1	1	1699413196	1	75.031	75.030	2.0.10.147	2.0.10.242	2.0.10.242	1.0.0.439	7	234	2	3	Verdana	1	80	0	0	0	WM Stimuli\	0.9	1209.22222222222	1	708.7	0.8	898.625	0.9	674.555555555556	1	997.5	1	894.3	0.9	798.777777777778	0.9	1048.44444444444	13	318649	2	318637	14	27	318663	-999999	318651	0	31	TrialsPROC	TO_022_TOOL22_BA.png	2	2	43	SessionSelectionList														nonlure	3	Tools	0-Back	38	80	36	0	0	94	4	39	152743	2	14	59	150704	-1	151459	1	755	3	3	2039	53	152757	-54	0																43												
WM080112	176542_fnca	2	1	1	1699413196	1	75.031	75.030	2.0.10.147	2.0.10.242	2.0.10.242	1.0.0.439	7	234	2	3	Verdana	1	80	0	0	0	WM Stimuli\	0.9	1209.22222222222	1	708.7	0.8	898.625	0.9	674.555555555556	1	997.5	1	894.3	0.9	798.777777777778	0.9	1048.44444444444	13	318649	2	318637	14	27	318663	-999999	318651	0	31	TrialsPROC	TO_022_TOOL22_BA.png	2	2	44	SessionSelectionList														lure	3	Tools	0-Back	39	80	37	0	0	94	5	39	155302	2	14	59	153263	-1	153882	1	619	3	3	2039	53	155316	-54	0																44												
WM080112	176542_fnca	2	1	1	1699413196	1	75.031	75.030	2.0.10.147	2.0.10.242	2.0.10.242	1.0.0.439	7	234	2	3	Verdana	1	80	0	0	0	WM Stimuli\	0.9	1209.22222222222	1	708.7	0.8	898.625	0.9	674.555555555556	1	997.5	1	894.3	0.9	798.777777777778	0.9	1048.44444444444	13	318649	2	318637	14	27	318663	-999999	318651	0	31	TrialsPROC	TO_021_TOOL21_BA.png	2	2	45	SessionSelectionList														nonlure	3	Tools	0-Back	40	80	38	0	0	95	6	39	157861	2	14	59	155822	-1	156983	1	1161	3	3	2039	53	157875	-54	0																45												
WM080112	176542_fnca	2	1	1	1699413196	1	75.031	75.030	2.0.10.147	2.0.10.242	2.0.10.242	1.0.0.439	7	234	2	3	Verdana	1	80	0	0	0	WM Stimuli\	0.9	1209.22222222222	1	708.7	0.8	898.625	0.9	674.555555555556	1	997.5	1	894.3	0.9	798.777777777778	0.9	1048.44444444444	13	318649	2	318637	14	27	318663	-999999	318651	0	31	TrialsPROC	TO_021_TOOL21_BA.png	2	2	46	SessionSelectionList														lure	3	Tools	0-Back	41	80	39	0	0	95	7	39	160420	2	14	59	158381	-1	159966	1	1585	3	3	2039	53	160434	-54	0																46												
WM080112	176542_fnca	2	1	1	1699413196	1	75.031	75.030	2.0.10.147	2.0.10.242	2.0.10.242	1.0.0.439	7	234	2	3	Verdana	1	80	0	0	0	WM Stimuli\	0.9	1209.22222222222	1	708.7	0.8	898.625	0.9	674.555555555556	1	997.5	1	894.3	0.9	798.777777777778	0.9	1048.44444444444	13	318649	2	318637	14	27	318663	-999999	318651	0	32	Fix15secPROC	""	2	2	47	SessionSelectionList																																															6	160887	-7	0							47												
WM080112	176542_fnca	2	1	1	1699413196	1	75.031	75.030	2.0.10.147	2.0.10.242	2.0.10.242	1.0.0.439	7	234	2	3	Verdana	1	80	0	0	0	WM Stimuli\	0.9	1209.22222222222	1	708.7	0.8	898.625	0.9	674.555555555556	1	997.5	1	894.3	0.9	798.777777777778	0.9	1048.44444444444	13	318649	2	318637	14	27	318663	-999999	318651	0	33	Cue2BackPROC	""	2	2	48	SessionSelectionList									13	175894	-14	0																																													48												
WM080112	176542_fnca	2	1	1	1699413196	1	75.031	75.030	2.0.10.147	2.0.10.242	2.0.10.242	1.0.0.439	7	234	2	3	Verdana	1	80	0	0	0	WM Stimuli\	0.9	1209.22222222222	1	708.7	0.8	898.625	0.9	674.555555555556	1	997.5	1	894.3	0.9	798.777777777778	0.9	1048.44444444444	13	318649	2	318637	14	27	318663	-999999	318651	0	34	TrialsPROC	BP_020_H17-T_BA.png	2	2	49	SessionSelectionList														nonlure	3	Body	2-Back	42	80	40	0	0	95	8	39	180479	1	14	59	178440	-1	179942	1	1502	3	3	2039	53	180493	-54	0																49												
WM080112	176542_fnca	2	1	1	1699413196	1	75.031	75.030	2.0.10.147	2.0.10.242	2.0.10.242	1.0.0.439	7	234	2	3	Verdana	1	80	0	0	0	WM Stimuli\	0.9	1209.22222222222	1	708.7	0.8	898.625	0.9	674.555555555556	1	997.5	1	894.3	0.9	798.777777777778	0.9	1048.44444444444	13	318649	2	318637	14	27	318663	-999999	318651	0	34	TrialsPROC	BP_019_H14-T_BA.png	2	2	50	SessionSelectionList														nonlure	3	Body	2-Back	43	80	41	0	0	95	9	39	183051	3	14	72	181012	-1	182062	1	1050	3	3	2039	53	183065	-54	0																50												
WM080112	176542_fnca	2	1	1	1699413196	1	75.031	75.030	2.0.10.147	2.0.10.242	2.0.10.242	1.0.0.439	7	234	2	3	Verdana	1	80	0	0	0	WM Stimuli\	0.9	1209.22222222222	1	708.7	0.8	898.625	0.9	674.555555555556	1	997.5	1	894.3	0.9	798.777777777778	0.9	1048.44444444444	13	318649	2	318637	14	27	318663	-999999	318651	0	34	TrialsPROC	BP_020_H17-T_BA.png	2	2	51	SessionSelectionList														target	2	Body	2-Back	44	80	42	0	0	95	1	39	185610	1	14	59	183571	-1	184127	1	556	2	2	2039	53	185624	-54	0																51												
WM080112	176542_fnca	2	1	1	1699413196	1	75.031	75.030	2.0.10.147	2.0.10.242	2.0.10.242	1.0.0.439	7	234	2	3	Verdana	1	80	0	0	0	WM Stimuli\	0.9	1209.22222222222	1	708.7	0.8	898.625	0.9	674.555555555556	1	997.5	1	894.3	0.9	798.777777777778	0.9	1048.44444444444	13	318649	2	318637	14	27	318663	-999999	318651	0	34	TrialsPROC	BP_019_H14-T_BA.png	2	2	52	SessionSelectionList														target	2	Body	2-Back	45	80	43	0	0	95	2	39	188169	1	14	59	186130	-1	187411	1	1281	2	2	2039	53	188183	-54	0																52												
WM080112	176542_fnca	2	1	1	1699413196	1	75.031	75.030	2.0.10.147	2.0.10.242	2.0.10.242	1.0.0.439	7	234	2	3	Verdana	1	80	0	0	0	WM Stimuli\	0.9	1209.22222222222	1	708.7	0.8	898.625	0.9	674.555555555556	1	997.5	1	894.3	0.9	798.777777777778	0.9	1048.44444444444	13	318649	2	318637	14	27	318663	-999999	318651	0	34	TrialsPROC	BP_024_H3-T_BA.png	2	2	53	SessionSelectionList														nonlure	3	Body	2-Back	46	80	44	0	0	95	1	39	190728	1	14	59	188689	-1	190474	1	1785	3	3	2039	53	190742	-54	0																53												
WM080112	176542_fnca	2	1	1	1699413196	1	75.031	75.030	2.0.10.147	2.0.10.242	2.0.10.242	1.0.0.439	7	234	2	3	Verdana	1	80	0	0	0	WM Stimuli\	0.9	1209.22222222222	1	708.7	0.8	898.625	0.9	674.555555555556	1	997.5	1	894.3	0.9	798.777777777778	0.9	1048.44444444444	13	318649	2	318637	14	27	318663	-999999	318651	0	34	TrialsPROC	BP_024_H3-T_BA.png	2	2	54	SessionSelectionList														lure	3	Body	2-Back	47	80	45	0	0	95	2	39	193287	2	14	59	191248	-1	192856	1	1608	3	3	2039	53	193301	-54	0																54												
WM080112	176542_fnca	2	1	1	1699413196	1	75.031	75.030	2.0.10.147	2.0.10.242	2.0.10.242	1.0.0.439	7	234	2	3	Verdana	1	80	0	0	0	WM Stimuli\	0.9	1209.22222222222	1	708.7	0.8	898.625	0.9	674.555555555556	1	997.5	1	894.3	0.9	798.777777777778	0.9	1048.44444444444	13	318649	2	318637	14	27	318663	-999999	318651	0	34	TrialsPROC	BP_025_H5-T_BA.png	2	2	55	SessionSelectionList														nonlure	3	Body	2-Back	48	80	46	0	0	95	3	39	195846	1	14	59	193807	-1	195214	1	1407	3	3	2039	53	195860	-54	0																55												
WM080112	176542_fnca	2	1	1	1699413196	1	75.031	75.030	2.0.10.147	2.0.10.242	2.0.10.242	1.0.0.439	7	234	2	3	Verdana	1	80	0	0	0	WM Stimuli\	0.9	1209.22222222222	1	708.7	0.8	898.625	0.9	674.555555555556	1	997.5	1	894.3	0.9	798.777777777778	0.9	1048.44444444444	13	318649	2	318637	14	27	318663	-999999	318651	0	34	TrialsPROC	BP_023_H25-T_BA.png	2	2	56	SessionSelectionList														nonlure	3	Body	2-Back	49	80	47	0	0	95	1	39	198405	1	14	59	196366	-1	197840	0	1474	2	3	2039	53	198419	-54	0																56												
WM080112	176542_fnca	2	1	1	1699413196	1	75.031	75.030	2.0.10.147	2.0.10.242	2.0.10.242	1.0.0.439	7	234	2	3	Verdana	1	80	0	0	0	WM Stimuli\	0.9	1209.22222222222	1	708.7	0.8	898.625	0.9	674.555555555556	1	997.5	1	894.3	0.9	798.777777777778	0.9	1048.44444444444	13	318649	2	318637	14	27	318663	-999999	318651	0	34	TrialsPROC	BP_022_H24-T_BA.png	2	2	57	SessionSelectionList														nonlure	3	Body	2-Back	50	80	48	0	0	95	1	39	200964	2	14	59	198925	-1	199709	1	784	3	3	2039	53	200978	-54	0																57												
WM080112	176542_fnca	2	1	1	1699413196	1	75.031	75.030	2.0.10.147	2.0.10.242	2.0.10.242	1.0.0.439	7	234	2	3	Verdana	1	80	0	0	0	WM Stimuli\	0.9	1209.22222222222	1	708.7	0.8	898.625	0.9	674.555555555556	1	997.5	1	894.3	0.9	798.777777777778	0.9	1048.44444444444	13	318649	2	318637	14	27	318663	-999999	318651	0	34	TrialsPROC	BP_022_H24-T_BA.png	2	2	58	SessionSelectionList														lure	3	Body	2-Back	51	80	49	0	0	95	2	39	203523	1	13	59	201484	-1	202394	1	910	3	3	2039	52	203536	-53	0																58												
WM080112	176542_fnca	2	1	1	1699413196	1	75.031	75.030	2.0.10.147	2.0.10.242	2.0.10.242	1.0.0.439	7	234	2	3	Verdana	1	80	0	0	0	WM Stimuli\	0.9	1209.22222222222	1	708.7	0.8	898.625	0.9	674.555555555556	1	997.5	1	894.3	0.9	798.777777777778	0.9	1048.44444444444	13	318649	2	318637	14	27	318663	-999999	318651	0	35	Cue2BackPROC	""	2	2	59	SessionSelectionList									5	203989	-6	0																																													59												
WM080112	176542_fnca	2	1	1	1699413196	1	75.031	75.030	2.0.10.147	2.0.10.242	2.0.10.242	1.0.0.439	7	234	2	3	Verdana	1	80	0	0	0	WM Stimuli\	0.9	1209.22222222222	1	708.7	0.8	898.625	0.9	674.555555555556	1	997.5	1	894.3	0.9	798.777777777778	0.9	1048.44444444444	13	318649	2	318637	14	27	318663	-999999	318651	0	36	TrialsPROC	PL_019_SCENE_05.png	2	2	60	SessionSelectionList														nonlure	3	Place	2-Back	52	80	50	0	0	95	3	39	208587	2	14	64	206548	-1	208351	1	1803	3	3	2039	53	208601	-54	0																60												
WM080112	176542_fnca	2	1	1	1699413196	1	75.031	75.030	2.0.10.147	2.0.10.242	2.0.10.242	1.0.0.439	7	234	2	3	Verdana	1	80	0	0	0	WM Stimuli\	0.9	1209.22222222222	1	708.7	0.8	898.625	0.9	674.555555555556	1	997.5	1	894.3	0.9	798.777777777778	0.9	1048.44444444444	13	318649	2	318637	14	27	318663	-999999	318651	0	36	TrialsPROC	PL_017_SCENE_03.png	2	2	61	SessionSelectionList														nonlure	3	Place	2-Back	53	80	51	0	0	95	4	40	211160	1	13	72	209120	-1	209912	1	792	3	3	2040	53	211173	-54	0																61												
WM080112	176542_fnca	2	1	1	1699413196	1	75.031	75.030	2.0.10.147	2.0.10.242	2.0.10.242	1.0.0.439	7	234	2	3	Verdana	1	80	0	0	0	WM Stimuli\	0.9	1209.22222222222	1	708.7	0.8	898.625	0.9	674.555555555556	1	997.5	1	894.3	0.9	798.777777777778	0.9	1048.44444444444	13	318649	2	318637	14	27	318663	-999999	318651	0	36	TrialsPROC	PL_017_SCENE_03.png	2	2	62	SessionSelectionList														lure	3	Place	2-Back	54	80	52	0	0	95	5	39	213732	2	14	73	211693	-1	212788	1	1095	3	3	2039	53	213746	-54	0																62												
WM080112	176542_fnca	2	1	1	1699413196	1	75.031	75.030	2.0.10.147	2.0.10.242	2.0.10.242	1.0.0.439	7	234	2	3	Verdana	1	80	0	0	0	WM Stimuli\	0.9	1209.22222222222	1	708.7	0.8	898.625	0.9	674.555555555556	1	997.5	1	894.3	0.9	798.777777777778	0.9	1048.44444444444	13	318649	2	318637	14	27	318663	-999999	318651	0	36	TrialsPROC	PL_016_SCENE_02.png	2	2	63	SessionSelectionList														nonlure	3	Place	2-Back	55	80	53	0	0	95	6	39	216304	2	14	72	214265	-1	215164	1	899	3	3	2039	53	216318	-54	0																63												
WM080112	176542_fnca	2	1	1	1699413196	1	75.031	75.030	2.0.10.147	2.0.10.242	2.0.10.242	1.0.0.439	7	234	2	3	Verdana	1	80	0	0	0	WM Stimuli\	0.9	1209.22222222222	1	708.7	0.8	898.625	0.9	674.555555555556	1	997.5	1	894.3	0.9	798.777777777778	0.9	1048.44444444444	13	318649	2	318637	14	27	318663	-999999	318651	0	36	TrialsPROC	PL_015_SCENE_01.png	2	2	64	SessionSelectionList														nonlure	3	Place	2-Back	56	80	54	0	0	95	7	40	218877	2	13	72	216837	-1	217685	1	848	3	3	2040	53	218890	-54	0																64												
WM080112	176542_fnca	2	1	1	1699413196	1	75.031	75.030	2.0.10.147	2.0.10.242	2.0.10.242	1.0.0.439	7	234	2	3	Verdana	1	80	0	0	0	WM Stimuli\	0.9	1209.22222222222	1	708.7	0.8	898.625	0.9	674.555555555556	1	997.5	1	894.3	0.9	798.777777777778	0.9	1048.44444444444	13	318649	2	318637	14	27	318663	-999999	318651	0	36	TrialsPROC	PL_016_SCENE_02.png	2	2	65	SessionSelectionList														target	2	Place	2-Back	57	80	55	0	0	95	1	39	221449	1	14	73	219410	-1	220151	1	741	2	2	2039	53	221463	-54	0																65												
WM080112	176542_fnca	2	1	1	1699413196	1	75.031	75.030	2.0.10.147	2.0.10.242	2.0.10.242	1.0.0.439	7	234	2	3	Verdana	1	80	0	0	0	WM Stimuli\	0.9	1209.22222222222	1	708.7	0.8	898.625	0.9	674.555555555556	1	997.5	1	894.3	0.9	798.777777777778	0.9	1048.44444444444	13	318649	2	318637	14	27	318663	-999999	318651	0	36	TrialsPROC	PL_015_SCENE_01.png	2	2	66	SessionSelectionList														target	2	Place	2-Back	58	80	56	0	0	95	2	39	224021	3	14	72	221982	-1	223117	1	1135	2	2	2039	53	224035	-54	0																66												
WM080112	176542_fnca	2	1	1	1699413196	1	75.031	75.030	2.0.10.147	2.0.10.242	2.0.10.242	1.0.0.439	7	234	2	3	Verdana	1	80	0	0	0	WM Stimuli\	0.9	1209.22222222222	1	708.7	0.8	898.625	0.9	674.555555555556	1	997.5	1	894.3	0.9	798.777777777778	0.9	1048.44444444444	13	318649	2	318637	14	27	318663	-999999	318651	0	36	TrialsPROC	PL_020_SCENE_06.png	2	2	67	SessionSelectionList														nonlure	3	Place	2-Back	59	80	57	0	0	95	1	39	226593	2	14	72	224554	-1	225325	1	771	3	3	2039	53	226607	-54	0																67												
WM080112	176542_fnca	2	1	1	1699413196	1	75.031	75.030	2.0.10.147	2.0.10.242	2.0.10.242	1.0.0.439	7	234	2	3	Verdana	1	80	0	0	0	WM Stimuli\	0.9	1209.22222222222	1	708.7	0.8	898.625	0.9	674.555555555556	1	997.5	1	894.3	0.9	798.777777777778	0.9	1048.44444444444	13	318649	2	318637	14	27	318663	-999999	318651	0	36	TrialsPROC	PL_020_SCENE_06.png	2	2	68	SessionSelectionList														lure	3	Place	2-Back	60	80	58	0	0	95	2	40	229166	2	13	72	227126	-1	228057	1	931	3	3	2040	53	229179	-54	0																68												
WM080112	176542_fnca	2	1	1	1699413196	1	75.031	75.030	2.0.10.147	2.0.10.242	2.0.10.242	1.0.0.439	7	234	2	3	Verdana	1	80	0	0	0	WM Stimuli\	0.9	1209.22222222222	1	708.7	0.8	898.625	0.9	674.555555555556	1	997.5	1	894.3	0.9	798.777777777778	0.9	1048.44444444444	13	318649	2	318637	14	27	318663	-999999	318651	0	36	TrialsPROC	PL_018_SCENE_04.png	2	2	69	SessionSelectionList														nonlure	3	Place	2-Back	61	80	59	0	0	95	3	39	231738	2	14	73	229699	-1	230659	1	960	3	3	2039	53	231752	-54	0																69												
WM080112	176542_fnca	2	1	1	1699413196	1	75.031	75.030	2.0.10.147	2.0.10.242	2.0.10.242	1.0.0.439	7	234	2	3	Verdana	1	80	0	0	0	WM Stimuli\	0.9	1209.22222222222	1	708.7	0.8	898.625	0.9	674.555555555556	1	997.5	1	894.3	0.9	798.777777777778	0.9	1048.44444444444	13	318649	2	318637	14	27	318663	-999999	318651	0	37	Fix15secPROC	""	2	2	70	SessionSelectionList																																															6	232205	-7	0							70												
WM080112	176542_fnca	2	1	1	1699413196	1	75.031	75.030	2.0.10.147	2.0.10.242	2.0.10.242	1.0.0.439	7	234	2	3	Verdana	1	80	0	0	0	WM Stimuli\	0.9	1209.22222222222	1	708.7	0.8	898.625	0.9	674.555555555556	1	997.5	1	894.3	0.9	798.777777777778	0.9	1048.44444444444	13	318649	2	318637	14	27	318663	-999999	318651	0	38	Cue0BackPROC	FC_020_F10.png	2	2	71	SessionSelectionList																																										26	247225	-27	0												71												
WM080112	176542_fnca	2	1	1	1699413196	1	75.031	75.030	2.0.10.147	2.0.10.242	2.0.10.242	1.0.0.439	7	234	2	3	Verdana	1	80	0	0	0	WM Stimuli\	0.9	1209.22222222222	1	708.7	0.8	898.625	0.9	674.555555555556	1	997.5	1	894.3	0.9	798.777777777778	0.9	1048.44444444444	13	318649	2	318637	14	27	318663	-999999	318651	0	39	TrialsPROC	FC_024_F12.png	2	2	72	SessionSelectionList														nonlure	3	Face	0-Back	62	80	60	0	0	90	1	39	251810	2	14	72	249771	-1	250902	0	1131	2	3	2039	53	251824	-54	0																72												
WM080112	176542_fnca	2	1	1	1699413196	1	75.031	75.030	2.0.10.147	2.0.10.242	2.0.10.242	1.0.0.439	7	234	2	3	Verdana	1	80	0	0	0	WM Stimuli\	0.9	1209.22222222222	1	708.7	0.8	898.625	0.9	674.555555555556	1	997.5	1	894.3	0.9	798.777777777778	0.9	1048.44444444444	13	318649	2	318637	14	27	318663	-999999	318651	0	39	TrialsPROC	FC_023_M12.png	2	2	73	SessionSelectionList														nonlure	3	Face	0-Back	63	80	61	0	0	91	1	39	254382	2	14	72	252343	-1	252895	1	552	3	3	2039	53	254396	-54	0																73												
WM080112	176542_fnca	2	1	1	1699413196	1	75.031	75.030	2.0.10.147	2.0.10.242	2.0.10.242	1.0.0.439	7	234	2	3	Verdana	1	80	0	0	0	WM Stimuli\	0.9	1209.22222222222	1	708.7	0.8	898.625	0.9	674.555555555556	1	997.5	1	894.3	0.9	798.777777777778	0.9	1048.44444444444	13	318649	2	318637	14	27	318663	-999999	318651	0	39	TrialsPROC	FC_020_F10.png	2	2	74	SessionSelectionList														target	2	Face	0-Back	64	80	62	0	0	91	1	39	256954	3	14	72	254915	-1	255585	1	670	2	2	2039	53	256968	-54	0																74												
WM080112	176542_fnca	2	1	1	1699413196	1	75.031	75.030	2.0.10.147	2.0.10.242	2.0.10.242	1.0.0.439	7	234	2	3	Verdana	1	80	0	0	0	WM Stimuli\	0.9	1209.22222222222	1	708.7	0.8	898.625	0.9	674.555555555556	1	997.5	1	894.3	0.9	798.777777777778	0.9	1048.44444444444	13	318649	2	318637	14	27	318663	-999999	318651	0	39	TrialsPROC	FC_024_F12.png	2	2	75	SessionSelectionList														lure	3	Face	0-Back	65	80	63	0	0	92	1	40	259527	1	13	72	257487	-1	258026	1	539	3	3	2040	53	259540	-54	0																75												
WM080112	176542_fnca	2	1	1	1699413196	1	75.031	75.030	2.0.10.147	2.0.10.242	2.0.10.242	1.0.0.439	7	234	2	3	Verdana	1	80	0	0	0	WM Stimuli\	0.9	1209.22222222222	1	708.7	0.8	898.625	0.9	674.555555555556	1	997.5	1	894.3	0.9	798.777777777778	0.9	1048.44444444444	13	318649	2	318637	14	27	318663	-999999	318651	0	39	TrialsPROC	FC_020_F10.png	2	2	76	SessionSelectionList														target	2	Face	0-Back	66	80	64	0	0	92	1	39	262099	1	14	73	260060	-1	260796	1	736	2	2	2039	53	262113	-54	0																76												
WM080112	176542_fnca	2	1	1	1699413196	1	75.031	75.030	2.0.10.147	2.0.10.242	2.0.10.242	1.0.0.439	7	234	2	3	Verdana	1	80	0	0	0	WM Stimuli\	0.9	1209.22222222222	1	708.7	0.8	898.625	0.9	674.555555555556	1	997.5	1	894.3	0.9	798.777777777778	0.9	1048.44444444444	13	318649	2	318637	14	27	318663	-999999	318651	0	39	TrialsPROC	FC_022_F11.png	2	2	77	SessionSelectionList														nonlure	3	Face	0-Back	67	80	65	0	0	92	1	39	264671	3	14	72	262632	-1	263420	1	788	3	3	2039	53	264685	-54	0																77												
WM080112	176542_fnca	2	1	1	1699413196	1	75.031	75.030	2.0.10.147	2.0.10.242	2.0.10.242	1.0.0.439	7	234	2	3	Verdana	1	80	0	0	0	WM Stimuli\	0.9	1209.22222222222	1	708.7	0.8	898.625	0.9	674.555555555556	1	997.5	1	894.3	0.9	798.777777777778	0.9	1048.44444444444	13	318649	2	318637	14	27	318663	-999999	318651	0	39	TrialsPROC	FC_023_M12.png	2	2	78	SessionSelectionList														lure	3	Face	0-Back	68	80	66	0	0	93	2	40	267244	1	13	72	265204	-1	265894	1	690	3	3	2040	53	267257	-54	0																78												
WM080112	176542_fnca	2	1	1	1699413196	1	75.031	75.030	2.0.10.147	2.0.10.242	2.0.10.242	1.0.0.439	7	234	2	3	Verdana	1	80	0	0	0	WM Stimuli\	0.9	1209.22222222222	1	708.7	0.8	898.625	0.9	674.555555555556	1	997.5	1	894.3	0.9	798.777777777778	0.9	1048.44444444444	13	318649	2	318637	14	27	318663	-999999	318651	0	39	TrialsPROC	FC_021_M11.png	2	2	79	SessionSelectionList														nonlure	3	Face	0-Back	69	80	67	0	0	93	3	39	269816	1	14	73	267777	-1	268308	1	531	3	3	2039	53	269830	-54	0																79												
WM080112	176542_fnca	2	1	1	1699413196	1	75.031	75.030	2.0.10.147	2.0.10.242	2.0.10.242	1.0.0.439	7	234	2	3	Verdana	1	80	0	0	0	WM Stimuli\	0.9	1209.22222222222	1	708.7	0.8	898.625	0.9	674.555555555556	1	997.5	1	894.3	0.9	798.777777777778	0.9	1048.44444444444	13	318649	2	318637	14	27	318663	-999999	318651	0	39	TrialsPROC	FC_021_M11.png	2	2	80	SessionSelectionList														lure	3	Face	0-Back	70	80	68	0	0	93	4	39	272388	3	14	72	270349	-1	271037	1	688	3	3	2039	53	272402	-54	0																80												
WM080112	176542_fnca	2	1	1	1699413196	1	75.031	75.030	2.0.10.147	2.0.10.242	2.0.10.242	1.0.0.439	7	234	2	3	Verdana	1	80	0	0	0	WM Stimuli\	0.9	1209.22222222222	1	708.7	0.8	898.625	0.9	674.555555555556	1	997.5	1	894.3	0.9	798.777777777778	0.9	1048.44444444444	13	318649	2	318637	14	27	318663	-999999	318651	0	39	TrialsPROC	FC_019_M10.png	2	2	81	SessionSelectionList														nonlure	3	Face	0-Back	71	80	69	0	0	93	5	39	274960	2	14	72	272921	-1	273798	1	877	3	3	2039	53	274974	-54	0																81												
WM080112	176542_fnca	2	1	1	1699413196	1	75.031	75.030	2.0.10.147	2.0.10.242	2.0.10.242	1.0.0.439	7	234	2	3	Verdana	1	80	0	0	0	WM Stimuli\	0.9	1209.22222222222	1	708.7	0.8	898.625	0.9	674.555555555556	1	997.5	1	894.3	0.9	798.777777777778	0.9	1048.44444444444	13	318649	2	318637	14	27	318663	-999999	318651	0	40	Cue0BackPROC	PL_021_SCENE_07.png	2	2	82	SessionSelectionList																																										19	275440	-20	0												82												
WM080112	176542_fnca	2	1	1	1699413196	1	75.031	75.030	2.0.10.147	2.0.10.242	2.0.10.242	1.0.0.439	7	234	2	3	Verdana	1	80	0	0	0	WM Stimuli\	0.9	1209.22222222222	1	708.7	0.8	898.625	0.9	674.555555555556	1	997.5	1	894.3	0.9	798.777777777778	0.9	1048.44444444444	13	318649	2	318637	14	27	318663	-999999	318651	0	41	TrialsPROC	PL_025_SCENE_18.png	2	2	83	SessionSelectionList														nonlure	3	Place	0-Back	72	80	70	0	0	94	6	39	280025	3	14	65	277986	-1	278693	1	707	3	3	2039	53	280039	-54	0																83												
WM080112	176542_fnca	2	1	1	1699413196	1	75.031	75.030	2.0.10.147	2.0.10.242	2.0.10.242	1.0.0.439	7	234	2	3	Verdana	1	80	0	0	0	WM Stimuli\	0.9	1209.22222222222	1	708.7	0.8	898.625	0.9	674.555555555556	1	997.5	1	894.3	0.9	798.777777777778	0.9	1048.44444444444	13	318649	2	318637	14	27	318663	-999999	318651	0	41	TrialsPROC	PL_026_SCENE_24.png	2	2	84	SessionSelectionList														nonlure	3	Place	0-Back	73	80	71	0	0	94	7	39	282597	3	14	72	280558	-1	281453	1	895	3	3	2039	53	282611	-54	0																84												
WM080112	176542_fnca	2	1	1	1699413196	1	75.031	75.030	2.0.10.147	2.0.10.242	2.0.10.242	1.0.0.439	7	234	2	3	Verdana	1	80	0	0	0	WM Stimuli\	0.9	1209.22222222222	1	708.7	0.8	898.625	0.9	674.555555555556	1	997.5	1	894.3	0.9	798.777777777778	0.9	1048.44444444444	13	318649	2	318637	14	27	318663	-999999	318651	0	41	TrialsPROC	PL_025_SCENE_18.png	2	2	85	SessionSelectionList														lure	3	Place	0-Back	74	80	72	0	0	94	8	40	285170	1	13	72	283130	-1	284667	1	1537	3	3	2040	53	285183	-54	0																85												
WM080112	176542_fnca	2	1	1	1699413196	1	75.031	75.030	2.0.10.147	2.0.10.242	2.0.10.242	1.0.0.439	7	234	2	3	Verdana	1	80	0	0	0	WM Stimuli\	0.9	1209.22222222222	1	708.7	0.8	898.625	0.9	674.555555555556	1	997.5	1	894.3	0.9	798.777777777778	0.9	1048.44444444444	13	318649	2	318637	14	27	318663	-999999	318651	0	41	TrialsPROC	PL_022_SCENE_08.png	2	2	86	SessionSelectionList														nonlure	3	Place	0-Back	75	80	73	0	0	94	9	39	287742	1	14	73	285703	-1	286507	1	804	3	3	2039	53	287756	-54	0																86												
WM080112	176542_fnca	2	1	1	1699413196	1	75.031	75.030	2.0.10.147	2.0.10.242	2.0.10.242	1.0.0.439	7	234	2	3	Verdana	1	80	0	0	0	WM Stimuli\	0.9	1209.22222222222	1	708.7	0.8	898.625	0.9	674.555555555556	1	997.5	1	894.3	0.9	798.777777777778	0.9	1048.44444444444	13	318649	2	318637	14	27	318663	-999999	318651	0	41	TrialsPROC	PL_026_SCENE_24.png	2	2	87	SessionSelectionList														lure	3	Place	0-Back	76	80	74	0	0	94	10	39	290314	2	14	72	288275	-1	288948	1	673	3	3	2039	53	290328	-54	0																87												
WM080112	176542_fnca	2	1	1	1699413196	1	75.031	75.030	2.0.10.147	2.0.10.242	2.0.10.242	1.0.0.439	7	234	2	3	Verdana	1	80	0	0	0	WM Stimuli\	0.9	1209.22222222222	1	708.7	0.8	898.625	0.9	674.555555555556	1	997.5	1	894.3	0.9	798.777777777778	0.9	1048.44444444444	13	318649	2	318637	14	27	318663	-999999	318651	0	41	TrialsPROC	PL_021_SCENE_07.png	2	2	88	SessionSelectionList														target	2	Place	0-Back	77	80	75	0	0	94	1	39	292886	2	14	72	290847	-1	291340	1	493	2	2	2039	53	292900	-54	0																88												
WM080112	176542_fnca	2	1	1	1699413196	1	75.031	75.030	2.0.10.147	2.0.10.242	2.0.10.242	1.0.0.439	7	234	2	3	Verdana	1	80	0	0	0	WM Stimuli\	0.9	1209.22222222222	1	708.7	0.8	898.625	0.9	674.555555555556	1	997.5	1	894.3	0.9	798.777777777778	0.9	1048.44444444444	13	318649	2	318637	14	27	318663	-999999	318651	0	41	TrialsPROC	PL_021_SCENE_07.png	2	2	89	SessionSelectionList														target	2	Place	0-Back	78	80	76	0	0	95	2	39	295459	1	13	73	293420	-1	294553	1	1133	2	2	2039	52	295472	-53	0																89												
WM080112	176542_fnca	2	1	1	1699413196	1	75.031	75.030	2.0.10.147	2.0.10.242	2.0.10.242	1.0.0.439	7	234	2	3	Verdana	1	80	0	0	0	WM Stimuli\	0.9	1209.22222222222	1	708.7	0.8	898.625	0.9	674.555555555556	1	997.5	1	894.3	0.9	798.777777777778	0.9	1048.44444444444	13	318649	2	318637	14	27	318663	-999999	318651	0	41	TrialsPROC	PL_023_SCENE_09.png	2	2	90	SessionSelectionList														nonlure	3	Place	0-Back	79	80	77	0	0	95	1	39	298031	3	14	72	295992	-1	296670	1	678	3	3	2039	53	298045	-54	0																90												
WM080112	176542_fnca	2	1	1	1699413196	1	75.031	75.030	2.0.10.147	2.0.10.242	2.0.10.242	1.0.0.439	7	234	2	3	Verdana	1	80	0	0	0	WM Stimuli\	0.9	1209.22222222222	1	708.7	0.8	898.625	0.9	674.555555555556	1	997.5	1	894.3	0.9	798.777777777778	0.9	1048.44444444444	13	318649	2	318637	14	27	318663	-999999	318651	0	41	TrialsPROC	PL_024_SCENE_10.png	2	2	91	SessionSelectionList														nonlure	3	Place	0-Back	80	80	78	0	0	95	2	39	300603	2	14	72	298564	-1	299697	1	1133	3	3	2039	53	300617	-54	0																91												
WM080112	176542_fnca	2	1	1	1699413196	1	75.031	75.030	2.0.10.147	2.0.10.242	2.0.10.242	1.0.0.439	7	234	2	3	Verdana	1	80	0	0	0	WM Stimuli\	0.9	1209.22222222222	1	708.7	0.8	898.625	0.9	674.555555555556	1	997.5	1	894.3	0.9	798.777777777778	0.9	1048.44444444444	13	318649	2	318637	14	27	318663	-999999	318651	0	41	TrialsPROC	PL_022_SCENE_08.png	2	2	92	SessionSelectionList														lure	3	Place	0-Back	80	80	79	0	0	95	3	40	303176	1	13	72	301136	-1	302026	1	890	3	3	2040	53	303189	-54	0																92												
WM080112	176542_fnca	2	1	1	1699413196	1	75.031	75.030	2.0.10.147	2.0.10.242	2.0.10.242	1.0.0.439	7	234	2	3	Verdana	1	80	0	0	0	WM Stimuli\	0.9	1209.22222222222	1	708.7	0.8	898.625	0.9	674.555555555556	1	997.5	1	894.3	0.9	798.777777777778	0.9	1048.44444444444	13	318649	2	318637	14	27	318663	-999999	318651	0	42	Fix15secPROC	""	2	2	93	SessionSelectionList																																															7	303643	-8	0							93												
