ExperimentName	HCPID	RunNumber	Subject	Session	RandomSeed	Group	Laptop.RefreshRate	ScannerD2.RefreshRate	StudioVersion	RuntimeVersion	RuntimeVersionExpected	ExperimentVersion	triggercode	Allowed	Target	Nontarget	FontStyle	RunTrialNumber[Session]	TrialsPerRun[Session]	TotalRespGreater200[Session]	ConsecRTLess200[Session]	ConsecNonResp[Session]	StimuliDir	ACC_2_Back_Body	Avg_RT_For_Correct_Trials_2_Back_Body	ACC_0_Back_Body	Avg_RT_For_Correct_Trials_0_Back_Body	ACC_2_Back_Face	Avg_RT_For_Correct_Trials_2_Back_Face	ACC_0_Back_Face	Avg_RT_For_Correct_Trials_0_Back_Face	ACC_2_Back_Place	Avg_RT_For_Correct_Trials_2_Back_Place	ACC_0_Back_Place	Avg_RT_For_Correct_Trials_0_Back_Place	ACC_2_Back_Tools	Avg_RT_For_Correct_Trials_2_Back_Tools	ACC_0_Back_Tools	Avg_RT_For_Correct_Trials_0_Back_Tools	ExpInstrucFeelFreeToRest.OnsetDelay	ExpInstrucFeelFreeToRest.OnsetTime	ExpInstrucFeelFreeToRest.DurationError	ExpInstrucFeelFreeToRest.StartTime	ExpInstrucFeelFreeToRest.OnsetToOnsetTime	FeelFreeToRest.OnsetDelay	FeelFreeToRest.OnsetTime	FeelFreeToRest.DurationError	FeelFreeToRest.StartTime	FeelFreeToRest.OnsetToOnsetTime	SessionSelectionList	Procedure[Block]	Stimulus[Block]	RunNumberFilterValue	SessionSelectionList.Cycle	SessionSelectionList.Sample	Running[Block]	IntroButtonMap.OnsetDelay	IntroButtonMap.OnsetTime	IntroButtonMap.DurationError	IntroButtonMap.OnsetToOnsetTime	GetReady.OnsetDelay	GetReady.OnsetTime	GetReady.DurationError	GetReady.OnsetToOnsetTime	Cue2Back.OnsetDelay	Cue2Back.OnsetTime	Cue2Back.DurationError	Cue2Back.OnsetToOnsetTime	Run1Block1	TargetType	CorrectResponse	StimType	BlockType	RunTrialNumber[Block]	TrialsPerRun[Block]	TotalRespGreater200[Block]	ConsecRTLess200[Block]	ConsecNonResp[Block]	ControlAcc	ConsecSameResp	ExperimenterWindow.OnsetDelay	ExperimenterWindow.OnsetTime	ExperimenterWindow.DurationError	ExperimenterWindow.OnsetToOnsetTime	Stim.OnsetDelay	Stim.OnsetTime	Stim.DurationError	Stim.RTTime	Stim.ACC	Stim.RT	Stim.RESP	Stim.CRESP	Stim.OnsetToOnsetTime	Fix.OnsetDelay	Fix.OnsetTime	Fix.DurationError	Fix.OnsetToOnsetTime	CueTarget.OnsetDelay	CueTarget.OnsetTime	CueTarget.DurationError	CueTarget.OnsetToOnsetTime	Run1Block2	Fix15sec.OnsetDelay	Fix15sec.OnsetTime	Fix15sec.DurationError	Fix15sec.OnsetToOnsetTime	Run1Block3	Run1Block4	Run1Block5	Run1Block6	Run1Block7	Run1Block8	Block	Procedure[Trial]	Stimulus[Trial]	ReadyList	Running[Trial]	ReadyList.Cycle	ReadyList.Sample	SyncSlide.OnsetDelay	SyncSlide.OnsetTime	SyncSlide.DurationError	SyncSlide.FinishTime	SyncSlide.OnsetToOnsetTime	Trial
WM080112	115320_fnca	1	1	1	28627893	1	75.030	75.030	2.0.10.147	2.0.10.242	2.0.10.242	1.0.0.439	7	234	2	3	Verdana	1	80	0	0	0	WM Stimuli\	0.5	1075.6	0.8	1148.625	0.8	1310.375	0.9	806.222222222222	0.9	1135.33333333333	1	820.7	0.8	808.5	0.5	1012.4	13	420632	2	420620	27	40	420659	-999999	420635	0	1	TRSyncPROC	""	1	2	1	SessionSelectionList	102	16381	-999999	0	34	112316	-999999	0																																																	1	InitialTR	4	1	ReadyList	1	1	20	127337	-21	129316	0	1
WM080112	115320_fnca	1	1	1	28627893	1	75.030	75.030	2.0.10.147	2.0.10.242	2.0.10.242	1.0.0.439	7	234	2	3	Verdana	1	80	0	0	0	WM Stimuli\	0.5	1075.6	0.8	1148.625	0.8	1310.375	0.9	806.222222222222	0.9	1135.33333333333	1	820.7	0.8	808.5	0.5	1012.4	13	420632	2	420620	27	40	420659	-999999	420635	0	1	TRSyncPROC	""	1	2	1	SessionSelectionList	102	16381	-999999	0	34	112316	-999999	0																																																	1	InitialTR	3	2	ReadyList	1	2	19	129336	-20	131316	0	2
WM080112	115320_fnca	1	1	1	28627893	1	75.030	75.030	2.0.10.147	2.0.10.242	2.0.10.242	1.0.0.439	7	234	2	3	Verdana	1	80	0	0	0	WM Stimuli\	0.5	1075.6	0.8	1148.625	0.8	1310.375	0.9	806.222222222222	0.9	1135.33333333333	1	820.7	0.8	808.5	0.5	1012.4	13	420632	2	420620	27	40	420659	-999999	420635	0	1	TRSyncPROC	""	1	2	1	SessionSelectionList	102	16381	-999999	0	34	112316	-999999	0																																																	1	InitialTR	2	3	ReadyList	1	3	5	131322	-6	133316	0	3
WM080112	115320_fnca	1	1	1	28627893	1	75.030	75.030	2.0.10.147	2.0.10.242	2.0.10.242	1.0.0.439	7	234	2	3	Verdana	1	80	0	0	0	WM Stimuli\	0.5	1075.6	0.8	1148.625	0.8	1310.375	0.9	806.222222222222	0.9	1135.33333333333	1	820.7	0.8	808.5	0.5	1012.4	13	420632	2	420620	27	40	420659	-999999	420635	0	1	TRSyncPROC	""	1	2	1	SessionSelectionList	102	16381	-999999	0	34	112316	-999999	0																																																	1	InitialTR	1	4	ReadyList	1	4	4	133321	-5	135316	0	4
WM080112	115320_fnca	1	1	1	28627893	1	75.030	75.030	2.0.10.147	2.0.10.242	2.0.10.242	1.0.0.439	7	234	2	3	Verdana	1	80	0	0	0	WM Stimuli\	0.5	1075.6	0.8	1148.625	0.8	1310.375	0.9	806.222222222222	0.9	1135.33333333333	1	820.7	0.8	808.5	0.5	1012.4	13	420632	2	420620	27	40	420659	-999999	420635	0	2	Cue2BackPROC	""	1	2	2	SessionSelectionList									16	135333	-17	0																																													2												
WM080112	115320_fnca	1	1	1	28627893	1	75.030	75.030	2.0.10.147	2.0.10.242	2.0.10.242	1.0.0.439	7	234	2	3	Verdana	1	80	0	0	0	WM Stimuli\	0.5	1075.6	0.8	1148.625	0.8	1310.375	0.9	806.222222222222	0.9	1135.33333333333	1	820.7	0.8	808.5	0.5	1012.4	13	420632	2	420620	27	40	420659	-999999	420635	0	3	TrialsPROC	BP_002_BP10_BA.png	1	2	3	SessionSelectionList													1	nonlure	3	Body	2-Back	2	80	1	0	0	0	1	53	139945	3	14	75	137892	-1	138445	1	553	3	3	2053	67	139959	-68	0																3												
WM080112	115320_fnca	1	1	1	28627893	1	75.030	75.030	2.0.10.147	2.0.10.242	2.0.10.242	1.0.0.439	7	234	2	3	Verdana	1	80	0	0	0	WM Stimuli\	0.5	1075.6	0.8	1148.625	0.8	1310.375	0.9	806.222222222222	0.9	1135.33333333333	1	820.7	0.8	808.5	0.5	1012.4	13	420632	2	420620	27	40	420659	-999999	420635	0	3	TrialsPROC	BP_001_BP1_BA.png	1	2	4	SessionSelectionList													2	nonlure	3	Body	2-Back	3	80	2	0	0	0	2	39	142504	2	14	73	140465	-1	141282	1	817	3	3	2039	53	142518	-54	0																4												
WM080112	115320_fnca	1	1	1	28627893	1	75.030	75.030	2.0.10.147	2.0.10.242	2.0.10.242	1.0.0.439	7	234	2	3	Verdana	1	80	0	0	0	WM Stimuli\	0.5	1075.6	0.8	1148.625	0.8	1310.375	0.9	806.222222222222	0.9	1135.33333333333	1	820.7	0.8	808.5	0.5	1012.4	13	420632	2	420620	27	40	420659	-999999	420635	0	3	TrialsPROC	BP_006_BP2_BA.png	1	2	5	SessionSelectionList													3	nonlure	3	Body	2-Back	4	80	3	0	0	0	1	39	145063	2	14	59	143024	-1	144035	0	1011	2	3	2039	53	145077	-54	0																5												
WM080112	115320_fnca	1	1	1	28627893	1	75.030	75.030	2.0.10.147	2.0.10.242	2.0.10.242	1.0.0.439	7	234	2	3	Verdana	1	80	0	0	0	WM Stimuli\	0.5	1075.6	0.8	1148.625	0.8	1310.375	0.9	806.222222222222	0.9	1135.33333333333	1	820.7	0.8	808.5	0.5	1012.4	13	420632	2	420620	27	40	420659	-999999	420635	0	3	TrialsPROC	BP_001_BP1_BA.png	1	2	6	SessionSelectionList													4	target	2	Body	2-Back	5	80	4	0	0	0	1	39	147635	1	14	72	145596	-1	146401	0	805	3	2	2039	53	147649	-54	0																6												
WM080112	115320_fnca	1	1	1	28627893	1	75.030	75.030	2.0.10.147	2.0.10.242	2.0.10.242	1.0.0.439	7	234	2	3	Verdana	1	80	0	0	0	WM Stimuli\	0.5	1075.6	0.8	1148.625	0.8	1310.375	0.9	806.222222222222	0.9	1135.33333333333	1	820.7	0.8	808.5	0.5	1012.4	13	420632	2	420620	27	40	420659	-999999	420635	0	3	TrialsPROC	BP_005_BP19_BA.png	1	2	7	SessionSelectionList													5	nonlure	3	Body	2-Back	6	80	5	0	0	0	2	39	150207	3	14	72	148168	-1	149244	1	1076	3	3	2039	53	150221	-54	0																7												
WM080112	115320_fnca	1	1	1	28627893	1	75.030	75.030	2.0.10.147	2.0.10.242	2.0.10.242	1.0.0.439	7	234	2	3	Verdana	1	80	0	0	0	WM Stimuli\	0.5	1075.6	0.8	1148.625	0.8	1310.375	0.9	806.222222222222	0.9	1135.33333333333	1	820.7	0.8	808.5	0.5	1012.4	13	420632	2	420620	27	40	420659	-999999	420635	0	3	TrialsPROC	BP_003_BP16_BA.png	1	2	8	SessionSelectionList													6	nonlure	3	Body	2-Back	7	80	6	0	0	0	3	39	152766	3	14	59	150727	-1	152199	1	1472	3	3	2039	53	152780	-54	0																8												
WM080112	115320_fnca	1	1	1	28627893	1	75.030	75.030	2.0.10.147	2.0.10.242	2.0.10.242	1.0.0.439	7	234	2	3	Verdana	1	80	0	0	0	WM Stimuli\	0.5	1075.6	0.8	1148.625	0.8	1310.375	0.9	806.222222222222	0.9	1135.33333333333	1	820.7	0.8	808.5	0.5	1012.4	13	420632	2	420620	27	40	420659	-999999	420635	0	3	TrialsPROC	BP_006_BP2_BA.png	1	2	9	SessionSelectionList													7	lure	3	Body	2-Back	8	80	7	0	0	0	1	39	155325	3	14	59	153286	-1	155125	0	1839	2	3	2039	53	155339	-54	0																9												
WM080112	115320_fnca	1	1	1	28627893	1	75.030	75.030	2.0.10.147	2.0.10.242	2.0.10.242	1.0.0.439	7	234	2	3	Verdana	1	80	0	0	0	WM Stimuli\	0.5	1075.6	0.8	1148.625	0.8	1310.375	0.9	806.222222222222	0.9	1135.33333333333	1	820.7	0.8	808.5	0.5	1012.4	13	420632	2	420620	27	40	420659	-999999	420635	0	3	TrialsPROC	BP_004_BP18_BA.png	1	2	10	SessionSelectionList													8	nonlure	3	Body	2-Back	9	80	8	0	0	0	1	39	157884	2	14	59	155845	-1	157305	1	1460	3	3	2039	53	157898	-54	0																10												
WM080112	115320_fnca	1	1	1	28627893	1	75.030	75.030	2.0.10.147	2.0.10.242	2.0.10.242	1.0.0.439	7	234	2	3	Verdana	1	80	0	0	0	WM Stimuli\	0.5	1075.6	0.8	1148.625	0.8	1310.375	0.9	806.222222222222	0.9	1135.33333333333	1	820.7	0.8	808.5	0.5	1012.4	13	420632	2	420620	27	40	420659	-999999	420635	0	3	TrialsPROC	BP_005_BP19_BA.png	1	2	11	SessionSelectionList													9	lure	3	Body	2-Back	10	80	9	0	0	0	1	39	160443	2	14	59	158404	-1	159677	0	1273	2	3	2039	53	160457	-54	0																11												
WM080112	115320_fnca	1	1	1	28627893	1	75.030	75.030	2.0.10.147	2.0.10.242	2.0.10.242	1.0.0.439	7	234	2	3	Verdana	1	80	0	0	0	WM Stimuli\	0.5	1075.6	0.8	1148.625	0.8	1310.375	0.9	806.222222222222	0.9	1135.33333333333	1	820.7	0.8	808.5	0.5	1012.4	13	420632	2	420620	27	40	420659	-999999	420635	0	3	TrialsPROC	BP_004_BP18_BA.png	1	2	12	SessionSelectionList													10	target	2	Body	2-Back	11	80	9	0	1	0	1	39	163002	2	14	59	160963	-1	0	0	0	""	2	2039	53	163016	-54	0																12												
WM080112	115320_fnca	1	1	1	28627893	1	75.030	75.030	2.0.10.147	2.0.10.242	2.0.10.242	1.0.0.439	7	234	2	3	Verdana	1	80	0	0	0	WM Stimuli\	0.5	1075.6	0.8	1148.625	0.8	1310.375	0.9	806.222222222222	0.9	1135.33333333333	1	820.7	0.8	808.5	0.5	1012.4	13	420632	2	420620	27	40	420659	-999999	420635	0	4	Cue0BackPROC	FC_001_M1.png	1	2	13	SessionSelectionList																																										19	163482	-20	0												13												
WM080112	115320_fnca	1	1	1	28627893	1	75.030	75.030	2.0.10.147	2.0.10.242	2.0.10.242	1.0.0.439	7	234	2	3	Verdana	1	80	0	0	0	WM Stimuli\	0.5	1075.6	0.8	1148.625	0.8	1310.375	0.9	806.222222222222	0.9	1135.33333333333	1	820.7	0.8	808.5	0.5	1012.4	13	420632	2	420620	27	40	420659	-999999	420635	0	5	TrialsPROC	FC_005_M3.png	1	2	14	SessionSelectionList														nonlure	3	Face	0-Back	12	80	10	0	0	100	1	39	168067	1	14	65	166028	-1	167004	1	976	3	3	2039	53	168081	-54	0					1											14												
WM080112	115320_fnca	1	1	1	28627893	1	75.030	75.030	2.0.10.147	2.0.10.242	2.0.10.242	1.0.0.439	7	234	2	3	Verdana	1	80	0	0	0	WM Stimuli\	0.5	1075.6	0.8	1148.625	0.8	1310.375	0.9	806.222222222222	0.9	1135.33333333333	1	820.7	0.8	808.5	0.5	1012.4	13	420632	2	420620	27	40	420659	-999999	420635	0	5	TrialsPROC	FC_001_M1.png	1	2	15	SessionSelectionList														target	2	Face	0-Back	13	80	11	0	0	100	1	39	170639	2	14	72	168600	-1	169268	1	668	2	2	2039	53	170653	-54	0					2											15												
WM080112	115320_fnca	1	1	1	28627893	1	75.030	75.030	2.0.10.147	2.0.10.242	2.0.10.242	1.0.0.439	7	234	2	3	Verdana	1	80	0	0	0	WM Stimuli\	0.5	1075.6	0.8	1148.625	0.8	1310.375	0.9	806.222222222222	0.9	1135.33333333333	1	820.7	0.8	808.5	0.5	1012.4	13	420632	2	420620	27	40	420659	-999999	420635	0	5	TrialsPROC	FC_003_M2.png	1	2	16	SessionSelectionList														nonlure	3	Face	0-Back	14	80	12	0	0	100	1	39	173211	3	14	72	171172	-1	172335	1	1163	3	3	2039	53	173225	-54	0					3											16												
WM080112	115320_fnca	1	1	1	28627893	1	75.030	75.030	2.0.10.147	2.0.10.242	2.0.10.242	1.0.0.439	7	234	2	3	Verdana	1	80	0	0	0	WM Stimuli\	0.5	1075.6	0.8	1148.625	0.8	1310.375	0.9	806.222222222222	0.9	1135.33333333333	1	820.7	0.8	808.5	0.5	1012.4	13	420632	2	420620	27	40	420659	-999999	420635	0	5	TrialsPROC	FC_004_F2.png	1	2	17	SessionSelectionList														nonlure	3	Face	0-Back	15	80	13	0	0	100	2	39	175784	1	13	73	173745	-1	174528	1	783	3	3	2039	52	175797	-53	0					4											17												
WM080112	115320_fnca	1	1	1	28627893	1	75.030	75.030	2.0.10.147	2.0.10.242	2.0.10.242	1.0.0.439	7	234	2	3	Verdana	1	80	0	0	0	WM Stimuli\	0.5	1075.6	0.8	1148.625	0.8	1310.375	0.9	806.222222222222	0.9	1135.33333333333	1	820.7	0.8	808.5	0.5	1012.4	13	420632	2	420620	27	40	420659	-999999	420635	0	5	TrialsPROC	FC_004_F2.png	1	2	18	SessionSelectionList														lure	3	Face	0-Back	16	80	14	0	0	100	3	39	178356	2	14	72	176317	-1	177064	1	747	3	3	2039	53	178370	-54	0					5											18												
WM080112	115320_fnca	1	1	1	28627893	1	75.030	75.030	2.0.10.147	2.0.10.242	2.0.10.242	1.0.0.439	7	234	2	3	Verdana	1	80	0	0	0	WM Stimuli\	0.5	1075.6	0.8	1148.625	0.8	1310.375	0.9	806.222222222222	0.9	1135.33333333333	1	820.7	0.8	808.5	0.5	1012.4	13	420632	2	420620	27	40	420659	-999999	420635	0	5	TrialsPROC	FC_001_M1.png	1	2	19	SessionSelectionList														target	2	Face	0-Back	17	80	15	0	0	100	1	39	180928	2	14	72	178889	-1	179408	1	519	2	2	2039	53	180942	-54	0					6											19												
WM080112	115320_fnca	1	1	1	28627893	1	75.030	75.030	2.0.10.147	2.0.10.242	2.0.10.242	1.0.0.439	7	234	2	3	Verdana	1	80	0	0	0	WM Stimuli\	0.5	1075.6	0.8	1148.625	0.8	1310.375	0.9	806.222222222222	0.9	1135.33333333333	1	820.7	0.8	808.5	0.5	1012.4	13	420632	2	420620	27	40	420659	-999999	420635	0	5	TrialsPROC	FC_006_F3.png	1	2	20	SessionSelectionList														nonlure	3	Face	0-Back	18	80	16	0	0	100	1	40	183501	1	13	72	181461	-1	182187	1	726	3	3	2040	53	183514	-54	0					7											20												
WM080112	115320_fnca	1	1	1	28627893	1	75.030	75.030	2.0.10.147	2.0.10.242	2.0.10.242	1.0.0.439	7	234	2	3	Verdana	1	80	0	0	0	WM Stimuli\	0.5	1075.6	0.8	1148.625	0.8	1310.375	0.9	806.222222222222	0.9	1135.33333333333	1	820.7	0.8	808.5	0.5	1012.4	13	420632	2	420620	27	40	420659	-999999	420635	0	5	TrialsPROC	FC_006_F3.png	1	2	21	SessionSelectionList														lure	3	Face	0-Back	19	80	17	0	0	100	2	39	186073	2	14	73	184034	-1	185000	1	966	3	3	2039	53	186087	-54	0					8											21												
WM080112	115320_fnca	1	1	1	28627893	1	75.030	75.030	2.0.10.147	2.0.10.242	2.0.10.242	1.0.0.439	7	234	2	3	Verdana	1	80	0	0	0	WM Stimuli\	0.5	1075.6	0.8	1148.625	0.8	1310.375	0.9	806.222222222222	0.9	1135.33333333333	1	820.7	0.8	808.5	0.5	1012.4	13	420632	2	420620	27	40	420659	-999999	420635	0	5	TrialsPROC	FC_003_M2.png	1	2	22	SessionSelectionList														lure	3	Face	0-Back	20	80	18	0	0	89	1	39	188645	2	14	72	186606	-1	187460	0	854	2	3	2039	53	188659	-54	0					9											22												
WM080112	115320_fnca	1	1	1	28627893	1	75.030	75.030	2.0.10.147	2.0.10.242	2.0.10.242	1.0.0.439	7	234	2	3	Verdana	1	80	0	0	0	WM Stimuli\	0.5	1075.6	0.8	1148.625	0.8	1310.375	0.9	806.222222222222	0.9	1135.33333333333	1	820.7	0.8	808.5	0.5	1012.4	13	420632	2	420620	27	40	420659	-999999	420635	0	5	TrialsPROC	FC_002_F1.png	1	2	23	SessionSelectionList														nonlure	3	Face	0-Back	21	80	19	0	0	90	1	39	191217	2	14	72	189178	-1	189886	1	708	3	3	2039	53	191231	-54	0					10											23												
WM080112	115320_fnca	1	1	1	28627893	1	75.030	75.030	2.0.10.147	2.0.10.242	2.0.10.242	1.0.0.439	7	234	2	3	Verdana	1	80	0	0	0	WM Stimuli\	0.5	1075.6	0.8	1148.625	0.8	1310.375	0.9	806.222222222222	0.9	1135.33333333333	1	820.7	0.8	808.5	0.5	1012.4	13	420632	2	420620	27	40	420659	-999999	420635	0	6	Fix15secPROC	""	1	2	24	SessionSelectionList																																															6	191684	-7	0							24												
WM080112	115320_fnca	1	1	1	28627893	1	75.030	75.030	2.0.10.147	2.0.10.242	2.0.10.242	1.0.0.439	7	234	2	3	Verdana	1	80	0	0	0	WM Stimuli\	0.5	1075.6	0.8	1148.625	0.8	1310.375	0.9	806.222222222222	0.9	1135.33333333333	1	820.7	0.8	808.5	0.5	1012.4	13	420632	2	420620	27	40	420659	-999999	420635	0	7	Cue2BackPROC	""	1	2	25	SessionSelectionList									13	206691	-14	0																																													25												
WM080112	115320_fnca	1	1	1	28627893	1	75.030	75.030	2.0.10.147	2.0.10.242	2.0.10.242	1.0.0.439	7	234	2	3	Verdana	1	80	0	0	0	WM Stimuli\	0.5	1075.6	0.8	1148.625	0.8	1310.375	0.9	806.222222222222	0.9	1135.33333333333	1	820.7	0.8	808.5	0.5	1012.4	13	420632	2	420620	27	40	420659	-999999	420635	0	8	TrialsPROC	TO_001_TOOL1_BA.png	1	2	26	SessionSelectionList														nonlure	3	Tools	2-Back	22	80	20	0	0	90	2	39	211276	1	14	59	209237	-1	209872	1	635	3	3	2039	53	211290	-54	0										1						26												
WM080112	115320_fnca	1	1	1	28627893	1	75.030	75.030	2.0.10.147	2.0.10.242	2.0.10.242	1.0.0.439	7	234	2	3	Verdana	1	80	0	0	0	WM Stimuli\	0.5	1075.6	0.8	1148.625	0.8	1310.375	0.9	806.222222222222	0.9	1135.33333333333	1	820.7	0.8	808.5	0.5	1012.4	13	420632	2	420620	27	40	420659	-999999	420635	0	8	TrialsPROC	TO_002_TOOL2_BA.png	1	2	27	SessionSelectionList														nonlure	3	Tools	2-Back	23	80	21	0	0	90	3	39	213835	3	14	59	211796	-1	212510	1	714	3	3	2039	53	213849	-54	0										2						27												
WM080112	115320_fnca	1	1	1	28627893	1	75.030	75.030	2.0.10.147	2.0.10.242	2.0.10.242	1.0.0.439	7	234	2	3	Verdana	1	80	0	0	0	WM Stimuli\	0.5	1075.6	0.8	1148.625	0.8	1310.375	0.9	806.222222222222	0.9	1135.33333333333	1	820.7	0.8	808.5	0.5	1012.4	13	420632	2	420620	27	40	420659	-999999	420635	0	8	TrialsPROC	TO_004_TOOL4_BA.png	1	2	28	SessionSelectionList														nonlure	3	Tools	2-Back	24	80	22	0	0	90	4	39	216394	1	14	59	214355	-1	215180	1	825	3	3	2039	53	216408	-54	0										3						28												
WM080112	115320_fnca	1	1	1	28627893	1	75.030	75.030	2.0.10.147	2.0.10.242	2.0.10.242	1.0.0.439	7	234	2	3	Verdana	1	80	0	0	0	WM Stimuli\	0.5	1075.6	0.8	1148.625	0.8	1310.375	0.9	806.222222222222	0.9	1135.33333333333	1	820.7	0.8	808.5	0.5	1012.4	13	420632	2	420620	27	40	420659	-999999	420635	0	8	TrialsPROC	TO_002_TOOL2_BA.png	1	2	29	SessionSelectionList														target	2	Tools	2-Back	25	80	23	0	0	90	1	39	218953	2	14	59	216914	-1	218048	1	1134	2	2	2039	53	218967	-54	0										4						29												
WM080112	115320_fnca	1	1	1	28627893	1	75.030	75.030	2.0.10.147	2.0.10.242	2.0.10.242	1.0.0.439	7	234	2	3	Verdana	1	80	0	0	0	WM Stimuli\	0.5	1075.6	0.8	1148.625	0.8	1310.375	0.9	806.222222222222	0.9	1135.33333333333	1	820.7	0.8	808.5	0.5	1012.4	13	420632	2	420620	27	40	420659	-999999	420635	0	8	TrialsPROC	TO_001_TOOL1_BA.png	1	2	30	SessionSelectionList														lure	3	Tools	2-Back	26	80	24	0	0	90	2	39	221512	1	14	59	219473	-1	221359	0	1886	2	3	2039	53	221526	-54	0										5						30												
WM080112	115320_fnca	1	1	1	28627893	1	75.030	75.030	2.0.10.147	2.0.10.242	2.0.10.242	1.0.0.439	7	234	2	3	Verdana	1	80	0	0	0	WM Stimuli\	0.5	1075.6	0.8	1148.625	0.8	1310.375	0.9	806.222222222222	0.9	1135.33333333333	1	820.7	0.8	808.5	0.5	1012.4	13	420632	2	420620	27	40	420659	-999999	420635	0	8	TrialsPROC	TO_004_TOOL4_BA.png	1	2	31	SessionSelectionList														lure	3	Tools	2-Back	27	80	25	0	0	90	3	39	224071	1	14	59	222032	-1	223464	0	1432	2	3	2039	53	224085	-54	0										6						31												
WM080112	115320_fnca	1	1	1	28627893	1	75.030	75.030	2.0.10.147	2.0.10.242	2.0.10.242	1.0.0.439	7	234	2	3	Verdana	1	80	0	0	0	WM Stimuli\	0.5	1075.6	0.8	1148.625	0.8	1310.375	0.9	806.222222222222	0.9	1135.33333333333	1	820.7	0.8	808.5	0.5	1012.4	13	420632	2	420620	27	40	420659	-999999	420635	0	8	TrialsPROC	TO_006_TOOL6_BA.png	1	2	32	SessionSelectionList														nonlure	3	Tools	2-Back	28	80	26	0	0	90	1	39	226630	1	14	59	224591	-1	225434	1	843	3	3	2039	53	226644	-54	0										7						32												
WM080112	115320_fnca	1	1	1	28627893	1	75.030	75.030	2.0.10.147	2.0.10.242	2.0.10.242	1.0.0.439	7	234	2	3	Verdana	1	80	0	0	0	WM Stimuli\	0.5	1075.6	0.8	1148.625	0.8	1310.375	0.9	806.222222222222	0.9	1135.33333333333	1	820.7	0.8	808.5	0.5	1012.4	13	420632	2	420620	27	40	420659	-999999	420635	0	8	TrialsPROC	TO_005_TOOL5_BA.png	1	2	33	SessionSelectionList														nonlure	3	Tools	2-Back	29	80	27	0	0	90	2	39	229189	2	14	59	227150	-1	228183	1	1033	3	3	2039	53	229203	-54	0										8						33												
WM080112	115320_fnca	1	1	1	28627893	1	75.030	75.030	2.0.10.147	2.0.10.242	2.0.10.242	1.0.0.439	7	234	2	3	Verdana	1	80	0	0	0	WM Stimuli\	0.5	1075.6	0.8	1148.625	0.8	1310.375	0.9	806.222222222222	0.9	1135.33333333333	1	820.7	0.8	808.5	0.5	1012.4	13	420632	2	420620	27	40	420659	-999999	420635	0	8	TrialsPROC	TO_006_TOOL6_BA.png	1	2	34	SessionSelectionList														target	2	Tools	2-Back	30	80	28	0	0	90	1	39	231748	1	14	59	229709	-1	230230	1	521	2	2	2039	53	231762	-54	0										9						34												
WM080112	115320_fnca	1	1	1	28627893	1	75.030	75.030	2.0.10.147	2.0.10.242	2.0.10.242	1.0.0.439	7	234	2	3	Verdana	1	80	0	0	0	WM Stimuli\	0.5	1075.6	0.8	1148.625	0.8	1310.375	0.9	806.222222222222	0.9	1135.33333333333	1	820.7	0.8	808.5	0.5	1012.4	13	420632	2	420620	27	40	420659	-999999	420635	0	8	TrialsPROC	TO_003_TOOL3_BA.png	1	2	35	SessionSelectionList														nonlure	3	Tools	2-Back	31	80	29	0	0	90	1	39	234307	1	14	59	232268	-1	233031	1	763	3	3	2039	53	234321	-54	0										10						35												
WM080112	115320_fnca	1	1	1	28627893	1	75.030	75.030	2.0.10.147	2.0.10.242	2.0.10.242	1.0.0.439	7	234	2	3	Verdana	1	80	0	0	0	WM Stimuli\	0.5	1075.6	0.8	1148.625	0.8	1310.375	0.9	806.222222222222	0.9	1135.33333333333	1	820.7	0.8	808.5	0.5	1012.4	13	420632	2	420620	27	40	420659	-999999	420635	0	9	Cue0BackPROC	BP_007_BP20_BA.png	1	2	36	SessionSelectionList																																										19	234787	-20	0												36												
WM080112	115320_fnca	1	1	1	28627893	1	75.030	75.030	2.0.10.147	2.0.10.242	2.0.10.242	1.0.0.439	7	234	2	3	Verdana	1	80	0	0	0	WM Stimuli\	0.5	1075.6	0.8	1148.625	0.8	1310.375	0.9	806.222222222222	0.9	1135.33333333333	1	820.7	0.8	808.5	0.5	1012.4	13	420632	2	420620	27	40	420659	-999999	420635	0	10	TrialsPROC	BP_007_BP20_BA.png	1	2	37	SessionSelectionList														target	2	Body	0-Back	32	80	30	0	0	91	1	39	239358	3	14	51	237319	-1	238866	1	1547	2	2	2039	53	239372	-54	0											1					37												
WM080112	115320_fnca	1	1	1	28627893	1	75.030	75.030	2.0.10.147	2.0.10.242	2.0.10.242	1.0.0.439	7	234	2	3	Verdana	1	80	0	0	0	WM Stimuli\	0.5	1075.6	0.8	1148.625	0.8	1310.375	0.9	806.222222222222	0.9	1135.33333333333	1	820.7	0.8	808.5	0.5	1012.4	13	420632	2	420620	27	40	420659	-999999	420635	0	10	TrialsPROC	BP_011_BP4_BA.png	1	2	38	SessionSelectionList														nonlure	3	Body	0-Back	33	80	31	0	0	92	1	39	241930	3	14	72	239891	-1	240617	1	726	3	3	2039	53	241944	-54	0											2					38												
WM080112	115320_fnca	1	1	1	28627893	1	75.030	75.030	2.0.10.147	2.0.10.242	2.0.10.242	1.0.0.439	7	234	2	3	Verdana	1	80	0	0	0	WM Stimuli\	0.5	1075.6	0.8	1148.625	0.8	1310.375	0.9	806.222222222222	0.9	1135.33333333333	1	820.7	0.8	808.5	0.5	1012.4	13	420632	2	420620	27	40	420659	-999999	420635	0	10	TrialsPROC	BP_010_BP3_BA.png	1	2	39	SessionSelectionList														nonlure	3	Body	0-Back	34	80	32	0	0	92	2	39	244489	2	14	59	242450	-1	243713	1	1263	3	3	2039	53	244503	-54	0											3					39												
WM080112	115320_fnca	1	1	1	28627893	1	75.030	75.030	2.0.10.147	2.0.10.242	2.0.10.242	1.0.0.439	7	234	2	3	Verdana	1	80	0	0	0	WM Stimuli\	0.5	1075.6	0.8	1148.625	0.8	1310.375	0.9	806.222222222222	0.9	1135.33333333333	1	820.7	0.8	808.5	0.5	1012.4	13	420632	2	420620	27	40	420659	-999999	420635	0	10	TrialsPROC	BP_008_BP21_BA.png	1	2	40	SessionSelectionList														nonlure	3	Body	0-Back	35	80	33	0	0	93	3	39	247048	3	14	59	245009	-1	246260	1	1251	3	3	2039	53	247062	-54	0											4					40												
WM080112	115320_fnca	1	1	1	28627893	1	75.030	75.030	2.0.10.147	2.0.10.242	2.0.10.242	1.0.0.439	7	234	2	3	Verdana	1	80	0	0	0	WM Stimuli\	0.5	1075.6	0.8	1148.625	0.8	1310.375	0.9	806.222222222222	0.9	1135.33333333333	1	820.7	0.8	808.5	0.5	1012.4	13	420632	2	420620	27	40	420659	-999999	420635	0	10	TrialsPROC	BP_011_BP4_BA.png	1	2	41	SessionSelectionList														lure	3	Body	0-Back	36	80	34	0	0	87	1	40	249621	1	13	72	247581	-1	248287	0	706	2	3	2040	53	249634	-54	0											5					41												
WM080112	115320_fnca	1	1	1	28627893	1	75.030	75.030	2.0.10.147	2.0.10.242	2.0.10.242	1.0.0.439	7	234	2	3	Verdana	1	80	0	0	0	WM Stimuli\	0.5	1075.6	0.8	1148.625	0.8	1310.375	0.9	806.222222222222	0.9	1135.33333333333	1	820.7	0.8	808.5	0.5	1012.4	13	420632	2	420620	27	40	420659	-999999	420635	0	10	TrialsPROC	BP_009_BP22_BA.png	1	2	42	SessionSelectionList														nonlure	3	Body	0-Back	37	80	35	0	0	88	1	40	252180	2	13	59	250140	-1	251031	1	891	3	3	2040	53	252193	-54	0											6					42												
WM080112	115320_fnca	1	1	1	28627893	1	75.030	75.030	2.0.10.147	2.0.10.242	2.0.10.242	1.0.0.439	7	234	2	3	Verdana	1	80	0	0	0	WM Stimuli\	0.5	1075.6	0.8	1148.625	0.8	1310.375	0.9	806.222222222222	0.9	1135.33333333333	1	820.7	0.8	808.5	0.5	1012.4	13	420632	2	420620	27	40	420659	-999999	420635	0	10	TrialsPROC	BP_009_BP22_BA.png	1	2	43	SessionSelectionList														lure	3	Body	0-Back	38	80	36	0	0	88	2	39	254738	2	14	59	252699	-1	253527	1	828	3	3	2039	53	254752	-54	0											7					43												
WM080112	115320_fnca	1	1	1	28627893	1	75.030	75.030	2.0.10.147	2.0.10.242	2.0.10.242	1.0.0.439	7	234	2	3	Verdana	1	80	0	0	0	WM Stimuli\	0.5	1075.6	0.8	1148.625	0.8	1310.375	0.9	806.222222222222	0.9	1135.33333333333	1	820.7	0.8	808.5	0.5	1012.4	13	420632	2	420620	27	40	420659	-999999	420635	0	10	TrialsPROC	BP_008_BP21_BA.png	1	2	44	SessionSelectionList														lure	3	Body	0-Back	39	80	37	0	0	89	3	39	257297	2	14	59	255258	-1	256304	1	1046	3	3	2039	53	257311	-54	0											8					44												
WM080112	115320_fnca	1	1	1	28627893	1	75.030	75.030	2.0.10.147	2.0.10.242	2.0.10.242	1.0.0.439	7	234	2	3	Verdana	1	80	0	0	0	WM Stimuli\	0.5	1075.6	0.8	1148.625	0.8	1310.375	0.9	806.222222222222	0.9	1135.33333333333	1	820.7	0.8	808.5	0.5	1012.4	13	420632	2	420620	27	40	420659	-999999	420635	0	10	TrialsPROC	BP_007_BP20_BA.png	1	2	45	SessionSelectionList														target	2	Body	0-Back	40	80	38	0	0	84	4	39	259856	2	14	59	257817	-1	259414	0	1597	3	2	2039	53	259870	-54	0											9					45												
WM080112	115320_fnca	1	1	1	28627893	1	75.030	75.030	2.0.10.147	2.0.10.242	2.0.10.242	1.0.0.439	7	234	2	3	Verdana	1	80	0	0	0	WM Stimuli\	0.5	1075.6	0.8	1148.625	0.8	1310.375	0.9	806.222222222222	0.9	1135.33333333333	1	820.7	0.8	808.5	0.5	1012.4	13	420632	2	420620	27	40	420659	-999999	420635	0	10	TrialsPROC	BP_012_BP5_BA.png	1	2	46	SessionSelectionList														nonlure	3	Body	0-Back	41	80	39	0	0	85	5	38	262415	2	14	60	260377	-1	262014	1	1637	3	3	2038	52	262429	-53	0											10					46												
WM080112	115320_fnca	1	1	1	28627893	1	75.030	75.030	2.0.10.147	2.0.10.242	2.0.10.242	1.0.0.439	7	234	2	3	Verdana	1	80	0	0	0	WM Stimuli\	0.5	1075.6	0.8	1148.625	0.8	1310.375	0.9	806.222222222222	0.9	1135.33333333333	1	820.7	0.8	808.5	0.5	1012.4	13	420632	2	420620	27	40	420659	-999999	420635	0	11	Fix15secPROC	""	1	2	47	SessionSelectionList																																															5	262882	-6	0							47												
WM080112	115320_fnca	1	1	1	28627893	1	75.030	75.030	2.0.10.147	2.0.10.242	2.0.10.242	1.0.0.439	7	234	2	3	Verdana	1	80	0	0	0	WM Stimuli\	0.5	1075.6	0.8	1148.625	0.8	1310.375	0.9	806.222222222222	0.9	1135.33333333333	1	820.7	0.8	808.5	0.5	1012.4	13	420632	2	420620	27	40	420659	-999999	420635	0	12	Cue0BackPROC	PL_001_92012.png	1	2	48	SessionSelectionList																																										12	277889	-13	0												48												
WM080112	115320_fnca	1	1	1	28627893	1	75.030	75.030	2.0.10.147	2.0.10.242	2.0.10.242	1.0.0.439	7	234	2	3	Verdana	1	80	0	0	0	WM Stimuli\	0.5	1075.6	0.8	1148.625	0.8	1310.375	0.9	806.222222222222	0.9	1135.33333333333	1	820.7	0.8	808.5	0.5	1012.4	13	420632	2	420620	27	40	420659	-999999	420635	0	13	TrialsPROC	PL_003_92016.png	1	2	49	SessionSelectionList														nonlure	3	Place	0-Back	42	80	40	0	0	86	6	39	282487	2	14	71	280448	-1	281729	1	1281	3	3	2039	53	282501	-54	0												1				49												
WM080112	115320_fnca	1	1	1	28627893	1	75.030	75.030	2.0.10.147	2.0.10.242	2.0.10.242	1.0.0.439	7	234	2	3	Verdana	1	80	0	0	0	WM Stimuli\	0.5	1075.6	0.8	1148.625	0.8	1310.375	0.9	806.222222222222	0.9	1135.33333333333	1	820.7	0.8	808.5	0.5	1012.4	13	420632	2	420620	27	40	420659	-999999	420635	0	13	TrialsPROC	PL_003_92016.png	1	2	50	SessionSelectionList														lure	3	Place	0-Back	43	80	41	0	0	86	7	40	285060	1	13	72	283020	-1	284110	1	1090	3	3	2040	53	285073	-54	0												2				50												
WM080112	115320_fnca	1	1	1	28627893	1	75.030	75.030	2.0.10.147	2.0.10.242	2.0.10.242	1.0.0.439	7	234	2	3	Verdana	1	80	0	0	0	WM Stimuli\	0.5	1075.6	0.8	1148.625	0.8	1310.375	0.9	806.222222222222	0.9	1135.33333333333	1	820.7	0.8	808.5	0.5	1012.4	13	420632	2	420620	27	40	420659	-999999	420635	0	13	TrialsPROC	PL_006_92025.png	1	2	51	SessionSelectionList														nonlure	3	Place	0-Back	44	80	42	0	0	87	8	39	287632	1	14	73	285593	-1	286591	1	998	3	3	2039	53	287646	-54	0												3				51												
WM080112	115320_fnca	1	1	1	28627893	1	75.030	75.030	2.0.10.147	2.0.10.242	2.0.10.242	1.0.0.439	7	234	2	3	Verdana	1	80	0	0	0	WM Stimuli\	0.5	1075.6	0.8	1148.625	0.8	1310.375	0.9	806.222222222222	0.9	1135.33333333333	1	820.7	0.8	808.5	0.5	1012.4	13	420632	2	420620	27	40	420659	-999999	420635	0	13	TrialsPROC	PL_001_92012.png	1	2	52	SessionSelectionList														target	2	Place	0-Back	45	80	43	0	0	88	1	39	290204	3	14	72	288165	-1	288705	1	540	2	2	2039	53	290218	-54	0												4				52												
WM080112	115320_fnca	1	1	1	28627893	1	75.030	75.030	2.0.10.147	2.0.10.242	2.0.10.242	1.0.0.439	7	234	2	3	Verdana	1	80	0	0	0	WM Stimuli\	0.5	1075.6	0.8	1148.625	0.8	1310.375	0.9	806.222222222222	0.9	1135.33333333333	1	820.7	0.8	808.5	0.5	1012.4	13	420632	2	420620	27	40	420659	-999999	420635	0	13	TrialsPROC	PL_004_92023.png	1	2	53	SessionSelectionList														nonlure	3	Place	0-Back	46	80	44	0	0	88	1	39	292776	3	14	72	290737	-1	291354	1	617	3	3	2039	53	292790	-54	0												5				53												
WM080112	115320_fnca	1	1	1	28627893	1	75.030	75.030	2.0.10.147	2.0.10.242	2.0.10.242	1.0.0.439	7	234	2	3	Verdana	1	80	0	0	0	WM Stimuli\	0.5	1075.6	0.8	1148.625	0.8	1310.375	0.9	806.222222222222	0.9	1135.33333333333	1	820.7	0.8	808.5	0.5	1012.4	13	420632	2	420620	27	40	420659	-999999	420635	0	13	TrialsPROC	PL_005_92024.png	1	2	54	SessionSelectionList														nonlure	3	Place	0-Back	47	80	45	0	0	88	2	39	295349	2	14	73	293310	-1	294413	1	1103	3	3	2039	53	295363	-54	0												6				54												
WM080112	115320_fnca	1	1	1	28627893	1	75.030	75.030	2.0.10.147	2.0.10.242	2.0.10.242	1.0.0.439	7	234	2	3	Verdana	1	80	0	0	0	WM Stimuli\	0.5	1075.6	0.8	1148.625	0.8	1310.375	0.9	806.222222222222	0.9	1135.33333333333	1	820.7	0.8	808.5	0.5	1012.4	13	420632	2	420620	27	40	420659	-999999	420635	0	13	TrialsPROC	PL_001_92012.png	1	2	55	SessionSelectionList														target	2	Place	0-Back	48	80	46	0	0	89	1	39	297921	3	14	72	295882	-1	296433	1	551	2	2	2039	53	297935	-54	0												7				55												
WM080112	115320_fnca	1	1	1	28627893	1	75.030	75.030	2.0.10.147	2.0.10.242	2.0.10.242	1.0.0.439	7	234	2	3	Verdana	1	80	0	0	0	WM Stimuli\	0.5	1075.6	0.8	1148.625	0.8	1310.375	0.9	806.222222222222	0.9	1135.33333333333	1	820.7	0.8	808.5	0.5	1012.4	13	420632	2	420620	27	40	420659	-999999	420635	0	13	TrialsPROC	PL_002_92014.png	1	2	56	SessionSelectionList														nonlure	3	Place	0-Back	49	80	47	0	0	89	1	39	300493	2	14	72	298454	-1	299080	1	626	3	3	2039	53	300507	-54	0												8				56												
WM080112	115320_fnca	1	1	1	28627893	1	75.030	75.030	2.0.10.147	2.0.10.242	2.0.10.242	1.0.0.439	7	234	2	3	Verdana	1	80	0	0	0	WM Stimuli\	0.5	1075.6	0.8	1148.625	0.8	1310.375	0.9	806.222222222222	0.9	1135.33333333333	1	820.7	0.8	808.5	0.5	1012.4	13	420632	2	420620	27	40	420659	-999999	420635	0	13	TrialsPROC	PL_004_92023.png	1	2	57	SessionSelectionList														lure	3	Place	0-Back	50	80	48	0	0	90	2	40	303066	2	13	72	301026	-1	301882	1	856	3	3	2040	53	303079	-54	0												9				57												
WM080112	115320_fnca	1	1	1	28627893	1	75.030	75.030	2.0.10.147	2.0.10.242	2.0.10.242	1.0.0.439	7	234	2	3	Verdana	1	80	0	0	0	WM Stimuli\	0.5	1075.6	0.8	1148.625	0.8	1310.375	0.9	806.222222222222	0.9	1135.33333333333	1	820.7	0.8	808.5	0.5	1012.4	13	420632	2	420620	27	40	420659	-999999	420635	0	13	TrialsPROC	PL_006_92025.png	1	2	58	SessionSelectionList														lure	3	Place	0-Back	51	80	49	0	0	90	3	39	305638	1	14	73	303599	-1	304144	1	545	3	3	2039	53	305652	-54	0												10				58												
WM080112	115320_fnca	1	1	1	28627893	1	75.030	75.030	2.0.10.147	2.0.10.242	2.0.10.242	1.0.0.439	7	234	2	3	Verdana	1	80	0	0	0	WM Stimuli\	0.5	1075.6	0.8	1148.625	0.8	1310.375	0.9	806.222222222222	0.9	1135.33333333333	1	820.7	0.8	808.5	0.5	1012.4	13	420632	2	420620	27	40	420659	-999999	420635	0	14	Cue2BackPROC	""	1	2	59	SessionSelectionList									5	306104	-6	0																																													59												
WM080112	115320_fnca	1	1	1	28627893	1	75.030	75.030	2.0.10.147	2.0.10.242	2.0.10.242	1.0.0.439	7	234	2	3	Verdana	1	80	0	0	0	WM Stimuli\	0.5	1075.6	0.8	1148.625	0.8	1310.375	0.9	806.222222222222	0.9	1135.33333333333	1	820.7	0.8	808.5	0.5	1012.4	13	420632	2	420620	27	40	420659	-999999	420635	0	15	TrialsPROC	FC_010_F5.png	1	2	60	SessionSelectionList														nonlure	3	Face	2-Back	52	80	50	0	0	90	4	40	310703	1	13	64	308663	-1	310255	1	1592	3	3	2040	53	310716	-54	0													1			60												
WM080112	115320_fnca	1	1	1	28627893	1	75.030	75.030	2.0.10.147	2.0.10.242	2.0.10.242	1.0.0.439	7	234	2	3	Verdana	1	80	0	0	0	WM Stimuli\	0.5	1075.6	0.8	1148.625	0.8	1310.375	0.9	806.222222222222	0.9	1135.33333333333	1	820.7	0.8	808.5	0.5	1012.4	13	420632	2	420620	27	40	420659	-999999	420635	0	15	TrialsPROC	FC_012_F6.png	1	2	61	SessionSelectionList														nonlure	3	Face	2-Back	53	80	51	0	0	90	5	39	313275	1	14	73	311236	-1	312656	1	1420	3	3	2039	53	313289	-54	0													2			61												
WM080112	115320_fnca	1	1	1	28627893	1	75.030	75.030	2.0.10.147	2.0.10.242	2.0.10.242	1.0.0.439	7	234	2	3	Verdana	1	80	0	0	0	WM Stimuli\	0.5	1075.6	0.8	1148.625	0.8	1310.375	0.9	806.222222222222	0.9	1135.33333333333	1	820.7	0.8	808.5	0.5	1012.4	13	420632	2	420620	27	40	420659	-999999	420635	0	15	TrialsPROC	FC_010_F5.png	1	2	62	SessionSelectionList														target	2	Face	2-Back	54	80	52	0	0	90	1	39	315847	2	14	72	313808	-1	314407	1	599	2	2	2039	53	315861	-54	0													3			62												
WM080112	115320_fnca	1	1	1	28627893	1	75.030	75.030	2.0.10.147	2.0.10.242	2.0.10.242	1.0.0.439	7	234	2	3	Verdana	1	80	0	0	0	WM Stimuli\	0.5	1075.6	0.8	1148.625	0.8	1310.375	0.9	806.222222222222	0.9	1135.33333333333	1	820.7	0.8	808.5	0.5	1012.4	13	420632	2	420620	27	40	420659	-999999	420635	0	15	TrialsPROC	FC_008_F4.png	1	2	63	SessionSelectionList														nonlure	3	Face	2-Back	55	80	53	0	0	90	1	39	318419	2	14	72	316380	-1	317514	1	1134	3	3	2039	53	318433	-54	0													4			63												
WM080112	115320_fnca	1	1	1	28627893	1	75.030	75.030	2.0.10.147	2.0.10.242	2.0.10.242	1.0.0.439	7	234	2	3	Verdana	1	80	0	0	0	WM Stimuli\	0.5	1075.6	0.8	1148.625	0.8	1310.375	0.9	806.222222222222	0.9	1135.33333333333	1	820.7	0.8	808.5	0.5	1012.4	13	420632	2	420620	27	40	420659	-999999	420635	0	15	TrialsPROC	FC_012_F6.png	1	2	64	SessionSelectionList														lure	3	Face	2-Back	56	80	54	0	0	90	1	39	320992	1	14	73	318953	-1	319995	0	1042	2	3	2039	53	321006	-54	0													5			64												
WM080112	115320_fnca	1	1	1	28627893	1	75.030	75.030	2.0.10.147	2.0.10.242	2.0.10.242	1.0.0.439	7	234	2	3	Verdana	1	80	0	0	0	WM Stimuli\	0.5	1075.6	0.8	1148.625	0.8	1310.375	0.9	806.222222222222	0.9	1135.33333333333	1	820.7	0.8	808.5	0.5	1012.4	13	420632	2	420620	27	40	420659	-999999	420635	0	15	TrialsPROC	FC_008_F4.png	1	2	65	SessionSelectionList														target	2	Face	2-Back	57	80	55	0	0	90	2	39	323564	3	14	72	321525	-1	322740	1	1215	2	2	2039	53	323578	-54	0													6			65												
WM080112	115320_fnca	1	1	1	28627893	1	75.030	75.030	2.0.10.147	2.0.10.242	2.0.10.242	1.0.0.439	7	234	2	3	Verdana	1	80	0	0	0	WM Stimuli\	0.5	1075.6	0.8	1148.625	0.8	1310.375	0.9	806.222222222222	0.9	1135.33333333333	1	820.7	0.8	808.5	0.5	1012.4	13	420632	2	420620	27	40	420659	-999999	420635	0	15	TrialsPROC	FC_007_M4.png	1	2	66	SessionSelectionList														nonlure	3	Face	2-Back	58	80	56	0	0	90	1	39	326136	3	14	72	324097	-1	325085	1	988	3	3	2039	53	326150	-54	0													7			66												
WM080112	115320_fnca	1	1	1	28627893	1	75.030	75.030	2.0.10.147	2.0.10.242	2.0.10.242	1.0.0.439	7	234	2	3	Verdana	1	80	0	0	0	WM Stimuli\	0.5	1075.6	0.8	1148.625	0.8	1310.375	0.9	806.222222222222	0.9	1135.33333333333	1	820.7	0.8	808.5	0.5	1012.4	13	420632	2	420620	27	40	420659	-999999	420635	0	15	TrialsPROC	FC_007_M4.png	1	2	67	SessionSelectionList														lure	3	Face	2-Back	59	80	57	0	0	90	2	40	328709	1	13	72	326669	-1	328350	1	1681	3	3	2040	53	328722	-54	0													8			67												
WM080112	115320_fnca	1	1	1	28627893	1	75.030	75.030	2.0.10.147	2.0.10.242	2.0.10.242	1.0.0.439	7	234	2	3	Verdana	1	80	0	0	0	WM Stimuli\	0.5	1075.6	0.8	1148.625	0.8	1310.375	0.9	806.222222222222	0.9	1135.33333333333	1	820.7	0.8	808.5	0.5	1012.4	13	420632	2	420620	27	40	420659	-999999	420635	0	15	TrialsPROC	FC_009_M5.png	1	2	68	SessionSelectionList														nonlure	3	Face	2-Back	60	80	58	0	0	90	3	39	331281	1	14	73	329242	-1	331096	1	1854	3	3	2039	53	331295	-54	0													9			68												
WM080112	115320_fnca	1	1	1	28627893	1	75.030	75.030	2.0.10.147	2.0.10.242	2.0.10.242	1.0.0.439	7	234	2	3	Verdana	1	80	0	0	0	WM Stimuli\	0.5	1075.6	0.8	1148.625	0.8	1310.375	0.9	806.222222222222	0.9	1135.33333333333	1	820.7	0.8	808.5	0.5	1012.4	13	420632	2	420620	27	40	420659	-999999	420635	0	15	TrialsPROC	FC_011_M6.png	1	2	69	SessionSelectionList														nonlure	3	Face	2-Back	61	80	59	0	0	90	1	39	333853	3	14	72	331814	-1	333401	0	1587	2	3	2039	53	333867	-54	0													10			69												
WM080112	115320_fnca	1	1	1	28627893	1	75.030	75.030	2.0.10.147	2.0.10.242	2.0.10.242	1.0.0.439	7	234	2	3	Verdana	1	80	0	0	0	WM Stimuli\	0.5	1075.6	0.8	1148.625	0.8	1310.375	0.9	806.222222222222	0.9	1135.33333333333	1	820.7	0.8	808.5	0.5	1012.4	13	420632	2	420620	27	40	420659	-999999	420635	0	16	Fix15secPROC	""	1	2	70	SessionSelectionList																																															6	334320	-7	0							70												
WM080112	115320_fnca	1	1	1	28627893	1	75.030	75.030	2.0.10.147	2.0.10.242	2.0.10.242	1.0.0.439	7	234	2	3	Verdana	1	80	0	0	0	WM Stimuli\	0.5	1075.6	0.8	1148.625	0.8	1310.375	0.9	806.222222222222	0.9	1135.33333333333	1	820.7	0.8	808.5	0.5	1012.4	13	420632	2	420620	27	40	420659	-999999	420635	0	17	Cue0BackPROC	TO_007_TOOL7_BA.png	1	2	71	SessionSelectionList																																										13	349327	-14	0												71												
WM080112	115320_fnca	1	1	1	28627893	1	75.030	75.030	2.0.10.147	2.0.10.242	2.0.10.242	1.0.0.439	7	234	2	3	Verdana	1	80	0	0	0	WM Stimuli\	0.5	1075.6	0.8	1148.625	0.8	1310.375	0.9	806.222222222222	0.9	1135.33333333333	1	820.7	0.8	808.5	0.5	1012.4	13	420632	2	420620	27	40	420659	-999999	420635	0	18	TrialsPROC	TO_010_TOOL10_BA.png	1	2	72	SessionSelectionList														nonlure	3	Tools	0-Back	62	80	60	0	0	90	1	39	353912	2	14	59	351873	-1	352930	1	1057	3	3	2039	53	353926	-54	0														1		72												
WM080112	115320_fnca	1	1	1	28627893	1	75.030	75.030	2.0.10.147	2.0.10.242	2.0.10.242	1.0.0.439	7	234	2	3	Verdana	1	80	0	0	0	WM Stimuli\	0.5	1075.6	0.8	1148.625	0.8	1310.375	0.9	806.222222222222	0.9	1135.33333333333	1	820.7	0.8	808.5	0.5	1012.4	13	420632	2	420620	27	40	420659	-999999	420635	0	18	TrialsPROC	TO_009_TOOL9_BA.png	1	2	73	SessionSelectionList														nonlure	3	Tools	0-Back	63	80	61	0	0	91	2	39	356471	2	14	59	354432	-1	356079	1	1647	3	3	2039	53	356485	-54	0														2		73												
WM080112	115320_fnca	1	1	1	28627893	1	75.030	75.030	2.0.10.147	2.0.10.242	2.0.10.242	1.0.0.439	7	234	2	3	Verdana	1	80	0	0	0	WM Stimuli\	0.5	1075.6	0.8	1148.625	0.8	1310.375	0.9	806.222222222222	0.9	1135.33333333333	1	820.7	0.8	808.5	0.5	1012.4	13	420632	2	420620	27	40	420659	-999999	420635	0	18	TrialsPROC	TO_009_TOOL9_BA.png	1	2	74	SessionSelectionList														lure	3	Tools	0-Back	64	80	62	0	0	91	3	39	359030	2	14	59	356991	-1	358096	1	1105	3	3	2039	53	359044	-54	0														3		74												
WM080112	115320_fnca	1	1	1	28627893	1	75.030	75.030	2.0.10.147	2.0.10.242	2.0.10.242	1.0.0.439	7	234	2	3	Verdana	1	80	0	0	0	WM Stimuli\	0.5	1075.6	0.8	1148.625	0.8	1310.375	0.9	806.222222222222	0.9	1135.33333333333	1	820.7	0.8	808.5	0.5	1012.4	13	420632	2	420620	27	40	420659	-999999	420635	0	18	TrialsPROC	TO_008_TOOL8_BA.png	1	2	75	SessionSelectionList														nonlure	3	Tools	0-Back	65	80	63	0	0	88	1	39	361589	2	14	59	359550	-1	360402	0	852	2	3	2039	53	361603	-54	0														4		75												
WM080112	115320_fnca	1	1	1	28627893	1	75.030	75.030	2.0.10.147	2.0.10.242	2.0.10.242	1.0.0.439	7	234	2	3	Verdana	1	80	0	0	0	WM Stimuli\	0.5	1075.6	0.8	1148.625	0.8	1310.375	0.9	806.222222222222	0.9	1135.33333333333	1	820.7	0.8	808.5	0.5	1012.4	13	420632	2	420620	27	40	420659	-999999	420635	0	18	TrialsPROC	TO_011_TOOL11_BA.png	1	2	76	SessionSelectionList														nonlure	3	Tools	0-Back	66	80	64	0	0	89	1	40	364148	1	13	58	362108	-1	362691	1	583	3	3	2040	53	364161	-54	0														5		76												
WM080112	115320_fnca	1	1	1	28627893	1	75.030	75.030	2.0.10.147	2.0.10.242	2.0.10.242	1.0.0.439	7	234	2	3	Verdana	1	80	0	0	0	WM Stimuli\	0.5	1075.6	0.8	1148.625	0.8	1310.375	0.9	806.222222222222	0.9	1135.33333333333	1	820.7	0.8	808.5	0.5	1012.4	13	420632	2	420620	27	40	420659	-999999	420635	0	18	TrialsPROC	TO_012_TOOL12_BA.png	1	2	77	SessionSelectionList														nonlure	3	Tools	0-Back	67	80	65	0	0	89	2	40	366707	2	13	59	364667	-1	365337	1	670	3	3	2040	53	366720	-54	0														6		77												
WM080112	115320_fnca	1	1	1	28627893	1	75.030	75.030	2.0.10.147	2.0.10.242	2.0.10.242	1.0.0.439	7	234	2	3	Verdana	1	80	0	0	0	WM Stimuli\	0.5	1075.6	0.8	1148.625	0.8	1310.375	0.9	806.222222222222	0.9	1135.33333333333	1	820.7	0.8	808.5	0.5	1012.4	13	420632	2	420620	27	40	420659	-999999	420635	0	18	TrialsPROC	TO_010_TOOL10_BA.png	1	2	78	SessionSelectionList														lure	3	Tools	0-Back	68	80	66	0	0	86	1	40	369266	1	13	59	367226	-1	367794	0	568	2	3	2040	53	369279	-54	0														7		78												
WM080112	115320_fnca	1	1	1	28627893	1	75.030	75.030	2.0.10.147	2.0.10.242	2.0.10.242	1.0.0.439	7	234	2	3	Verdana	1	80	0	0	0	WM Stimuli\	0.5	1075.6	0.8	1148.625	0.8	1310.375	0.9	806.222222222222	0.9	1135.33333333333	1	820.7	0.8	808.5	0.5	1012.4	13	420632	2	420620	27	40	420659	-999999	420635	0	18	TrialsPROC	TO_007_TOOL7_BA.png	1	2	79	SessionSelectionList														target	2	Tools	0-Back	69	80	67	0	0	84	1	40	371825	1	13	59	369785	-1	370267	0	482	3	2	2040	53	371838	-54	0														8		79												
WM080112	115320_fnca	1	1	1	28627893	1	75.030	75.030	2.0.10.147	2.0.10.242	2.0.10.242	1.0.0.439	7	234	2	3	Verdana	1	80	0	0	0	WM Stimuli\	0.5	1075.6	0.8	1148.625	0.8	1310.375	0.9	806.222222222222	0.9	1135.33333333333	1	820.7	0.8	808.5	0.5	1012.4	13	420632	2	420620	27	40	420659	-999999	420635	0	18	TrialsPROC	TO_008_TOOL8_BA.png	1	2	80	SessionSelectionList														lure	3	Tools	0-Back	70	80	68	0	0	82	1	39	374383	2	14	59	372344	-1	373191	0	847	2	3	2039	53	374397	-54	0														9		80												
WM080112	115320_fnca	1	1	1	28627893	1	75.030	75.030	2.0.10.147	2.0.10.242	2.0.10.242	1.0.0.439	7	234	2	3	Verdana	1	80	0	0	0	WM Stimuli\	0.5	1075.6	0.8	1148.625	0.8	1310.375	0.9	806.222222222222	0.9	1135.33333333333	1	820.7	0.8	808.5	0.5	1012.4	13	420632	2	420620	27	40	420659	-999999	420635	0	18	TrialsPROC	TO_007_TOOL7_BA.png	1	2	81	SessionSelectionList														target	2	Tools	0-Back	71	80	69	0	0	80	1	39	376942	2	14	59	374903	-1	375555	0	652	3	2	2039	53	376956	-54	0														10		81												
WM080112	115320_fnca	1	1	1	28627893	1	75.030	75.030	2.0.10.147	2.0.10.242	2.0.10.242	1.0.0.439	7	234	2	3	Verdana	1	80	0	0	0	WM Stimuli\	0.5	1075.6	0.8	1148.625	0.8	1310.375	0.9	806.222222222222	0.9	1135.33333333333	1	820.7	0.8	808.5	0.5	1012.4	13	420632	2	420620	27	40	420659	-999999	420635	0	19	Cue2BackPROC	""	1	2	82	SessionSelectionList									6	377409	-7	0																																													82												
WM080112	115320_fnca	1	1	1	28627893	1	75.030	75.030	2.0.10.147	2.0.10.242	2.0.10.242	1.0.0.439	7	234	2	3	Verdana	1	80	0	0	0	WM Stimuli\	0.5	1075.6	0.8	1148.625	0.8	1310.375	0.9	806.222222222222	0.9	1135.33333333333	1	820.7	0.8	808.5	0.5	1012.4	13	420632	2	420620	27	40	420659	-999999	420635	0	20	TrialsPROC	PL_007_92026.png	1	2	83	SessionSelectionList														nonlure	3	Place	2-Back	72	80	70	0	0	80	2	39	382007	3	14	65	379968	-1	381592	1	1624	3	3	2039	53	382021	-54	0															1	83												
WM080112	115320_fnca	1	1	1	28627893	1	75.030	75.030	2.0.10.147	2.0.10.242	2.0.10.242	1.0.0.439	7	234	2	3	Verdana	1	80	0	0	0	WM Stimuli\	0.5	1075.6	0.8	1148.625	0.8	1310.375	0.9	806.222222222222	0.9	1135.33333333333	1	820.7	0.8	808.5	0.5	1012.4	13	420632	2	420620	27	40	420659	-999999	420635	0	20	TrialsPROC	PL_007_92026.png	1	2	84	SessionSelectionList														lure	3	Place	2-Back	73	80	71	0	0	80	3	39	384579	2	14	72	382540	-1	383779	1	1239	3	3	2039	53	384593	-54	0															2	84												
WM080112	115320_fnca	1	1	1	28627893	1	75.030	75.030	2.0.10.147	2.0.10.242	2.0.10.242	1.0.0.439	7	234	2	3	Verdana	1	80	0	0	0	WM Stimuli\	0.5	1075.6	0.8	1148.625	0.8	1310.375	0.9	806.222222222222	0.9	1135.33333333333	1	820.7	0.8	808.5	0.5	1012.4	13	420632	2	420620	27	40	420659	-999999	420635	0	20	TrialsPROC	PL_010_92038.png	1	2	85	SessionSelectionList														nonlure	3	Place	2-Back	74	80	72	0	0	80	4	40	387152	1	13	72	385112	-1	386222	1	1110	3	3	2040	53	387165	-54	0															3	85												
WM080112	115320_fnca	1	1	1	28627893	1	75.030	75.030	2.0.10.147	2.0.10.242	2.0.10.242	1.0.0.439	7	234	2	3	Verdana	1	80	0	0	0	WM Stimuli\	0.5	1075.6	0.8	1148.625	0.8	1310.375	0.9	806.222222222222	0.9	1135.33333333333	1	820.7	0.8	808.5	0.5	1012.4	13	420632	2	420620	27	40	420659	-999999	420635	0	20	TrialsPROC	PL_009_92037.png	1	2	86	SessionSelectionList														nonlure	3	Place	2-Back	75	80	73	0	0	80	5	39	389724	2	14	73	387685	-1	388430	1	745	3	3	2039	53	389738	-54	0															4	86												
WM080112	115320_fnca	1	1	1	28627893	1	75.030	75.030	2.0.10.147	2.0.10.242	2.0.10.242	1.0.0.439	7	234	2	3	Verdana	1	80	0	0	0	WM Stimuli\	0.5	1075.6	0.8	1148.625	0.8	1310.375	0.9	806.222222222222	0.9	1135.33333333333	1	820.7	0.8	808.5	0.5	1012.4	13	420632	2	420620	27	40	420659	-999999	420635	0	20	TrialsPROC	PL_010_92038.png	1	2	87	SessionSelectionList														target	2	Place	2-Back	76	80	74	0	0	80	1	39	392296	2	14	72	390257	-1	390905	1	648	2	2	2039	53	392310	-54	0															5	87												
WM080112	115320_fnca	1	1	1	28627893	1	75.030	75.030	2.0.10.147	2.0.10.242	2.0.10.242	1.0.0.439	7	234	2	3	Verdana	1	80	0	0	0	WM Stimuli\	0.5	1075.6	0.8	1148.625	0.8	1310.375	0.9	806.222222222222	0.9	1135.33333333333	1	820.7	0.8	808.5	0.5	1012.4	13	420632	2	420620	27	40	420659	-999999	420635	0	20	TrialsPROC	PL_009_92037.png	1	2	88	SessionSelectionList														target	2	Place	2-Back	77	80	75	0	0	80	1	40	394869	1	13	72	392829	-1	393819	0	990	3	2	2040	53	394882	-54	0															6	88												
WM080112	115320_fnca	1	1	1	28627893	1	75.030	75.030	2.0.10.147	2.0.10.242	2.0.10.242	1.0.0.439	7	234	2	3	Verdana	1	80	0	0	0	WM Stimuli\	0.5	1075.6	0.8	1148.625	0.8	1310.375	0.9	806.222222222222	0.9	1135.33333333333	1	820.7	0.8	808.5	0.5	1012.4	13	420632	2	420620	27	40	420659	-999999	420635	0	20	TrialsPROC	PL_008_92033.png	1	2	89	SessionSelectionList														nonlure	3	Place	2-Back	78	80	76	0	0	80	2	39	397441	1	14	73	395402	-1	396294	1	892	3	3	2039	53	397455	-54	0															7	89												
WM080112	115320_fnca	1	1	1	28627893	1	75.030	75.030	2.0.10.147	2.0.10.242	2.0.10.242	1.0.0.439	7	234	2	3	Verdana	1	80	0	0	0	WM Stimuli\	0.5	1075.6	0.8	1148.625	0.8	1310.375	0.9	806.222222222222	0.9	1135.33333333333	1	820.7	0.8	808.5	0.5	1012.4	13	420632	2	420620	27	40	420659	-999999	420635	0	20	TrialsPROC	PL_012_92047.png	1	2	90	SessionSelectionList														nonlure	3	Place	2-Back	79	80	77	0	0	80	3	39	400013	2	14	72	397974	-1	398728	1	754	3	3	2039	53	400027	-54	0															8	90												
WM080112	115320_fnca	1	1	1	28627893	1	75.030	75.030	2.0.10.147	2.0.10.242	2.0.10.242	1.0.0.439	7	234	2	3	Verdana	1	80	0	0	0	WM Stimuli\	0.5	1075.6	0.8	1148.625	0.8	1310.375	0.9	806.222222222222	0.9	1135.33333333333	1	820.7	0.8	808.5	0.5	1012.4	13	420632	2	420620	27	40	420659	-999999	420635	0	20	TrialsPROC	PL_012_92047.png	1	2	91	SessionSelectionList														lure	3	Place	2-Back	80	80	78	0	0	80	4	39	402585	3	14	72	400546	-1	402127	1	1581	3	3	2039	53	402599	-54	0															9	91												
WM080112	115320_fnca	1	1	1	28627893	1	75.030	75.030	2.0.10.147	2.0.10.242	2.0.10.242	1.0.0.439	7	234	2	3	Verdana	1	80	0	0	0	WM Stimuli\	0.5	1075.6	0.8	1148.625	0.8	1310.375	0.9	806.222222222222	0.9	1135.33333333333	1	820.7	0.8	808.5	0.5	1012.4	13	420632	2	420620	27	40	420659	-999999	420635	0	20	TrialsPROC	PL_011_92044.png	1	2	92	SessionSelectionList														nonlure	3	Place	2-Back	80	80	79	0	0	80	5	39	405158	2	14	73	403119	-1	404744	1	1625	3	3	2039	53	405172	-54	0															10	92												
WM080112	115320_fnca	1	1	1	28627893	1	75.030	75.030	2.0.10.147	2.0.10.242	2.0.10.242	1.0.0.439	7	234	2	3	Verdana	1	80	0	0	0	WM Stimuli\	0.5	1075.6	0.8	1148.625	0.8	1310.375	0.9	806.222222222222	0.9	1135.33333333333	1	820.7	0.8	808.5	0.5	1012.4	13	420632	2	420620	27	40	420659	-999999	420635	0	21	Fix15secPROC	""	1	2	93	SessionSelectionList																																															6	405625	-7	0							93												
