ExperimentName	HCPID	RunNumber	Subject	Session	RandomSeed	Group	Laptop.RefreshRate	ScannerD2.RefreshRate	StudioVersion	RuntimeVersion	RuntimeVersionExpected	ExperimentVersion	triggercode	Allowed	Target	Nontarget	FontStyle	RunTrialNumber[Session]	TrialsPerRun[Session]	TotalRespGreater200[Session]	ConsecRTLess200[Session]	ConsecNonResp[Session]	StimuliDir	ACC_2_Back_Body	Avg_RT_For_Correct_Trials_2_Back_Body	ACC_0_Back_Body	Avg_RT_For_Correct_Trials_0_Back_Body	ACC_2_Back_Face	Avg_RT_For_Correct_Trials_2_Back_Face	ACC_0_Back_Face	Avg_RT_For_Correct_Trials_0_Back_Face	ACC_2_Back_Place	Avg_RT_For_Correct_Trials_2_Back_Place	ACC_0_Back_Place	Avg_RT_For_Correct_Trials_0_Back_Place	ACC_2_Back_Tools	Avg_RT_For_Correct_Trials_2_Back_Tools	ACC_0_Back_Tools	Avg_RT_For_Correct_Trials_0_Back_Tools	ExpInstrucFeelFreeToRest.OnsetDelay	ExpInstrucFeelFreeToRest.OnsetTime	ExpInstrucFeelFreeToRest.DurationError	ExpInstrucFeelFreeToRest.StartTime	ExpInstrucFeelFreeToRest.OnsetToOnsetTime	FeelFreeToRest.OnsetDelay	FeelFreeToRest.OnsetTime	FeelFreeToRest.DurationError	FeelFreeToRest.StartTime	FeelFreeToRest.OnsetToOnsetTime	SessionSelectionList	Procedure[Block]	Stimulus[Block]	RunNumberFilterValue	SessionSelectionList.Cycle	SessionSelectionList.Sample	Running[Block]	IntroButtonMap.OnsetDelay	IntroButtonMap.OnsetTime	IntroButtonMap.DurationError	IntroButtonMap.OnsetToOnsetTime	GetReady.OnsetDelay	GetReady.OnsetTime	GetReady.DurationError	GetReady.OnsetToOnsetTime	Cue2Back.OnsetDelay	Cue2Back.OnsetTime	Cue2Back.DurationError	Cue2Back.OnsetToOnsetTime	Run1Block1	TargetType	CorrectResponse	StimType	BlockType	RunTrialNumber[Block]	TrialsPerRun[Block]	TotalRespGreater200[Block]	ConsecRTLess200[Block]	ConsecNonResp[Block]	ControlAcc	ConsecSameResp	ExperimenterWindow.OnsetDelay	ExperimenterWindow.OnsetTime	ExperimenterWindow.DurationError	ExperimenterWindow.OnsetToOnsetTime	Stim.OnsetDelay	Stim.OnsetTime	Stim.DurationError	Stim.RTTime	Stim.ACC	Stim.RT	Stim.RESP	Stim.CRESP	Stim.OnsetToOnsetTime	Fix.OnsetDelay	Fix.OnsetTime	Fix.DurationError	Fix.OnsetToOnsetTime	CueTarget.OnsetDelay	CueTarget.OnsetTime	CueTarget.DurationError	CueTarget.OnsetToOnsetTime	Run1Block2	Fix15sec.OnsetDelay	Fix15sec.OnsetTime	Fix15sec.DurationError	Fix15sec.OnsetToOnsetTime	Run1Block3	Run1Block4	Run1Block5	Run1Block6	Run1Block7	Run1Block8	Block	Procedure[Trial]	Stimulus[Trial]	ReadyList	Running[Trial]	ReadyList.Cycle	ReadyList.Sample	SyncSlide.OnsetDelay	SyncSlide.OnsetTime	SyncSlide.DurationError	SyncSlide.FinishTime	SyncSlide.OnsetToOnsetTime	Trial
WM080112	151223_fnca	2	1	1	260624115	1	75.030	75.030	2.0.10.147	2.0.10.242	2.0.10.242	1.0.0.439	7	234	2	3	Verdana	1	80	0	0	0	WM Stimuli\	0.9	1097.11111111111	1	844.7	1	1018.4	1	696.4	1	959.5	1	799.2	0.8	888.875	0.9	935.777777777778	13	332692	2	332680	14	27	332706	-999999	332695	0	22	TRSyncPROC	""	2	2	1	SessionSelectionList	102	10289	-999999	0	37	20965	-999999	0																																																	1	InitialTR	4	1	ReadyList	1	1	20	39410	-21	41389	0	1
WM080112	151223_fnca	2	1	1	260624115	1	75.030	75.030	2.0.10.147	2.0.10.242	2.0.10.242	1.0.0.439	7	234	2	3	Verdana	1	80	0	0	0	WM Stimuli\	0.9	1097.11111111111	1	844.7	1	1018.4	1	696.4	1	959.5	1	799.2	0.8	888.875	0.9	935.777777777778	13	332692	2	332680	14	27	332706	-999999	332695	0	22	TRSyncPROC	""	2	2	1	SessionSelectionList	102	10289	-999999	0	37	20965	-999999	0																																																	1	InitialTR	3	2	ReadyList	1	2	19	41409	-20	43389	0	2
WM080112	151223_fnca	2	1	1	260624115	1	75.030	75.030	2.0.10.147	2.0.10.242	2.0.10.242	1.0.0.439	7	234	2	3	Verdana	1	80	0	0	0	WM Stimuli\	0.9	1097.11111111111	1	844.7	1	1018.4	1	696.4	1	959.5	1	799.2	0.8	888.875	0.9	935.777777777778	13	332692	2	332680	14	27	332706	-999999	332695	0	22	TRSyncPROC	""	2	2	1	SessionSelectionList	102	10289	-999999	0	37	20965	-999999	0																																																	1	InitialTR	2	3	ReadyList	1	3	5	43395	-6	45389	0	3
WM080112	151223_fnca	2	1	1	260624115	1	75.030	75.030	2.0.10.147	2.0.10.242	2.0.10.242	1.0.0.439	7	234	2	3	Verdana	1	80	0	0	0	WM Stimuli\	0.9	1097.11111111111	1	844.7	1	1018.4	1	696.4	1	959.5	1	799.2	0.8	888.875	0.9	935.777777777778	13	332692	2	332680	14	27	332706	-999999	332695	0	22	TRSyncPROC	""	2	2	1	SessionSelectionList	102	10289	-999999	0	37	20965	-999999	0																																																	1	InitialTR	1	4	ReadyList	1	4	4	45394	-5	47389	0	4
WM080112	151223_fnca	2	1	1	260624115	1	75.030	75.030	2.0.10.147	2.0.10.242	2.0.10.242	1.0.0.439	7	234	2	3	Verdana	1	80	0	0	0	WM Stimuli\	0.9	1097.11111111111	1	844.7	1	1018.4	1	696.4	1	959.5	1	799.2	0.8	888.875	0.9	935.777777777778	13	332692	2	332680	14	27	332706	-999999	332695	0	23	Cue2BackPROC	""	2	2	2	SessionSelectionList									17	47407	-18	0																																													2												
WM080112	151223_fnca	2	1	1	260624115	1	75.030	75.030	2.0.10.147	2.0.10.242	2.0.10.242	1.0.0.439	7	234	2	3	Verdana	1	80	0	0	0	WM Stimuli\	0.9	1097.11111111111	1	844.7	1	1018.4	1	696.4	1	959.5	1	799.2	0.8	888.875	0.9	935.777777777778	13	332692	2	332680	14	27	332706	-999999	332695	0	24	TrialsPROC	TO_014_TOOL14_BA.png	2	2	3	SessionSelectionList														nonlure	3	Tools	2-Back	2	80	1	0	0	0	1	52	52018	3	14	76	49966	-1	50477	1	511	3	3	2052	66	52032	-67	0																3												
WM080112	151223_fnca	2	1	1	260624115	1	75.030	75.030	2.0.10.147	2.0.10.242	2.0.10.242	1.0.0.439	7	234	2	3	Verdana	1	80	0	0	0	WM Stimuli\	0.9	1097.11111111111	1	844.7	1	1018.4	1	696.4	1	959.5	1	799.2	0.8	888.875	0.9	935.777777777778	13	332692	2	332680	14	27	332706	-999999	332695	0	24	TrialsPROC	TO_013_TOOL13_BA.png	2	2	4	SessionSelectionList														nonlure	3	Tools	2-Back	3	80	2	0	0	0	2	39	54564	2	14	59	52525	-1	53207	1	682	3	3	2039	53	54578	-54	0																4												
WM080112	151223_fnca	2	1	1	260624115	1	75.030	75.030	2.0.10.147	2.0.10.242	2.0.10.242	1.0.0.439	7	234	2	3	Verdana	1	80	0	0	0	WM Stimuli\	0.9	1097.11111111111	1	844.7	1	1018.4	1	696.4	1	959.5	1	799.2	0.8	888.875	0.9	935.777777777778	13	332692	2	332680	14	27	332706	-999999	332695	0	24	TrialsPROC	TO_016_TOOL16_BA.png	2	2	5	SessionSelectionList														nonlure	3	Tools	2-Back	4	80	3	0	0	0	3	39	57123	1	14	59	55084	-1	56199	1	1115	3	3	2039	53	57137	-54	0																5												
WM080112	151223_fnca	2	1	1	260624115	1	75.030	75.030	2.0.10.147	2.0.10.242	2.0.10.242	1.0.0.439	7	234	2	3	Verdana	1	80	0	0	0	WM Stimuli\	0.9	1097.11111111111	1	844.7	1	1018.4	1	696.4	1	959.5	1	799.2	0.8	888.875	0.9	935.777777777778	13	332692	2	332680	14	27	332706	-999999	332695	0	24	TrialsPROC	TO_014_TOOL14_BA.png	2	2	6	SessionSelectionList														lure	3	Tools	2-Back	5	80	4	0	0	0	1	39	59695	3	14	72	57656	-1	58670	0	1014	2	3	2039	53	59709	-54	0																6												
WM080112	151223_fnca	2	1	1	260624115	1	75.030	75.030	2.0.10.147	2.0.10.242	2.0.10.242	1.0.0.439	7	234	2	3	Verdana	1	80	0	0	0	WM Stimuli\	0.9	1097.11111111111	1	844.7	1	1018.4	1	696.4	1	959.5	1	799.2	0.8	888.875	0.9	935.777777777778	13	332692	2	332680	14	27	332706	-999999	332695	0	24	TrialsPROC	TO_016_TOOL16_BA.png	2	2	7	SessionSelectionList														target	2	Tools	2-Back	6	80	5	0	0	0	2	40	62268	1	13	72	60228	-1	61427	1	1199	2	2	2040	53	62281	-54	0																7												
WM080112	151223_fnca	2	1	1	260624115	1	75.030	75.030	2.0.10.147	2.0.10.242	2.0.10.242	1.0.0.439	7	234	2	3	Verdana	1	80	0	0	0	WM Stimuli\	0.9	1097.11111111111	1	844.7	1	1018.4	1	696.4	1	959.5	1	799.2	0.8	888.875	0.9	935.777777777778	13	332692	2	332680	14	27	332706	-999999	332695	0	24	TrialsPROC	TO_018_TOOL18_BA.png	2	2	8	SessionSelectionList														nonlure	3	Tools	2-Back	7	80	6	0	0	0	1	40	64827	1	13	59	62787	-1	63591	1	804	3	3	2040	53	64840	-54	0																8												
WM080112	151223_fnca	2	1	1	260624115	1	75.030	75.030	2.0.10.147	2.0.10.242	2.0.10.242	1.0.0.439	7	234	2	3	Verdana	1	80	0	0	0	WM Stimuli\	0.9	1097.11111111111	1	844.7	1	1018.4	1	696.4	1	959.5	1	799.2	0.8	888.875	0.9	935.777777777778	13	332692	2	332680	14	27	332706	-999999	332695	0	24	TrialsPROC	TO_017_TOOL17_BA.png	2	2	9	SessionSelectionList														nonlure	3	Tools	2-Back	8	80	7	0	0	0	2	40	67386	2	13	59	65346	-1	66397	1	1051	3	3	2040	53	67399	-54	0																9												
WM080112	151223_fnca	2	1	1	260624115	1	75.030	75.030	2.0.10.147	2.0.10.242	2.0.10.242	1.0.0.439	7	234	2	3	Verdana	1	80	0	0	0	WM Stimuli\	0.9	1097.11111111111	1	844.7	1	1018.4	1	696.4	1	959.5	1	799.2	0.8	888.875	0.9	935.777777777778	13	332692	2	332680	14	27	332706	-999999	332695	0	24	TrialsPROC	TO_018_TOOL18_BA.png	2	2	10	SessionSelectionList														target	2	Tools	2-Back	9	80	8	0	0	0	1	40	69945	1	13	59	67905	-1	68797	1	892	2	2	2040	53	69958	-54	0																10												
WM080112	151223_fnca	2	1	1	260624115	1	75.030	75.030	2.0.10.147	2.0.10.242	2.0.10.242	1.0.0.439	7	234	2	3	Verdana	1	80	0	0	0	WM Stimuli\	0.9	1097.11111111111	1	844.7	1	1018.4	1	696.4	1	959.5	1	799.2	0.8	888.875	0.9	935.777777777778	13	332692	2	332680	14	27	332706	-999999	332695	0	24	TrialsPROC	TO_015_TOOL15_BA.png	2	2	11	SessionSelectionList														nonlure	3	Tools	2-Back	10	80	9	0	0	0	1	40	72504	1	13	59	70464	-1	71321	1	857	3	3	2040	53	72517	-54	0																11												
WM080112	151223_fnca	2	1	1	260624115	1	75.030	75.030	2.0.10.147	2.0.10.242	2.0.10.242	1.0.0.439	7	234	2	3	Verdana	1	80	0	0	0	WM Stimuli\	0.9	1097.11111111111	1	844.7	1	1018.4	1	696.4	1	959.5	1	799.2	0.8	888.875	0.9	935.777777777778	13	332692	2	332680	14	27	332706	-999999	332695	0	24	TrialsPROC	TO_017_TOOL17_BA.png	2	2	12	SessionSelectionList														lure	3	Tools	2-Back	11	80	10	0	0	0	1	39	75062	3	14	59	73023	-1	73972	0	949	2	3	2039	53	75076	-54	0																12												
WM080112	151223_fnca	2	1	1	260624115	1	75.030	75.030	2.0.10.147	2.0.10.242	2.0.10.242	1.0.0.439	7	234	2	3	Verdana	1	80	0	0	0	WM Stimuli\	0.9	1097.11111111111	1	844.7	1	1018.4	1	696.4	1	959.5	1	799.2	0.8	888.875	0.9	935.777777777778	13	332692	2	332680	14	27	332706	-999999	332695	0	25	Cue0BackPROC	BP_013_BP7_BA.png	2	2	13	SessionSelectionList																																										19	75542	-20	0												13												
WM080112	151223_fnca	2	1	1	260624115	1	75.030	75.030	2.0.10.147	2.0.10.242	2.0.10.242	1.0.0.439	7	234	2	3	Verdana	1	80	0	0	0	WM Stimuli\	0.9	1097.11111111111	1	844.7	1	1018.4	1	696.4	1	959.5	1	799.2	0.8	888.875	0.9	935.777777777778	13	332692	2	332680	14	27	332706	-999999	332695	0	26	TrialsPROC	BP_015_H10-T_BA.png	2	2	14	SessionSelectionList														nonlure	3	Body	0-Back	12	80	11	0	0	100	1	39	80114	1	14	52	78075	-1	79167	1	1092	3	3	2039	53	80128	-54	0																14												
WM080112	151223_fnca	2	1	1	260624115	1	75.030	75.030	2.0.10.147	2.0.10.242	2.0.10.242	1.0.0.439	7	234	2	3	Verdana	1	80	0	0	0	WM Stimuli\	0.9	1097.11111111111	1	844.7	1	1018.4	1	696.4	1	959.5	1	799.2	0.8	888.875	0.9	935.777777777778	13	332692	2	332680	14	27	332706	-999999	332695	0	26	TrialsPROC	BP_018_H13-T_BA.png	2	2	15	SessionSelectionList														nonlure	3	Body	0-Back	13	80	12	0	0	100	2	39	82673	2	13	59	80634	-1	81219	1	585	3	3	2039	52	82686	-53	0																15												
WM080112	151223_fnca	2	1	1	260624115	1	75.030	75.030	2.0.10.147	2.0.10.242	2.0.10.242	1.0.0.439	7	234	2	3	Verdana	1	80	0	0	0	WM Stimuli\	0.9	1097.11111111111	1	844.7	1	1018.4	1	696.4	1	959.5	1	799.2	0.8	888.875	0.9	935.777777777778	13	332692	2	332680	14	27	332706	-999999	332695	0	26	TrialsPROC	BP_014_BP9_BA.png	2	2	16	SessionSelectionList														nonlure	3	Body	0-Back	14	80	13	0	0	100	3	39	85232	2	13	59	83193	-1	83843	1	650	3	3	2039	52	85245	-53	0																16												
WM080112	151223_fnca	2	1	1	260624115	1	75.030	75.030	2.0.10.147	2.0.10.242	2.0.10.242	1.0.0.439	7	234	2	3	Verdana	1	80	0	0	0	WM Stimuli\	0.9	1097.11111111111	1	844.7	1	1018.4	1	696.4	1	959.5	1	799.2	0.8	888.875	0.9	935.777777777778	13	332692	2	332680	14	27	332706	-999999	332695	0	26	TrialsPROC	BP_018_H13-T_BA.png	2	2	17	SessionSelectionList														lure	3	Body	0-Back	15	80	14	0	0	100	4	40	87791	1	13	58	85751	-1	86355	1	604	3	3	2040	53	87804	-54	0																17												
WM080112	151223_fnca	2	1	1	260624115	1	75.030	75.030	2.0.10.147	2.0.10.242	2.0.10.242	1.0.0.439	7	234	2	3	Verdana	1	80	0	0	0	WM Stimuli\	0.9	1097.11111111111	1	844.7	1	1018.4	1	696.4	1	959.5	1	799.2	0.8	888.875	0.9	935.777777777778	13	332692	2	332680	14	27	332706	-999999	332695	0	26	TrialsPROC	BP_013_BP7_BA.png	2	2	18	SessionSelectionList														target	2	Body	0-Back	16	80	15	0	0	100	1	39	90363	1	14	73	88324	-1	89110	1	786	2	2	2039	53	90377	-54	0																18												
WM080112	151223_fnca	2	1	1	260624115	1	75.030	75.030	2.0.10.147	2.0.10.242	2.0.10.242	1.0.0.439	7	234	2	3	Verdana	1	80	0	0	0	WM Stimuli\	0.9	1097.11111111111	1	844.7	1	1018.4	1	696.4	1	959.5	1	799.2	0.8	888.875	0.9	935.777777777778	13	332692	2	332680	14	27	332706	-999999	332695	0	26	TrialsPROC	BP_015_H10-T_BA.png	2	2	19	SessionSelectionList														lure	3	Body	0-Back	17	80	16	0	0	100	1	39	92922	2	14	59	90883	-1	92245	1	1362	3	3	2039	53	92936	-54	0																19												
WM080112	151223_fnca	2	1	1	260624115	1	75.030	75.030	2.0.10.147	2.0.10.242	2.0.10.242	1.0.0.439	7	234	2	3	Verdana	1	80	0	0	0	WM Stimuli\	0.9	1097.11111111111	1	844.7	1	1018.4	1	696.4	1	959.5	1	799.2	0.8	888.875	0.9	935.777777777778	13	332692	2	332680	14	27	332706	-999999	332695	0	26	TrialsPROC	BP_016_H11-T_BA.png	2	2	20	SessionSelectionList														nonlure	3	Body	0-Back	18	80	17	0	0	100	2	39	95481	1	14	59	93442	-1	94025	1	583	3	3	2039	53	95495	-54	0																20												
WM080112	151223_fnca	2	1	1	260624115	1	75.030	75.030	2.0.10.147	2.0.10.242	2.0.10.242	1.0.0.439	7	234	2	3	Verdana	1	80	0	0	0	WM Stimuli\	0.9	1097.11111111111	1	844.7	1	1018.4	1	696.4	1	959.5	1	799.2	0.8	888.875	0.9	935.777777777778	13	332692	2	332680	14	27	332706	-999999	332695	0	26	TrialsPROC	BP_013_BP7_BA.png	2	2	21	SessionSelectionList														target	2	Body	0-Back	19	80	18	0	0	100	1	39	98040	1	14	59	96001	-1	97055	1	1054	2	2	2039	53	98054	-54	0																21												
WM080112	151223_fnca	2	1	1	260624115	1	75.030	75.030	2.0.10.147	2.0.10.242	2.0.10.242	1.0.0.439	7	234	2	3	Verdana	1	80	0	0	0	WM Stimuli\	0.9	1097.11111111111	1	844.7	1	1018.4	1	696.4	1	959.5	1	799.2	0.8	888.875	0.9	935.777777777778	13	332692	2	332680	14	27	332706	-999999	332695	0	26	TrialsPROC	BP_017_H12-T_BA.png	2	2	22	SessionSelectionList														nonlure	3	Body	0-Back	20	80	19	0	0	100	1	39	100599	2	14	59	98560	-1	99672	1	1112	3	3	2039	53	100613	-54	0																22												
WM080112	151223_fnca	2	1	1	260624115	1	75.030	75.030	2.0.10.147	2.0.10.242	2.0.10.242	1.0.0.439	7	234	2	3	Verdana	1	80	0	0	0	WM Stimuli\	0.9	1097.11111111111	1	844.7	1	1018.4	1	696.4	1	959.5	1	799.2	0.8	888.875	0.9	935.777777777778	13	332692	2	332680	14	27	332706	-999999	332695	0	26	TrialsPROC	BP_014_BP9_BA.png	2	2	23	SessionSelectionList														lure	3	Body	0-Back	21	80	20	0	0	100	2	39	103171	3	14	72	101132	-1	101751	1	619	3	3	2039	53	103185	-54	0																23												
WM080112	151223_fnca	2	1	1	260624115	1	75.030	75.030	2.0.10.147	2.0.10.242	2.0.10.242	1.0.0.439	7	234	2	3	Verdana	1	80	0	0	0	WM Stimuli\	0.9	1097.11111111111	1	844.7	1	1018.4	1	696.4	1	959.5	1	799.2	0.8	888.875	0.9	935.777777777778	13	332692	2	332680	14	27	332706	-999999	332695	0	27	Fix15secPROC	""	2	2	24	SessionSelectionList																																															6	103638	-7	0							24												
WM080112	151223_fnca	2	1	1	260624115	1	75.030	75.030	2.0.10.147	2.0.10.242	2.0.10.242	1.0.0.439	7	234	2	3	Verdana	1	80	0	0	0	WM Stimuli\	0.9	1097.11111111111	1	844.7	1	1018.4	1	696.4	1	959.5	1	799.2	0.8	888.875	0.9	935.777777777778	13	332692	2	332680	14	27	332706	-999999	332695	0	28	Cue2BackPROC	""	2	2	25	SessionSelectionList									13	118645	-14	0																																													25												
WM080112	151223_fnca	2	1	1	260624115	1	75.030	75.030	2.0.10.147	2.0.10.242	2.0.10.242	1.0.0.439	7	234	2	3	Verdana	1	80	0	0	0	WM Stimuli\	0.9	1097.11111111111	1	844.7	1	1018.4	1	696.4	1	959.5	1	799.2	0.8	888.875	0.9	935.777777777778	13	332692	2	332680	14	27	332706	-999999	332695	0	29	TrialsPROC	FC_015_M8.png	2	2	26	SessionSelectionList														nonlure	3	Face	2-Back	22	80	21	0	0	100	3	39	123243	2	14	72	121204	-1	122512	1	1308	3	3	2039	53	123257	-54	0																26												
WM080112	151223_fnca	2	1	1	260624115	1	75.030	75.030	2.0.10.147	2.0.10.242	2.0.10.242	1.0.0.439	7	234	2	3	Verdana	1	80	0	0	0	WM Stimuli\	0.9	1097.11111111111	1	844.7	1	1018.4	1	696.4	1	959.5	1	799.2	0.8	888.875	0.9	935.777777777778	13	332692	2	332680	14	27	332706	-999999	332695	0	29	TrialsPROC	FC_018_F9.png	2	2	27	SessionSelectionList														nonlure	3	Face	2-Back	23	80	22	0	0	100	4	39	125815	2	14	72	123776	-1	124625	1	849	3	3	2039	53	125829	-54	0																27												
WM080112	151223_fnca	2	1	1	260624115	1	75.030	75.030	2.0.10.147	2.0.10.242	2.0.10.242	1.0.0.439	7	234	2	3	Verdana	1	80	0	0	0	WM Stimuli\	0.9	1097.11111111111	1	844.7	1	1018.4	1	696.4	1	959.5	1	799.2	0.8	888.875	0.9	935.777777777778	13	332692	2	332680	14	27	332706	-999999	332695	0	29	TrialsPROC	FC_018_F9.png	2	2	28	SessionSelectionList														lure	3	Face	2-Back	24	80	23	0	0	100	5	40	128388	1	13	72	126348	-1	127573	1	1225	3	3	2040	53	128401	-54	0																28												
WM080112	151223_fnca	2	1	1	260624115	1	75.030	75.030	2.0.10.147	2.0.10.242	2.0.10.242	1.0.0.439	7	234	2	3	Verdana	1	80	0	0	0	WM Stimuli\	0.9	1097.11111111111	1	844.7	1	1018.4	1	696.4	1	959.5	1	799.2	0.8	888.875	0.9	935.777777777778	13	332692	2	332680	14	27	332706	-999999	332695	0	29	TrialsPROC	FC_017_M9.png	2	2	29	SessionSelectionList														nonlure	3	Face	2-Back	25	80	24	0	0	100	6	39	130960	2	14	73	128921	-1	129691	1	770	3	3	2039	53	130974	-54	0																29												
WM080112	151223_fnca	2	1	1	260624115	1	75.030	75.030	2.0.10.147	2.0.10.242	2.0.10.242	1.0.0.439	7	234	2	3	Verdana	1	80	0	0	0	WM Stimuli\	0.9	1097.11111111111	1	844.7	1	1018.4	1	696.4	1	959.5	1	799.2	0.8	888.875	0.9	935.777777777778	13	332692	2	332680	14	27	332706	-999999	332695	0	29	TrialsPROC	FC_017_M9.png	2	2	30	SessionSelectionList														lure	3	Face	2-Back	26	80	25	0	0	100	7	39	133532	2	14	72	131493	-1	132016	1	523	3	3	2039	53	133546	-54	0																30												
WM080112	151223_fnca	2	1	1	260624115	1	75.030	75.030	2.0.10.147	2.0.10.242	2.0.10.242	1.0.0.439	7	234	2	3	Verdana	1	80	0	0	0	WM Stimuli\	0.9	1097.11111111111	1	844.7	1	1018.4	1	696.4	1	959.5	1	799.2	0.8	888.875	0.9	935.777777777778	13	332692	2	332680	14	27	332706	-999999	332695	0	29	TrialsPROC	FC_016_F8.png	2	2	31	SessionSelectionList														nonlure	3	Face	2-Back	27	80	26	0	0	100	8	39	136104	2	14	72	134065	-1	135500	1	1435	3	3	2039	53	136118	-54	0																31												
WM080112	151223_fnca	2	1	1	260624115	1	75.030	75.030	2.0.10.147	2.0.10.242	2.0.10.242	1.0.0.439	7	234	2	3	Verdana	1	80	0	0	0	WM Stimuli\	0.9	1097.11111111111	1	844.7	1	1018.4	1	696.4	1	959.5	1	799.2	0.8	888.875	0.9	935.777777777778	13	332692	2	332680	14	27	332706	-999999	332695	0	29	TrialsPROC	FC_013_M7.png	2	2	32	SessionSelectionList														nonlure	3	Face	2-Back	28	80	27	0	0	100	9	39	138677	1	14	73	136638	-1	137462	1	824	3	3	2039	53	138691	-54	0																32												
WM080112	151223_fnca	2	1	1	260624115	1	75.030	75.030	2.0.10.147	2.0.10.242	2.0.10.242	1.0.0.439	7	234	2	3	Verdana	1	80	0	0	0	WM Stimuli\	0.9	1097.11111111111	1	844.7	1	1018.4	1	696.4	1	959.5	1	799.2	0.8	888.875	0.9	935.777777777778	13	332692	2	332680	14	27	332706	-999999	332695	0	29	TrialsPROC	FC_014_F7.png	2	2	33	SessionSelectionList														nonlure	3	Face	2-Back	29	80	28	0	0	100	10	39	141249	2	14	72	139210	-1	140039	1	829	3	3	2039	53	141263	-54	0																33												
WM080112	151223_fnca	2	1	1	260624115	1	75.030	75.030	2.0.10.147	2.0.10.242	2.0.10.242	1.0.0.439	7	234	2	3	Verdana	1	80	0	0	0	WM Stimuli\	0.9	1097.11111111111	1	844.7	1	1018.4	1	696.4	1	959.5	1	799.2	0.8	888.875	0.9	935.777777777778	13	332692	2	332680	14	27	332706	-999999	332695	0	29	TrialsPROC	FC_013_M7.png	2	2	34	SessionSelectionList														target	2	Face	2-Back	30	80	29	0	0	100	1	39	143821	2	14	72	141782	-1	143149	1	1367	2	2	2039	53	143835	-54	0																34												
WM080112	151223_fnca	2	1	1	260624115	1	75.030	75.030	2.0.10.147	2.0.10.242	2.0.10.242	1.0.0.439	7	234	2	3	Verdana	1	80	0	0	0	WM Stimuli\	0.9	1097.11111111111	1	844.7	1	1018.4	1	696.4	1	959.5	1	799.2	0.8	888.875	0.9	935.777777777778	13	332692	2	332680	14	27	332706	-999999	332695	0	29	TrialsPROC	FC_014_F7.png	2	2	35	SessionSelectionList														target	2	Face	2-Back	31	80	30	0	0	100	2	40	146394	1	13	72	144354	-1	145408	1	1054	2	2	2040	53	146407	-54	0																35												
WM080112	151223_fnca	2	1	1	260624115	1	75.030	75.030	2.0.10.147	2.0.10.242	2.0.10.242	1.0.0.439	7	234	2	3	Verdana	1	80	0	0	0	WM Stimuli\	0.9	1097.11111111111	1	844.7	1	1018.4	1	696.4	1	959.5	1	799.2	0.8	888.875	0.9	935.777777777778	13	332692	2	332680	14	27	332706	-999999	332695	0	30	Cue0BackPROC	TO_019_TOOL19_BA.png	2	2	36	SessionSelectionList																																										19	146873	-20	0												36												
WM080112	151223_fnca	2	1	1	260624115	1	75.030	75.030	2.0.10.147	2.0.10.242	2.0.10.242	1.0.0.439	7	234	2	3	Verdana	1	80	0	0	0	WM Stimuli\	0.9	1097.11111111111	1	844.7	1	1018.4	1	696.4	1	959.5	1	799.2	0.8	888.875	0.9	935.777777777778	13	332692	2	332680	14	27	332706	-999999	332695	0	31	TrialsPROC	TO_019_TOOL19_BA.png	2	2	37	SessionSelectionList														target	2	Tools	0-Back	32	80	31	0	0	91	1	39	151445	2	14	52	149406	-1	150932	0	1526	3	2	2039	53	151459	-54	0																37												
WM080112	151223_fnca	2	1	1	260624115	1	75.030	75.030	2.0.10.147	2.0.10.242	2.0.10.242	1.0.0.439	7	234	2	3	Verdana	1	80	0	0	0	WM Stimuli\	0.9	1097.11111111111	1	844.7	1	1018.4	1	696.4	1	959.5	1	799.2	0.8	888.875	0.9	935.777777777778	13	332692	2	332680	14	27	332706	-999999	332695	0	31	TrialsPROC	TO_024_TOOL24_BA.png	2	2	38	SessionSelectionList														nonlure	3	Tools	0-Back	33	80	32	0	0	92	2	39	154004	1	14	59	151965	-1	153841	1	1876	3	3	2039	53	154018	-54	0																38												
WM080112	151223_fnca	2	1	1	260624115	1	75.030	75.030	2.0.10.147	2.0.10.242	2.0.10.242	1.0.0.439	7	234	2	3	Verdana	1	80	0	0	0	WM Stimuli\	0.9	1097.11111111111	1	844.7	1	1018.4	1	696.4	1	959.5	1	799.2	0.8	888.875	0.9	935.777777777778	13	332692	2	332680	14	27	332706	-999999	332695	0	31	TrialsPROC	TO_019_TOOL19_BA.png	2	2	39	SessionSelectionList														target	2	Tools	0-Back	34	80	33	0	0	92	1	39	156563	1	14	59	154524	-1	155192	1	668	2	2	2039	53	156577	-54	0																39												
WM080112	151223_fnca	2	1	1	260624115	1	75.030	75.030	2.0.10.147	2.0.10.242	2.0.10.242	1.0.0.439	7	234	2	3	Verdana	1	80	0	0	0	WM Stimuli\	0.9	1097.11111111111	1	844.7	1	1018.4	1	696.4	1	959.5	1	799.2	0.8	888.875	0.9	935.777777777778	13	332692	2	332680	14	27	332706	-999999	332695	0	31	TrialsPROC	TO_023_TOOL23_BA.png	2	2	40	SessionSelectionList														nonlure	3	Tools	0-Back	35	80	34	0	0	93	1	39	159122	1	14	59	157083	-1	158066	1	983	3	3	2039	53	159136	-54	0																40												
WM080112	151223_fnca	2	1	1	260624115	1	75.030	75.030	2.0.10.147	2.0.10.242	2.0.10.242	1.0.0.439	7	234	2	3	Verdana	1	80	0	0	0	WM Stimuli\	0.9	1097.11111111111	1	844.7	1	1018.4	1	696.4	1	959.5	1	799.2	0.8	888.875	0.9	935.777777777778	13	332692	2	332680	14	27	332706	-999999	332695	0	31	TrialsPROC	TO_020_TOOL20_BA.png	2	2	41	SessionSelectionList														nonlure	3	Tools	0-Back	36	80	35	0	0	93	2	39	161681	1	14	59	159642	-1	160763	1	1121	3	3	2039	53	161695	-54	0																41												
WM080112	151223_fnca	2	1	1	260624115	1	75.030	75.030	2.0.10.147	2.0.10.242	2.0.10.242	1.0.0.439	7	234	2	3	Verdana	1	80	0	0	0	WM Stimuli\	0.9	1097.11111111111	1	844.7	1	1018.4	1	696.4	1	959.5	1	799.2	0.8	888.875	0.9	935.777777777778	13	332692	2	332680	14	27	332706	-999999	332695	0	31	TrialsPROC	TO_020_TOOL20_BA.png	2	2	42	SessionSelectionList														lure	3	Tools	0-Back	37	80	36	0	0	94	3	39	164240	2	14	59	162201	-1	162716	1	515	3	3	2039	53	164254	-54	0																42												
WM080112	151223_fnca	2	1	1	260624115	1	75.030	75.030	2.0.10.147	2.0.10.242	2.0.10.242	1.0.0.439	7	234	2	3	Verdana	1	80	0	0	0	WM Stimuli\	0.9	1097.11111111111	1	844.7	1	1018.4	1	696.4	1	959.5	1	799.2	0.8	888.875	0.9	935.777777777778	13	332692	2	332680	14	27	332706	-999999	332695	0	31	TrialsPROC	TO_022_TOOL22_BA.png	2	2	43	SessionSelectionList														nonlure	3	Tools	0-Back	38	80	37	0	0	94	4	39	166799	1	14	59	164760	-1	165741	1	981	3	3	2039	53	166813	-54	0																43												
WM080112	151223_fnca	2	1	1	260624115	1	75.030	75.030	2.0.10.147	2.0.10.242	2.0.10.242	1.0.0.439	7	234	2	3	Verdana	1	80	0	0	0	WM Stimuli\	0.9	1097.11111111111	1	844.7	1	1018.4	1	696.4	1	959.5	1	799.2	0.8	888.875	0.9	935.777777777778	13	332692	2	332680	14	27	332706	-999999	332695	0	31	TrialsPROC	TO_022_TOOL22_BA.png	2	2	44	SessionSelectionList														lure	3	Tools	0-Back	39	80	38	0	0	94	5	39	169358	1	13	59	167319	-1	167961	1	642	3	3	2039	52	169371	-53	0																44												
WM080112	151223_fnca	2	1	1	260624115	1	75.030	75.030	2.0.10.147	2.0.10.242	2.0.10.242	1.0.0.439	7	234	2	3	Verdana	1	80	0	0	0	WM Stimuli\	0.9	1097.11111111111	1	844.7	1	1018.4	1	696.4	1	959.5	1	799.2	0.8	888.875	0.9	935.777777777778	13	332692	2	332680	14	27	332706	-999999	332695	0	31	TrialsPROC	TO_021_TOOL21_BA.png	2	2	45	SessionSelectionList														nonlure	3	Tools	0-Back	40	80	39	0	0	95	6	39	171917	1	13	59	169878	-1	170969	1	1091	3	3	2039	52	171930	-53	0																45												
WM080112	151223_fnca	2	1	1	260624115	1	75.030	75.030	2.0.10.147	2.0.10.242	2.0.10.242	1.0.0.439	7	234	2	3	Verdana	1	80	0	0	0	WM Stimuli\	0.9	1097.11111111111	1	844.7	1	1018.4	1	696.4	1	959.5	1	799.2	0.8	888.875	0.9	935.777777777778	13	332692	2	332680	14	27	332706	-999999	332695	0	31	TrialsPROC	TO_021_TOOL21_BA.png	2	2	46	SessionSelectionList														lure	3	Tools	0-Back	41	80	40	0	0	95	7	39	174476	1	13	59	172437	-1	172982	1	545	3	3	2039	52	174489	-53	0																46												
WM080112	151223_fnca	2	1	1	260624115	1	75.030	75.030	2.0.10.147	2.0.10.242	2.0.10.242	1.0.0.439	7	234	2	3	Verdana	1	80	0	0	0	WM Stimuli\	0.9	1097.11111111111	1	844.7	1	1018.4	1	696.4	1	959.5	1	799.2	0.8	888.875	0.9	935.777777777778	13	332692	2	332680	14	27	332706	-999999	332695	0	32	Fix15secPROC	""	2	2	47	SessionSelectionList																																															6	174943	-7	0							47												
WM080112	151223_fnca	2	1	1	260624115	1	75.030	75.030	2.0.10.147	2.0.10.242	2.0.10.242	1.0.0.439	7	234	2	3	Verdana	1	80	0	0	0	WM Stimuli\	0.9	1097.11111111111	1	844.7	1	1018.4	1	696.4	1	959.5	1	799.2	0.8	888.875	0.9	935.777777777778	13	332692	2	332680	14	27	332706	-999999	332695	0	33	Cue2BackPROC	""	2	2	48	SessionSelectionList									12	189949	-13	0																																													48												
WM080112	151223_fnca	2	1	1	260624115	1	75.030	75.030	2.0.10.147	2.0.10.242	2.0.10.242	1.0.0.439	7	234	2	3	Verdana	1	80	0	0	0	WM Stimuli\	0.9	1097.11111111111	1	844.7	1	1018.4	1	696.4	1	959.5	1	799.2	0.8	888.875	0.9	935.777777777778	13	332692	2	332680	14	27	332706	-999999	332695	0	34	TrialsPROC	BP_020_H17-T_BA.png	2	2	49	SessionSelectionList														nonlure	3	Body	2-Back	42	80	41	0	0	95	8	39	194534	3	14	58	192495	-1	193598	1	1103	3	3	2039	53	194548	-54	0																49												
WM080112	151223_fnca	2	1	1	260624115	1	75.030	75.030	2.0.10.147	2.0.10.242	2.0.10.242	1.0.0.439	7	234	2	3	Verdana	1	80	0	0	0	WM Stimuli\	0.9	1097.11111111111	1	844.7	1	1018.4	1	696.4	1	959.5	1	799.2	0.8	888.875	0.9	935.777777777778	13	332692	2	332680	14	27	332706	-999999	332695	0	34	TrialsPROC	BP_019_H14-T_BA.png	2	2	50	SessionSelectionList														nonlure	3	Body	2-Back	43	80	42	0	0	95	9	39	197093	3	14	59	195054	-1	196076	1	1022	3	3	2039	53	197107	-54	0																50												
WM080112	151223_fnca	2	1	1	260624115	1	75.030	75.030	2.0.10.147	2.0.10.242	2.0.10.242	1.0.0.439	7	234	2	3	Verdana	1	80	0	0	0	WM Stimuli\	0.9	1097.11111111111	1	844.7	1	1018.4	1	696.4	1	959.5	1	799.2	0.8	888.875	0.9	935.777777777778	13	332692	2	332680	14	27	332706	-999999	332695	0	34	TrialsPROC	BP_020_H17-T_BA.png	2	2	51	SessionSelectionList														target	2	Body	2-Back	44	80	43	0	0	95	1	39	199652	2	14	59	197613	-1	198715	1	1102	2	2	2039	53	199666	-54	0																51												
WM080112	151223_fnca	2	1	1	260624115	1	75.030	75.030	2.0.10.147	2.0.10.242	2.0.10.242	1.0.0.439	7	234	2	3	Verdana	1	80	0	0	0	WM Stimuli\	0.9	1097.11111111111	1	844.7	1	1018.4	1	696.4	1	959.5	1	799.2	0.8	888.875	0.9	935.777777777778	13	332692	2	332680	14	27	332706	-999999	332695	0	34	TrialsPROC	BP_019_H14-T_BA.png	2	2	52	SessionSelectionList														target	2	Body	2-Back	45	80	44	0	0	95	2	39	202211	3	14	59	200172	-1	200888	1	716	2	2	2039	53	202225	-54	0																52												
WM080112	151223_fnca	2	1	1	260624115	1	75.030	75.030	2.0.10.147	2.0.10.242	2.0.10.242	1.0.0.439	7	234	2	3	Verdana	1	80	0	0	0	WM Stimuli\	0.9	1097.11111111111	1	844.7	1	1018.4	1	696.4	1	959.5	1	799.2	0.8	888.875	0.9	935.777777777778	13	332692	2	332680	14	27	332706	-999999	332695	0	34	TrialsPROC	BP_024_H3-T_BA.png	2	2	53	SessionSelectionList														nonlure	3	Body	2-Back	46	80	45	0	0	95	1	39	204770	2	14	59	202731	-1	203798	1	1067	3	3	2039	53	204784	-54	0																53												
WM080112	151223_fnca	2	1	1	260624115	1	75.030	75.030	2.0.10.147	2.0.10.242	2.0.10.242	1.0.0.439	7	234	2	3	Verdana	1	80	0	0	0	WM Stimuli\	0.9	1097.11111111111	1	844.7	1	1018.4	1	696.4	1	959.5	1	799.2	0.8	888.875	0.9	935.777777777778	13	332692	2	332680	14	27	332706	-999999	332695	0	34	TrialsPROC	BP_024_H3-T_BA.png	2	2	54	SessionSelectionList														lure	3	Body	2-Back	47	80	46	0	0	95	2	39	207329	2	14	59	205290	-1	206618	1	1328	3	3	2039	53	207343	-54	0																54												
WM080112	151223_fnca	2	1	1	260624115	1	75.030	75.030	2.0.10.147	2.0.10.242	2.0.10.242	1.0.0.439	7	234	2	3	Verdana	1	80	0	0	0	WM Stimuli\	0.9	1097.11111111111	1	844.7	1	1018.4	1	696.4	1	959.5	1	799.2	0.8	888.875	0.9	935.777777777778	13	332692	2	332680	14	27	332706	-999999	332695	0	34	TrialsPROC	BP_025_H5-T_BA.png	2	2	55	SessionSelectionList														nonlure	3	Body	2-Back	48	80	47	0	0	95	1	39	209888	1	14	59	207849	-1	209317	0	1468	2	3	2039	53	209902	-54	0																55												
WM080112	151223_fnca	2	1	1	260624115	1	75.030	75.030	2.0.10.147	2.0.10.242	2.0.10.242	1.0.0.439	7	234	2	3	Verdana	1	80	0	0	0	WM Stimuli\	0.9	1097.11111111111	1	844.7	1	1018.4	1	696.4	1	959.5	1	799.2	0.8	888.875	0.9	935.777777777778	13	332692	2	332680	14	27	332706	-999999	332695	0	34	TrialsPROC	BP_023_H25-T_BA.png	2	2	56	SessionSelectionList														nonlure	3	Body	2-Back	49	80	48	0	0	95	1	39	212447	1	14	59	210408	-1	212168	1	1760	3	3	2039	53	212461	-54	0																56												
WM080112	151223_fnca	2	1	1	260624115	1	75.030	75.030	2.0.10.147	2.0.10.242	2.0.10.242	1.0.0.439	7	234	2	3	Verdana	1	80	0	0	0	WM Stimuli\	0.9	1097.11111111111	1	844.7	1	1018.4	1	696.4	1	959.5	1	799.2	0.8	888.875	0.9	935.777777777778	13	332692	2	332680	14	27	332706	-999999	332695	0	34	TrialsPROC	BP_022_H24-T_BA.png	2	2	57	SessionSelectionList														nonlure	3	Body	2-Back	50	80	49	0	0	95	2	39	215006	1	14	59	212967	-1	213847	1	880	3	3	2039	53	215020	-54	0																57												
WM080112	151223_fnca	2	1	1	260624115	1	75.030	75.030	2.0.10.147	2.0.10.242	2.0.10.242	1.0.0.439	7	234	2	3	Verdana	1	80	0	0	0	WM Stimuli\	0.9	1097.11111111111	1	844.7	1	1018.4	1	696.4	1	959.5	1	799.2	0.8	888.875	0.9	935.777777777778	13	332692	2	332680	14	27	332706	-999999	332695	0	34	TrialsPROC	BP_022_H24-T_BA.png	2	2	58	SessionSelectionList														lure	3	Body	2-Back	51	80	50	0	0	95	3	39	217565	1	14	59	215526	-1	216422	1	896	3	3	2039	53	217579	-54	0																58												
WM080112	151223_fnca	2	1	1	260624115	1	75.030	75.030	2.0.10.147	2.0.10.242	2.0.10.242	1.0.0.439	7	234	2	3	Verdana	1	80	0	0	0	WM Stimuli\	0.9	1097.11111111111	1	844.7	1	1018.4	1	696.4	1	959.5	1	799.2	0.8	888.875	0.9	935.777777777778	13	332692	2	332680	14	27	332706	-999999	332695	0	35	Cue2BackPROC	""	2	2	59	SessionSelectionList									5	218031	-6	0																																													59												
WM080112	151223_fnca	2	1	1	260624115	1	75.030	75.030	2.0.10.147	2.0.10.242	2.0.10.242	1.0.0.439	7	234	2	3	Verdana	1	80	0	0	0	WM Stimuli\	0.9	1097.11111111111	1	844.7	1	1018.4	1	696.4	1	959.5	1	799.2	0.8	888.875	0.9	935.777777777778	13	332692	2	332680	14	27	332706	-999999	332695	0	36	TrialsPROC	PL_019_SCENE_05.png	2	2	60	SessionSelectionList														nonlure	3	Place	2-Back	52	80	51	0	0	95	4	40	222630	2	13	64	220590	-1	221914	1	1324	3	3	2040	53	222643	-54	0																60												
WM080112	151223_fnca	2	1	1	260624115	1	75.030	75.030	2.0.10.147	2.0.10.242	2.0.10.242	1.0.0.439	7	234	2	3	Verdana	1	80	0	0	0	WM Stimuli\	0.9	1097.11111111111	1	844.7	1	1018.4	1	696.4	1	959.5	1	799.2	0.8	888.875	0.9	935.777777777778	13	332692	2	332680	14	27	332706	-999999	332695	0	36	TrialsPROC	PL_017_SCENE_03.png	2	2	61	SessionSelectionList														nonlure	3	Place	2-Back	53	80	52	0	0	95	5	39	225202	2	14	73	223163	-1	223926	1	763	3	3	2039	53	225216	-54	0																61												
WM080112	151223_fnca	2	1	1	260624115	1	75.030	75.030	2.0.10.147	2.0.10.242	2.0.10.242	1.0.0.439	7	234	2	3	Verdana	1	80	0	0	0	WM Stimuli\	0.9	1097.11111111111	1	844.7	1	1018.4	1	696.4	1	959.5	1	799.2	0.8	888.875	0.9	935.777777777778	13	332692	2	332680	14	27	332706	-999999	332695	0	36	TrialsPROC	PL_017_SCENE_03.png	2	2	62	SessionSelectionList														lure	3	Place	2-Back	54	80	53	0	0	95	6	39	227774	3	14	72	225735	-1	226937	1	1202	3	3	2039	53	227788	-54	0																62												
WM080112	151223_fnca	2	1	1	260624115	1	75.030	75.030	2.0.10.147	2.0.10.242	2.0.10.242	1.0.0.439	7	234	2	3	Verdana	1	80	0	0	0	WM Stimuli\	0.9	1097.11111111111	1	844.7	1	1018.4	1	696.4	1	959.5	1	799.2	0.8	888.875	0.9	935.777777777778	13	332692	2	332680	14	27	332706	-999999	332695	0	36	TrialsPROC	PL_016_SCENE_02.png	2	2	63	SessionSelectionList														nonlure	3	Place	2-Back	55	80	54	0	0	95	7	39	230346	3	14	72	228307	-1	229062	1	755	3	3	2039	53	230360	-54	0																63												
WM080112	151223_fnca	2	1	1	260624115	1	75.030	75.030	2.0.10.147	2.0.10.242	2.0.10.242	1.0.0.439	7	234	2	3	Verdana	1	80	0	0	0	WM Stimuli\	0.9	1097.11111111111	1	844.7	1	1018.4	1	696.4	1	959.5	1	799.2	0.8	888.875	0.9	935.777777777778	13	332692	2	332680	14	27	332706	-999999	332695	0	36	TrialsPROC	PL_015_SCENE_01.png	2	2	64	SessionSelectionList														nonlure	3	Place	2-Back	56	80	55	0	0	95	8	39	232919	1	13	73	230880	-1	231780	1	900	3	3	2039	52	232932	-53	0																64												
WM080112	151223_fnca	2	1	1	260624115	1	75.030	75.030	2.0.10.147	2.0.10.242	2.0.10.242	1.0.0.439	7	234	2	3	Verdana	1	80	0	0	0	WM Stimuli\	0.9	1097.11111111111	1	844.7	1	1018.4	1	696.4	1	959.5	1	799.2	0.8	888.875	0.9	935.777777777778	13	332692	2	332680	14	27	332706	-999999	332695	0	36	TrialsPROC	PL_016_SCENE_02.png	2	2	65	SessionSelectionList														target	2	Place	2-Back	57	80	56	0	0	95	1	39	235491	1	14	72	233452	-1	234274	1	822	2	2	2039	53	235505	-54	0																65												
WM080112	151223_fnca	2	1	1	260624115	1	75.030	75.030	2.0.10.147	2.0.10.242	2.0.10.242	1.0.0.439	7	234	2	3	Verdana	1	80	0	0	0	WM Stimuli\	0.9	1097.11111111111	1	844.7	1	1018.4	1	696.4	1	959.5	1	799.2	0.8	888.875	0.9	935.777777777778	13	332692	2	332680	14	27	332706	-999999	332695	0	36	TrialsPROC	PL_015_SCENE_01.png	2	2	66	SessionSelectionList														target	2	Place	2-Back	58	80	57	0	0	95	2	39	238063	3	14	72	236024	-1	237231	1	1207	2	2	2039	53	238077	-54	0																66												
WM080112	151223_fnca	2	1	1	260624115	1	75.030	75.030	2.0.10.147	2.0.10.242	2.0.10.242	1.0.0.439	7	234	2	3	Verdana	1	80	0	0	0	WM Stimuli\	0.9	1097.11111111111	1	844.7	1	1018.4	1	696.4	1	959.5	1	799.2	0.8	888.875	0.9	935.777777777778	13	332692	2	332680	14	27	332706	-999999	332695	0	36	TrialsPROC	PL_020_SCENE_06.png	2	2	67	SessionSelectionList														nonlure	3	Place	2-Back	59	80	58	0	0	95	1	40	240636	1	13	72	238596	-1	239622	1	1026	3	3	2040	53	240649	-54	0																67												
WM080112	151223_fnca	2	1	1	260624115	1	75.030	75.030	2.0.10.147	2.0.10.242	2.0.10.242	1.0.0.439	7	234	2	3	Verdana	1	80	0	0	0	WM Stimuli\	0.9	1097.11111111111	1	844.7	1	1018.4	1	696.4	1	959.5	1	799.2	0.8	888.875	0.9	935.777777777778	13	332692	2	332680	14	27	332706	-999999	332695	0	36	TrialsPROC	PL_020_SCENE_06.png	2	2	68	SessionSelectionList														lure	3	Place	2-Back	60	80	59	0	0	95	2	39	243208	2	14	73	241169	-1	241927	1	758	3	3	2039	53	243222	-54	0																68												
WM080112	151223_fnca	2	1	1	260624115	1	75.030	75.030	2.0.10.147	2.0.10.242	2.0.10.242	1.0.0.439	7	234	2	3	Verdana	1	80	0	0	0	WM Stimuli\	0.9	1097.11111111111	1	844.7	1	1018.4	1	696.4	1	959.5	1	799.2	0.8	888.875	0.9	935.777777777778	13	332692	2	332680	14	27	332706	-999999	332695	0	36	TrialsPROC	PL_018_SCENE_04.png	2	2	69	SessionSelectionList														nonlure	3	Place	2-Back	61	80	60	0	0	95	3	39	245780	2	14	72	243741	-1	244579	1	838	3	3	2039	53	245794	-54	0																69												
WM080112	151223_fnca	2	1	1	260624115	1	75.030	75.030	2.0.10.147	2.0.10.242	2.0.10.242	1.0.0.439	7	234	2	3	Verdana	1	80	0	0	0	WM Stimuli\	0.9	1097.11111111111	1	844.7	1	1018.4	1	696.4	1	959.5	1	799.2	0.8	888.875	0.9	935.777777777778	13	332692	2	332680	14	27	332706	-999999	332695	0	37	Fix15secPROC	""	2	2	70	SessionSelectionList																																															6	246247	-7	0							70												
WM080112	151223_fnca	2	1	1	260624115	1	75.030	75.030	2.0.10.147	2.0.10.242	2.0.10.242	1.0.0.439	7	234	2	3	Verdana	1	80	0	0	0	WM Stimuli\	0.9	1097.11111111111	1	844.7	1	1018.4	1	696.4	1	959.5	1	799.2	0.8	888.875	0.9	935.777777777778	13	332692	2	332680	14	27	332706	-999999	332695	0	38	Cue0BackPROC	FC_020_F10.png	2	2	71	SessionSelectionList																																										26	261267	-27	0												71												
WM080112	151223_fnca	2	1	1	260624115	1	75.030	75.030	2.0.10.147	2.0.10.242	2.0.10.242	1.0.0.439	7	234	2	3	Verdana	1	80	0	0	0	WM Stimuli\	0.9	1097.11111111111	1	844.7	1	1018.4	1	696.4	1	959.5	1	799.2	0.8	888.875	0.9	935.777777777778	13	332692	2	332680	14	27	332706	-999999	332695	0	39	TrialsPROC	FC_024_F12.png	2	2	72	SessionSelectionList														nonlure	3	Face	0-Back	62	80	61	0	0	95	4	39	265852	2	14	72	263813	-1	265029	1	1216	3	3	2039	53	265866	-54	0																72												
WM080112	151223_fnca	2	1	1	260624115	1	75.030	75.030	2.0.10.147	2.0.10.242	2.0.10.242	1.0.0.439	7	234	2	3	Verdana	1	80	0	0	0	WM Stimuli\	0.9	1097.11111111111	1	844.7	1	1018.4	1	696.4	1	959.5	1	799.2	0.8	888.875	0.9	935.777777777778	13	332692	2	332680	14	27	332706	-999999	332695	0	39	TrialsPROC	FC_023_M12.png	2	2	73	SessionSelectionList														nonlure	3	Face	0-Back	63	80	62	0	0	95	5	39	268424	2	14	72	266385	-1	266919	1	534	3	3	2039	53	268438	-54	0																73												
WM080112	151223_fnca	2	1	1	260624115	1	75.030	75.030	2.0.10.147	2.0.10.242	2.0.10.242	1.0.0.439	7	234	2	3	Verdana	1	80	0	0	0	WM Stimuli\	0.9	1097.11111111111	1	844.7	1	1018.4	1	696.4	1	959.5	1	799.2	0.8	888.875	0.9	935.777777777778	13	332692	2	332680	14	27	332706	-999999	332695	0	39	TrialsPROC	FC_020_F10.png	2	2	74	SessionSelectionList														target	2	Face	0-Back	64	80	63	0	0	96	1	39	270997	2	13	73	268958	-1	269654	1	696	2	2	2039	52	271010	-53	0																74												
WM080112	151223_fnca	2	1	1	260624115	1	75.030	75.030	2.0.10.147	2.0.10.242	2.0.10.242	1.0.0.439	7	234	2	3	Verdana	1	80	0	0	0	WM Stimuli\	0.9	1097.11111111111	1	844.7	1	1018.4	1	696.4	1	959.5	1	799.2	0.8	888.875	0.9	935.777777777778	13	332692	2	332680	14	27	332706	-999999	332695	0	39	TrialsPROC	FC_024_F12.png	2	2	75	SessionSelectionList														lure	3	Face	0-Back	65	80	64	0	0	96	1	39	273569	2	14	72	271530	-1	272181	1	651	3	3	2039	53	273583	-54	0																75												
WM080112	151223_fnca	2	1	1	260624115	1	75.030	75.030	2.0.10.147	2.0.10.242	2.0.10.242	1.0.0.439	7	234	2	3	Verdana	1	80	0	0	0	WM Stimuli\	0.9	1097.11111111111	1	844.7	1	1018.4	1	696.4	1	959.5	1	799.2	0.8	888.875	0.9	935.777777777778	13	332692	2	332680	14	27	332706	-999999	332695	0	39	TrialsPROC	FC_020_F10.png	2	2	76	SessionSelectionList														target	2	Face	0-Back	66	80	65	0	0	96	1	39	276141	2	14	72	274102	-1	274719	1	617	2	2	2039	53	276155	-54	0																76												
WM080112	151223_fnca	2	1	1	260624115	1	75.030	75.030	2.0.10.147	2.0.10.242	2.0.10.242	1.0.0.439	7	234	2	3	Verdana	1	80	0	0	0	WM Stimuli\	0.9	1097.11111111111	1	844.7	1	1018.4	1	696.4	1	959.5	1	799.2	0.8	888.875	0.9	935.777777777778	13	332692	2	332680	14	27	332706	-999999	332695	0	39	TrialsPROC	FC_022_F11.png	2	2	77	SessionSelectionList														nonlure	3	Face	0-Back	67	80	66	0	0	96	1	40	278714	2	13	72	276674	-1	277432	1	758	3	3	2040	53	278727	-54	0																77												
WM080112	151223_fnca	2	1	1	260624115	1	75.030	75.030	2.0.10.147	2.0.10.242	2.0.10.242	1.0.0.439	7	234	2	3	Verdana	1	80	0	0	0	WM Stimuli\	0.9	1097.11111111111	1	844.7	1	1018.4	1	696.4	1	959.5	1	799.2	0.8	888.875	0.9	935.777777777778	13	332692	2	332680	14	27	332706	-999999	332695	0	39	TrialsPROC	FC_023_M12.png	2	2	78	SessionSelectionList														lure	3	Face	0-Back	68	80	67	0	0	96	2	39	281286	1	14	73	279247	-1	279882	1	635	3	3	2039	53	281300	-54	0																78												
WM080112	151223_fnca	2	1	1	260624115	1	75.030	75.030	2.0.10.147	2.0.10.242	2.0.10.242	1.0.0.439	7	234	2	3	Verdana	1	80	0	0	0	WM Stimuli\	0.9	1097.11111111111	1	844.7	1	1018.4	1	696.4	1	959.5	1	799.2	0.8	888.875	0.9	935.777777777778	13	332692	2	332680	14	27	332706	-999999	332695	0	39	TrialsPROC	FC_021_M11.png	2	2	79	SessionSelectionList														nonlure	3	Face	0-Back	69	80	68	0	0	96	3	39	283858	3	14	72	281819	-1	282492	1	673	3	3	2039	53	283872	-54	0																79												
WM080112	151223_fnca	2	1	1	260624115	1	75.030	75.030	2.0.10.147	2.0.10.242	2.0.10.242	1.0.0.439	7	234	2	3	Verdana	1	80	0	0	0	WM Stimuli\	0.9	1097.11111111111	1	844.7	1	1018.4	1	696.4	1	959.5	1	799.2	0.8	888.875	0.9	935.777777777778	13	332692	2	332680	14	27	332706	-999999	332695	0	39	TrialsPROC	FC_021_M11.png	2	2	80	SessionSelectionList														lure	3	Face	0-Back	70	80	69	0	0	97	4	39	286430	2	14	72	284391	-1	284958	1	567	3	3	2039	53	286444	-54	0																80												
WM080112	151223_fnca	2	1	1	260624115	1	75.030	75.030	2.0.10.147	2.0.10.242	2.0.10.242	1.0.0.439	7	234	2	3	Verdana	1	80	0	0	0	WM Stimuli\	0.9	1097.11111111111	1	844.7	1	1018.4	1	696.4	1	959.5	1	799.2	0.8	888.875	0.9	935.777777777778	13	332692	2	332680	14	27	332706	-999999	332695	0	39	TrialsPROC	FC_019_M10.png	2	2	81	SessionSelectionList														nonlure	3	Face	0-Back	71	80	70	0	0	97	5	39	289003	1	13	73	286964	-1	287581	1	617	3	3	2039	52	289016	-53	0																81												
WM080112	151223_fnca	2	1	1	260624115	1	75.030	75.030	2.0.10.147	2.0.10.242	2.0.10.242	1.0.0.439	7	234	2	3	Verdana	1	80	0	0	0	WM Stimuli\	0.9	1097.11111111111	1	844.7	1	1018.4	1	696.4	1	959.5	1	799.2	0.8	888.875	0.9	935.777777777778	13	332692	2	332680	14	27	332706	-999999	332695	0	40	Cue0BackPROC	PL_021_SCENE_07.png	2	2	82	SessionSelectionList																																										19	289483	-20	0												82												
WM080112	151223_fnca	2	1	1	260624115	1	75.030	75.030	2.0.10.147	2.0.10.242	2.0.10.242	1.0.0.439	7	234	2	3	Verdana	1	80	0	0	0	WM Stimuli\	0.9	1097.11111111111	1	844.7	1	1018.4	1	696.4	1	959.5	1	799.2	0.8	888.875	0.9	935.777777777778	13	332692	2	332680	14	27	332706	-999999	332695	0	41	TrialsPROC	PL_025_SCENE_18.png	2	2	83	SessionSelectionList														nonlure	3	Place	0-Back	72	80	71	0	0	97	6	39	294067	3	14	64	292028	-1	292829	1	801	3	3	2039	53	294081	-54	0																83												
WM080112	151223_fnca	2	1	1	260624115	1	75.030	75.030	2.0.10.147	2.0.10.242	2.0.10.242	1.0.0.439	7	234	2	3	Verdana	1	80	0	0	0	WM Stimuli\	0.9	1097.11111111111	1	844.7	1	1018.4	1	696.4	1	959.5	1	799.2	0.8	888.875	0.9	935.777777777778	13	332692	2	332680	14	27	332706	-999999	332695	0	41	TrialsPROC	PL_026_SCENE_24.png	2	2	84	SessionSelectionList														nonlure	3	Place	0-Back	73	80	72	0	0	97	7	40	296640	1	13	72	294600	-1	295389	1	789	3	3	2040	53	296653	-54	0																84												
WM080112	151223_fnca	2	1	1	260624115	1	75.030	75.030	2.0.10.147	2.0.10.242	2.0.10.242	1.0.0.439	7	234	2	3	Verdana	1	80	0	0	0	WM Stimuli\	0.9	1097.11111111111	1	844.7	1	1018.4	1	696.4	1	959.5	1	799.2	0.8	888.875	0.9	935.777777777778	13	332692	2	332680	14	27	332706	-999999	332695	0	41	TrialsPROC	PL_025_SCENE_18.png	2	2	85	SessionSelectionList														lure	3	Place	0-Back	74	80	73	0	0	97	8	39	299212	1	14	73	297173	-1	298489	1	1316	3	3	2039	53	299226	-54	0																85												
WM080112	151223_fnca	2	1	1	260624115	1	75.030	75.030	2.0.10.147	2.0.10.242	2.0.10.242	1.0.0.439	7	234	2	3	Verdana	1	80	0	0	0	WM Stimuli\	0.9	1097.11111111111	1	844.7	1	1018.4	1	696.4	1	959.5	1	799.2	0.8	888.875	0.9	935.777777777778	13	332692	2	332680	14	27	332706	-999999	332695	0	41	TrialsPROC	PL_022_SCENE_08.png	2	2	86	SessionSelectionList														nonlure	3	Place	0-Back	75	80	74	0	0	97	9	39	301784	3	14	72	299745	-1	300505	1	760	3	3	2039	53	301798	-54	0																86												
WM080112	151223_fnca	2	1	1	260624115	1	75.030	75.030	2.0.10.147	2.0.10.242	2.0.10.242	1.0.0.439	7	234	2	3	Verdana	1	80	0	0	0	WM Stimuli\	0.9	1097.11111111111	1	844.7	1	1018.4	1	696.4	1	959.5	1	799.2	0.8	888.875	0.9	935.777777777778	13	332692	2	332680	14	27	332706	-999999	332695	0	41	TrialsPROC	PL_026_SCENE_24.png	2	2	87	SessionSelectionList														lure	3	Place	0-Back	76	80	75	0	0	97	10	40	304357	2	13	72	302317	-1	302952	1	635	3	3	2040	53	304370	-54	0																87												
WM080112	151223_fnca	2	1	1	260624115	1	75.030	75.030	2.0.10.147	2.0.10.242	2.0.10.242	1.0.0.439	7	234	2	3	Verdana	1	80	0	0	0	WM Stimuli\	0.9	1097.11111111111	1	844.7	1	1018.4	1	696.4	1	959.5	1	799.2	0.8	888.875	0.9	935.777777777778	13	332692	2	332680	14	27	332706	-999999	332695	0	41	TrialsPROC	PL_021_SCENE_07.png	2	2	88	SessionSelectionList														target	2	Place	0-Back	77	80	76	0	0	97	1	39	306929	1	14	73	304890	-1	305685	1	795	2	2	2039	53	306943	-54	0																88												
WM080112	151223_fnca	2	1	1	260624115	1	75.030	75.030	2.0.10.147	2.0.10.242	2.0.10.242	1.0.0.439	7	234	2	3	Verdana	1	80	0	0	0	WM Stimuli\	0.9	1097.11111111111	1	844.7	1	1018.4	1	696.4	1	959.5	1	799.2	0.8	888.875	0.9	935.777777777778	13	332692	2	332680	14	27	332706	-999999	332695	0	41	TrialsPROC	PL_021_SCENE_07.png	2	2	89	SessionSelectionList														target	2	Place	0-Back	78	80	77	0	0	97	2	39	309501	2	14	72	307462	-1	308384	1	922	2	2	2039	53	309515	-54	0																89												
WM080112	151223_fnca	2	1	1	260624115	1	75.030	75.030	2.0.10.147	2.0.10.242	2.0.10.242	1.0.0.439	7	234	2	3	Verdana	1	80	0	0	0	WM Stimuli\	0.9	1097.11111111111	1	844.7	1	1018.4	1	696.4	1	959.5	1	799.2	0.8	888.875	0.9	935.777777777778	13	332692	2	332680	14	27	332706	-999999	332695	0	41	TrialsPROC	PL_023_SCENE_09.png	2	2	90	SessionSelectionList														nonlure	3	Place	0-Back	79	80	78	0	0	97	1	39	312073	2	14	72	310034	-1	310759	1	725	3	3	2039	53	312087	-54	0																90												
WM080112	151223_fnca	2	1	1	260624115	1	75.030	75.030	2.0.10.147	2.0.10.242	2.0.10.242	1.0.0.439	7	234	2	3	Verdana	1	80	0	0	0	WM Stimuli\	0.9	1097.11111111111	1	844.7	1	1018.4	1	696.4	1	959.5	1	799.2	0.8	888.875	0.9	935.777777777778	13	332692	2	332680	14	27	332706	-999999	332695	0	41	TrialsPROC	PL_024_SCENE_10.png	2	2	91	SessionSelectionList														nonlure	3	Place	0-Back	80	80	79	0	0	97	2	39	314646	2	13	73	312607	-1	313383	1	776	3	3	2039	52	314659	-53	0																91												
WM080112	151223_fnca	2	1	1	260624115	1	75.030	75.030	2.0.10.147	2.0.10.242	2.0.10.242	1.0.0.439	7	234	2	3	Verdana	1	80	0	0	0	WM Stimuli\	0.9	1097.11111111111	1	844.7	1	1018.4	1	696.4	1	959.5	1	799.2	0.8	888.875	0.9	935.777777777778	13	332692	2	332680	14	27	332706	-999999	332695	0	41	TrialsPROC	PL_022_SCENE_08.png	2	2	92	SessionSelectionList														lure	3	Place	0-Back	80	80	80	0	0	98	3	39	317218	1	14	72	315179	-1	315652	1	473	3	3	2039	53	317232	-54	0																92												
WM080112	151223_fnca	2	1	1	260624115	1	75.030	75.030	2.0.10.147	2.0.10.242	2.0.10.242	1.0.0.439	7	234	2	3	Verdana	1	80	0	0	0	WM Stimuli\	0.9	1097.11111111111	1	844.7	1	1018.4	1	696.4	1	959.5	1	799.2	0.8	888.875	0.9	935.777777777778	13	332692	2	332680	14	27	332706	-999999	332695	0	42	Fix15secPROC	""	2	2	93	SessionSelectionList																																															6	317685	-7	0							93												
