ExperimentName	HCPID	RunNumber	Subject	Session	RandomSeed	Group	Laptop.RefreshRate	ScannerD2.RefreshRate	StudioVersion	RuntimeVersion	RuntimeVersionExpected	ExperimentVersion	triggercode	Allowed	Target	Nontarget	FontStyle	RunTrialNumber[Session]	TrialsPerRun[Session]	TotalRespGreater200[Session]	ConsecRTLess200[Session]	ConsecNonResp[Session]	StimuliDir	ACC_2_Back_Body	Avg_RT_For_Correct_Trials_2_Back_Body	ACC_0_Back_Body	Avg_RT_For_Correct_Trials_0_Back_Body	ACC_2_Back_Face	Avg_RT_For_Correct_Trials_2_Back_Face	ACC_0_Back_Face	Avg_RT_For_Correct_Trials_0_Back_Face	ACC_2_Back_Place	Avg_RT_For_Correct_Trials_2_Back_Place	ACC_0_Back_Place	Avg_RT_For_Correct_Trials_0_Back_Place	ACC_2_Back_Tools	Avg_RT_For_Correct_Trials_2_Back_Tools	ACC_0_Back_Tools	Avg_RT_For_Correct_Trials_0_Back_Tools	ExpInstrucFeelFreeToRest.OnsetDelay	ExpInstrucFeelFreeToRest.OnsetTime	ExpInstrucFeelFreeToRest.DurationError	ExpInstrucFeelFreeToRest.StartTime	ExpInstrucFeelFreeToRest.OnsetToOnsetTime	FeelFreeToRest.OnsetDelay	FeelFreeToRest.OnsetTime	FeelFreeToRest.DurationError	FeelFreeToRest.StartTime	FeelFreeToRest.OnsetToOnsetTime	SessionSelectionList	Procedure[Block]	Stimulus[Block]	RunNumberFilterValue	SessionSelectionList.Cycle	SessionSelectionList.Sample	Running[Block]	IntroButtonMap.OnsetDelay	IntroButtonMap.OnsetTime	IntroButtonMap.DurationError	IntroButtonMap.OnsetToOnsetTime	GetReady.OnsetDelay	GetReady.OnsetTime	GetReady.DurationError	GetReady.OnsetToOnsetTime	Cue2Back.OnsetDelay	Cue2Back.OnsetTime	Cue2Back.DurationError	Cue2Back.OnsetToOnsetTime	Run1Block1	TargetType	CorrectResponse	StimType	BlockType	RunTrialNumber[Block]	TrialsPerRun[Block]	TotalRespGreater200[Block]	ConsecRTLess200[Block]	ConsecNonResp[Block]	ControlAcc	ConsecSameResp	ExperimenterWindow.OnsetDelay	ExperimenterWindow.OnsetTime	ExperimenterWindow.DurationError	ExperimenterWindow.OnsetToOnsetTime	Stim.OnsetDelay	Stim.OnsetTime	Stim.DurationError	Stim.RTTime	Stim.ACC	Stim.RT	Stim.RESP	Stim.CRESP	Stim.OnsetToOnsetTime	Fix.OnsetDelay	Fix.OnsetTime	Fix.DurationError	Fix.OnsetToOnsetTime	CueTarget.OnsetDelay	CueTarget.OnsetTime	CueTarget.DurationError	CueTarget.OnsetToOnsetTime	Run1Block2	Fix15sec.OnsetDelay	Fix15sec.OnsetTime	Fix15sec.DurationError	Fix15sec.OnsetToOnsetTime	Run1Block3	Run1Block4	Run1Block5	Run1Block6	Run1Block7	Run1Block8	Block	Procedure[Trial]	Stimulus[Trial]	ReadyList	Running[Trial]	ReadyList.Cycle	ReadyList.Sample	SyncSlide.OnsetDelay	SyncSlide.OnsetTime	SyncSlide.DurationError	SyncSlide.FinishTime	SyncSlide.OnsetToOnsetTime	Trial
WM080112	188347_fnca	1	1	1	1545944800	1	75.031	75.032	2.0.10.147	2.0.10.242	2.0.10.242	1.0.0.439	7	234	2	3	Verdana	1	80	0	0	0	WM Stimuli\	0.4	1358.25	0.9	858	0.6	1065.83333333333	1	645.7	0.6	894.5	1	696.6	0.8	1127.125	1	679	13	546576	2	546564	27	40	546603	-999999	546579	0	1	TRSyncPROC	""	1	2	1	SessionSelectionList	102	16355	-999999	0	31	236917	-999999	0																																																	1	InitialTR	4	1	ReadyList	1	1	16	253337	-17	255320	0	1
WM080112	188347_fnca	1	1	1	1545944800	1	75.031	75.032	2.0.10.147	2.0.10.242	2.0.10.242	1.0.0.439	7	234	2	3	Verdana	1	80	0	0	0	WM Stimuli\	0.4	1358.25	0.9	858	0.6	1065.83333333333	1	645.7	0.6	894.5	1	696.6	0.8	1127.125	1	679	13	546576	2	546564	27	40	546603	-999999	546579	0	1	TRSyncPROC	""	1	2	1	SessionSelectionList	102	16355	-999999	0	31	236917	-999999	0																																																	1	InitialTR	3	2	ReadyList	1	2	15	255336	-16	257320	0	2
WM080112	188347_fnca	1	1	1	1545944800	1	75.031	75.032	2.0.10.147	2.0.10.242	2.0.10.242	1.0.0.439	7	234	2	3	Verdana	1	80	0	0	0	WM Stimuli\	0.4	1358.25	0.9	858	0.6	1065.83333333333	1	645.7	0.6	894.5	1	696.6	0.8	1127.125	1	679	13	546576	2	546564	27	40	546603	-999999	546579	0	1	TRSyncPROC	""	1	2	1	SessionSelectionList	102	16355	-999999	0	31	236917	-999999	0																																																	1	InitialTR	2	3	ReadyList	1	3	14	257335	-15	259320	0	3
WM080112	188347_fnca	1	1	1	1545944800	1	75.031	75.032	2.0.10.147	2.0.10.242	2.0.10.242	1.0.0.439	7	234	2	3	Verdana	1	80	0	0	0	WM Stimuli\	0.4	1358.25	0.9	858	0.6	1065.83333333333	1	645.7	0.6	894.5	1	696.6	0.8	1127.125	1	679	13	546576	2	546564	27	40	546603	-999999	546579	0	1	TRSyncPROC	""	1	2	1	SessionSelectionList	102	16355	-999999	0	31	236917	-999999	0																																																	1	InitialTR	1	4	ReadyList	1	4	13	259334	-14	261320	0	4
WM080112	188347_fnca	1	1	1	1545944800	1	75.031	75.032	2.0.10.147	2.0.10.242	2.0.10.242	1.0.0.439	7	234	2	3	Verdana	1	80	0	0	0	WM Stimuli\	0.4	1358.25	0.9	858	0.6	1065.83333333333	1	645.7	0.6	894.5	1	696.6	0.8	1127.125	1	679	13	546576	2	546564	27	40	546603	-999999	546579	0	2	Cue2BackPROC	""	1	2	2	SessionSelectionList									13	261334	-14	0																																													2												
WM080112	188347_fnca	1	1	1	1545944800	1	75.031	75.032	2.0.10.147	2.0.10.242	2.0.10.242	1.0.0.439	7	234	2	3	Verdana	1	80	0	0	0	WM Stimuli\	0.4	1358.25	0.9	858	0.6	1065.83333333333	1	645.7	0.6	894.5	1	696.6	0.8	1127.125	1	679	13	546576	2	546564	27	40	546603	-999999	546579	0	3	TrialsPROC	BP_002_BP10_BA.png	1	2	3	SessionSelectionList													1	nonlure	3	Body	2-Back	2	80	0	0	1	0	0	52	265958	3	14	85	263906	-1	0	0	0	""	3	2052	66	265972	-67	0																3												
WM080112	188347_fnca	1	1	1	1545944800	1	75.031	75.032	2.0.10.147	2.0.10.242	2.0.10.242	1.0.0.439	7	234	2	3	Verdana	1	80	0	0	0	WM Stimuli\	0.4	1358.25	0.9	858	0.6	1065.83333333333	1	645.7	0.6	894.5	1	696.6	0.8	1127.125	1	679	13	546576	2	546564	27	40	546603	-999999	546579	0	3	TrialsPROC	BP_001_BP1_BA.png	1	2	4	SessionSelectionList													2	nonlure	3	Body	2-Back	3	80	0	0	2	0	0	39	268517	3	14	72	266478	-1	0	0	0	""	3	2039	53	268531	-54	0																4												
WM080112	188347_fnca	1	1	1	1545944800	1	75.031	75.032	2.0.10.147	2.0.10.242	2.0.10.242	1.0.0.439	7	234	2	3	Verdana	1	80	0	0	0	WM Stimuli\	0.4	1358.25	0.9	858	0.6	1065.83333333333	1	645.7	0.6	894.5	1	696.6	0.8	1127.125	1	679	13	546576	2	546564	27	40	546603	-999999	546579	0	3	TrialsPROC	BP_006_BP2_BA.png	1	2	5	SessionSelectionList													3	nonlure	3	Body	2-Back	4	80	1	0	0	0	1	39	271076	2	14	59	269037	-1	270349	1	1312	3	3	2039	53	271090	-54	0																5												
WM080112	188347_fnca	1	1	1	1545944800	1	75.031	75.032	2.0.10.147	2.0.10.242	2.0.10.242	1.0.0.439	7	234	2	3	Verdana	1	80	0	0	0	WM Stimuli\	0.4	1358.25	0.9	858	0.6	1065.83333333333	1	645.7	0.6	894.5	1	696.6	0.8	1127.125	1	679	13	546576	2	546564	27	40	546603	-999999	546579	0	3	TrialsPROC	BP_001_BP1_BA.png	1	2	6	SessionSelectionList													4	target	2	Body	2-Back	5	80	2	0	0	0	2	39	273648	2	14	72	271609	-1	272825	0	1216	3	2	2039	53	273662	-54	0																6												
WM080112	188347_fnca	1	1	1	1545944800	1	75.031	75.032	2.0.10.147	2.0.10.242	2.0.10.242	1.0.0.439	7	234	2	3	Verdana	1	80	0	0	0	WM Stimuli\	0.4	1358.25	0.9	858	0.6	1065.83333333333	1	645.7	0.6	894.5	1	696.6	0.8	1127.125	1	679	13	546576	2	546564	27	40	546603	-999999	546579	0	3	TrialsPROC	BP_005_BP19_BA.png	1	2	7	SessionSelectionList													5	nonlure	3	Body	2-Back	6	80	3	0	0	0	3	39	276221	1	13	73	274182	-1	275389	1	1207	3	3	2039	52	276234	-53	0																7												
WM080112	188347_fnca	1	1	1	1545944800	1	75.031	75.032	2.0.10.147	2.0.10.242	2.0.10.242	1.0.0.439	7	234	2	3	Verdana	1	80	0	0	0	WM Stimuli\	0.4	1358.25	0.9	858	0.6	1065.83333333333	1	645.7	0.6	894.5	1	696.6	0.8	1127.125	1	679	13	546576	2	546564	27	40	546603	-999999	546579	0	3	TrialsPROC	BP_003_BP16_BA.png	1	2	8	SessionSelectionList													6	nonlure	3	Body	2-Back	7	80	4	0	0	0	4	39	278780	2	13	59	276741	-1	278315	1	1574	3	3	2039	52	278793	-53	0																8												
WM080112	188347_fnca	1	1	1	1545944800	1	75.031	75.032	2.0.10.147	2.0.10.242	2.0.10.242	1.0.0.439	7	234	2	3	Verdana	1	80	0	0	0	WM Stimuli\	0.4	1358.25	0.9	858	0.6	1065.83333333333	1	645.7	0.6	894.5	1	696.6	0.8	1127.125	1	679	13	546576	2	546564	27	40	546603	-999999	546579	0	3	TrialsPROC	BP_006_BP2_BA.png	1	2	9	SessionSelectionList													7	lure	3	Body	2-Back	8	80	5	0	0	0	1	39	281339	1	13	59	279300	-1	280616	0	1316	2	3	2039	52	281352	-53	0																9												
WM080112	188347_fnca	1	1	1	1545944800	1	75.031	75.032	2.0.10.147	2.0.10.242	2.0.10.242	1.0.0.439	7	234	2	3	Verdana	1	80	0	0	0	WM Stimuli\	0.4	1358.25	0.9	858	0.6	1065.83333333333	1	645.7	0.6	894.5	1	696.6	0.8	1127.125	1	679	13	546576	2	546564	27	40	546603	-999999	546579	0	3	TrialsPROC	BP_004_BP18_BA.png	1	2	10	SessionSelectionList													8	nonlure	3	Body	2-Back	9	80	6	0	0	0	1	40	283898	1	13	58	281858	-1	283198	1	1340	3	3	2040	53	283911	-54	0																10												
WM080112	188347_fnca	1	1	1	1545944800	1	75.031	75.032	2.0.10.147	2.0.10.242	2.0.10.242	1.0.0.439	7	234	2	3	Verdana	1	80	0	0	0	WM Stimuli\	0.4	1358.25	0.9	858	0.6	1065.83333333333	1	645.7	0.6	894.5	1	696.6	0.8	1127.125	1	679	13	546576	2	546564	27	40	546603	-999999	546579	0	3	TrialsPROC	BP_005_BP19_BA.png	1	2	11	SessionSelectionList													9	lure	3	Body	2-Back	10	80	7	0	0	0	1	39	286457	1	13	60	284418	-1	285724	0	1306	2	3	2039	52	286470	-53	0																11												
WM080112	188347_fnca	1	1	1	1545944800	1	75.031	75.032	2.0.10.147	2.0.10.242	2.0.10.242	1.0.0.439	7	234	2	3	Verdana	1	80	0	0	0	WM Stimuli\	0.4	1358.25	0.9	858	0.6	1065.83333333333	1	645.7	0.6	894.5	1	696.6	0.8	1127.125	1	679	13	546576	2	546564	27	40	546603	-999999	546579	0	3	TrialsPROC	BP_004_BP18_BA.png	1	2	12	SessionSelectionList													10	target	2	Body	2-Back	11	80	8	0	0	0	1	40	289016	1	13	58	286976	-1	288228	0	1252	3	2	2040	53	289029	-54	0																12												
WM080112	188347_fnca	1	1	1	1545944800	1	75.031	75.032	2.0.10.147	2.0.10.242	2.0.10.242	1.0.0.439	7	234	2	3	Verdana	1	80	0	0	0	WM Stimuli\	0.4	1358.25	0.9	858	0.6	1065.83333333333	1	645.7	0.6	894.5	1	696.6	0.8	1127.125	1	679	13	546576	2	546564	27	40	546603	-999999	546579	0	4	Cue0BackPROC	FC_001_M1.png	1	2	13	SessionSelectionList																																										19	289495	-20	0												13												
WM080112	188347_fnca	1	1	1	1545944800	1	75.031	75.032	2.0.10.147	2.0.10.242	2.0.10.242	1.0.0.439	7	234	2	3	Verdana	1	80	0	0	0	WM Stimuli\	0.4	1358.25	0.9	858	0.6	1065.83333333333	1	645.7	0.6	894.5	1	696.6	0.8	1127.125	1	679	13	546576	2	546564	27	40	546603	-999999	546579	0	5	TrialsPROC	FC_005_M3.png	1	2	14	SessionSelectionList														nonlure	3	Face	0-Back	12	80	9	0	0	100	2	39	294080	1	14	65	292041	-1	293040	1	999	3	3	2039	53	294094	-54	0					1											14												
WM080112	188347_fnca	1	1	1	1545944800	1	75.031	75.032	2.0.10.147	2.0.10.242	2.0.10.242	1.0.0.439	7	234	2	3	Verdana	1	80	0	0	0	WM Stimuli\	0.4	1358.25	0.9	858	0.6	1065.83333333333	1	645.7	0.6	894.5	1	696.6	0.8	1127.125	1	679	13	546576	2	546564	27	40	546603	-999999	546579	0	5	TrialsPROC	FC_001_M1.png	1	2	15	SessionSelectionList														target	2	Face	0-Back	13	80	10	0	0	100	1	39	296652	2	14	72	294613	-1	295410	1	797	2	2	2039	53	296666	-54	0					2											15												
WM080112	188347_fnca	1	1	1	1545944800	1	75.031	75.032	2.0.10.147	2.0.10.242	2.0.10.242	1.0.0.439	7	234	2	3	Verdana	1	80	0	0	0	WM Stimuli\	0.4	1358.25	0.9	858	0.6	1065.83333333333	1	645.7	0.6	894.5	1	696.6	0.8	1127.125	1	679	13	546576	2	546564	27	40	546603	-999999	546579	0	5	TrialsPROC	FC_003_M2.png	1	2	16	SessionSelectionList														nonlure	3	Face	0-Back	14	80	11	0	0	100	1	40	299225	1	13	72	297185	-1	298022	1	837	3	3	2040	53	299238	-54	0					3											16												
WM080112	188347_fnca	1	1	1	1545944800	1	75.031	75.032	2.0.10.147	2.0.10.242	2.0.10.242	1.0.0.439	7	234	2	3	Verdana	1	80	0	0	0	WM Stimuli\	0.4	1358.25	0.9	858	0.6	1065.83333333333	1	645.7	0.6	894.5	1	696.6	0.8	1127.125	1	679	13	546576	2	546564	27	40	546603	-999999	546579	0	5	TrialsPROC	FC_004_F2.png	1	2	17	SessionSelectionList														nonlure	3	Face	0-Back	15	80	12	0	0	100	2	39	301797	1	14	73	299758	-1	300308	1	550	3	3	2039	53	301811	-54	0					4											17												
WM080112	188347_fnca	1	1	1	1545944800	1	75.031	75.032	2.0.10.147	2.0.10.242	2.0.10.242	1.0.0.439	7	234	2	3	Verdana	1	80	0	0	0	WM Stimuli\	0.4	1358.25	0.9	858	0.6	1065.83333333333	1	645.7	0.6	894.5	1	696.6	0.8	1127.125	1	679	13	546576	2	546564	27	40	546603	-999999	546579	0	5	TrialsPROC	FC_004_F2.png	1	2	18	SessionSelectionList														lure	3	Face	0-Back	16	80	13	0	0	100	3	39	304369	2	14	72	302330	-1	302808	1	478	3	3	2039	53	304383	-54	0					5											18												
WM080112	188347_fnca	1	1	1	1545944800	1	75.031	75.032	2.0.10.147	2.0.10.242	2.0.10.242	1.0.0.439	7	234	2	3	Verdana	1	80	0	0	0	WM Stimuli\	0.4	1358.25	0.9	858	0.6	1065.83333333333	1	645.7	0.6	894.5	1	696.6	0.8	1127.125	1	679	13	546576	2	546564	27	40	546603	-999999	546579	0	5	TrialsPROC	FC_001_M1.png	1	2	19	SessionSelectionList														target	2	Face	0-Back	17	80	14	0	0	100	1	39	306941	2	14	72	304902	-1	305444	1	542	2	2	2039	53	306955	-54	0					6											19												
WM080112	188347_fnca	1	1	1	1545944800	1	75.031	75.032	2.0.10.147	2.0.10.242	2.0.10.242	1.0.0.439	7	234	2	3	Verdana	1	80	0	0	0	WM Stimuli\	0.4	1358.25	0.9	858	0.6	1065.83333333333	1	645.7	0.6	894.5	1	696.6	0.8	1127.125	1	679	13	546576	2	546564	27	40	546603	-999999	546579	0	5	TrialsPROC	FC_006_F3.png	1	2	20	SessionSelectionList														nonlure	3	Face	0-Back	18	80	15	0	0	100	1	39	309514	1	13	73	307475	-1	307935	1	460	3	3	2039	52	309527	-53	0					7											20												
WM080112	188347_fnca	1	1	1	1545944800	1	75.031	75.032	2.0.10.147	2.0.10.242	2.0.10.242	1.0.0.439	7	234	2	3	Verdana	1	80	0	0	0	WM Stimuli\	0.4	1358.25	0.9	858	0.6	1065.83333333333	1	645.7	0.6	894.5	1	696.6	0.8	1127.125	1	679	13	546576	2	546564	27	40	546603	-999999	546579	0	5	TrialsPROC	FC_006_F3.png	1	2	21	SessionSelectionList														lure	3	Face	0-Back	19	80	16	0	0	100	2	39	312086	1	14	72	310047	-1	310595	1	548	3	3	2039	53	312100	-54	0					8											21												
WM080112	188347_fnca	1	1	1	1545944800	1	75.031	75.032	2.0.10.147	2.0.10.242	2.0.10.242	1.0.0.439	7	234	2	3	Verdana	1	80	0	0	0	WM Stimuli\	0.4	1358.25	0.9	858	0.6	1065.83333333333	1	645.7	0.6	894.5	1	696.6	0.8	1127.125	1	679	13	546576	2	546564	27	40	546603	-999999	546579	0	5	TrialsPROC	FC_003_M2.png	1	2	22	SessionSelectionList														lure	3	Face	0-Back	20	80	17	0	0	100	3	39	314658	2	14	72	312619	-1	313306	1	687	3	3	2039	53	314672	-54	0					9											22												
WM080112	188347_fnca	1	1	1	1545944800	1	75.031	75.032	2.0.10.147	2.0.10.242	2.0.10.242	1.0.0.439	7	234	2	3	Verdana	1	80	0	0	0	WM Stimuli\	0.4	1358.25	0.9	858	0.6	1065.83333333333	1	645.7	0.6	894.5	1	696.6	0.8	1127.125	1	679	13	546576	2	546564	27	40	546603	-999999	546579	0	5	TrialsPROC	FC_002_F1.png	1	2	23	SessionSelectionList														nonlure	3	Face	0-Back	21	80	18	0	0	100	4	40	317231	1	13	72	315191	-1	315750	1	559	3	3	2040	53	317244	-54	0					10											23												
WM080112	188347_fnca	1	1	1	1545944800	1	75.031	75.032	2.0.10.147	2.0.10.242	2.0.10.242	1.0.0.439	7	234	2	3	Verdana	1	80	0	0	0	WM Stimuli\	0.4	1358.25	0.9	858	0.6	1065.83333333333	1	645.7	0.6	894.5	1	696.6	0.8	1127.125	1	679	13	546576	2	546564	27	40	546603	-999999	546579	0	6	Fix15secPROC	""	1	2	24	SessionSelectionList																																															6	317697	-7	0							24												
WM080112	188347_fnca	1	1	1	1545944800	1	75.031	75.032	2.0.10.147	2.0.10.242	2.0.10.242	1.0.0.439	7	234	2	3	Verdana	1	80	0	0	0	WM Stimuli\	0.4	1358.25	0.9	858	0.6	1065.83333333333	1	645.7	0.6	894.5	1	696.6	0.8	1127.125	1	679	13	546576	2	546564	27	40	546603	-999999	546579	0	7	Cue2BackPROC	""	1	2	25	SessionSelectionList									13	332704	-14	0																																													25												
WM080112	188347_fnca	1	1	1	1545944800	1	75.031	75.032	2.0.10.147	2.0.10.242	2.0.10.242	1.0.0.439	7	234	2	3	Verdana	1	80	0	0	0	WM Stimuli\	0.4	1358.25	0.9	858	0.6	1065.83333333333	1	645.7	0.6	894.5	1	696.6	0.8	1127.125	1	679	13	546576	2	546564	27	40	546603	-999999	546579	0	8	TrialsPROC	TO_001_TOOL1_BA.png	1	2	26	SessionSelectionList														nonlure	3	Tools	2-Back	22	80	18	0	1	100	4	39	337289	1	14	59	335250	-1	0	0	0	""	3	2039	53	337303	-54	0										1						26												
WM080112	188347_fnca	1	1	1	1545944800	1	75.031	75.032	2.0.10.147	2.0.10.242	2.0.10.242	1.0.0.439	7	234	2	3	Verdana	1	80	0	0	0	WM Stimuli\	0.4	1358.25	0.9	858	0.6	1065.83333333333	1	645.7	0.6	894.5	1	696.6	0.8	1127.125	1	679	13	546576	2	546564	27	40	546603	-999999	546579	0	8	TrialsPROC	TO_002_TOOL2_BA.png	1	2	27	SessionSelectionList														nonlure	3	Tools	2-Back	23	80	19	0	0	100	1	39	339848	1	14	59	337809	-1	339468	1	1659	3	3	2039	53	339862	-54	0										2						27												
WM080112	188347_fnca	1	1	1	1545944800	1	75.031	75.032	2.0.10.147	2.0.10.242	2.0.10.242	1.0.0.439	7	234	2	3	Verdana	1	80	0	0	0	WM Stimuli\	0.4	1358.25	0.9	858	0.6	1065.83333333333	1	645.7	0.6	894.5	1	696.6	0.8	1127.125	1	679	13	546576	2	546564	27	40	546603	-999999	546579	0	8	TrialsPROC	TO_004_TOOL4_BA.png	1	2	28	SessionSelectionList														nonlure	3	Tools	2-Back	24	80	20	0	0	100	2	39	342407	1	13	59	340368	-1	341228	1	860	3	3	2039	52	342420	-53	0										3						28												
WM080112	188347_fnca	1	1	1	1545944800	1	75.031	75.032	2.0.10.147	2.0.10.242	2.0.10.242	1.0.0.439	7	234	2	3	Verdana	1	80	0	0	0	WM Stimuli\	0.4	1358.25	0.9	858	0.6	1065.83333333333	1	645.7	0.6	894.5	1	696.6	0.8	1127.125	1	679	13	546576	2	546564	27	40	546603	-999999	546579	0	8	TrialsPROC	TO_002_TOOL2_BA.png	1	2	29	SessionSelectionList														target	2	Tools	2-Back	25	80	21	0	0	100	1	39	344966	1	13	59	342927	-1	344195	1	1268	2	2	2039	52	344979	-53	0										4						29												
WM080112	188347_fnca	1	1	1	1545944800	1	75.031	75.032	2.0.10.147	2.0.10.242	2.0.10.242	1.0.0.439	7	234	2	3	Verdana	1	80	0	0	0	WM Stimuli\	0.4	1358.25	0.9	858	0.6	1065.83333333333	1	645.7	0.6	894.5	1	696.6	0.8	1127.125	1	679	13	546576	2	546564	27	40	546603	-999999	546579	0	8	TrialsPROC	TO_001_TOOL1_BA.png	1	2	30	SessionSelectionList														lure	3	Tools	2-Back	26	80	22	0	0	100	1	39	347525	1	13	59	345486	-1	346990	1	1504	3	3	2039	52	347538	-53	0										5						30												
WM080112	188347_fnca	1	1	1	1545944800	1	75.031	75.032	2.0.10.147	2.0.10.242	2.0.10.242	1.0.0.439	7	234	2	3	Verdana	1	80	0	0	0	WM Stimuli\	0.4	1358.25	0.9	858	0.6	1065.83333333333	1	645.7	0.6	894.5	1	696.6	0.8	1127.125	1	679	13	546576	2	546564	27	40	546603	-999999	546579	0	8	TrialsPROC	TO_004_TOOL4_BA.png	1	2	31	SessionSelectionList														lure	3	Tools	2-Back	27	80	23	0	0	100	1	39	350084	1	13	59	348045	-1	349147	0	1102	2	3	2039	52	350097	-53	0										6						31												
WM080112	188347_fnca	1	1	1	1545944800	1	75.031	75.032	2.0.10.147	2.0.10.242	2.0.10.242	1.0.0.439	7	234	2	3	Verdana	1	80	0	0	0	WM Stimuli\	0.4	1358.25	0.9	858	0.6	1065.83333333333	1	645.7	0.6	894.5	1	696.6	0.8	1127.125	1	679	13	546576	2	546564	27	40	546603	-999999	546579	0	8	TrialsPROC	TO_006_TOOL6_BA.png	1	2	32	SessionSelectionList														nonlure	3	Tools	2-Back	28	80	24	0	0	100	1	40	352643	1	13	58	350603	-1	351733	1	1130	3	3	2040	53	352656	-54	0										7						32												
WM080112	188347_fnca	1	1	1	1545944800	1	75.031	75.032	2.0.10.147	2.0.10.242	2.0.10.242	1.0.0.439	7	234	2	3	Verdana	1	80	0	0	0	WM Stimuli\	0.4	1358.25	0.9	858	0.6	1065.83333333333	1	645.7	0.6	894.5	1	696.6	0.8	1127.125	1	679	13	546576	2	546564	27	40	546603	-999999	546579	0	8	TrialsPROC	TO_005_TOOL5_BA.png	1	2	33	SessionSelectionList														nonlure	3	Tools	2-Back	29	80	25	0	0	100	2	40	355202	1	13	59	353162	-1	353891	1	729	3	3	2040	53	355215	-54	0										8						33												
WM080112	188347_fnca	1	1	1	1545944800	1	75.031	75.032	2.0.10.147	2.0.10.242	2.0.10.242	1.0.0.439	7	234	2	3	Verdana	1	80	0	0	0	WM Stimuli\	0.4	1358.25	0.9	858	0.6	1065.83333333333	1	645.7	0.6	894.5	1	696.6	0.8	1127.125	1	679	13	546576	2	546564	27	40	546603	-999999	546579	0	8	TrialsPROC	TO_006_TOOL6_BA.png	1	2	34	SessionSelectionList														target	2	Tools	2-Back	30	80	26	0	0	100	1	40	357761	1	13	59	355721	-1	356445	1	724	2	2	2040	53	357774	-54	0										9						34												
WM080112	188347_fnca	1	1	1	1545944800	1	75.031	75.032	2.0.10.147	2.0.10.242	2.0.10.242	1.0.0.439	7	234	2	3	Verdana	1	80	0	0	0	WM Stimuli\	0.4	1358.25	0.9	858	0.6	1065.83333333333	1	645.7	0.6	894.5	1	696.6	0.8	1127.125	1	679	13	546576	2	546564	27	40	546603	-999999	546579	0	8	TrialsPROC	TO_003_TOOL3_BA.png	1	2	35	SessionSelectionList														nonlure	3	Tools	2-Back	31	80	27	0	0	100	1	39	360319	2	14	59	358280	-1	359423	1	1143	3	3	2039	53	360333	-54	0										10						35												
WM080112	188347_fnca	1	1	1	1545944800	1	75.031	75.032	2.0.10.147	2.0.10.242	2.0.10.242	1.0.0.439	7	234	2	3	Verdana	1	80	0	0	0	WM Stimuli\	0.4	1358.25	0.9	858	0.6	1065.83333333333	1	645.7	0.6	894.5	1	696.6	0.8	1127.125	1	679	13	546576	2	546564	27	40	546603	-999999	546579	0	9	Cue0BackPROC	BP_007_BP20_BA.png	1	2	36	SessionSelectionList																																										19	360799	-20	0												36												
WM080112	188347_fnca	1	1	1	1545944800	1	75.031	75.032	2.0.10.147	2.0.10.242	2.0.10.242	1.0.0.439	7	234	2	3	Verdana	1	80	0	0	0	WM Stimuli\	0.4	1358.25	0.9	858	0.6	1065.83333333333	1	645.7	0.6	894.5	1	696.6	0.8	1127.125	1	679	13	546576	2	546564	27	40	546603	-999999	546579	0	10	TrialsPROC	BP_007_BP20_BA.png	1	2	37	SessionSelectionList														target	2	Body	0-Back	32	80	28	0	0	100	1	39	365371	1	13	52	363332	-1	364239	1	907	2	2	2039	52	365384	-53	0											1					37												
WM080112	188347_fnca	1	1	1	1545944800	1	75.031	75.032	2.0.10.147	2.0.10.242	2.0.10.242	1.0.0.439	7	234	2	3	Verdana	1	80	0	0	0	WM Stimuli\	0.4	1358.25	0.9	858	0.6	1065.83333333333	1	645.7	0.6	894.5	1	696.6	0.8	1127.125	1	679	13	546576	2	546564	27	40	546603	-999999	546579	0	10	TrialsPROC	BP_011_BP4_BA.png	1	2	38	SessionSelectionList														nonlure	3	Body	0-Back	33	80	29	0	0	100	1	39	367930	1	13	59	365891	-1	366681	1	790	3	3	2039	52	367943	-53	0											2					38												
WM080112	188347_fnca	1	1	1	1545944800	1	75.031	75.032	2.0.10.147	2.0.10.242	2.0.10.242	1.0.0.439	7	234	2	3	Verdana	1	80	0	0	0	WM Stimuli\	0.4	1358.25	0.9	858	0.6	1065.83333333333	1	645.7	0.6	894.5	1	696.6	0.8	1127.125	1	679	13	546576	2	546564	27	40	546603	-999999	546579	0	10	TrialsPROC	BP_010_BP3_BA.png	1	2	39	SessionSelectionList														nonlure	3	Body	0-Back	34	80	30	0	0	100	2	40	370489	1	13	58	368449	-1	369278	1	829	3	3	2040	53	370502	-54	0											3					39												
WM080112	188347_fnca	1	1	1	1545944800	1	75.031	75.032	2.0.10.147	2.0.10.242	2.0.10.242	1.0.0.439	7	234	2	3	Verdana	1	80	0	0	0	WM Stimuli\	0.4	1358.25	0.9	858	0.6	1065.83333333333	1	645.7	0.6	894.5	1	696.6	0.8	1127.125	1	679	13	546576	2	546564	27	40	546603	-999999	546579	0	10	TrialsPROC	BP_008_BP21_BA.png	1	2	40	SessionSelectionList														nonlure	3	Body	0-Back	35	80	31	0	0	100	3	40	373048	1	13	59	371008	-1	371920	1	912	3	3	2040	53	373061	-54	0											4					40												
WM080112	188347_fnca	1	1	1	1545944800	1	75.031	75.032	2.0.10.147	2.0.10.242	2.0.10.242	1.0.0.439	7	234	2	3	Verdana	1	80	0	0	0	WM Stimuli\	0.4	1358.25	0.9	858	0.6	1065.83333333333	1	645.7	0.6	894.5	1	696.6	0.8	1127.125	1	679	13	546576	2	546564	27	40	546603	-999999	546579	0	10	TrialsPROC	BP_011_BP4_BA.png	1	2	41	SessionSelectionList														lure	3	Body	0-Back	36	80	32	0	0	93	1	39	375620	1	13	73	373581	-1	374353	0	772	2	3	2039	52	375633	-53	0											5					41												
WM080112	188347_fnca	1	1	1	1545944800	1	75.031	75.032	2.0.10.147	2.0.10.242	2.0.10.242	1.0.0.439	7	234	2	3	Verdana	1	80	0	0	0	WM Stimuli\	0.4	1358.25	0.9	858	0.6	1065.83333333333	1	645.7	0.6	894.5	1	696.6	0.8	1127.125	1	679	13	546576	2	546564	27	40	546603	-999999	546579	0	10	TrialsPROC	BP_009_BP22_BA.png	1	2	42	SessionSelectionList														nonlure	3	Body	0-Back	37	80	33	0	0	94	1	39	378179	1	13	59	376140	-1	376778	1	638	3	3	2039	52	378192	-53	0											6					42												
WM080112	188347_fnca	1	1	1	1545944800	1	75.031	75.032	2.0.10.147	2.0.10.242	2.0.10.242	1.0.0.439	7	234	2	3	Verdana	1	80	0	0	0	WM Stimuli\	0.4	1358.25	0.9	858	0.6	1065.83333333333	1	645.7	0.6	894.5	1	696.6	0.8	1127.125	1	679	13	546576	2	546564	27	40	546603	-999999	546579	0	10	TrialsPROC	BP_009_BP22_BA.png	1	2	43	SessionSelectionList														lure	3	Body	0-Back	38	80	34	0	0	94	2	39	380738	1	13	59	378699	-1	379356	1	657	3	3	2039	52	380751	-53	0											7					43												
WM080112	188347_fnca	1	1	1	1545944800	1	75.031	75.032	2.0.10.147	2.0.10.242	2.0.10.242	1.0.0.439	7	234	2	3	Verdana	1	80	0	0	0	WM Stimuli\	0.4	1358.25	0.9	858	0.6	1065.83333333333	1	645.7	0.6	894.5	1	696.6	0.8	1127.125	1	679	13	546576	2	546564	27	40	546603	-999999	546579	0	10	TrialsPROC	BP_008_BP21_BA.png	1	2	44	SessionSelectionList														lure	3	Body	0-Back	39	80	35	0	0	94	3	39	383297	1	13	59	381258	-1	382272	1	1014	3	3	2039	52	383310	-53	0											8					44												
WM080112	188347_fnca	1	1	1	1545944800	1	75.031	75.032	2.0.10.147	2.0.10.242	2.0.10.242	1.0.0.439	7	234	2	3	Verdana	1	80	0	0	0	WM Stimuli\	0.4	1358.25	0.9	858	0.6	1065.83333333333	1	645.7	0.6	894.5	1	696.6	0.8	1127.125	1	679	13	546576	2	546564	27	40	546603	-999999	546579	0	10	TrialsPROC	BP_007_BP20_BA.png	1	2	45	SessionSelectionList														target	2	Body	0-Back	40	80	36	0	0	95	1	40	385856	1	13	58	383816	-1	384778	1	962	2	2	2040	53	385869	-54	0											9					45												
WM080112	188347_fnca	1	1	1	1545944800	1	75.031	75.032	2.0.10.147	2.0.10.242	2.0.10.242	1.0.0.439	7	234	2	3	Verdana	1	80	0	0	0	WM Stimuli\	0.4	1358.25	0.9	858	0.6	1065.83333333333	1	645.7	0.6	894.5	1	696.6	0.8	1127.125	1	679	13	546576	2	546564	27	40	546603	-999999	546579	0	10	TrialsPROC	BP_012_BP5_BA.png	1	2	46	SessionSelectionList														nonlure	3	Body	0-Back	41	80	37	0	0	95	1	40	388415	1	13	59	386375	-1	387388	1	1013	3	3	2040	53	388428	-54	0											10					46												
WM080112	188347_fnca	1	1	1	1545944800	1	75.031	75.032	2.0.10.147	2.0.10.242	2.0.10.242	1.0.0.439	7	234	2	3	Verdana	1	80	0	0	0	WM Stimuli\	0.4	1358.25	0.9	858	0.6	1065.83333333333	1	645.7	0.6	894.5	1	696.6	0.8	1127.125	1	679	13	546576	2	546564	27	40	546603	-999999	546579	0	11	Fix15secPROC	""	1	2	47	SessionSelectionList																																															6	388881	-7	0							47												
WM080112	188347_fnca	1	1	1	1545944800	1	75.031	75.032	2.0.10.147	2.0.10.242	2.0.10.242	1.0.0.439	7	234	2	3	Verdana	1	80	0	0	0	WM Stimuli\	0.4	1358.25	0.9	858	0.6	1065.83333333333	1	645.7	0.6	894.5	1	696.6	0.8	1127.125	1	679	13	546576	2	546564	27	40	546603	-999999	546579	0	12	Cue0BackPROC	PL_001_92012.png	1	2	48	SessionSelectionList																																										13	403888	-14	0												48												
WM080112	188347_fnca	1	1	1	1545944800	1	75.031	75.032	2.0.10.147	2.0.10.242	2.0.10.242	1.0.0.439	7	234	2	3	Verdana	1	80	0	0	0	WM Stimuli\	0.4	1358.25	0.9	858	0.6	1065.83333333333	1	645.7	0.6	894.5	1	696.6	0.8	1127.125	1	679	13	546576	2	546564	27	40	546603	-999999	546579	0	13	TrialsPROC	PL_003_92016.png	1	2	49	SessionSelectionList														nonlure	3	Place	0-Back	42	80	38	0	0	95	2	39	408486	2	14	72	406447	-1	407715	1	1268	3	3	2039	53	408500	-54	0												1				49												
WM080112	188347_fnca	1	1	1	1545944800	1	75.031	75.032	2.0.10.147	2.0.10.242	2.0.10.242	1.0.0.439	7	234	2	3	Verdana	1	80	0	0	0	WM Stimuli\	0.4	1358.25	0.9	858	0.6	1065.83333333333	1	645.7	0.6	894.5	1	696.6	0.8	1127.125	1	679	13	546576	2	546564	27	40	546603	-999999	546579	0	13	TrialsPROC	PL_003_92016.png	1	2	50	SessionSelectionList														lure	3	Place	0-Back	43	80	39	0	0	95	3	40	411059	1	13	72	409019	-1	409714	1	695	3	3	2040	53	411072	-54	0												2				50												
WM080112	188347_fnca	1	1	1	1545944800	1	75.031	75.032	2.0.10.147	2.0.10.242	2.0.10.242	1.0.0.439	7	234	2	3	Verdana	1	80	0	0	0	WM Stimuli\	0.4	1358.25	0.9	858	0.6	1065.83333333333	1	645.7	0.6	894.5	1	696.6	0.8	1127.125	1	679	13	546576	2	546564	27	40	546603	-999999	546579	0	13	TrialsPROC	PL_006_92025.png	1	2	51	SessionSelectionList														nonlure	3	Place	0-Back	44	80	40	0	0	96	4	39	413631	1	13	73	411592	-1	412453	1	861	3	3	2039	52	413644	-53	0												3				51												
WM080112	188347_fnca	1	1	1	1545944800	1	75.031	75.032	2.0.10.147	2.0.10.242	2.0.10.242	1.0.0.439	7	234	2	3	Verdana	1	80	0	0	0	WM Stimuli\	0.4	1358.25	0.9	858	0.6	1065.83333333333	1	645.7	0.6	894.5	1	696.6	0.8	1127.125	1	679	13	546576	2	546564	27	40	546603	-999999	546579	0	13	TrialsPROC	PL_001_92012.png	1	2	52	SessionSelectionList														target	2	Place	0-Back	45	80	41	0	0	96	1	39	416203	1	14	72	414164	-1	414901	1	737	2	2	2039	53	416217	-54	0												4				52												
WM080112	188347_fnca	1	1	1	1545944800	1	75.031	75.032	2.0.10.147	2.0.10.242	2.0.10.242	1.0.0.439	7	234	2	3	Verdana	1	80	0	0	0	WM Stimuli\	0.4	1358.25	0.9	858	0.6	1065.83333333333	1	645.7	0.6	894.5	1	696.6	0.8	1127.125	1	679	13	546576	2	546564	27	40	546603	-999999	546579	0	13	TrialsPROC	PL_004_92023.png	1	2	53	SessionSelectionList														nonlure	3	Place	0-Back	46	80	42	0	0	96	1	39	418775	2	14	72	416736	-1	417210	1	474	3	3	2039	53	418789	-54	0												5				53												
WM080112	188347_fnca	1	1	1	1545944800	1	75.031	75.032	2.0.10.147	2.0.10.242	2.0.10.242	1.0.0.439	7	234	2	3	Verdana	1	80	0	0	0	WM Stimuli\	0.4	1358.25	0.9	858	0.6	1065.83333333333	1	645.7	0.6	894.5	1	696.6	0.8	1127.125	1	679	13	546576	2	546564	27	40	546603	-999999	546579	0	13	TrialsPROC	PL_005_92024.png	1	2	54	SessionSelectionList														nonlure	3	Place	0-Back	47	80	43	0	0	96	2	40	421348	1	13	72	419308	-1	419877	1	569	3	3	2040	53	421361	-54	0												6				54												
WM080112	188347_fnca	1	1	1	1545944800	1	75.031	75.032	2.0.10.147	2.0.10.242	2.0.10.242	1.0.0.439	7	234	2	3	Verdana	1	80	0	0	0	WM Stimuli\	0.4	1358.25	0.9	858	0.6	1065.83333333333	1	645.7	0.6	894.5	1	696.6	0.8	1127.125	1	679	13	546576	2	546564	27	40	546603	-999999	546579	0	13	TrialsPROC	PL_001_92012.png	1	2	55	SessionSelectionList														target	2	Place	0-Back	48	80	44	0	0	96	1	40	423907	1	13	59	421867	-1	422441	1	574	2	2	2040	53	423920	-54	0												7				55												
WM080112	188347_fnca	1	1	1	1545944800	1	75.031	75.032	2.0.10.147	2.0.10.242	2.0.10.242	1.0.0.439	7	234	2	3	Verdana	1	80	0	0	0	WM Stimuli\	0.4	1358.25	0.9	858	0.6	1065.83333333333	1	645.7	0.6	894.5	1	696.6	0.8	1127.125	1	679	13	546576	2	546564	27	40	546603	-999999	546579	0	13	TrialsPROC	PL_002_92014.png	1	2	56	SessionSelectionList														nonlure	3	Place	0-Back	49	80	45	0	0	96	1	39	426479	1	14	73	424440	-1	424958	1	518	3	3	2039	53	426493	-54	0												8				56												
WM080112	188347_fnca	1	1	1	1545944800	1	75.031	75.032	2.0.10.147	2.0.10.242	2.0.10.242	1.0.0.439	7	234	2	3	Verdana	1	80	0	0	0	WM Stimuli\	0.4	1358.25	0.9	858	0.6	1065.83333333333	1	645.7	0.6	894.5	1	696.6	0.8	1127.125	1	679	13	546576	2	546564	27	40	546603	-999999	546579	0	13	TrialsPROC	PL_004_92023.png	1	2	57	SessionSelectionList														lure	3	Place	0-Back	50	80	46	0	0	97	2	39	429051	2	14	72	427012	-1	427547	1	535	3	3	2039	53	429065	-54	0												9				57												
WM080112	188347_fnca	1	1	1	1545944800	1	75.031	75.032	2.0.10.147	2.0.10.242	2.0.10.242	1.0.0.439	7	234	2	3	Verdana	1	80	0	0	0	WM Stimuli\	0.4	1358.25	0.9	858	0.6	1065.83333333333	1	645.7	0.6	894.5	1	696.6	0.8	1127.125	1	679	13	546576	2	546564	27	40	546603	-999999	546579	0	13	TrialsPROC	PL_006_92025.png	1	2	58	SessionSelectionList														lure	3	Place	0-Back	51	80	47	0	0	97	3	39	431623	2	14	72	429584	-1	430319	1	735	3	3	2039	53	431637	-54	0												10				58												
WM080112	188347_fnca	1	1	1	1545944800	1	75.031	75.032	2.0.10.147	2.0.10.242	2.0.10.242	1.0.0.439	7	234	2	3	Verdana	1	80	0	0	0	WM Stimuli\	0.4	1358.25	0.9	858	0.6	1065.83333333333	1	645.7	0.6	894.5	1	696.6	0.8	1127.125	1	679	13	546576	2	546564	27	40	546603	-999999	546579	0	14	Cue2BackPROC	""	1	2	59	SessionSelectionList									6	432090	-7	0																																													59												
WM080112	188347_fnca	1	1	1	1545944800	1	75.031	75.032	2.0.10.147	2.0.10.242	2.0.10.242	1.0.0.439	7	234	2	3	Verdana	1	80	0	0	0	WM Stimuli\	0.4	1358.25	0.9	858	0.6	1065.83333333333	1	645.7	0.6	894.5	1	696.6	0.8	1127.125	1	679	13	546576	2	546564	27	40	546603	-999999	546579	0	15	TrialsPROC	FC_010_F5.png	1	2	60	SessionSelectionList														nonlure	3	Face	2-Back	52	80	48	0	0	97	1	39	436688	1	14	65	434649	-1	436646	0	1997	2	3	2039	53	436702	-54	0													1			60												
WM080112	188347_fnca	1	1	1	1545944800	1	75.031	75.032	2.0.10.147	2.0.10.242	2.0.10.242	1.0.0.439	7	234	2	3	Verdana	1	80	0	0	0	WM Stimuli\	0.4	1358.25	0.9	858	0.6	1065.83333333333	1	645.7	0.6	894.5	1	696.6	0.8	1127.125	1	679	13	546576	2	546564	27	40	546603	-999999	546579	0	15	TrialsPROC	FC_012_F6.png	1	2	61	SessionSelectionList														nonlure	3	Face	2-Back	53	80	49	0	0	97	1	39	439260	2	14	72	437221	-1	438269	1	1048	3	3	2039	53	439274	-54	0													2			61												
WM080112	188347_fnca	1	1	1	1545944800	1	75.031	75.032	2.0.10.147	2.0.10.242	2.0.10.242	1.0.0.439	7	234	2	3	Verdana	1	80	0	0	0	WM Stimuli\	0.4	1358.25	0.9	858	0.6	1065.83333333333	1	645.7	0.6	894.5	1	696.6	0.8	1127.125	1	679	13	546576	2	546564	27	40	546603	-999999	546579	0	15	TrialsPROC	FC_010_F5.png	1	2	62	SessionSelectionList														target	2	Face	2-Back	54	80	50	0	0	97	1	40	441833	1	13	72	439793	-1	440917	1	1124	2	2	2040	53	441846	-54	0													3			62												
WM080112	188347_fnca	1	1	1	1545944800	1	75.031	75.032	2.0.10.147	2.0.10.242	2.0.10.242	1.0.0.439	7	234	2	3	Verdana	1	80	0	0	0	WM Stimuli\	0.4	1358.25	0.9	858	0.6	1065.83333333333	1	645.7	0.6	894.5	1	696.6	0.8	1127.125	1	679	13	546576	2	546564	27	40	546603	-999999	546579	0	15	TrialsPROC	FC_008_F4.png	1	2	63	SessionSelectionList														nonlure	3	Face	2-Back	55	80	51	0	0	97	1	39	444405	1	13	73	442366	-1	443459	1	1093	3	3	2039	52	444418	-53	0													4			63												
WM080112	188347_fnca	1	1	1	1545944800	1	75.031	75.032	2.0.10.147	2.0.10.242	2.0.10.242	1.0.0.439	7	234	2	3	Verdana	1	80	0	0	0	WM Stimuli\	0.4	1358.25	0.9	858	0.6	1065.83333333333	1	645.7	0.6	894.5	1	696.6	0.8	1127.125	1	679	13	546576	2	546564	27	40	546603	-999999	546579	0	15	TrialsPROC	FC_012_F6.png	1	2	64	SessionSelectionList														lure	3	Face	2-Back	56	80	52	0	0	97	1	39	446977	1	14	72	444938	-1	446163	0	1225	2	3	2039	53	446991	-54	0													5			64												
WM080112	188347_fnca	1	1	1	1545944800	1	75.031	75.032	2.0.10.147	2.0.10.242	2.0.10.242	1.0.0.439	7	234	2	3	Verdana	1	80	0	0	0	WM Stimuli\	0.4	1358.25	0.9	858	0.6	1065.83333333333	1	645.7	0.6	894.5	1	696.6	0.8	1127.125	1	679	13	546576	2	546564	27	40	546603	-999999	546579	0	15	TrialsPROC	FC_008_F4.png	1	2	65	SessionSelectionList														target	2	Face	2-Back	57	80	53	0	0	97	1	39	449549	2	14	72	447510	-1	448185	0	675	3	2	2039	53	449563	-54	0													6			65												
WM080112	188347_fnca	1	1	1	1545944800	1	75.031	75.032	2.0.10.147	2.0.10.242	2.0.10.242	1.0.0.439	7	234	2	3	Verdana	1	80	0	0	0	WM Stimuli\	0.4	1358.25	0.9	858	0.6	1065.83333333333	1	645.7	0.6	894.5	1	696.6	0.8	1127.125	1	679	13	546576	2	546564	27	40	546603	-999999	546579	0	15	TrialsPROC	FC_007_M4.png	1	2	66	SessionSelectionList														nonlure	3	Face	2-Back	58	80	54	0	0	97	2	40	452122	1	13	72	450082	-1	450758	1	676	3	3	2040	53	452135	-54	0													7			66												
WM080112	188347_fnca	1	1	1	1545944800	1	75.031	75.032	2.0.10.147	2.0.10.242	2.0.10.242	1.0.0.439	7	234	2	3	Verdana	1	80	0	0	0	WM Stimuli\	0.4	1358.25	0.9	858	0.6	1065.83333333333	1	645.7	0.6	894.5	1	696.6	0.8	1127.125	1	679	13	546576	2	546564	27	40	546603	-999999	546579	0	15	TrialsPROC	FC_007_M4.png	1	2	67	SessionSelectionList														lure	3	Face	2-Back	59	80	55	0	0	97	3	39	454694	1	14	73	452655	-1	453875	1	1220	3	3	2039	53	454708	-54	0													8			67												
WM080112	188347_fnca	1	1	1	1545944800	1	75.031	75.032	2.0.10.147	2.0.10.242	2.0.10.242	1.0.0.439	7	234	2	3	Verdana	1	80	0	0	0	WM Stimuli\	0.4	1358.25	0.9	858	0.6	1065.83333333333	1	645.7	0.6	894.5	1	696.6	0.8	1127.125	1	679	13	546576	2	546564	27	40	546603	-999999	546579	0	15	TrialsPROC	FC_009_M5.png	1	2	68	SessionSelectionList														nonlure	3	Face	2-Back	60	80	56	0	0	97	1	39	457266	2	14	72	455227	-1	456246	0	1019	2	3	2039	53	457280	-54	0													9			68												
WM080112	188347_fnca	1	1	1	1545944800	1	75.031	75.032	2.0.10.147	2.0.10.242	2.0.10.242	1.0.0.439	7	234	2	3	Verdana	1	80	0	0	0	WM Stimuli\	0.4	1358.25	0.9	858	0.6	1065.83333333333	1	645.7	0.6	894.5	1	696.6	0.8	1127.125	1	679	13	546576	2	546564	27	40	546603	-999999	546579	0	15	TrialsPROC	FC_011_M6.png	1	2	69	SessionSelectionList														nonlure	3	Face	2-Back	61	80	57	0	0	97	1	39	459838	2	14	72	457799	-1	459033	1	1234	3	3	2039	53	459852	-54	0													10			69												
WM080112	188347_fnca	1	1	1	1545944800	1	75.031	75.032	2.0.10.147	2.0.10.242	2.0.10.242	1.0.0.439	7	234	2	3	Verdana	1	80	0	0	0	WM Stimuli\	0.4	1358.25	0.9	858	0.6	1065.83333333333	1	645.7	0.6	894.5	1	696.6	0.8	1127.125	1	679	13	546576	2	546564	27	40	546603	-999999	546579	0	16	Fix15secPROC	""	1	2	70	SessionSelectionList																																															6	460305	-7	0							70												
WM080112	188347_fnca	1	1	1	1545944800	1	75.031	75.032	2.0.10.147	2.0.10.242	2.0.10.242	1.0.0.439	7	234	2	3	Verdana	1	80	0	0	0	WM Stimuli\	0.4	1358.25	0.9	858	0.6	1065.83333333333	1	645.7	0.6	894.5	1	696.6	0.8	1127.125	1	679	13	546576	2	546564	27	40	546603	-999999	546579	0	17	Cue0BackPROC	TO_007_TOOL7_BA.png	1	2	71	SessionSelectionList																																										13	475312	-14	0												71												
WM080112	188347_fnca	1	1	1	1545944800	1	75.031	75.032	2.0.10.147	2.0.10.242	2.0.10.242	1.0.0.439	7	234	2	3	Verdana	1	80	0	0	0	WM Stimuli\	0.4	1358.25	0.9	858	0.6	1065.83333333333	1	645.7	0.6	894.5	1	696.6	0.8	1127.125	1	679	13	546576	2	546564	27	40	546603	-999999	546579	0	18	TrialsPROC	TO_010_TOOL10_BA.png	1	2	72	SessionSelectionList														nonlure	3	Tools	0-Back	62	80	58	0	0	97	2	39	479897	1	13	59	477858	-1	479006	1	1148	3	3	2039	52	479910	-53	0														1		72												
WM080112	188347_fnca	1	1	1	1545944800	1	75.031	75.032	2.0.10.147	2.0.10.242	2.0.10.242	1.0.0.439	7	234	2	3	Verdana	1	80	0	0	0	WM Stimuli\	0.4	1358.25	0.9	858	0.6	1065.83333333333	1	645.7	0.6	894.5	1	696.6	0.8	1127.125	1	679	13	546576	2	546564	27	40	546603	-999999	546579	0	18	TrialsPROC	TO_009_TOOL9_BA.png	1	2	73	SessionSelectionList														nonlure	3	Tools	0-Back	63	80	59	0	0	97	3	39	482456	1	13	59	480417	-1	481056	1	639	3	3	2039	52	482469	-53	0														2		73												
WM080112	188347_fnca	1	1	1	1545944800	1	75.031	75.032	2.0.10.147	2.0.10.242	2.0.10.242	1.0.0.439	7	234	2	3	Verdana	1	80	0	0	0	WM Stimuli\	0.4	1358.25	0.9	858	0.6	1065.83333333333	1	645.7	0.6	894.5	1	696.6	0.8	1127.125	1	679	13	546576	2	546564	27	40	546603	-999999	546579	0	18	TrialsPROC	TO_009_TOOL9_BA.png	1	2	74	SessionSelectionList														lure	3	Tools	0-Back	64	80	60	0	0	97	4	39	485015	1	13	59	482976	-1	483603	1	627	3	3	2039	52	485028	-53	0														3		74												
WM080112	188347_fnca	1	1	1	1545944800	1	75.031	75.032	2.0.10.147	2.0.10.242	2.0.10.242	1.0.0.439	7	234	2	3	Verdana	1	80	0	0	0	WM Stimuli\	0.4	1358.25	0.9	858	0.6	1065.83333333333	1	645.7	0.6	894.5	1	696.6	0.8	1127.125	1	679	13	546576	2	546564	27	40	546603	-999999	546579	0	18	TrialsPROC	TO_008_TOOL8_BA.png	1	2	75	SessionSelectionList														nonlure	3	Tools	0-Back	65	80	61	0	0	97	5	39	487574	1	13	59	485535	-1	486391	1	856	3	3	2039	52	487587	-53	0														4		75												
WM080112	188347_fnca	1	1	1	1545944800	1	75.031	75.032	2.0.10.147	2.0.10.242	2.0.10.242	1.0.0.439	7	234	2	3	Verdana	1	80	0	0	0	WM Stimuli\	0.4	1358.25	0.9	858	0.6	1065.83333333333	1	645.7	0.6	894.5	1	696.6	0.8	1127.125	1	679	13	546576	2	546564	27	40	546603	-999999	546579	0	18	TrialsPROC	TO_011_TOOL11_BA.png	1	2	76	SessionSelectionList														nonlure	3	Tools	0-Back	66	80	62	0	0	97	6	40	490133	2	13	58	488093	-1	488662	1	569	3	3	2040	53	490146	-54	0														5		76												
WM080112	188347_fnca	1	1	1	1545944800	1	75.031	75.032	2.0.10.147	2.0.10.242	2.0.10.242	1.0.0.439	7	234	2	3	Verdana	1	80	0	0	0	WM Stimuli\	0.4	1358.25	0.9	858	0.6	1065.83333333333	1	645.7	0.6	894.5	1	696.6	0.8	1127.125	1	679	13	546576	2	546564	27	40	546603	-999999	546579	0	18	TrialsPROC	TO_012_TOOL12_BA.png	1	2	77	SessionSelectionList														nonlure	3	Tools	0-Back	67	80	63	0	0	97	7	40	492692	1	13	59	490652	-1	491172	1	520	3	3	2040	53	492705	-54	0														6		77												
WM080112	188347_fnca	1	1	1	1545944800	1	75.031	75.032	2.0.10.147	2.0.10.242	2.0.10.242	1.0.0.439	7	234	2	3	Verdana	1	80	0	0	0	WM Stimuli\	0.4	1358.25	0.9	858	0.6	1065.83333333333	1	645.7	0.6	894.5	1	696.6	0.8	1127.125	1	679	13	546576	2	546564	27	40	546603	-999999	546579	0	18	TrialsPROC	TO_010_TOOL10_BA.png	1	2	78	SessionSelectionList														lure	3	Tools	0-Back	68	80	64	0	0	97	8	40	495251	1	13	59	493211	-1	493920	1	709	3	3	2040	53	495264	-54	0														7		78												
WM080112	188347_fnca	1	1	1	1545944800	1	75.031	75.032	2.0.10.147	2.0.10.242	2.0.10.242	1.0.0.439	7	234	2	3	Verdana	1	80	0	0	0	WM Stimuli\	0.4	1358.25	0.9	858	0.6	1065.83333333333	1	645.7	0.6	894.5	1	696.6	0.8	1127.125	1	679	13	546576	2	546564	27	40	546603	-999999	546579	0	18	TrialsPROC	TO_007_TOOL7_BA.png	1	2	79	SessionSelectionList														target	2	Tools	0-Back	69	80	65	0	0	97	1	39	497809	2	14	59	495770	-1	496450	1	680	2	2	2039	53	497823	-54	0														8		79												
WM080112	188347_fnca	1	1	1	1545944800	1	75.031	75.032	2.0.10.147	2.0.10.242	2.0.10.242	1.0.0.439	7	234	2	3	Verdana	1	80	0	0	0	WM Stimuli\	0.4	1358.25	0.9	858	0.6	1065.83333333333	1	645.7	0.6	894.5	1	696.6	0.8	1127.125	1	679	13	546576	2	546564	27	40	546603	-999999	546579	0	18	TrialsPROC	TO_008_TOOL8_BA.png	1	2	80	SessionSelectionList														lure	3	Tools	0-Back	70	80	66	0	0	97	1	39	500368	2	14	59	498329	-1	498828	1	499	3	3	2039	53	500382	-54	0														9		80												
WM080112	188347_fnca	1	1	1	1545944800	1	75.031	75.032	2.0.10.147	2.0.10.242	2.0.10.242	1.0.0.439	7	234	2	3	Verdana	1	80	0	0	0	WM Stimuli\	0.4	1358.25	0.9	858	0.6	1065.83333333333	1	645.7	0.6	894.5	1	696.6	0.8	1127.125	1	679	13	546576	2	546564	27	40	546603	-999999	546579	0	18	TrialsPROC	TO_007_TOOL7_BA.png	1	2	81	SessionSelectionList														target	2	Tools	0-Back	71	80	67	0	0	98	1	39	502927	2	14	59	500888	-1	501431	1	543	2	2	2039	53	502941	-54	0														10		81												
WM080112	188347_fnca	1	1	1	1545944800	1	75.031	75.032	2.0.10.147	2.0.10.242	2.0.10.242	1.0.0.439	7	234	2	3	Verdana	1	80	0	0	0	WM Stimuli\	0.4	1358.25	0.9	858	0.6	1065.83333333333	1	645.7	0.6	894.5	1	696.6	0.8	1127.125	1	679	13	546576	2	546564	27	40	546603	-999999	546579	0	19	Cue2BackPROC	""	1	2	82	SessionSelectionList									6	503394	-7	0																																													82												
WM080112	188347_fnca	1	1	1	1545944800	1	75.031	75.032	2.0.10.147	2.0.10.242	2.0.10.242	1.0.0.439	7	234	2	3	Verdana	1	80	0	0	0	WM Stimuli\	0.4	1358.25	0.9	858	0.6	1065.83333333333	1	645.7	0.6	894.5	1	696.6	0.8	1127.125	1	679	13	546576	2	546564	27	40	546603	-999999	546579	0	20	TrialsPROC	PL_007_92026.png	1	2	83	SessionSelectionList														nonlure	3	Place	2-Back	72	80	67	0	1	98	1	39	507992	1	14	65	505953	-1	0	0	0	""	3	2039	53	508006	-54	0															1	83												
WM080112	188347_fnca	1	1	1	1545944800	1	75.031	75.032	2.0.10.147	2.0.10.242	2.0.10.242	1.0.0.439	7	234	2	3	Verdana	1	80	0	0	0	WM Stimuli\	0.4	1358.25	0.9	858	0.6	1065.83333333333	1	645.7	0.6	894.5	1	696.6	0.8	1127.125	1	679	13	546576	2	546564	27	40	546603	-999999	546579	0	20	TrialsPROC	PL_007_92026.png	1	2	84	SessionSelectionList														lure	3	Place	2-Back	73	80	68	0	0	98	1	39	510551	1	14	59	508512	-1	509543	0	1031	2	3	2039	53	510565	-54	0															2	84												
WM080112	188347_fnca	1	1	1	1545944800	1	75.031	75.032	2.0.10.147	2.0.10.242	2.0.10.242	1.0.0.439	7	234	2	3	Verdana	1	80	0	0	0	WM Stimuli\	0.4	1358.25	0.9	858	0.6	1065.83333333333	1	645.7	0.6	894.5	1	696.6	0.8	1127.125	1	679	13	546576	2	546564	27	40	546603	-999999	546579	0	20	TrialsPROC	PL_010_92038.png	1	2	85	SessionSelectionList														nonlure	3	Place	2-Back	74	80	69	0	0	98	1	39	513123	2	14	72	511084	-1	511774	1	690	3	3	2039	53	513137	-54	0															3	85												
WM080112	188347_fnca	1	1	1	1545944800	1	75.031	75.032	2.0.10.147	2.0.10.242	2.0.10.242	1.0.0.439	7	234	2	3	Verdana	1	80	0	0	0	WM Stimuli\	0.4	1358.25	0.9	858	0.6	1065.83333333333	1	645.7	0.6	894.5	1	696.6	0.8	1127.125	1	679	13	546576	2	546564	27	40	546603	-999999	546579	0	20	TrialsPROC	PL_009_92037.png	1	2	86	SessionSelectionList														nonlure	3	Place	2-Back	75	80	70	0	0	98	2	39	515682	2	14	59	513643	-1	514525	1	882	3	3	2039	53	515696	-54	0															4	86												
WM080112	188347_fnca	1	1	1	1545944800	1	75.031	75.032	2.0.10.147	2.0.10.242	2.0.10.242	1.0.0.439	7	234	2	3	Verdana	1	80	0	0	0	WM Stimuli\	0.4	1358.25	0.9	858	0.6	1065.83333333333	1	645.7	0.6	894.5	1	696.6	0.8	1127.125	1	679	13	546576	2	546564	27	40	546603	-999999	546579	0	20	TrialsPROC	PL_010_92038.png	1	2	87	SessionSelectionList														target	2	Place	2-Back	76	80	71	0	0	98	1	39	518254	2	14	72	516215	-1	517216	1	1001	2	2	2039	53	518268	-54	0															5	87												
WM080112	188347_fnca	1	1	1	1545944800	1	75.031	75.032	2.0.10.147	2.0.10.242	2.0.10.242	1.0.0.439	7	234	2	3	Verdana	1	80	0	0	0	WM Stimuli\	0.4	1358.25	0.9	858	0.6	1065.83333333333	1	645.7	0.6	894.5	1	696.6	0.8	1127.125	1	679	13	546576	2	546564	27	40	546603	-999999	546579	0	20	TrialsPROC	PL_009_92037.png	1	2	88	SessionSelectionList														target	2	Place	2-Back	77	80	72	0	0	98	1	38	520813	2	14	60	518775	-1	519636	0	861	3	2	2038	52	520827	-53	0															6	88												
WM080112	188347_fnca	1	1	1	1545944800	1	75.031	75.032	2.0.10.147	2.0.10.242	2.0.10.242	1.0.0.439	7	234	2	3	Verdana	1	80	0	0	0	WM Stimuli\	0.4	1358.25	0.9	858	0.6	1065.83333333333	1	645.7	0.6	894.5	1	696.6	0.8	1127.125	1	679	13	546576	2	546564	27	40	546603	-999999	546579	0	20	TrialsPROC	PL_008_92033.png	1	2	89	SessionSelectionList														nonlure	3	Place	2-Back	78	80	73	0	0	98	2	40	523386	1	13	71	521346	-1	522062	1	716	3	3	2040	53	523399	-54	0															7	89												
WM080112	188347_fnca	1	1	1	1545944800	1	75.031	75.032	2.0.10.147	2.0.10.242	2.0.10.242	1.0.0.439	7	234	2	3	Verdana	1	80	0	0	0	WM Stimuli\	0.4	1358.25	0.9	858	0.6	1065.83333333333	1	645.7	0.6	894.5	1	696.6	0.8	1127.125	1	679	13	546576	2	546564	27	40	546603	-999999	546579	0	20	TrialsPROC	PL_012_92047.png	1	2	90	SessionSelectionList														nonlure	3	Place	2-Back	79	80	74	0	0	98	1	39	525958	2	14	73	523919	-1	524717	0	798	2	3	2039	53	525972	-54	0															8	90												
WM080112	188347_fnca	1	1	1	1545944800	1	75.031	75.032	2.0.10.147	2.0.10.242	2.0.10.242	1.0.0.439	7	234	2	3	Verdana	1	80	0	0	0	WM Stimuli\	0.4	1358.25	0.9	858	0.6	1065.83333333333	1	645.7	0.6	894.5	1	696.6	0.8	1127.125	1	679	13	546576	2	546564	27	40	546603	-999999	546579	0	20	TrialsPROC	PL_012_92047.png	1	2	91	SessionSelectionList														lure	3	Place	2-Back	80	80	75	0	0	98	1	39	528530	2	14	72	526491	-1	527709	1	1218	3	3	2039	53	528544	-54	0															9	91												
WM080112	188347_fnca	1	1	1	1545944800	1	75.031	75.032	2.0.10.147	2.0.10.242	2.0.10.242	1.0.0.439	7	234	2	3	Verdana	1	80	0	0	0	WM Stimuli\	0.4	1358.25	0.9	858	0.6	1065.83333333333	1	645.7	0.6	894.5	1	696.6	0.8	1127.125	1	679	13	546576	2	546564	27	40	546603	-999999	546579	0	20	TrialsPROC	PL_011_92044.png	1	2	92	SessionSelectionList														nonlure	3	Place	2-Back	80	80	76	0	0	98	2	39	531102	2	14	72	529063	-1	529923	1	860	3	3	2039	53	531116	-54	0															10	92												
WM080112	188347_fnca	1	1	1	1545944800	1	75.031	75.032	2.0.10.147	2.0.10.242	2.0.10.242	1.0.0.439	7	234	2	3	Verdana	1	80	0	0	0	WM Stimuli\	0.4	1358.25	0.9	858	0.6	1065.83333333333	1	645.7	0.6	894.5	1	696.6	0.8	1127.125	1	679	13	546576	2	546564	27	40	546603	-999999	546579	0	21	Fix15secPROC	""	1	2	93	SessionSelectionList																																															6	531569	-7	0							93												
