ExperimentName	HCPID	RunNumber	Subject	Session	RandomSeed	Group	Laptop.RefreshRate	ScannerD2.RefreshRate	StudioVersion	RuntimeVersion	RuntimeVersionExpected	ExperimentVersion	triggercode	Allowed	Target	Nontarget	FontStyle	RunTrialNumber[Session]	TrialsPerRun[Session]	TotalRespGreater200[Session]	ConsecRTLess200[Session]	ConsecNonResp[Session]	StimuliDir	ACC_2_Back_Body	Avg_RT_For_Correct_Trials_2_Back_Body	ACC_0_Back_Body	Avg_RT_For_Correct_Trials_0_Back_Body	ACC_2_Back_Face	Avg_RT_For_Correct_Trials_2_Back_Face	ACC_0_Back_Face	Avg_RT_For_Correct_Trials_0_Back_Face	ACC_2_Back_Place	Avg_RT_For_Correct_Trials_2_Back_Place	ACC_0_Back_Place	Avg_RT_For_Correct_Trials_0_Back_Place	ACC_2_Back_Tools	Avg_RT_For_Correct_Trials_2_Back_Tools	ACC_0_Back_Tools	Avg_RT_For_Correct_Trials_0_Back_Tools	ExpInstrucFeelFreeToRest.OnsetDelay	ExpInstrucFeelFreeToRest.OnsetTime	ExpInstrucFeelFreeToRest.DurationError	ExpInstrucFeelFreeToRest.StartTime	ExpInstrucFeelFreeToRest.OnsetToOnsetTime	FeelFreeToRest.OnsetDelay	FeelFreeToRest.OnsetTime	FeelFreeToRest.DurationError	FeelFreeToRest.StartTime	FeelFreeToRest.OnsetToOnsetTime	SessionSelectionList	Procedure[Block]	Stimulus[Block]	RunNumberFilterValue	SessionSelectionList.Cycle	SessionSelectionList.Sample	Running[Block]	IntroButtonMap.OnsetDelay	IntroButtonMap.OnsetTime	IntroButtonMap.DurationError	IntroButtonMap.OnsetToOnsetTime	GetReady.OnsetDelay	GetReady.OnsetTime	GetReady.DurationError	GetReady.OnsetToOnsetTime	Cue2Back.OnsetDelay	Cue2Back.OnsetTime	Cue2Back.DurationError	Cue2Back.OnsetToOnsetTime	Run1Block1	TargetType	CorrectResponse	StimType	BlockType	RunTrialNumber[Block]	TrialsPerRun[Block]	TotalRespGreater200[Block]	ConsecRTLess200[Block]	ConsecNonResp[Block]	ControlAcc	ConsecSameResp	ExperimenterWindow.OnsetDelay	ExperimenterWindow.OnsetTime	ExperimenterWindow.DurationError	ExperimenterWindow.OnsetToOnsetTime	Stim.OnsetDelay	Stim.OnsetTime	Stim.DurationError	Stim.RTTime	Stim.ACC	Stim.RT	Stim.RESP	Stim.CRESP	Stim.OnsetToOnsetTime	Fix.OnsetDelay	Fix.OnsetTime	Fix.DurationError	Fix.OnsetToOnsetTime	CueTarget.OnsetDelay	CueTarget.OnsetTime	CueTarget.DurationError	CueTarget.OnsetToOnsetTime	Run1Block2	Fix15sec.OnsetDelay	Fix15sec.OnsetTime	Fix15sec.DurationError	Fix15sec.OnsetToOnsetTime	Run1Block3	Run1Block4	Run1Block5	Run1Block6	Run1Block7	Run1Block8	Block	Procedure[Trial]	Stimulus[Trial]	ReadyList	Running[Trial]	ReadyList.Cycle	ReadyList.Sample	SyncSlide.OnsetDelay	SyncSlide.OnsetTime	SyncSlide.DurationError	SyncSlide.FinishTime	SyncSlide.OnsetToOnsetTime	Trial
WM080112	103818_fnca	2	1	1	-646655204	1	75.030	75.031	2.0.10.147	2.0.10.242	2.0.10.242	1.0.0.439	7	234	2	3	Verdana	1	80	0	0	0	WM Stimuli\	0.9	1175	0.9	756.111111111111	1	1296.6	1	856	1	1447.4	1	870	0.5	1114.8	0.7	1228.57142857143	13	319468	2	319456	27	40	319495	-999999	319471	0	22	TRSyncPROC	""	2	2	1	SessionSelectionList	100	11553	-999999	0	38	12540	-999999	0																																																	1	InitialTR	4	1	ReadyList	1	1	14	26201	-15	28186	0	1
WM080112	103818_fnca	2	1	1	-646655204	1	75.030	75.031	2.0.10.147	2.0.10.242	2.0.10.242	1.0.0.439	7	234	2	3	Verdana	1	80	0	0	0	WM Stimuli\	0.9	1175	0.9	756.111111111111	1	1296.6	1	856	1	1447.4	1	870	0.5	1114.8	0.7	1228.57142857143	13	319468	2	319456	27	40	319495	-999999	319471	0	22	TRSyncPROC	""	2	2	1	SessionSelectionList	100	11553	-999999	0	38	12540	-999999	0																																																	1	InitialTR	3	2	ReadyList	1	2	13	28200	-14	30186	0	2
WM080112	103818_fnca	2	1	1	-646655204	1	75.030	75.031	2.0.10.147	2.0.10.242	2.0.10.242	1.0.0.439	7	234	2	3	Verdana	1	80	0	0	0	WM Stimuli\	0.9	1175	0.9	756.111111111111	1	1296.6	1	856	1	1447.4	1	870	0.5	1114.8	0.7	1228.57142857143	13	319468	2	319456	27	40	319495	-999999	319471	0	22	TRSyncPROC	""	2	2	1	SessionSelectionList	100	11553	-999999	0	38	12540	-999999	0																																																	1	InitialTR	2	3	ReadyList	1	3	12	30199	-13	32186	0	3
WM080112	103818_fnca	2	1	1	-646655204	1	75.030	75.031	2.0.10.147	2.0.10.242	2.0.10.242	1.0.0.439	7	234	2	3	Verdana	1	80	0	0	0	WM Stimuli\	0.9	1175	0.9	756.111111111111	1	1296.6	1	856	1	1447.4	1	870	0.5	1114.8	0.7	1228.57142857143	13	319468	2	319456	27	40	319495	-999999	319471	0	22	TRSyncPROC	""	2	2	1	SessionSelectionList	100	11553	-999999	0	38	12540	-999999	0																																																	1	InitialTR	1	4	ReadyList	1	4	11	32198	-12	34186	0	4
WM080112	103818_fnca	2	1	1	-646655204	1	75.030	75.031	2.0.10.147	2.0.10.242	2.0.10.242	1.0.0.439	7	234	2	3	Verdana	1	80	0	0	0	WM Stimuli\	0.9	1175	0.9	756.111111111111	1	1296.6	1	856	1	1447.4	1	870	0.5	1114.8	0.7	1228.57142857143	13	319468	2	319456	27	40	319495	-999999	319471	0	23	Cue2BackPROC	""	2	2	2	SessionSelectionList									10	34197	-11	0																																													2												
WM080112	103818_fnca	2	1	1	-646655204	1	75.030	75.031	2.0.10.147	2.0.10.242	2.0.10.242	1.0.0.439	7	234	2	3	Verdana	1	80	0	0	0	WM Stimuli\	0.9	1175	0.9	756.111111111111	1	1296.6	1	856	1	1447.4	1	870	0.5	1114.8	0.7	1228.57142857143	13	319468	2	319456	27	40	319495	-999999	319471	0	24	TrialsPROC	TO_014_TOOL14_BA.png	2	2	3	SessionSelectionList														nonlure	3	Tools	2-Back	2	80	1	0	0	0	1	52	38822	3	14	83	36770	-1	38312	1	1542	3	3	2052	66	38836	-67	0																3												
WM080112	103818_fnca	2	1	1	-646655204	1	75.030	75.031	2.0.10.147	2.0.10.242	2.0.10.242	1.0.0.439	7	234	2	3	Verdana	1	80	0	0	0	WM Stimuli\	0.9	1175	0.9	756.111111111111	1	1296.6	1	856	1	1447.4	1	870	0.5	1114.8	0.7	1228.57142857143	13	319468	2	319456	27	40	319495	-999999	319471	0	24	TrialsPROC	TO_013_TOOL13_BA.png	2	2	4	SessionSelectionList														nonlure	3	Tools	2-Back	3	80	2	0	0	0	2	39	41368	2	13	59	39329	-1	40170	1	841	3	3	2039	52	41381	-53	0																4												
WM080112	103818_fnca	2	1	1	-646655204	1	75.030	75.031	2.0.10.147	2.0.10.242	2.0.10.242	1.0.0.439	7	234	2	3	Verdana	1	80	0	0	0	WM Stimuli\	0.9	1175	0.9	756.111111111111	1	1296.6	1	856	1	1447.4	1	870	0.5	1114.8	0.7	1228.57142857143	13	319468	2	319456	27	40	319495	-999999	319471	0	24	TrialsPROC	TO_016_TOOL16_BA.png	2	2	5	SessionSelectionList														nonlure	3	Tools	2-Back	4	80	3	0	0	0	3	39	43927	1	13	59	41888	-1	43097	1	1209	3	3	2039	52	43940	-53	0																5												
WM080112	103818_fnca	2	1	1	-646655204	1	75.030	75.031	2.0.10.147	2.0.10.242	2.0.10.242	1.0.0.439	7	234	2	3	Verdana	1	80	0	0	0	WM Stimuli\	0.9	1175	0.9	756.111111111111	1	1296.6	1	856	1	1447.4	1	870	0.5	1114.8	0.7	1228.57142857143	13	319468	2	319456	27	40	319495	-999999	319471	0	24	TrialsPROC	TO_014_TOOL14_BA.png	2	2	6	SessionSelectionList														lure	3	Tools	2-Back	5	80	4	0	0	0	1	39	46499	1	14	72	44460	-1	45570	0	1110	2	3	2039	53	46513	-54	0																6												
WM080112	103818_fnca	2	1	1	-646655204	1	75.030	75.031	2.0.10.147	2.0.10.242	2.0.10.242	1.0.0.439	7	234	2	3	Verdana	1	80	0	0	0	WM Stimuli\	0.9	1175	0.9	756.111111111111	1	1296.6	1	856	1	1447.4	1	870	0.5	1114.8	0.7	1228.57142857143	13	319468	2	319456	27	40	319495	-999999	319471	0	24	TrialsPROC	TO_016_TOOL16_BA.png	2	2	7	SessionSelectionList														target	2	Tools	2-Back	6	80	5	0	0	0	1	39	49058	2	14	59	47019	-1	48474	0	1455	3	2	2039	53	49072	-54	0																7												
WM080112	103818_fnca	2	1	1	-646655204	1	75.030	75.031	2.0.10.147	2.0.10.242	2.0.10.242	1.0.0.439	7	234	2	3	Verdana	1	80	0	0	0	WM Stimuli\	0.9	1175	0.9	756.111111111111	1	1296.6	1	856	1	1447.4	1	870	0.5	1114.8	0.7	1228.57142857143	13	319468	2	319456	27	40	319495	-999999	319471	0	24	TrialsPROC	TO_018_TOOL18_BA.png	2	2	8	SessionSelectionList														nonlure	3	Tools	2-Back	7	80	6	0	0	0	1	39	51617	1	14	59	49578	-1	51411	0	1833	2	3	2039	53	51631	-54	0																8												
WM080112	103818_fnca	2	1	1	-646655204	1	75.030	75.031	2.0.10.147	2.0.10.242	2.0.10.242	1.0.0.439	7	234	2	3	Verdana	1	80	0	0	0	WM Stimuli\	0.9	1175	0.9	756.111111111111	1	1296.6	1	856	1	1447.4	1	870	0.5	1114.8	0.7	1228.57142857143	13	319468	2	319456	27	40	319495	-999999	319471	0	24	TrialsPROC	TO_017_TOOL17_BA.png	2	2	9	SessionSelectionList														nonlure	3	Tools	2-Back	8	80	7	0	0	0	1	39	54176	1	14	59	52137	-1	53142	1	1005	3	3	2039	53	54190	-54	0																9												
WM080112	103818_fnca	2	1	1	-646655204	1	75.030	75.031	2.0.10.147	2.0.10.242	2.0.10.242	1.0.0.439	7	234	2	3	Verdana	1	80	0	0	0	WM Stimuli\	0.9	1175	0.9	756.111111111111	1	1296.6	1	856	1	1447.4	1	870	0.5	1114.8	0.7	1228.57142857143	13	319468	2	319456	27	40	319495	-999999	319471	0	24	TrialsPROC	TO_018_TOOL18_BA.png	2	2	10	SessionSelectionList														target	2	Tools	2-Back	9	80	8	0	0	0	2	39	56735	1	14	59	54696	-1	56140	0	1444	3	2	2039	53	56749	-54	0																10												
WM080112	103818_fnca	2	1	1	-646655204	1	75.030	75.031	2.0.10.147	2.0.10.242	2.0.10.242	1.0.0.439	7	234	2	3	Verdana	1	80	0	0	0	WM Stimuli\	0.9	1175	0.9	756.111111111111	1	1296.6	1	856	1	1447.4	1	870	0.5	1114.8	0.7	1228.57142857143	13	319468	2	319456	27	40	319495	-999999	319471	0	24	TrialsPROC	TO_015_TOOL15_BA.png	2	2	11	SessionSelectionList														nonlure	3	Tools	2-Back	10	80	9	0	0	0	3	39	59294	1	13	59	57255	-1	58232	1	977	3	3	2039	52	59307	-53	0																11												
WM080112	103818_fnca	2	1	1	-646655204	1	75.030	75.031	2.0.10.147	2.0.10.242	2.0.10.242	1.0.0.439	7	234	2	3	Verdana	1	80	0	0	0	WM Stimuli\	0.9	1175	0.9	756.111111111111	1	1296.6	1	856	1	1447.4	1	870	0.5	1114.8	0.7	1228.57142857143	13	319468	2	319456	27	40	319495	-999999	319471	0	24	TrialsPROC	TO_017_TOOL17_BA.png	2	2	12	SessionSelectionList														lure	3	Tools	2-Back	11	80	10	0	0	0	1	39	61853	1	13	59	59814	-1	60775	0	961	2	3	2039	52	61866	-53	0																12												
WM080112	103818_fnca	2	1	1	-646655204	1	75.030	75.031	2.0.10.147	2.0.10.242	2.0.10.242	1.0.0.439	7	234	2	3	Verdana	1	80	0	0	0	WM Stimuli\	0.9	1175	0.9	756.111111111111	1	1296.6	1	856	1	1447.4	1	870	0.5	1114.8	0.7	1228.57142857143	13	319468	2	319456	27	40	319495	-999999	319471	0	25	Cue0BackPROC	BP_013_BP7_BA.png	2	2	13	SessionSelectionList																																										19	62333	-20	0												13												
WM080112	103818_fnca	2	1	1	-646655204	1	75.030	75.031	2.0.10.147	2.0.10.242	2.0.10.242	1.0.0.439	7	234	2	3	Verdana	1	80	0	0	0	WM Stimuli\	0.9	1175	0.9	756.111111111111	1	1296.6	1	856	1	1447.4	1	870	0.5	1114.8	0.7	1228.57142857143	13	319468	2	319456	27	40	319495	-999999	319471	0	26	TrialsPROC	BP_015_H10-T_BA.png	2	2	14	SessionSelectionList														nonlure	3	Body	0-Back	12	80	11	0	0	100	1	39	66904	2	14	51	64865	-1	65432	1	567	3	3	2039	53	66918	-54	0																14												
WM080112	103818_fnca	2	1	1	-646655204	1	75.030	75.031	2.0.10.147	2.0.10.242	2.0.10.242	1.0.0.439	7	234	2	3	Verdana	1	80	0	0	0	WM Stimuli\	0.9	1175	0.9	756.111111111111	1	1296.6	1	856	1	1447.4	1	870	0.5	1114.8	0.7	1228.57142857143	13	319468	2	319456	27	40	319495	-999999	319471	0	26	TrialsPROC	BP_018_H13-T_BA.png	2	2	15	SessionSelectionList														nonlure	3	Body	0-Back	13	80	12	0	0	100	2	39	69463	2	14	59	67424	-1	68032	1	608	3	3	2039	53	69477	-54	0																15												
WM080112	103818_fnca	2	1	1	-646655204	1	75.030	75.031	2.0.10.147	2.0.10.242	2.0.10.242	1.0.0.439	7	234	2	3	Verdana	1	80	0	0	0	WM Stimuli\	0.9	1175	0.9	756.111111111111	1	1296.6	1	856	1	1447.4	1	870	0.5	1114.8	0.7	1228.57142857143	13	319468	2	319456	27	40	319495	-999999	319471	0	26	TrialsPROC	BP_014_BP9_BA.png	2	2	16	SessionSelectionList														nonlure	3	Body	0-Back	14	80	13	0	0	100	3	39	72022	1	14	59	69983	-1	70848	1	865	3	3	2039	53	72036	-54	0																16												
WM080112	103818_fnca	2	1	1	-646655204	1	75.030	75.031	2.0.10.147	2.0.10.242	2.0.10.242	1.0.0.439	7	234	2	3	Verdana	1	80	0	0	0	WM Stimuli\	0.9	1175	0.9	756.111111111111	1	1296.6	1	856	1	1447.4	1	870	0.5	1114.8	0.7	1228.57142857143	13	319468	2	319456	27	40	319495	-999999	319471	0	26	TrialsPROC	BP_018_H13-T_BA.png	2	2	17	SessionSelectionList														lure	3	Body	0-Back	15	80	14	0	0	100	4	39	74581	1	14	59	72542	-1	73652	1	1110	3	3	2039	53	74595	-54	0																17												
WM080112	103818_fnca	2	1	1	-646655204	1	75.030	75.031	2.0.10.147	2.0.10.242	2.0.10.242	1.0.0.439	7	234	2	3	Verdana	1	80	0	0	0	WM Stimuli\	0.9	1175	0.9	756.111111111111	1	1296.6	1	856	1	1447.4	1	870	0.5	1114.8	0.7	1228.57142857143	13	319468	2	319456	27	40	319495	-999999	319471	0	26	TrialsPROC	BP_013_BP7_BA.png	2	2	18	SessionSelectionList														target	2	Body	0-Back	16	80	15	0	0	100	1	39	77140	1	14	59	75101	-1	75649	1	548	2	2	2039	53	77154	-54	0																18												
WM080112	103818_fnca	2	1	1	-646655204	1	75.030	75.031	2.0.10.147	2.0.10.242	2.0.10.242	1.0.0.439	7	234	2	3	Verdana	1	80	0	0	0	WM Stimuli\	0.9	1175	0.9	756.111111111111	1	1296.6	1	856	1	1447.4	1	870	0.5	1114.8	0.7	1228.57142857143	13	319468	2	319456	27	40	319495	-999999	319471	0	26	TrialsPROC	BP_015_H10-T_BA.png	2	2	19	SessionSelectionList														lure	3	Body	0-Back	17	80	16	0	0	100	1	39	79699	1	14	59	77660	-1	78467	1	807	3	3	2039	53	79713	-54	0																19												
WM080112	103818_fnca	2	1	1	-646655204	1	75.030	75.031	2.0.10.147	2.0.10.242	2.0.10.242	1.0.0.439	7	234	2	3	Verdana	1	80	0	0	0	WM Stimuli\	0.9	1175	0.9	756.111111111111	1	1296.6	1	856	1	1447.4	1	870	0.5	1114.8	0.7	1228.57142857143	13	319468	2	319456	27	40	319495	-999999	319471	0	26	TrialsPROC	BP_016_H11-T_BA.png	2	2	20	SessionSelectionList														nonlure	3	Body	0-Back	18	80	17	0	0	100	2	39	82258	1	13	59	80219	-1	80920	1	701	3	3	2039	52	82271	-53	0																20												
WM080112	103818_fnca	2	1	1	-646655204	1	75.030	75.031	2.0.10.147	2.0.10.242	2.0.10.242	1.0.0.439	7	234	2	3	Verdana	1	80	0	0	0	WM Stimuli\	0.9	1175	0.9	756.111111111111	1	1296.6	1	856	1	1447.4	1	870	0.5	1114.8	0.7	1228.57142857143	13	319468	2	319456	27	40	319495	-999999	319471	0	26	TrialsPROC	BP_013_BP7_BA.png	2	2	21	SessionSelectionList														target	2	Body	0-Back	19	80	18	0	0	100	1	39	84817	2	13	59	82778	-1	83488	1	710	2	2	2039	52	84830	-53	0																21												
WM080112	103818_fnca	2	1	1	-646655204	1	75.030	75.031	2.0.10.147	2.0.10.242	2.0.10.242	1.0.0.439	7	234	2	3	Verdana	1	80	0	0	0	WM Stimuli\	0.9	1175	0.9	756.111111111111	1	1296.6	1	856	1	1447.4	1	870	0.5	1114.8	0.7	1228.57142857143	13	319468	2	319456	27	40	319495	-999999	319471	0	26	TrialsPROC	BP_017_H12-T_BA.png	2	2	22	SessionSelectionList														nonlure	3	Body	0-Back	20	80	19	0	0	100	1	39	87376	1	13	59	85337	-1	86226	1	889	3	3	2039	52	87389	-53	0																22												
WM080112	103818_fnca	2	1	1	-646655204	1	75.030	75.031	2.0.10.147	2.0.10.242	2.0.10.242	1.0.0.439	7	234	2	3	Verdana	1	80	0	0	0	WM Stimuli\	0.9	1175	0.9	756.111111111111	1	1296.6	1	856	1	1447.4	1	870	0.5	1114.8	0.7	1228.57142857143	13	319468	2	319456	27	40	319495	-999999	319471	0	26	TrialsPROC	BP_014_BP9_BA.png	2	2	23	SessionSelectionList														lure	3	Body	0-Back	21	80	20	0	0	90	1	39	89935	1	13	59	87896	-1	88476	0	580	2	3	2039	52	89948	-53	0																23												
WM080112	103818_fnca	2	1	1	-646655204	1	75.030	75.031	2.0.10.147	2.0.10.242	2.0.10.242	1.0.0.439	7	234	2	3	Verdana	1	80	0	0	0	WM Stimuli\	0.9	1175	0.9	756.111111111111	1	1296.6	1	856	1	1447.4	1	870	0.5	1114.8	0.7	1228.57142857143	13	319468	2	319456	27	40	319495	-999999	319471	0	27	Fix15secPROC	""	2	2	24	SessionSelectionList																																															5	90401	-6	0							24												
WM080112	103818_fnca	2	1	1	-646655204	1	75.030	75.031	2.0.10.147	2.0.10.242	2.0.10.242	1.0.0.439	7	234	2	3	Verdana	1	80	0	0	0	WM Stimuli\	0.9	1175	0.9	756.111111111111	1	1296.6	1	856	1	1447.4	1	870	0.5	1114.8	0.7	1228.57142857143	13	319468	2	319456	27	40	319495	-999999	319471	0	28	Cue2BackPROC	""	2	2	25	SessionSelectionList									12	105408	-13	0																																													25												
WM080112	103818_fnca	2	1	1	-646655204	1	75.030	75.031	2.0.10.147	2.0.10.242	2.0.10.242	1.0.0.439	7	234	2	3	Verdana	1	80	0	0	0	WM Stimuli\	0.9	1175	0.9	756.111111111111	1	1296.6	1	856	1	1447.4	1	870	0.5	1114.8	0.7	1228.57142857143	13	319468	2	319456	27	40	319495	-999999	319471	0	29	TrialsPROC	FC_015_M8.png	2	2	26	SessionSelectionList														nonlure	3	Face	2-Back	22	80	21	0	0	90	1	40	110007	1	13	71	107967	-1	109893	1	1926	3	3	2040	53	110020	-54	0																26												
WM080112	103818_fnca	2	1	1	-646655204	1	75.030	75.031	2.0.10.147	2.0.10.242	2.0.10.242	1.0.0.439	7	234	2	3	Verdana	1	80	0	0	0	WM Stimuli\	0.9	1175	0.9	756.111111111111	1	1296.6	1	856	1	1447.4	1	870	0.5	1114.8	0.7	1228.57142857143	13	319468	2	319456	27	40	319495	-999999	319471	0	29	TrialsPROC	FC_018_F9.png	2	2	27	SessionSelectionList														nonlure	3	Face	2-Back	23	80	22	0	0	90	2	39	112579	1	13	73	110540	-1	111340	1	800	3	3	2039	52	112592	-53	0																27												
WM080112	103818_fnca	2	1	1	-646655204	1	75.030	75.031	2.0.10.147	2.0.10.242	2.0.10.242	1.0.0.439	7	234	2	3	Verdana	1	80	0	0	0	WM Stimuli\	0.9	1175	0.9	756.111111111111	1	1296.6	1	856	1	1447.4	1	870	0.5	1114.8	0.7	1228.57142857143	13	319468	2	319456	27	40	319495	-999999	319471	0	29	TrialsPROC	FC_018_F9.png	2	2	28	SessionSelectionList														lure	3	Face	2-Back	24	80	23	0	0	90	3	39	115151	2	14	72	113112	-1	114153	1	1041	3	3	2039	53	115165	-54	0																28												
WM080112	103818_fnca	2	1	1	-646655204	1	75.030	75.031	2.0.10.147	2.0.10.242	2.0.10.242	1.0.0.439	7	234	2	3	Verdana	1	80	0	0	0	WM Stimuli\	0.9	1175	0.9	756.111111111111	1	1296.6	1	856	1	1447.4	1	870	0.5	1114.8	0.7	1228.57142857143	13	319468	2	319456	27	40	319495	-999999	319471	0	29	TrialsPROC	FC_017_M9.png	2	2	29	SessionSelectionList														nonlure	3	Face	2-Back	25	80	24	0	0	90	4	39	117723	2	14	72	115684	-1	117108	1	1424	3	3	2039	53	117737	-54	0																29												
WM080112	103818_fnca	2	1	1	-646655204	1	75.030	75.031	2.0.10.147	2.0.10.242	2.0.10.242	1.0.0.439	7	234	2	3	Verdana	1	80	0	0	0	WM Stimuli\	0.9	1175	0.9	756.111111111111	1	1296.6	1	856	1	1447.4	1	870	0.5	1114.8	0.7	1228.57142857143	13	319468	2	319456	27	40	319495	-999999	319471	0	29	TrialsPROC	FC_017_M9.png	2	2	30	SessionSelectionList														lure	3	Face	2-Back	26	80	25	0	0	90	5	39	120296	1	13	73	118257	-1	119756	1	1499	3	3	2039	52	120309	-53	0																30												
WM080112	103818_fnca	2	1	1	-646655204	1	75.030	75.031	2.0.10.147	2.0.10.242	2.0.10.242	1.0.0.439	7	234	2	3	Verdana	1	80	0	0	0	WM Stimuli\	0.9	1175	0.9	756.111111111111	1	1296.6	1	856	1	1447.4	1	870	0.5	1114.8	0.7	1228.57142857143	13	319468	2	319456	27	40	319495	-999999	319471	0	29	TrialsPROC	FC_016_F8.png	2	2	31	SessionSelectionList														nonlure	3	Face	2-Back	27	80	26	0	0	90	6	39	122868	1	14	72	120829	-1	122498	1	1669	3	3	2039	53	122882	-54	0																31												
WM080112	103818_fnca	2	1	1	-646655204	1	75.030	75.031	2.0.10.147	2.0.10.242	2.0.10.242	1.0.0.439	7	234	2	3	Verdana	1	80	0	0	0	WM Stimuli\	0.9	1175	0.9	756.111111111111	1	1296.6	1	856	1	1447.4	1	870	0.5	1114.8	0.7	1228.57142857143	13	319468	2	319456	27	40	319495	-999999	319471	0	29	TrialsPROC	FC_013_M7.png	2	2	32	SessionSelectionList														nonlure	3	Face	2-Back	28	80	27	0	0	90	7	39	125440	2	14	72	123401	-1	124303	1	902	3	3	2039	53	125454	-54	0																32												
WM080112	103818_fnca	2	1	1	-646655204	1	75.030	75.031	2.0.10.147	2.0.10.242	2.0.10.242	1.0.0.439	7	234	2	3	Verdana	1	80	0	0	0	WM Stimuli\	0.9	1175	0.9	756.111111111111	1	1296.6	1	856	1	1447.4	1	870	0.5	1114.8	0.7	1228.57142857143	13	319468	2	319456	27	40	319495	-999999	319471	0	29	TrialsPROC	FC_014_F7.png	2	2	33	SessionSelectionList														nonlure	3	Face	2-Back	29	80	28	0	0	90	8	40	128013	1	13	72	125973	-1	127315	1	1342	3	3	2040	53	128026	-54	0																33												
WM080112	103818_fnca	2	1	1	-646655204	1	75.030	75.031	2.0.10.147	2.0.10.242	2.0.10.242	1.0.0.439	7	234	2	3	Verdana	1	80	0	0	0	WM Stimuli\	0.9	1175	0.9	756.111111111111	1	1296.6	1	856	1	1447.4	1	870	0.5	1114.8	0.7	1228.57142857143	13	319468	2	319456	27	40	319495	-999999	319471	0	29	TrialsPROC	FC_013_M7.png	2	2	34	SessionSelectionList														target	2	Face	2-Back	30	80	29	0	0	90	1	39	130585	1	13	73	128546	-1	129362	1	816	2	2	2039	52	130598	-53	0																34												
WM080112	103818_fnca	2	1	1	-646655204	1	75.030	75.031	2.0.10.147	2.0.10.242	2.0.10.242	1.0.0.439	7	234	2	3	Verdana	1	80	0	0	0	WM Stimuli\	0.9	1175	0.9	756.111111111111	1	1296.6	1	856	1	1447.4	1	870	0.5	1114.8	0.7	1228.57142857143	13	319468	2	319456	27	40	319495	-999999	319471	0	29	TrialsPROC	FC_014_F7.png	2	2	35	SessionSelectionList														target	2	Face	2-Back	31	80	30	0	0	90	2	39	133157	1	14	72	131118	-1	132665	1	1547	2	2	2039	53	133171	-54	0																35												
WM080112	103818_fnca	2	1	1	-646655204	1	75.030	75.031	2.0.10.147	2.0.10.242	2.0.10.242	1.0.0.439	7	234	2	3	Verdana	1	80	0	0	0	WM Stimuli\	0.9	1175	0.9	756.111111111111	1	1296.6	1	856	1	1447.4	1	870	0.5	1114.8	0.7	1228.57142857143	13	319468	2	319456	27	40	319495	-999999	319471	0	30	Cue0BackPROC	TO_019_TOOL19_BA.png	2	2	36	SessionSelectionList																																										19	133637	-20	0												36												
WM080112	103818_fnca	2	1	1	-646655204	1	75.030	75.031	2.0.10.147	2.0.10.242	2.0.10.242	1.0.0.439	7	234	2	3	Verdana	1	80	0	0	0	WM Stimuli\	0.9	1175	0.9	756.111111111111	1	1296.6	1	856	1	1447.4	1	870	0.5	1114.8	0.7	1228.57142857143	13	319468	2	319456	27	40	319495	-999999	319471	0	31	TrialsPROC	TO_019_TOOL19_BA.png	2	2	37	SessionSelectionList														target	2	Tools	0-Back	32	80	31	0	0	82	1	39	138208	2	14	51	136169	-1	137094	0	925	3	2	2039	53	138222	-54	0																37												
WM080112	103818_fnca	2	1	1	-646655204	1	75.030	75.031	2.0.10.147	2.0.10.242	2.0.10.242	1.0.0.439	7	234	2	3	Verdana	1	80	0	0	0	WM Stimuli\	0.9	1175	0.9	756.111111111111	1	1296.6	1	856	1	1447.4	1	870	0.5	1114.8	0.7	1228.57142857143	13	319468	2	319456	27	40	319495	-999999	319471	0	31	TrialsPROC	TO_024_TOOL24_BA.png	2	2	38	SessionSelectionList														nonlure	3	Tools	0-Back	33	80	32	0	0	83	2	39	140767	2	14	59	138728	-1	139774	1	1046	3	3	2039	53	140781	-54	0																38												
WM080112	103818_fnca	2	1	1	-646655204	1	75.030	75.031	2.0.10.147	2.0.10.242	2.0.10.242	1.0.0.439	7	234	2	3	Verdana	1	80	0	0	0	WM Stimuli\	0.9	1175	0.9	756.111111111111	1	1296.6	1	856	1	1447.4	1	870	0.5	1114.8	0.7	1228.57142857143	13	319468	2	319456	27	40	319495	-999999	319471	0	31	TrialsPROC	TO_019_TOOL19_BA.png	2	2	39	SessionSelectionList														target	2	Tools	0-Back	34	80	33	0	0	77	3	39	143326	2	14	59	141287	-1	142278	0	991	3	2	2039	53	143340	-54	0																39												
WM080112	103818_fnca	2	1	1	-646655204	1	75.030	75.031	2.0.10.147	2.0.10.242	2.0.10.242	1.0.0.439	7	234	2	3	Verdana	1	80	0	0	0	WM Stimuli\	0.9	1175	0.9	756.111111111111	1	1296.6	1	856	1	1447.4	1	870	0.5	1114.8	0.7	1228.57142857143	13	319468	2	319456	27	40	319495	-999999	319471	0	31	TrialsPROC	TO_023_TOOL23_BA.png	2	2	40	SessionSelectionList														nonlure	3	Tools	0-Back	35	80	34	0	0	79	4	39	145885	2	14	59	143846	-1	144552	1	706	3	3	2039	53	145899	-54	0																40												
WM080112	103818_fnca	2	1	1	-646655204	1	75.030	75.031	2.0.10.147	2.0.10.242	2.0.10.242	1.0.0.439	7	234	2	3	Verdana	1	80	0	0	0	WM Stimuli\	0.9	1175	0.9	756.111111111111	1	1296.6	1	856	1	1447.4	1	870	0.5	1114.8	0.7	1228.57142857143	13	319468	2	319456	27	40	319495	-999999	319471	0	31	TrialsPROC	TO_020_TOOL20_BA.png	2	2	41	SessionSelectionList														nonlure	3	Tools	0-Back	36	80	35	0	0	80	5	39	148444	2	14	59	146405	-1	147949	1	1544	3	3	2039	53	148458	-54	0																41												
WM080112	103818_fnca	2	1	1	-646655204	1	75.030	75.031	2.0.10.147	2.0.10.242	2.0.10.242	1.0.0.439	7	234	2	3	Verdana	1	80	0	0	0	WM Stimuli\	0.9	1175	0.9	756.111111111111	1	1296.6	1	856	1	1447.4	1	870	0.5	1114.8	0.7	1228.57142857143	13	319468	2	319456	27	40	319495	-999999	319471	0	31	TrialsPROC	TO_020_TOOL20_BA.png	2	2	42	SessionSelectionList														lure	3	Tools	0-Back	37	80	36	0	0	81	6	39	151003	2	14	59	148964	-1	150324	1	1360	3	3	2039	53	151017	-54	0																42												
WM080112	103818_fnca	2	1	1	-646655204	1	75.030	75.031	2.0.10.147	2.0.10.242	2.0.10.242	1.0.0.439	7	234	2	3	Verdana	1	80	0	0	0	WM Stimuli\	0.9	1175	0.9	756.111111111111	1	1296.6	1	856	1	1447.4	1	870	0.5	1114.8	0.7	1228.57142857143	13	319468	2	319456	27	40	319495	-999999	319471	0	31	TrialsPROC	TO_022_TOOL22_BA.png	2	2	43	SessionSelectionList														nonlure	3	Tools	0-Back	38	80	37	0	0	82	7	39	153562	1	14	59	151523	-1	152734	1	1211	3	3	2039	53	153576	-54	0																43												
WM080112	103818_fnca	2	1	1	-646655204	1	75.030	75.031	2.0.10.147	2.0.10.242	2.0.10.242	1.0.0.439	7	234	2	3	Verdana	1	80	0	0	0	WM Stimuli\	0.9	1175	0.9	756.111111111111	1	1296.6	1	856	1	1447.4	1	870	0.5	1114.8	0.7	1228.57142857143	13	319468	2	319456	27	40	319495	-999999	319471	0	31	TrialsPROC	TO_022_TOOL22_BA.png	2	2	44	SessionSelectionList														lure	3	Tools	0-Back	39	80	38	0	0	83	8	39	156121	1	14	59	154082	-1	155402	1	1320	3	3	2039	53	156135	-54	0																44												
WM080112	103818_fnca	2	1	1	-646655204	1	75.030	75.031	2.0.10.147	2.0.10.242	2.0.10.242	1.0.0.439	7	234	2	3	Verdana	1	80	0	0	0	WM Stimuli\	0.9	1175	0.9	756.111111111111	1	1296.6	1	856	1	1447.4	1	870	0.5	1114.8	0.7	1228.57142857143	13	319468	2	319456	27	40	319495	-999999	319471	0	31	TrialsPROC	TO_021_TOOL21_BA.png	2	2	45	SessionSelectionList														nonlure	3	Tools	0-Back	40	80	39	0	0	84	9	39	158680	1	14	59	156641	-1	158054	1	1413	3	3	2039	53	158694	-54	0																45												
WM080112	103818_fnca	2	1	1	-646655204	1	75.030	75.031	2.0.10.147	2.0.10.242	2.0.10.242	1.0.0.439	7	234	2	3	Verdana	1	80	0	0	0	WM Stimuli\	0.9	1175	0.9	756.111111111111	1	1296.6	1	856	1	1447.4	1	870	0.5	1114.8	0.7	1228.57142857143	13	319468	2	319456	27	40	319495	-999999	319471	0	31	TrialsPROC	TO_021_TOOL21_BA.png	2	2	46	SessionSelectionList														lure	3	Tools	0-Back	41	80	39	0	1	80	9	39	161239	1	14	59	159200	-1	0	0	0	""	3	2039	53	161253	-54	0																46												
WM080112	103818_fnca	2	1	1	-646655204	1	75.030	75.031	2.0.10.147	2.0.10.242	2.0.10.242	1.0.0.439	7	234	2	3	Verdana	1	80	0	0	0	WM Stimuli\	0.9	1175	0.9	756.111111111111	1	1296.6	1	856	1	1447.4	1	870	0.5	1114.8	0.7	1228.57142857143	13	319468	2	319456	27	40	319495	-999999	319471	0	32	Fix15secPROC	""	2	2	47	SessionSelectionList																																															6	161706	-7	0							47												
WM080112	103818_fnca	2	1	1	-646655204	1	75.030	75.031	2.0.10.147	2.0.10.242	2.0.10.242	1.0.0.439	7	234	2	3	Verdana	1	80	0	0	0	WM Stimuli\	0.9	1175	0.9	756.111111111111	1	1296.6	1	856	1	1447.4	1	870	0.5	1114.8	0.7	1228.57142857143	13	319468	2	319456	27	40	319495	-999999	319471	0	33	Cue2BackPROC	""	2	2	48	SessionSelectionList									13	176713	-14	0																																													48												
WM080112	103818_fnca	2	1	1	-646655204	1	75.030	75.031	2.0.10.147	2.0.10.242	2.0.10.242	1.0.0.439	7	234	2	3	Verdana	1	80	0	0	0	WM Stimuli\	0.9	1175	0.9	756.111111111111	1	1296.6	1	856	1	1447.4	1	870	0.5	1114.8	0.7	1228.57142857143	13	319468	2	319456	27	40	319495	-999999	319471	0	34	TrialsPROC	BP_020_H17-T_BA.png	2	2	49	SessionSelectionList														nonlure	3	Body	2-Back	42	80	40	0	0	80	1	39	181297	2	14	58	179258	-1	180573	1	1315	3	3	2039	53	181311	-54	0																49												
WM080112	103818_fnca	2	1	1	-646655204	1	75.030	75.031	2.0.10.147	2.0.10.242	2.0.10.242	1.0.0.439	7	234	2	3	Verdana	1	80	0	0	0	WM Stimuli\	0.9	1175	0.9	756.111111111111	1	1296.6	1	856	1	1447.4	1	870	0.5	1114.8	0.7	1228.57142857143	13	319468	2	319456	27	40	319495	-999999	319471	0	34	TrialsPROC	BP_019_H14-T_BA.png	2	2	50	SessionSelectionList														nonlure	3	Body	2-Back	43	80	41	0	0	80	2	39	183856	2	14	59	181817	-1	182539	1	722	3	3	2039	53	183870	-54	0																50												
WM080112	103818_fnca	2	1	1	-646655204	1	75.030	75.031	2.0.10.147	2.0.10.242	2.0.10.242	1.0.0.439	7	234	2	3	Verdana	1	80	0	0	0	WM Stimuli\	0.9	1175	0.9	756.111111111111	1	1296.6	1	856	1	1447.4	1	870	0.5	1114.8	0.7	1228.57142857143	13	319468	2	319456	27	40	319495	-999999	319471	0	34	TrialsPROC	BP_020_H17-T_BA.png	2	2	51	SessionSelectionList														target	2	Body	2-Back	44	80	42	0	0	80	1	38	186415	2	14	60	184377	-1	185109	1	732	2	2	2038	52	186429	-53	0																51												
WM080112	103818_fnca	2	1	1	-646655204	1	75.030	75.031	2.0.10.147	2.0.10.242	2.0.10.242	1.0.0.439	7	234	2	3	Verdana	1	80	0	0	0	WM Stimuli\	0.9	1175	0.9	756.111111111111	1	1296.6	1	856	1	1447.4	1	870	0.5	1114.8	0.7	1228.57142857143	13	319468	2	319456	27	40	319495	-999999	319471	0	34	TrialsPROC	BP_019_H14-T_BA.png	2	2	52	SessionSelectionList														target	2	Body	2-Back	45	80	43	0	0	80	2	40	188988	1	13	71	186948	-1	188041	1	1093	2	2	2040	53	189001	-54	0																52												
WM080112	103818_fnca	2	1	1	-646655204	1	75.030	75.031	2.0.10.147	2.0.10.242	2.0.10.242	1.0.0.439	7	234	2	3	Verdana	1	80	0	0	0	WM Stimuli\	0.9	1175	0.9	756.111111111111	1	1296.6	1	856	1	1447.4	1	870	0.5	1114.8	0.7	1228.57142857143	13	319468	2	319456	27	40	319495	-999999	319471	0	34	TrialsPROC	BP_024_H3-T_BA.png	2	2	53	SessionSelectionList														nonlure	3	Body	2-Back	46	80	44	0	0	80	1	39	191547	1	13	60	189508	-1	190904	1	1396	3	3	2039	52	191560	-53	0																53												
WM080112	103818_fnca	2	1	1	-646655204	1	75.030	75.031	2.0.10.147	2.0.10.242	2.0.10.242	1.0.0.439	7	234	2	3	Verdana	1	80	0	0	0	WM Stimuli\	0.9	1175	0.9	756.111111111111	1	1296.6	1	856	1	1447.4	1	870	0.5	1114.8	0.7	1228.57142857143	13	319468	2	319456	27	40	319495	-999999	319471	0	34	TrialsPROC	BP_024_H3-T_BA.png	2	2	54	SessionSelectionList														lure	3	Body	2-Back	47	80	45	0	0	80	2	39	194106	1	13	59	192067	-1	193985	1	1918	3	3	2039	52	194119	-53	0																54												
WM080112	103818_fnca	2	1	1	-646655204	1	75.030	75.031	2.0.10.147	2.0.10.242	2.0.10.242	1.0.0.439	7	234	2	3	Verdana	1	80	0	0	0	WM Stimuli\	0.9	1175	0.9	756.111111111111	1	1296.6	1	856	1	1447.4	1	870	0.5	1114.8	0.7	1228.57142857143	13	319468	2	319456	27	40	319495	-999999	319471	0	34	TrialsPROC	BP_025_H5-T_BA.png	2	2	55	SessionSelectionList														nonlure	3	Body	2-Back	48	80	46	0	0	80	3	40	196665	1	13	58	194625	-1	196148	1	1523	3	3	2040	53	196678	-54	0																55												
WM080112	103818_fnca	2	1	1	-646655204	1	75.030	75.031	2.0.10.147	2.0.10.242	2.0.10.242	1.0.0.439	7	234	2	3	Verdana	1	80	0	0	0	WM Stimuli\	0.9	1175	0.9	756.111111111111	1	1296.6	1	856	1	1447.4	1	870	0.5	1114.8	0.7	1228.57142857143	13	319468	2	319456	27	40	319495	-999999	319471	0	34	TrialsPROC	BP_023_H25-T_BA.png	2	2	56	SessionSelectionList														nonlure	3	Body	2-Back	49	80	47	0	0	80	1	39	199223	2	14	59	197184	-1	197635	0	451	2	3	2039	53	199237	-54	0																56												
WM080112	103818_fnca	2	1	1	-646655204	1	75.030	75.031	2.0.10.147	2.0.10.242	2.0.10.242	1.0.0.439	7	234	2	3	Verdana	1	80	0	0	0	WM Stimuli\	0.9	1175	0.9	756.111111111111	1	1296.6	1	856	1	1447.4	1	870	0.5	1114.8	0.7	1228.57142857143	13	319468	2	319456	27	40	319495	-999999	319471	0	34	TrialsPROC	BP_022_H24-T_BA.png	2	2	57	SessionSelectionList														nonlure	3	Body	2-Back	50	80	48	0	0	80	1	39	201782	2	14	59	199743	-1	200681	1	938	3	3	2039	53	201796	-54	0																57												
WM080112	103818_fnca	2	1	1	-646655204	1	75.030	75.031	2.0.10.147	2.0.10.242	2.0.10.242	1.0.0.439	7	234	2	3	Verdana	1	80	0	0	0	WM Stimuli\	0.9	1175	0.9	756.111111111111	1	1296.6	1	856	1	1447.4	1	870	0.5	1114.8	0.7	1228.57142857143	13	319468	2	319456	27	40	319495	-999999	319471	0	34	TrialsPROC	BP_022_H24-T_BA.png	2	2	58	SessionSelectionList														lure	3	Body	2-Back	51	80	49	0	0	80	2	39	204341	2	14	59	202302	-1	203240	1	938	3	3	2039	53	204355	-54	0																58												
WM080112	103818_fnca	2	1	1	-646655204	1	75.030	75.031	2.0.10.147	2.0.10.242	2.0.10.242	1.0.0.439	7	234	2	3	Verdana	1	80	0	0	0	WM Stimuli\	0.9	1175	0.9	756.111111111111	1	1296.6	1	856	1	1447.4	1	870	0.5	1114.8	0.7	1228.57142857143	13	319468	2	319456	27	40	319495	-999999	319471	0	35	Cue2BackPROC	""	2	2	59	SessionSelectionList									6	204808	-7	0																																													59												
WM080112	103818_fnca	2	1	1	-646655204	1	75.030	75.031	2.0.10.147	2.0.10.242	2.0.10.242	1.0.0.439	7	234	2	3	Verdana	1	80	0	0	0	WM Stimuli\	0.9	1175	0.9	756.111111111111	1	1296.6	1	856	1	1447.4	1	870	0.5	1114.8	0.7	1228.57142857143	13	319468	2	319456	27	40	319495	-999999	319471	0	36	TrialsPROC	PL_019_SCENE_05.png	2	2	60	SessionSelectionList														nonlure	3	Place	2-Back	52	80	50	0	0	80	3	39	209406	1	14	65	207367	-1	208787	1	1420	3	3	2039	53	209420	-54	0																60												
WM080112	103818_fnca	2	1	1	-646655204	1	75.030	75.031	2.0.10.147	2.0.10.242	2.0.10.242	1.0.0.439	7	234	2	3	Verdana	1	80	0	0	0	WM Stimuli\	0.9	1175	0.9	756.111111111111	1	1296.6	1	856	1	1447.4	1	870	0.5	1114.8	0.7	1228.57142857143	13	319468	2	319456	27	40	319495	-999999	319471	0	36	TrialsPROC	PL_017_SCENE_03.png	2	2	61	SessionSelectionList														nonlure	3	Place	2-Back	53	80	51	0	0	80	4	39	211978	2	14	72	209939	-1	211809	1	1870	3	3	2039	53	211992	-54	0																61												
WM080112	103818_fnca	2	1	1	-646655204	1	75.030	75.031	2.0.10.147	2.0.10.242	2.0.10.242	1.0.0.439	7	234	2	3	Verdana	1	80	0	0	0	WM Stimuli\	0.9	1175	0.9	756.111111111111	1	1296.6	1	856	1	1447.4	1	870	0.5	1114.8	0.7	1228.57142857143	13	319468	2	319456	27	40	319495	-999999	319471	0	36	TrialsPROC	PL_017_SCENE_03.png	2	2	62	SessionSelectionList														lure	3	Place	2-Back	54	80	52	0	0	80	5	40	214551	1	13	72	212511	-1	213940	1	1429	3	3	2040	53	214564	-54	0																62												
WM080112	103818_fnca	2	1	1	-646655204	1	75.030	75.031	2.0.10.147	2.0.10.242	2.0.10.242	1.0.0.439	7	234	2	3	Verdana	1	80	0	0	0	WM Stimuli\	0.9	1175	0.9	756.111111111111	1	1296.6	1	856	1	1447.4	1	870	0.5	1114.8	0.7	1228.57142857143	13	319468	2	319456	27	40	319495	-999999	319471	0	36	TrialsPROC	PL_016_SCENE_02.png	2	2	63	SessionSelectionList														nonlure	3	Place	2-Back	55	80	53	0	0	80	6	39	217123	1	13	73	215084	-1	216748	1	1664	3	3	2039	52	217136	-53	0																63												
WM080112	103818_fnca	2	1	1	-646655204	1	75.030	75.031	2.0.10.147	2.0.10.242	2.0.10.242	1.0.0.439	7	234	2	3	Verdana	1	80	0	0	0	WM Stimuli\	0.9	1175	0.9	756.111111111111	1	1296.6	1	856	1	1447.4	1	870	0.5	1114.8	0.7	1228.57142857143	13	319468	2	319456	27	40	319495	-999999	319471	0	36	TrialsPROC	PL_015_SCENE_01.png	2	2	64	SessionSelectionList														nonlure	3	Place	2-Back	56	80	54	0	0	80	7	39	219695	2	14	72	217656	-1	219546	1	1890	3	3	2039	53	219709	-54	0																64												
WM080112	103818_fnca	2	1	1	-646655204	1	75.030	75.031	2.0.10.147	2.0.10.242	2.0.10.242	1.0.0.439	7	234	2	3	Verdana	1	80	0	0	0	WM Stimuli\	0.9	1175	0.9	756.111111111111	1	1296.6	1	856	1	1447.4	1	870	0.5	1114.8	0.7	1228.57142857143	13	319468	2	319456	27	40	319495	-999999	319471	0	36	TrialsPROC	PL_016_SCENE_02.png	2	2	65	SessionSelectionList														target	2	Place	2-Back	57	80	55	0	0	80	1	39	222267	2	14	72	220228	-1	221090	1	862	2	2	2039	53	222281	-54	0																65												
WM080112	103818_fnca	2	1	1	-646655204	1	75.030	75.031	2.0.10.147	2.0.10.242	2.0.10.242	1.0.0.439	7	234	2	3	Verdana	1	80	0	0	0	WM Stimuli\	0.9	1175	0.9	756.111111111111	1	1296.6	1	856	1	1447.4	1	870	0.5	1114.8	0.7	1228.57142857143	13	319468	2	319456	27	40	319495	-999999	319471	0	36	TrialsPROC	PL_015_SCENE_01.png	2	2	66	SessionSelectionList														target	2	Place	2-Back	58	80	56	0	0	80	2	39	224840	1	13	73	222801	-1	224299	1	1498	2	2	2039	52	224853	-53	0																66												
WM080112	103818_fnca	2	1	1	-646655204	1	75.030	75.031	2.0.10.147	2.0.10.242	2.0.10.242	1.0.0.439	7	234	2	3	Verdana	1	80	0	0	0	WM Stimuli\	0.9	1175	0.9	756.111111111111	1	1296.6	1	856	1	1447.4	1	870	0.5	1114.8	0.7	1228.57142857143	13	319468	2	319456	27	40	319495	-999999	319471	0	36	TrialsPROC	PL_020_SCENE_06.png	2	2	67	SessionSelectionList														nonlure	3	Place	2-Back	59	80	57	0	0	80	1	39	227412	1	14	72	225373	-1	226378	1	1005	3	3	2039	53	227426	-54	0																67												
WM080112	103818_fnca	2	1	1	-646655204	1	75.030	75.031	2.0.10.147	2.0.10.242	2.0.10.242	1.0.0.439	7	234	2	3	Verdana	1	80	0	0	0	WM Stimuli\	0.9	1175	0.9	756.111111111111	1	1296.6	1	856	1	1447.4	1	870	0.5	1114.8	0.7	1228.57142857143	13	319468	2	319456	27	40	319495	-999999	319471	0	36	TrialsPROC	PL_020_SCENE_06.png	2	2	68	SessionSelectionList														lure	3	Place	2-Back	60	80	58	0	0	80	2	39	229984	2	14	72	227945	-1	229099	1	1154	3	3	2039	53	229998	-54	0																68												
WM080112	103818_fnca	2	1	1	-646655204	1	75.030	75.031	2.0.10.147	2.0.10.242	2.0.10.242	1.0.0.439	7	234	2	3	Verdana	1	80	0	0	0	WM Stimuli\	0.9	1175	0.9	756.111111111111	1	1296.6	1	856	1	1447.4	1	870	0.5	1114.8	0.7	1228.57142857143	13	319468	2	319456	27	40	319495	-999999	319471	0	36	TrialsPROC	PL_018_SCENE_04.png	2	2	69	SessionSelectionList														nonlure	3	Place	2-Back	61	80	59	0	0	80	3	40	232557	1	13	72	230517	-1	232199	1	1682	3	3	2040	53	232570	-54	0																69												
WM080112	103818_fnca	2	1	1	-646655204	1	75.030	75.031	2.0.10.147	2.0.10.242	2.0.10.242	1.0.0.439	7	234	2	3	Verdana	1	80	0	0	0	WM Stimuli\	0.9	1175	0.9	756.111111111111	1	1296.6	1	856	1	1447.4	1	870	0.5	1114.8	0.7	1228.57142857143	13	319468	2	319456	27	40	319495	-999999	319471	0	37	Fix15secPROC	""	2	2	70	SessionSelectionList																																															6	233023	-7	0							70												
WM080112	103818_fnca	2	1	1	-646655204	1	75.030	75.031	2.0.10.147	2.0.10.242	2.0.10.242	1.0.0.439	7	234	2	3	Verdana	1	80	0	0	0	WM Stimuli\	0.9	1175	0.9	756.111111111111	1	1296.6	1	856	1	1447.4	1	870	0.5	1114.8	0.7	1228.57142857143	13	319468	2	319456	27	40	319495	-999999	319471	0	38	Cue0BackPROC	FC_020_F10.png	2	2	71	SessionSelectionList																																										27	248044	-28	0												71												
WM080112	103818_fnca	2	1	1	-646655204	1	75.030	75.031	2.0.10.147	2.0.10.242	2.0.10.242	1.0.0.439	7	234	2	3	Verdana	1	80	0	0	0	WM Stimuli\	0.9	1175	0.9	756.111111111111	1	1296.6	1	856	1	1447.4	1	870	0.5	1114.8	0.7	1228.57142857143	13	319468	2	319456	27	40	319495	-999999	319471	0	39	TrialsPROC	FC_024_F12.png	2	2	72	SessionSelectionList														nonlure	3	Face	0-Back	62	80	60	0	0	81	4	39	252628	2	14	72	250589	-1	251447	1	858	3	3	2039	53	252642	-54	0																72												
WM080112	103818_fnca	2	1	1	-646655204	1	75.030	75.031	2.0.10.147	2.0.10.242	2.0.10.242	1.0.0.439	7	234	2	3	Verdana	1	80	0	0	0	WM Stimuli\	0.9	1175	0.9	756.111111111111	1	1296.6	1	856	1	1447.4	1	870	0.5	1114.8	0.7	1228.57142857143	13	319468	2	319456	27	40	319495	-999999	319471	0	39	TrialsPROC	FC_023_M12.png	2	2	73	SessionSelectionList														nonlure	3	Face	0-Back	63	80	61	0	0	82	5	40	255201	1	13	72	253161	-1	254126	1	965	3	3	2040	53	255214	-54	0																73												
WM080112	103818_fnca	2	1	1	-646655204	1	75.030	75.031	2.0.10.147	2.0.10.242	2.0.10.242	1.0.0.439	7	234	2	3	Verdana	1	80	0	0	0	WM Stimuli\	0.9	1175	0.9	756.111111111111	1	1296.6	1	856	1	1447.4	1	870	0.5	1114.8	0.7	1228.57142857143	13	319468	2	319456	27	40	319495	-999999	319471	0	39	TrialsPROC	FC_020_F10.png	2	2	74	SessionSelectionList														target	2	Face	0-Back	64	80	62	0	0	83	1	39	257773	1	14	73	255734	-1	256387	1	653	2	2	2039	53	257787	-54	0																74												
WM080112	103818_fnca	2	1	1	-646655204	1	75.030	75.031	2.0.10.147	2.0.10.242	2.0.10.242	1.0.0.439	7	234	2	3	Verdana	1	80	0	0	0	WM Stimuli\	0.9	1175	0.9	756.111111111111	1	1296.6	1	856	1	1447.4	1	870	0.5	1114.8	0.7	1228.57142857143	13	319468	2	319456	27	40	319495	-999999	319471	0	39	TrialsPROC	FC_024_F12.png	2	2	75	SessionSelectionList														lure	3	Face	0-Back	65	80	63	0	0	83	1	39	260345	2	14	72	258306	-1	259083	1	777	3	3	2039	53	260359	-54	0																75												
WM080112	103818_fnca	2	1	1	-646655204	1	75.030	75.031	2.0.10.147	2.0.10.242	2.0.10.242	1.0.0.439	7	234	2	3	Verdana	1	80	0	0	0	WM Stimuli\	0.9	1175	0.9	756.111111111111	1	1296.6	1	856	1	1447.4	1	870	0.5	1114.8	0.7	1228.57142857143	13	319468	2	319456	27	40	319495	-999999	319471	0	39	TrialsPROC	FC_020_F10.png	2	2	76	SessionSelectionList														target	2	Face	0-Back	66	80	64	0	0	84	1	39	262917	2	14	72	260878	-1	261468	1	590	2	2	2039	53	262931	-54	0																76												
WM080112	103818_fnca	2	1	1	-646655204	1	75.030	75.031	2.0.10.147	2.0.10.242	2.0.10.242	1.0.0.439	7	234	2	3	Verdana	1	80	0	0	0	WM Stimuli\	0.9	1175	0.9	756.111111111111	1	1296.6	1	856	1	1447.4	1	870	0.5	1114.8	0.7	1228.57142857143	13	319468	2	319456	27	40	319495	-999999	319471	0	39	TrialsPROC	FC_022_F11.png	2	2	77	SessionSelectionList														nonlure	3	Face	0-Back	67	80	65	0	0	85	1	39	265490	1	13	73	263451	-1	264189	1	738	3	3	2039	52	265503	-53	0																77												
WM080112	103818_fnca	2	1	1	-646655204	1	75.030	75.031	2.0.10.147	2.0.10.242	2.0.10.242	1.0.0.439	7	234	2	3	Verdana	1	80	0	0	0	WM Stimuli\	0.9	1175	0.9	756.111111111111	1	1296.6	1	856	1	1447.4	1	870	0.5	1114.8	0.7	1228.57142857143	13	319468	2	319456	27	40	319495	-999999	319471	0	39	TrialsPROC	FC_023_M12.png	2	2	78	SessionSelectionList														lure	3	Face	0-Back	68	80	66	0	0	85	2	39	268062	1	14	72	266023	-1	266745	1	722	3	3	2039	53	268076	-54	0																78												
WM080112	103818_fnca	2	1	1	-646655204	1	75.030	75.031	2.0.10.147	2.0.10.242	2.0.10.242	1.0.0.439	7	234	2	3	Verdana	1	80	0	0	0	WM Stimuli\	0.9	1175	0.9	756.111111111111	1	1296.6	1	856	1	1447.4	1	870	0.5	1114.8	0.7	1228.57142857143	13	319468	2	319456	27	40	319495	-999999	319471	0	39	TrialsPROC	FC_021_M11.png	2	2	79	SessionSelectionList														nonlure	3	Face	0-Back	69	80	67	0	0	86	3	39	270634	2	14	72	268595	-1	269425	1	830	3	3	2039	53	270648	-54	0																79												
WM080112	103818_fnca	2	1	1	-646655204	1	75.030	75.031	2.0.10.147	2.0.10.242	2.0.10.242	1.0.0.439	7	234	2	3	Verdana	1	80	0	0	0	WM Stimuli\	0.9	1175	0.9	756.111111111111	1	1296.6	1	856	1	1447.4	1	870	0.5	1114.8	0.7	1228.57142857143	13	319468	2	319456	27	40	319495	-999999	319471	0	39	TrialsPROC	FC_021_M11.png	2	2	80	SessionSelectionList														lure	3	Face	0-Back	70	80	68	0	0	86	4	40	273207	1	13	72	271167	-1	272331	1	1164	3	3	2040	53	273220	-54	0																80												
WM080112	103818_fnca	2	1	1	-646655204	1	75.030	75.031	2.0.10.147	2.0.10.242	2.0.10.242	1.0.0.439	7	234	2	3	Verdana	1	80	0	0	0	WM Stimuli\	0.9	1175	0.9	756.111111111111	1	1296.6	1	856	1	1447.4	1	870	0.5	1114.8	0.7	1228.57142857143	13	319468	2	319456	27	40	319495	-999999	319471	0	39	TrialsPROC	FC_019_M10.png	2	2	81	SessionSelectionList														nonlure	3	Face	0-Back	71	80	69	0	0	87	5	39	275779	1	14	73	273740	-1	275003	1	1263	3	3	2039	53	275793	-54	0																81												
WM080112	103818_fnca	2	1	1	-646655204	1	75.030	75.031	2.0.10.147	2.0.10.242	2.0.10.242	1.0.0.439	7	234	2	3	Verdana	1	80	0	0	0	WM Stimuli\	0.9	1175	0.9	756.111111111111	1	1296.6	1	856	1	1447.4	1	870	0.5	1114.8	0.7	1228.57142857143	13	319468	2	319456	27	40	319495	-999999	319471	0	40	Cue0BackPROC	PL_021_SCENE_07.png	2	2	82	SessionSelectionList																																										19	276259	-20	0												82												
WM080112	103818_fnca	2	1	1	-646655204	1	75.030	75.031	2.0.10.147	2.0.10.242	2.0.10.242	1.0.0.439	7	234	2	3	Verdana	1	80	0	0	0	WM Stimuli\	0.9	1175	0.9	756.111111111111	1	1296.6	1	856	1	1447.4	1	870	0.5	1114.8	0.7	1228.57142857143	13	319468	2	319456	27	40	319495	-999999	319471	0	41	TrialsPROC	PL_025_SCENE_18.png	2	2	83	SessionSelectionList														nonlure	3	Place	0-Back	72	80	70	0	0	87	6	39	280843	2	14	64	278804	-1	279616	1	812	3	3	2039	53	280857	-54	0																83												
WM080112	103818_fnca	2	1	1	-646655204	1	75.030	75.031	2.0.10.147	2.0.10.242	2.0.10.242	1.0.0.439	7	234	2	3	Verdana	1	80	0	0	0	WM Stimuli\	0.9	1175	0.9	756.111111111111	1	1296.6	1	856	1	1447.4	1	870	0.5	1114.8	0.7	1228.57142857143	13	319468	2	319456	27	40	319495	-999999	319471	0	41	TrialsPROC	PL_026_SCENE_24.png	2	2	84	SessionSelectionList														nonlure	3	Place	0-Back	73	80	71	0	0	88	7	39	283416	1	13	73	281377	-1	282485	1	1108	3	3	2039	52	283429	-53	0																84												
WM080112	103818_fnca	2	1	1	-646655204	1	75.030	75.031	2.0.10.147	2.0.10.242	2.0.10.242	1.0.0.439	7	234	2	3	Verdana	1	80	0	0	0	WM Stimuli\	0.9	1175	0.9	756.111111111111	1	1296.6	1	856	1	1447.4	1	870	0.5	1114.8	0.7	1228.57142857143	13	319468	2	319456	27	40	319495	-999999	319471	0	41	TrialsPROC	PL_025_SCENE_18.png	2	2	85	SessionSelectionList														lure	3	Place	0-Back	74	80	72	0	0	88	8	39	285988	1	14	72	283949	-1	284958	1	1009	3	3	2039	53	286002	-54	0																85												
WM080112	103818_fnca	2	1	1	-646655204	1	75.030	75.031	2.0.10.147	2.0.10.242	2.0.10.242	1.0.0.439	7	234	2	3	Verdana	1	80	0	0	0	WM Stimuli\	0.9	1175	0.9	756.111111111111	1	1296.6	1	856	1	1447.4	1	870	0.5	1114.8	0.7	1228.57142857143	13	319468	2	319456	27	40	319495	-999999	319471	0	41	TrialsPROC	PL_022_SCENE_08.png	2	2	86	SessionSelectionList														nonlure	3	Place	0-Back	75	80	73	0	0	88	9	39	288560	2	14	72	286521	-1	287575	1	1054	3	3	2039	53	288574	-54	0																86												
WM080112	103818_fnca	2	1	1	-646655204	1	75.030	75.031	2.0.10.147	2.0.10.242	2.0.10.242	1.0.0.439	7	234	2	3	Verdana	1	80	0	0	0	WM Stimuli\	0.9	1175	0.9	756.111111111111	1	1296.6	1	856	1	1447.4	1	870	0.5	1114.8	0.7	1228.57142857143	13	319468	2	319456	27	40	319495	-999999	319471	0	41	TrialsPROC	PL_026_SCENE_24.png	2	2	87	SessionSelectionList														lure	3	Place	0-Back	76	80	74	0	0	89	10	40	291133	1	13	72	289093	-1	290504	1	1411	3	3	2040	53	291146	-54	0																87												
WM080112	103818_fnca	2	1	1	-646655204	1	75.030	75.031	2.0.10.147	2.0.10.242	2.0.10.242	1.0.0.439	7	234	2	3	Verdana	1	80	0	0	0	WM Stimuli\	0.9	1175	0.9	756.111111111111	1	1296.6	1	856	1	1447.4	1	870	0.5	1114.8	0.7	1228.57142857143	13	319468	2	319456	27	40	319495	-999999	319471	0	41	TrialsPROC	PL_021_SCENE_07.png	2	2	88	SessionSelectionList														target	2	Place	0-Back	77	80	75	0	0	89	1	39	293705	1	14	73	291666	-1	292446	1	780	2	2	2039	53	293719	-54	0																88												
WM080112	103818_fnca	2	1	1	-646655204	1	75.030	75.031	2.0.10.147	2.0.10.242	2.0.10.242	1.0.0.439	7	234	2	3	Verdana	1	80	0	0	0	WM Stimuli\	0.9	1175	0.9	756.111111111111	1	1296.6	1	856	1	1447.4	1	870	0.5	1114.8	0.7	1228.57142857143	13	319468	2	319456	27	40	319495	-999999	319471	0	41	TrialsPROC	PL_021_SCENE_07.png	2	2	89	SessionSelectionList														target	2	Place	0-Back	78	80	76	0	0	89	2	39	296277	2	14	72	294238	-1	294971	1	733	2	2	2039	53	296291	-54	0																89												
WM080112	103818_fnca	2	1	1	-646655204	1	75.030	75.031	2.0.10.147	2.0.10.242	2.0.10.242	1.0.0.439	7	234	2	3	Verdana	1	80	0	0	0	WM Stimuli\	0.9	1175	0.9	756.111111111111	1	1296.6	1	856	1	1447.4	1	870	0.5	1114.8	0.7	1228.57142857143	13	319468	2	319456	27	40	319495	-999999	319471	0	41	TrialsPROC	PL_023_SCENE_09.png	2	2	90	SessionSelectionList														nonlure	3	Place	0-Back	79	80	77	0	0	89	1	39	298849	2	14	72	296810	-1	297395	1	585	3	3	2039	53	298863	-54	0																90												
WM080112	103818_fnca	2	1	1	-646655204	1	75.030	75.031	2.0.10.147	2.0.10.242	2.0.10.242	1.0.0.439	7	234	2	3	Verdana	1	80	0	0	0	WM Stimuli\	0.9	1175	0.9	756.111111111111	1	1296.6	1	856	1	1447.4	1	870	0.5	1114.8	0.7	1228.57142857143	13	319468	2	319456	27	40	319495	-999999	319471	0	41	TrialsPROC	PL_024_SCENE_10.png	2	2	91	SessionSelectionList														nonlure	3	Place	0-Back	80	80	78	0	0	90	2	39	301422	1	13	73	299383	-1	299822	1	439	3	3	2039	52	301435	-53	0																91												
WM080112	103818_fnca	2	1	1	-646655204	1	75.030	75.031	2.0.10.147	2.0.10.242	2.0.10.242	1.0.0.439	7	234	2	3	Verdana	1	80	0	0	0	WM Stimuli\	0.9	1175	0.9	756.111111111111	1	1296.6	1	856	1	1447.4	1	870	0.5	1114.8	0.7	1228.57142857143	13	319468	2	319456	27	40	319495	-999999	319471	0	41	TrialsPROC	PL_022_SCENE_08.png	2	2	92	SessionSelectionList														lure	3	Place	0-Back	80	80	79	0	0	90	3	39	303994	1	14	72	301955	-1	302724	1	769	3	3	2039	53	304008	-54	0																92												
WM080112	103818_fnca	2	1	1	-646655204	1	75.030	75.031	2.0.10.147	2.0.10.242	2.0.10.242	1.0.0.439	7	234	2	3	Verdana	1	80	0	0	0	WM Stimuli\	0.9	1175	0.9	756.111111111111	1	1296.6	1	856	1	1447.4	1	870	0.5	1114.8	0.7	1228.57142857143	13	319468	2	319456	27	40	319495	-999999	319471	0	42	Fix15secPROC	""	2	2	93	SessionSelectionList																																															6	304461	-7	0							93												
