ExperimentName	HCPID	RunNumber	Subject	Session	RandomSeed	Group	Laptop.RefreshRate	ScannerD2.RefreshRate	StudioVersion	RuntimeVersion	RuntimeVersionExpected	ExperimentVersion	triggercode	Allowed	Target	Nontarget	FontStyle	RunTrialNumber[Session]	TrialsPerRun[Session]	TotalRespGreater200[Session]	ConsecRTLess200[Session]	ConsecNonResp[Session]	StimuliDir	ACC_2_Back_Body	Avg_RT_For_Correct_Trials_2_Back_Body	ACC_0_Back_Body	Avg_RT_For_Correct_Trials_0_Back_Body	ACC_2_Back_Face	Avg_RT_For_Correct_Trials_2_Back_Face	ACC_0_Back_Face	Avg_RT_For_Correct_Trials_0_Back_Face	ACC_2_Back_Place	Avg_RT_For_Correct_Trials_2_Back_Place	ACC_0_Back_Place	Avg_RT_For_Correct_Trials_0_Back_Place	ACC_2_Back_Tools	Avg_RT_For_Correct_Trials_2_Back_Tools	ACC_0_Back_Tools	Avg_RT_For_Correct_Trials_0_Back_Tools	ExpInstrucFeelFreeToRest.OnsetDelay	ExpInstrucFeelFreeToRest.OnsetTime	ExpInstrucFeelFreeToRest.DurationError	ExpInstrucFeelFreeToRest.StartTime	ExpInstrucFeelFreeToRest.OnsetToOnsetTime	FeelFreeToRest.OnsetDelay	FeelFreeToRest.OnsetTime	FeelFreeToRest.DurationError	FeelFreeToRest.StartTime	FeelFreeToRest.OnsetToOnsetTime	SessionSelectionList	Procedure[Block]	Stimulus[Block]	RunNumberFilterValue	SessionSelectionList.Cycle	SessionSelectionList.Sample	Running[Block]	IntroButtonMap.OnsetDelay	IntroButtonMap.OnsetTime	IntroButtonMap.DurationError	IntroButtonMap.OnsetToOnsetTime	GetReady.OnsetDelay	GetReady.OnsetTime	GetReady.DurationError	GetReady.OnsetToOnsetTime	Cue2Back.OnsetDelay	Cue2Back.OnsetTime	Cue2Back.DurationError	Cue2Back.OnsetToOnsetTime	Run1Block1	TargetType	CorrectResponse	StimType	BlockType	RunTrialNumber[Block]	TrialsPerRun[Block]	TotalRespGreater200[Block]	ConsecRTLess200[Block]	ConsecNonResp[Block]	ControlAcc	ConsecSameResp	ExperimenterWindow.OnsetDelay	ExperimenterWindow.OnsetTime	ExperimenterWindow.DurationError	ExperimenterWindow.OnsetToOnsetTime	Stim.OnsetDelay	Stim.OnsetTime	Stim.DurationError	Stim.RTTime	Stim.ACC	Stim.RT	Stim.RESP	Stim.CRESP	Stim.OnsetToOnsetTime	Fix.OnsetDelay	Fix.OnsetTime	Fix.DurationError	Fix.OnsetToOnsetTime	CueTarget.OnsetDelay	CueTarget.OnsetTime	CueTarget.DurationError	CueTarget.OnsetToOnsetTime	Run1Block2	Fix15sec.OnsetDelay	Fix15sec.OnsetTime	Fix15sec.DurationError	Fix15sec.OnsetToOnsetTime	Run1Block3	Run1Block4	Run1Block5	Run1Block6	Run1Block7	Run1Block8	Block	Procedure[Trial]	Stimulus[Trial]	ReadyList	Running[Trial]	ReadyList.Cycle	ReadyList.Sample	SyncSlide.OnsetDelay	SyncSlide.OnsetTime	SyncSlide.DurationError	SyncSlide.FinishTime	SyncSlide.OnsetToOnsetTime	Trial
WM080112	161731_fnca	2	1	1	215527562	1	75.031	75.031	2.0.10.147	2.0.10.242	2.0.10.242	1.0.0.439	7	234	2	3	Verdana	1	80	0	0	0	WM Stimuli\	1	867.6	1	702	1	966.6	1	641.3	1	939.9	1	751.4	1	909.7	1	746.9	13	322338	2	322326	27	40	322365	-999999	322341	0	22	TRSyncPROC	""	2	2	1	SessionSelectionList	103	7293	-999999	0	31	13650	-999999	0																																																	1	InitialTR	4	1	ReadyList	1	1	14	29084	-15	31069	0	1
WM080112	161731_fnca	2	1	1	215527562	1	75.031	75.031	2.0.10.147	2.0.10.242	2.0.10.242	1.0.0.439	7	234	2	3	Verdana	1	80	0	0	0	WM Stimuli\	1	867.6	1	702	1	966.6	1	641.3	1	939.9	1	751.4	1	909.7	1	746.9	13	322338	2	322326	27	40	322365	-999999	322341	0	22	TRSyncPROC	""	2	2	1	SessionSelectionList	103	7293	-999999	0	31	13650	-999999	0																																																	1	InitialTR	3	2	ReadyList	1	2	13	31083	-14	33069	0	2
WM080112	161731_fnca	2	1	1	215527562	1	75.031	75.031	2.0.10.147	2.0.10.242	2.0.10.242	1.0.0.439	7	234	2	3	Verdana	1	80	0	0	0	WM Stimuli\	1	867.6	1	702	1	966.6	1	641.3	1	939.9	1	751.4	1	909.7	1	746.9	13	322338	2	322326	27	40	322365	-999999	322341	0	22	TRSyncPROC	""	2	2	1	SessionSelectionList	103	7293	-999999	0	31	13650	-999999	0																																																	1	InitialTR	2	3	ReadyList	1	3	12	33082	-13	35069	0	3
WM080112	161731_fnca	2	1	1	215527562	1	75.031	75.031	2.0.10.147	2.0.10.242	2.0.10.242	1.0.0.439	7	234	2	3	Verdana	1	80	0	0	0	WM Stimuli\	1	867.6	1	702	1	966.6	1	641.3	1	939.9	1	751.4	1	909.7	1	746.9	13	322338	2	322326	27	40	322365	-999999	322341	0	22	TRSyncPROC	""	2	2	1	SessionSelectionList	103	7293	-999999	0	31	13650	-999999	0																																																	1	InitialTR	1	4	ReadyList	1	4	12	35082	-13	37069	0	4
WM080112	161731_fnca	2	1	1	215527562	1	75.031	75.031	2.0.10.147	2.0.10.242	2.0.10.242	1.0.0.439	7	234	2	3	Verdana	1	80	0	0	0	WM Stimuli\	1	867.6	1	702	1	966.6	1	641.3	1	939.9	1	751.4	1	909.7	1	746.9	13	322338	2	322326	27	40	322365	-999999	322341	0	23	Cue2BackPROC	""	2	2	2	SessionSelectionList									11	37081	-12	0																																													2												
WM080112	161731_fnca	2	1	1	215527562	1	75.031	75.031	2.0.10.147	2.0.10.242	2.0.10.242	1.0.0.439	7	234	2	3	Verdana	1	80	0	0	0	WM Stimuli\	1	867.6	1	702	1	966.6	1	641.3	1	939.9	1	751.4	1	909.7	1	746.9	13	322338	2	322326	27	40	322365	-999999	322341	0	24	TrialsPROC	TO_014_TOOL14_BA.png	2	2	3	SessionSelectionList														nonlure	3	Tools	2-Back	2	80	1	0	0	0	1	53	41706	2	13	83	39653	-1	40752	1	1099	3	3	2053	66	41719	-67	0																3												
WM080112	161731_fnca	2	1	1	215527562	1	75.031	75.031	2.0.10.147	2.0.10.242	2.0.10.242	1.0.0.439	7	234	2	3	Verdana	1	80	0	0	0	WM Stimuli\	1	867.6	1	702	1	966.6	1	641.3	1	939.9	1	751.4	1	909.7	1	746.9	13	322338	2	322326	27	40	322365	-999999	322341	0	24	TrialsPROC	TO_013_TOOL13_BA.png	2	2	4	SessionSelectionList														nonlure	3	Tools	2-Back	3	80	2	0	0	0	2	39	44251	3	14	59	42212	-1	43151	1	939	3	3	2039	53	44265	-54	0																4												
WM080112	161731_fnca	2	1	1	215527562	1	75.031	75.031	2.0.10.147	2.0.10.242	2.0.10.242	1.0.0.439	7	234	2	3	Verdana	1	80	0	0	0	WM Stimuli\	1	867.6	1	702	1	966.6	1	641.3	1	939.9	1	751.4	1	909.7	1	746.9	13	322338	2	322326	27	40	322365	-999999	322341	0	24	TrialsPROC	TO_016_TOOL16_BA.png	2	2	5	SessionSelectionList														nonlure	3	Tools	2-Back	4	80	3	0	0	0	3	39	46810	2	14	59	44771	-1	45850	1	1079	3	3	2039	53	46824	-54	0																5												
WM080112	161731_fnca	2	1	1	215527562	1	75.031	75.031	2.0.10.147	2.0.10.242	2.0.10.242	1.0.0.439	7	234	2	3	Verdana	1	80	0	0	0	WM Stimuli\	1	867.6	1	702	1	966.6	1	641.3	1	939.9	1	751.4	1	909.7	1	746.9	13	322338	2	322326	27	40	322365	-999999	322341	0	24	TrialsPROC	TO_014_TOOL14_BA.png	2	2	6	SessionSelectionList														lure	3	Tools	2-Back	5	80	4	0	0	0	4	39	49382	2	14	72	47343	-1	48461	1	1118	3	3	2039	53	49396	-54	0																6												
WM080112	161731_fnca	2	1	1	215527562	1	75.031	75.031	2.0.10.147	2.0.10.242	2.0.10.242	1.0.0.439	7	234	2	3	Verdana	1	80	0	0	0	WM Stimuli\	1	867.6	1	702	1	966.6	1	641.3	1	939.9	1	751.4	1	909.7	1	746.9	13	322338	2	322326	27	40	322365	-999999	322341	0	24	TrialsPROC	TO_016_TOOL16_BA.png	2	2	7	SessionSelectionList														target	2	Tools	2-Back	6	80	5	0	0	0	1	38	51941	2	14	60	49903	-1	50783	1	880	2	2	2038	52	51955	-53	0																7												
WM080112	161731_fnca	2	1	1	215527562	1	75.031	75.031	2.0.10.147	2.0.10.242	2.0.10.242	1.0.0.439	7	234	2	3	Verdana	1	80	0	0	0	WM Stimuli\	1	867.6	1	702	1	966.6	1	641.3	1	939.9	1	751.4	1	909.7	1	746.9	13	322338	2	322326	27	40	322365	-999999	322341	0	24	TrialsPROC	TO_018_TOOL18_BA.png	2	2	8	SessionSelectionList														nonlure	3	Tools	2-Back	7	80	6	0	0	0	1	39	54500	2	14	58	52461	-1	53301	1	840	3	3	2039	53	54514	-54	0																8												
WM080112	161731_fnca	2	1	1	215527562	1	75.031	75.031	2.0.10.147	2.0.10.242	2.0.10.242	1.0.0.439	7	234	2	3	Verdana	1	80	0	0	0	WM Stimuli\	1	867.6	1	702	1	966.6	1	641.3	1	939.9	1	751.4	1	909.7	1	746.9	13	322338	2	322326	27	40	322365	-999999	322341	0	24	TrialsPROC	TO_017_TOOL17_BA.png	2	2	9	SessionSelectionList														nonlure	3	Tools	2-Back	8	80	7	0	0	0	2	39	57059	2	14	59	55020	-1	55936	1	916	3	3	2039	53	57073	-54	0																9												
WM080112	161731_fnca	2	1	1	215527562	1	75.031	75.031	2.0.10.147	2.0.10.242	2.0.10.242	1.0.0.439	7	234	2	3	Verdana	1	80	0	0	0	WM Stimuli\	1	867.6	1	702	1	966.6	1	641.3	1	939.9	1	751.4	1	909.7	1	746.9	13	322338	2	322326	27	40	322365	-999999	322341	0	24	TrialsPROC	TO_018_TOOL18_BA.png	2	2	10	SessionSelectionList														target	2	Tools	2-Back	9	80	8	0	0	0	1	39	59618	2	14	59	57579	-1	58192	1	613	2	2	2039	53	59632	-54	0																10												
WM080112	161731_fnca	2	1	1	215527562	1	75.031	75.031	2.0.10.147	2.0.10.242	2.0.10.242	1.0.0.439	7	234	2	3	Verdana	1	80	0	0	0	WM Stimuli\	1	867.6	1	702	1	966.6	1	641.3	1	939.9	1	751.4	1	909.7	1	746.9	13	322338	2	322326	27	40	322365	-999999	322341	0	24	TrialsPROC	TO_015_TOOL15_BA.png	2	2	11	SessionSelectionList														nonlure	3	Tools	2-Back	10	80	9	0	0	0	1	39	62177	2	14	59	60138	-1	60865	1	727	3	3	2039	53	62191	-54	0																11												
WM080112	161731_fnca	2	1	1	215527562	1	75.031	75.031	2.0.10.147	2.0.10.242	2.0.10.242	1.0.0.439	7	234	2	3	Verdana	1	80	0	0	0	WM Stimuli\	1	867.6	1	702	1	966.6	1	641.3	1	939.9	1	751.4	1	909.7	1	746.9	13	322338	2	322326	27	40	322365	-999999	322341	0	24	TrialsPROC	TO_017_TOOL17_BA.png	2	2	12	SessionSelectionList														lure	3	Tools	2-Back	11	80	10	0	0	0	2	39	64736	2	14	59	62697	-1	63583	1	886	3	3	2039	53	64750	-54	0																12												
WM080112	161731_fnca	2	1	1	215527562	1	75.031	75.031	2.0.10.147	2.0.10.242	2.0.10.242	1.0.0.439	7	234	2	3	Verdana	1	80	0	0	0	WM Stimuli\	1	867.6	1	702	1	966.6	1	641.3	1	939.9	1	751.4	1	909.7	1	746.9	13	322338	2	322326	27	40	322365	-999999	322341	0	25	Cue0BackPROC	BP_013_BP7_BA.png	2	2	13	SessionSelectionList																																										19	65216	-20	0												13												
WM080112	161731_fnca	2	1	1	215527562	1	75.031	75.031	2.0.10.147	2.0.10.242	2.0.10.242	1.0.0.439	7	234	2	3	Verdana	1	80	0	0	0	WM Stimuli\	1	867.6	1	702	1	966.6	1	641.3	1	939.9	1	751.4	1	909.7	1	746.9	13	322338	2	322326	27	40	322365	-999999	322341	0	26	TrialsPROC	BP_015_H10-T_BA.png	2	2	14	SessionSelectionList														nonlure	3	Body	0-Back	12	80	11	0	0	100	3	38	69787	2	14	52	67749	-1	68676	1	927	3	3	2038	52	69801	-53	0																14												
WM080112	161731_fnca	2	1	1	215527562	1	75.031	75.031	2.0.10.147	2.0.10.242	2.0.10.242	1.0.0.439	7	234	2	3	Verdana	1	80	0	0	0	WM Stimuli\	1	867.6	1	702	1	966.6	1	641.3	1	939.9	1	751.4	1	909.7	1	746.9	13	322338	2	322326	27	40	322365	-999999	322341	0	26	TrialsPROC	BP_018_H13-T_BA.png	2	2	15	SessionSelectionList														nonlure	3	Body	0-Back	13	80	12	0	0	100	4	39	72346	2	14	58	70307	-1	71147	1	840	3	3	2039	53	72360	-54	0																15												
WM080112	161731_fnca	2	1	1	215527562	1	75.031	75.031	2.0.10.147	2.0.10.242	2.0.10.242	1.0.0.439	7	234	2	3	Verdana	1	80	0	0	0	WM Stimuli\	1	867.6	1	702	1	966.6	1	641.3	1	939.9	1	751.4	1	909.7	1	746.9	13	322338	2	322326	27	40	322365	-999999	322341	0	26	TrialsPROC	BP_014_BP9_BA.png	2	2	16	SessionSelectionList														nonlure	3	Body	0-Back	14	80	13	0	0	100	5	39	74905	2	14	59	72866	-1	73539	1	673	3	3	2039	53	74919	-54	0																16												
WM080112	161731_fnca	2	1	1	215527562	1	75.031	75.031	2.0.10.147	2.0.10.242	2.0.10.242	1.0.0.439	7	234	2	3	Verdana	1	80	0	0	0	WM Stimuli\	1	867.6	1	702	1	966.6	1	641.3	1	939.9	1	751.4	1	909.7	1	746.9	13	322338	2	322326	27	40	322365	-999999	322341	0	26	TrialsPROC	BP_018_H13-T_BA.png	2	2	17	SessionSelectionList														lure	3	Body	0-Back	15	80	14	0	0	100	6	39	77464	2	14	59	75425	-1	76050	1	625	3	3	2039	53	77478	-54	0																17												
WM080112	161731_fnca	2	1	1	215527562	1	75.031	75.031	2.0.10.147	2.0.10.242	2.0.10.242	1.0.0.439	7	234	2	3	Verdana	1	80	0	0	0	WM Stimuli\	1	867.6	1	702	1	966.6	1	641.3	1	939.9	1	751.4	1	909.7	1	746.9	13	322338	2	322326	27	40	322365	-999999	322341	0	26	TrialsPROC	BP_013_BP7_BA.png	2	2	18	SessionSelectionList														target	2	Body	0-Back	16	80	15	0	0	100	1	38	80023	2	14	60	77985	-1	78751	1	766	2	2	2038	52	80037	-53	0																18												
WM080112	161731_fnca	2	1	1	215527562	1	75.031	75.031	2.0.10.147	2.0.10.242	2.0.10.242	1.0.0.439	7	234	2	3	Verdana	1	80	0	0	0	WM Stimuli\	1	867.6	1	702	1	966.6	1	641.3	1	939.9	1	751.4	1	909.7	1	746.9	13	322338	2	322326	27	40	322365	-999999	322341	0	26	TrialsPROC	BP_015_H10-T_BA.png	2	2	19	SessionSelectionList														lure	3	Body	0-Back	17	80	16	0	0	100	1	39	82582	2	14	58	80543	-1	81199	1	656	3	3	2039	53	82596	-54	0																19												
WM080112	161731_fnca	2	1	1	215527562	1	75.031	75.031	2.0.10.147	2.0.10.242	2.0.10.242	1.0.0.439	7	234	2	3	Verdana	1	80	0	0	0	WM Stimuli\	1	867.6	1	702	1	966.6	1	641.3	1	939.9	1	751.4	1	909.7	1	746.9	13	322338	2	322326	27	40	322365	-999999	322341	0	26	TrialsPROC	BP_016_H11-T_BA.png	2	2	20	SessionSelectionList														nonlure	3	Body	0-Back	18	80	17	0	0	100	2	39	85141	2	14	59	83102	-1	83678	1	576	3	3	2039	53	85155	-54	0																20												
WM080112	161731_fnca	2	1	1	215527562	1	75.031	75.031	2.0.10.147	2.0.10.242	2.0.10.242	1.0.0.439	7	234	2	3	Verdana	1	80	0	0	0	WM Stimuli\	1	867.6	1	702	1	966.6	1	641.3	1	939.9	1	751.4	1	909.7	1	746.9	13	322338	2	322326	27	40	322365	-999999	322341	0	26	TrialsPROC	BP_013_BP7_BA.png	2	2	21	SessionSelectionList														target	2	Body	0-Back	19	80	18	0	0	100	1	39	87700	1	14	59	85661	-1	86454	1	793	2	2	2039	53	87714	-54	0																21												
WM080112	161731_fnca	2	1	1	215527562	1	75.031	75.031	2.0.10.147	2.0.10.242	2.0.10.242	1.0.0.439	7	234	2	3	Verdana	1	80	0	0	0	WM Stimuli\	1	867.6	1	702	1	966.6	1	641.3	1	939.9	1	751.4	1	909.7	1	746.9	13	322338	2	322326	27	40	322365	-999999	322341	0	26	TrialsPROC	BP_017_H12-T_BA.png	2	2	22	SessionSelectionList														nonlure	3	Body	0-Back	20	80	19	0	0	100	1	39	90259	1	14	59	88220	-1	88750	1	530	3	3	2039	53	90273	-54	0																22												
WM080112	161731_fnca	2	1	1	215527562	1	75.031	75.031	2.0.10.147	2.0.10.242	2.0.10.242	1.0.0.439	7	234	2	3	Verdana	1	80	0	0	0	WM Stimuli\	1	867.6	1	702	1	966.6	1	641.3	1	939.9	1	751.4	1	909.7	1	746.9	13	322338	2	322326	27	40	322365	-999999	322341	0	26	TrialsPROC	BP_014_BP9_BA.png	2	2	23	SessionSelectionList														lure	3	Body	0-Back	21	80	20	0	0	100	2	39	92818	1	13	59	90779	-1	91413	1	634	3	3	2039	52	92831	-53	0																23												
WM080112	161731_fnca	2	1	1	215527562	1	75.031	75.031	2.0.10.147	2.0.10.242	2.0.10.242	1.0.0.439	7	234	2	3	Verdana	1	80	0	0	0	WM Stimuli\	1	867.6	1	702	1	966.6	1	641.3	1	939.9	1	751.4	1	909.7	1	746.9	13	322338	2	322326	27	40	322365	-999999	322341	0	27	Fix15secPROC	""	2	2	24	SessionSelectionList																																															6	93285	-7	0							24												
WM080112	161731_fnca	2	1	1	215527562	1	75.031	75.031	2.0.10.147	2.0.10.242	2.0.10.242	1.0.0.439	7	234	2	3	Verdana	1	80	0	0	0	WM Stimuli\	1	867.6	1	702	1	966.6	1	641.3	1	939.9	1	751.4	1	909.7	1	746.9	13	322338	2	322326	27	40	322365	-999999	322341	0	28	Cue2BackPROC	""	2	2	25	SessionSelectionList									13	108292	-14	0																																													25												
WM080112	161731_fnca	2	1	1	215527562	1	75.031	75.031	2.0.10.147	2.0.10.242	2.0.10.242	1.0.0.439	7	234	2	3	Verdana	1	80	0	0	0	WM Stimuli\	1	867.6	1	702	1	966.6	1	641.3	1	939.9	1	751.4	1	909.7	1	746.9	13	322338	2	322326	27	40	322365	-999999	322341	0	29	TrialsPROC	FC_015_M8.png	2	2	26	SessionSelectionList														nonlure	3	Face	2-Back	22	80	21	0	0	100	3	39	112890	1	13	72	110851	-1	111914	1	1063	3	3	2039	52	112903	-53	0																26												
WM080112	161731_fnca	2	1	1	215527562	1	75.031	75.031	2.0.10.147	2.0.10.242	2.0.10.242	1.0.0.439	7	234	2	3	Verdana	1	80	0	0	0	WM Stimuli\	1	867.6	1	702	1	966.6	1	641.3	1	939.9	1	751.4	1	909.7	1	746.9	13	322338	2	322326	27	40	322365	-999999	322341	0	29	TrialsPROC	FC_018_F9.png	2	2	27	SessionSelectionList														nonlure	3	Face	2-Back	23	80	22	0	0	100	4	39	115462	2	14	72	113423	-1	114692	1	1269	3	3	2039	53	115476	-54	0																27												
WM080112	161731_fnca	2	1	1	215527562	1	75.031	75.031	2.0.10.147	2.0.10.242	2.0.10.242	1.0.0.439	7	234	2	3	Verdana	1	80	0	0	0	WM Stimuli\	1	867.6	1	702	1	966.6	1	641.3	1	939.9	1	751.4	1	909.7	1	746.9	13	322338	2	322326	27	40	322365	-999999	322341	0	29	TrialsPROC	FC_018_F9.png	2	2	28	SessionSelectionList														lure	3	Face	2-Back	24	80	23	0	0	100	5	39	118034	2	14	72	115995	-1	116817	1	822	3	3	2039	53	118048	-54	0																28												
WM080112	161731_fnca	2	1	1	215527562	1	75.031	75.031	2.0.10.147	2.0.10.242	2.0.10.242	1.0.0.439	7	234	2	3	Verdana	1	80	0	0	0	WM Stimuli\	1	867.6	1	702	1	966.6	1	641.3	1	939.9	1	751.4	1	909.7	1	746.9	13	322338	2	322326	27	40	322365	-999999	322341	0	29	TrialsPROC	FC_017_M9.png	2	2	29	SessionSelectionList														nonlure	3	Face	2-Back	25	80	24	0	0	100	6	39	120607	1	13	73	118568	-1	119563	1	995	3	3	2039	52	120620	-53	0																29												
WM080112	161731_fnca	2	1	1	215527562	1	75.031	75.031	2.0.10.147	2.0.10.242	2.0.10.242	1.0.0.439	7	234	2	3	Verdana	1	80	0	0	0	WM Stimuli\	1	867.6	1	702	1	966.6	1	641.3	1	939.9	1	751.4	1	909.7	1	746.9	13	322338	2	322326	27	40	322365	-999999	322341	0	29	TrialsPROC	FC_017_M9.png	2	2	30	SessionSelectionList														lure	3	Face	2-Back	26	80	25	0	0	100	7	39	123179	1	13	72	121140	-1	122219	1	1079	3	3	2039	52	123192	-53	0																30												
WM080112	161731_fnca	2	1	1	215527562	1	75.031	75.031	2.0.10.147	2.0.10.242	2.0.10.242	1.0.0.439	7	234	2	3	Verdana	1	80	0	0	0	WM Stimuli\	1	867.6	1	702	1	966.6	1	641.3	1	939.9	1	751.4	1	909.7	1	746.9	13	322338	2	322326	27	40	322365	-999999	322341	0	29	TrialsPROC	FC_016_F8.png	2	2	31	SessionSelectionList														nonlure	3	Face	2-Back	27	80	26	0	0	100	8	39	125751	2	14	72	123712	-1	124586	1	874	3	3	2039	53	125765	-54	0																31												
WM080112	161731_fnca	2	1	1	215527562	1	75.031	75.031	2.0.10.147	2.0.10.242	2.0.10.242	1.0.0.439	7	234	2	3	Verdana	1	80	0	0	0	WM Stimuli\	1	867.6	1	702	1	966.6	1	641.3	1	939.9	1	751.4	1	909.7	1	746.9	13	322338	2	322326	27	40	322365	-999999	322341	0	29	TrialsPROC	FC_013_M7.png	2	2	32	SessionSelectionList														nonlure	3	Face	2-Back	28	80	27	0	0	100	9	40	128324	1	13	72	126284	-1	127264	1	980	3	3	2040	53	128337	-54	0																32												
WM080112	161731_fnca	2	1	1	215527562	1	75.031	75.031	2.0.10.147	2.0.10.242	2.0.10.242	1.0.0.439	7	234	2	3	Verdana	1	80	0	0	0	WM Stimuli\	1	867.6	1	702	1	966.6	1	641.3	1	939.9	1	751.4	1	909.7	1	746.9	13	322338	2	322326	27	40	322365	-999999	322341	0	29	TrialsPROC	FC_014_F7.png	2	2	33	SessionSelectionList														nonlure	3	Face	2-Back	29	80	28	0	0	100	10	39	130896	1	13	73	128857	-1	129773	1	916	3	3	2039	52	130909	-53	0																33												
WM080112	161731_fnca	2	1	1	215527562	1	75.031	75.031	2.0.10.147	2.0.10.242	2.0.10.242	1.0.0.439	7	234	2	3	Verdana	1	80	0	0	0	WM Stimuli\	1	867.6	1	702	1	966.6	1	641.3	1	939.9	1	751.4	1	909.7	1	746.9	13	322338	2	322326	27	40	322365	-999999	322341	0	29	TrialsPROC	FC_013_M7.png	2	2	34	SessionSelectionList														target	2	Face	2-Back	30	80	29	0	0	100	1	39	133468	1	14	72	131429	-1	132246	1	817	2	2	2039	53	133482	-54	0																34												
WM080112	161731_fnca	2	1	1	215527562	1	75.031	75.031	2.0.10.147	2.0.10.242	2.0.10.242	1.0.0.439	7	234	2	3	Verdana	1	80	0	0	0	WM Stimuli\	1	867.6	1	702	1	966.6	1	641.3	1	939.9	1	751.4	1	909.7	1	746.9	13	322338	2	322326	27	40	322365	-999999	322341	0	29	TrialsPROC	FC_014_F7.png	2	2	35	SessionSelectionList														target	2	Face	2-Back	31	80	30	0	0	100	2	39	136040	2	14	72	134001	-1	134852	1	851	2	2	2039	53	136054	-54	0																35												
WM080112	161731_fnca	2	1	1	215527562	1	75.031	75.031	2.0.10.147	2.0.10.242	2.0.10.242	1.0.0.439	7	234	2	3	Verdana	1	80	0	0	0	WM Stimuli\	1	867.6	1	702	1	966.6	1	641.3	1	939.9	1	751.4	1	909.7	1	746.9	13	322338	2	322326	27	40	322365	-999999	322341	0	30	Cue0BackPROC	TO_019_TOOL19_BA.png	2	2	36	SessionSelectionList																																										19	136520	-20	0												36												
WM080112	161731_fnca	2	1	1	215527562	1	75.031	75.031	2.0.10.147	2.0.10.242	2.0.10.242	1.0.0.439	7	234	2	3	Verdana	1	80	0	0	0	WM Stimuli\	1	867.6	1	702	1	966.6	1	641.3	1	939.9	1	751.4	1	909.7	1	746.9	13	322338	2	322326	27	40	322365	-999999	322341	0	31	TrialsPROC	TO_019_TOOL19_BA.png	2	2	37	SessionSelectionList														target	2	Tools	0-Back	32	80	31	0	0	100	3	39	141092	1	13	52	139053	-1	140217	1	1164	2	2	2039	52	141105	-53	0																37												
WM080112	161731_fnca	2	1	1	215527562	1	75.031	75.031	2.0.10.147	2.0.10.242	2.0.10.242	1.0.0.439	7	234	2	3	Verdana	1	80	0	0	0	WM Stimuli\	1	867.6	1	702	1	966.6	1	641.3	1	939.9	1	751.4	1	909.7	1	746.9	13	322338	2	322326	27	40	322365	-999999	322341	0	31	TrialsPROC	TO_024_TOOL24_BA.png	2	2	38	SessionSelectionList														nonlure	3	Tools	0-Back	33	80	32	0	0	100	1	40	143651	1	13	58	141611	-1	142346	1	735	3	3	2040	53	143664	-54	0																38												
WM080112	161731_fnca	2	1	1	215527562	1	75.031	75.031	2.0.10.147	2.0.10.242	2.0.10.242	1.0.0.439	7	234	2	3	Verdana	1	80	0	0	0	WM Stimuli\	1	867.6	1	702	1	966.6	1	641.3	1	939.9	1	751.4	1	909.7	1	746.9	13	322338	2	322326	27	40	322365	-999999	322341	0	31	TrialsPROC	TO_019_TOOL19_BA.png	2	2	39	SessionSelectionList														target	2	Tools	0-Back	34	80	33	0	0	100	1	40	146210	1	13	59	144170	-1	144797	1	627	2	2	2040	53	146223	-54	0																39												
WM080112	161731_fnca	2	1	1	215527562	1	75.031	75.031	2.0.10.147	2.0.10.242	2.0.10.242	1.0.0.439	7	234	2	3	Verdana	1	80	0	0	0	WM Stimuli\	1	867.6	1	702	1	966.6	1	641.3	1	939.9	1	751.4	1	909.7	1	746.9	13	322338	2	322326	27	40	322365	-999999	322341	0	31	TrialsPROC	TO_023_TOOL23_BA.png	2	2	40	SessionSelectionList														nonlure	3	Tools	0-Back	35	80	34	0	0	100	1	40	148769	1	13	59	146729	-1	147296	1	567	3	3	2040	53	148782	-54	0																40												
WM080112	161731_fnca	2	1	1	215527562	1	75.031	75.031	2.0.10.147	2.0.10.242	2.0.10.242	1.0.0.439	7	234	2	3	Verdana	1	80	0	0	0	WM Stimuli\	1	867.6	1	702	1	966.6	1	641.3	1	939.9	1	751.4	1	909.7	1	746.9	13	322338	2	322326	27	40	322365	-999999	322341	0	31	TrialsPROC	TO_020_TOOL20_BA.png	2	2	41	SessionSelectionList														nonlure	3	Tools	0-Back	36	80	35	0	0	100	2	40	151328	1	13	59	149288	-1	149880	1	592	3	3	2040	53	151341	-54	0																41												
WM080112	161731_fnca	2	1	1	215527562	1	75.031	75.031	2.0.10.147	2.0.10.242	2.0.10.242	1.0.0.439	7	234	2	3	Verdana	1	80	0	0	0	WM Stimuli\	1	867.6	1	702	1	966.6	1	641.3	1	939.9	1	751.4	1	909.7	1	746.9	13	322338	2	322326	27	40	322365	-999999	322341	0	31	TrialsPROC	TO_020_TOOL20_BA.png	2	2	42	SessionSelectionList														lure	3	Tools	0-Back	37	80	36	0	0	100	3	39	153886	2	14	59	151847	-1	152548	1	701	3	3	2039	53	153900	-54	0																42												
WM080112	161731_fnca	2	1	1	215527562	1	75.031	75.031	2.0.10.147	2.0.10.242	2.0.10.242	1.0.0.439	7	234	2	3	Verdana	1	80	0	0	0	WM Stimuli\	1	867.6	1	702	1	966.6	1	641.3	1	939.9	1	751.4	1	909.7	1	746.9	13	322338	2	322326	27	40	322365	-999999	322341	0	31	TrialsPROC	TO_022_TOOL22_BA.png	2	2	43	SessionSelectionList														nonlure	3	Tools	0-Back	38	80	37	0	0	100	4	39	156445	2	14	59	154406	-1	155122	1	716	3	3	2039	53	156459	-54	0																43												
WM080112	161731_fnca	2	1	1	215527562	1	75.031	75.031	2.0.10.147	2.0.10.242	2.0.10.242	1.0.0.439	7	234	2	3	Verdana	1	80	0	0	0	WM Stimuli\	1	867.6	1	702	1	966.6	1	641.3	1	939.9	1	751.4	1	909.7	1	746.9	13	322338	2	322326	27	40	322365	-999999	322341	0	31	TrialsPROC	TO_022_TOOL22_BA.png	2	2	44	SessionSelectionList														lure	3	Tools	0-Back	39	80	38	0	0	100	5	39	159004	2	14	59	156965	-1	157704	1	739	3	3	2039	53	159018	-54	0																44												
WM080112	161731_fnca	2	1	1	215527562	1	75.031	75.031	2.0.10.147	2.0.10.242	2.0.10.242	1.0.0.439	7	234	2	3	Verdana	1	80	0	0	0	WM Stimuli\	1	867.6	1	702	1	966.6	1	641.3	1	939.9	1	751.4	1	909.7	1	746.9	13	322338	2	322326	27	40	322365	-999999	322341	0	31	TrialsPROC	TO_021_TOOL21_BA.png	2	2	45	SessionSelectionList														nonlure	3	Tools	0-Back	40	80	39	0	0	100	6	39	161563	2	14	59	159524	-1	160217	1	693	3	3	2039	53	161577	-54	0																45												
WM080112	161731_fnca	2	1	1	215527562	1	75.031	75.031	2.0.10.147	2.0.10.242	2.0.10.242	1.0.0.439	7	234	2	3	Verdana	1	80	0	0	0	WM Stimuli\	1	867.6	1	702	1	966.6	1	641.3	1	939.9	1	751.4	1	909.7	1	746.9	13	322338	2	322326	27	40	322365	-999999	322341	0	31	TrialsPROC	TO_021_TOOL21_BA.png	2	2	46	SessionSelectionList														lure	3	Tools	0-Back	41	80	40	0	0	100	7	39	164122	2	14	59	162083	-1	163018	1	935	3	3	2039	53	164136	-54	0																46												
WM080112	161731_fnca	2	1	1	215527562	1	75.031	75.031	2.0.10.147	2.0.10.242	2.0.10.242	1.0.0.439	7	234	2	3	Verdana	1	80	0	0	0	WM Stimuli\	1	867.6	1	702	1	966.6	1	641.3	1	939.9	1	751.4	1	909.7	1	746.9	13	322338	2	322326	27	40	322365	-999999	322341	0	32	Fix15secPROC	""	2	2	47	SessionSelectionList																																															6	164589	-7	0							47												
WM080112	161731_fnca	2	1	1	215527562	1	75.031	75.031	2.0.10.147	2.0.10.242	2.0.10.242	1.0.0.439	7	234	2	3	Verdana	1	80	0	0	0	WM Stimuli\	1	867.6	1	702	1	966.6	1	641.3	1	939.9	1	751.4	1	909.7	1	746.9	13	322338	2	322326	27	40	322365	-999999	322341	0	33	Cue2BackPROC	""	2	2	48	SessionSelectionList									13	179596	-14	0																																													48												
WM080112	161731_fnca	2	1	1	215527562	1	75.031	75.031	2.0.10.147	2.0.10.242	2.0.10.242	1.0.0.439	7	234	2	3	Verdana	1	80	0	0	0	WM Stimuli\	1	867.6	1	702	1	966.6	1	641.3	1	939.9	1	751.4	1	909.7	1	746.9	13	322338	2	322326	27	40	322365	-999999	322341	0	34	TrialsPROC	BP_020_H17-T_BA.png	2	2	49	SessionSelectionList														nonlure	3	Body	2-Back	42	80	41	0	0	100	8	39	184181	1	13	59	182142	-1	183190	1	1048	3	3	2039	52	184194	-53	0																49												
WM080112	161731_fnca	2	1	1	215527562	1	75.031	75.031	2.0.10.147	2.0.10.242	2.0.10.242	1.0.0.439	7	234	2	3	Verdana	1	80	0	0	0	WM Stimuli\	1	867.6	1	702	1	966.6	1	641.3	1	939.9	1	751.4	1	909.7	1	746.9	13	322338	2	322326	27	40	322365	-999999	322341	0	34	TrialsPROC	BP_019_H14-T_BA.png	2	2	50	SessionSelectionList														nonlure	3	Body	2-Back	43	80	42	0	0	100	9	39	186740	1	13	59	184701	-1	185575	1	874	3	3	2039	52	186753	-53	0																50												
WM080112	161731_fnca	2	1	1	215527562	1	75.031	75.031	2.0.10.147	2.0.10.242	2.0.10.242	1.0.0.439	7	234	2	3	Verdana	1	80	0	0	0	WM Stimuli\	1	867.6	1	702	1	966.6	1	641.3	1	939.9	1	751.4	1	909.7	1	746.9	13	322338	2	322326	27	40	322365	-999999	322341	0	34	TrialsPROC	BP_020_H17-T_BA.png	2	2	51	SessionSelectionList														target	2	Body	2-Back	44	80	43	0	0	100	1	39	189299	1	13	59	187260	-1	187936	1	676	2	2	2039	52	189312	-53	0																51												
WM080112	161731_fnca	2	1	1	215527562	1	75.031	75.031	2.0.10.147	2.0.10.242	2.0.10.242	1.0.0.439	7	234	2	3	Verdana	1	80	0	0	0	WM Stimuli\	1	867.6	1	702	1	966.6	1	641.3	1	939.9	1	751.4	1	909.7	1	746.9	13	322338	2	322326	27	40	322365	-999999	322341	0	34	TrialsPROC	BP_019_H14-T_BA.png	2	2	52	SessionSelectionList														target	2	Body	2-Back	45	80	44	0	0	100	2	39	191858	1	13	59	189819	-1	190507	1	688	2	2	2039	52	191871	-53	0																52												
WM080112	161731_fnca	2	1	1	215527562	1	75.031	75.031	2.0.10.147	2.0.10.242	2.0.10.242	1.0.0.439	7	234	2	3	Verdana	1	80	0	0	0	WM Stimuli\	1	867.6	1	702	1	966.6	1	641.3	1	939.9	1	751.4	1	909.7	1	746.9	13	322338	2	322326	27	40	322365	-999999	322341	0	34	TrialsPROC	BP_024_H3-T_BA.png	2	2	53	SessionSelectionList														nonlure	3	Body	2-Back	46	80	45	0	0	100	1	39	194417	1	13	59	192378	-1	193221	1	843	3	3	2039	52	194430	-53	0																53												
WM080112	161731_fnca	2	1	1	215527562	1	75.031	75.031	2.0.10.147	2.0.10.242	2.0.10.242	1.0.0.439	7	234	2	3	Verdana	1	80	0	0	0	WM Stimuli\	1	867.6	1	702	1	966.6	1	641.3	1	939.9	1	751.4	1	909.7	1	746.9	13	322338	2	322326	27	40	322365	-999999	322341	0	34	TrialsPROC	BP_024_H3-T_BA.png	2	2	54	SessionSelectionList														lure	3	Body	2-Back	47	80	46	0	0	100	2	39	196976	1	13	59	194937	-1	195869	1	932	3	3	2039	52	196989	-53	0																54												
WM080112	161731_fnca	2	1	1	215527562	1	75.031	75.031	2.0.10.147	2.0.10.242	2.0.10.242	1.0.0.439	7	234	2	3	Verdana	1	80	0	0	0	WM Stimuli\	1	867.6	1	702	1	966.6	1	641.3	1	939.9	1	751.4	1	909.7	1	746.9	13	322338	2	322326	27	40	322365	-999999	322341	0	34	TrialsPROC	BP_025_H5-T_BA.png	2	2	55	SessionSelectionList														nonlure	3	Body	2-Back	48	80	47	0	0	100	3	40	199535	1	13	58	197495	-1	198514	1	1019	3	3	2040	53	199548	-54	0																55												
WM080112	161731_fnca	2	1	1	215527562	1	75.031	75.031	2.0.10.147	2.0.10.242	2.0.10.242	1.0.0.439	7	234	2	3	Verdana	1	80	0	0	0	WM Stimuli\	1	867.6	1	702	1	966.6	1	641.3	1	939.9	1	751.4	1	909.7	1	746.9	13	322338	2	322326	27	40	322365	-999999	322341	0	34	TrialsPROC	BP_023_H25-T_BA.png	2	2	56	SessionSelectionList														nonlure	3	Body	2-Back	49	80	48	0	0	100	4	39	202094	1	13	60	200055	-1	200757	1	702	3	3	2039	52	202107	-53	0																56												
WM080112	161731_fnca	2	1	1	215527562	1	75.031	75.031	2.0.10.147	2.0.10.242	2.0.10.242	1.0.0.439	7	234	2	3	Verdana	1	80	0	0	0	WM Stimuli\	1	867.6	1	702	1	966.6	1	641.3	1	939.9	1	751.4	1	909.7	1	746.9	13	322338	2	322326	27	40	322365	-999999	322341	0	34	TrialsPROC	BP_022_H24-T_BA.png	2	2	57	SessionSelectionList														nonlure	3	Body	2-Back	50	80	49	0	0	100	5	39	204652	2	14	58	202613	-1	203563	1	950	3	3	2039	53	204666	-54	0																57												
WM080112	161731_fnca	2	1	1	215527562	1	75.031	75.031	2.0.10.147	2.0.10.242	2.0.10.242	1.0.0.439	7	234	2	3	Verdana	1	80	0	0	0	WM Stimuli\	1	867.6	1	702	1	966.6	1	641.3	1	939.9	1	751.4	1	909.7	1	746.9	13	322338	2	322326	27	40	322365	-999999	322341	0	34	TrialsPROC	BP_022_H24-T_BA.png	2	2	58	SessionSelectionList														lure	3	Body	2-Back	51	80	50	0	0	100	6	39	207211	2	14	59	205172	-1	206116	1	944	3	3	2039	53	207225	-54	0																58												
WM080112	161731_fnca	2	1	1	215527562	1	75.031	75.031	2.0.10.147	2.0.10.242	2.0.10.242	1.0.0.439	7	234	2	3	Verdana	1	80	0	0	0	WM Stimuli\	1	867.6	1	702	1	966.6	1	641.3	1	939.9	1	751.4	1	909.7	1	746.9	13	322338	2	322326	27	40	322365	-999999	322341	0	35	Cue2BackPROC	""	2	2	59	SessionSelectionList									6	207678	-7	0																																													59												
WM080112	161731_fnca	2	1	1	215527562	1	75.031	75.031	2.0.10.147	2.0.10.242	2.0.10.242	1.0.0.439	7	234	2	3	Verdana	1	80	0	0	0	WM Stimuli\	1	867.6	1	702	1	966.6	1	641.3	1	939.9	1	751.4	1	909.7	1	746.9	13	322338	2	322326	27	40	322365	-999999	322341	0	36	TrialsPROC	PL_019_SCENE_05.png	2	2	60	SessionSelectionList														nonlure	3	Place	2-Back	52	80	51	0	0	100	7	39	212276	2	13	65	210237	-1	211247	1	1010	3	3	2039	52	212289	-53	0																60												
WM080112	161731_fnca	2	1	1	215527562	1	75.031	75.031	2.0.10.147	2.0.10.242	2.0.10.242	1.0.0.439	7	234	2	3	Verdana	1	80	0	0	0	WM Stimuli\	1	867.6	1	702	1	966.6	1	641.3	1	939.9	1	751.4	1	909.7	1	746.9	13	322338	2	322326	27	40	322365	-999999	322341	0	36	TrialsPROC	PL_017_SCENE_03.png	2	2	61	SessionSelectionList														nonlure	3	Place	2-Back	53	80	52	0	0	100	8	39	214848	2	14	72	212809	-1	213900	1	1091	3	3	2039	53	214862	-54	0																61												
WM080112	161731_fnca	2	1	1	215527562	1	75.031	75.031	2.0.10.147	2.0.10.242	2.0.10.242	1.0.0.439	7	234	2	3	Verdana	1	80	0	0	0	WM Stimuli\	1	867.6	1	702	1	966.6	1	641.3	1	939.9	1	751.4	1	909.7	1	746.9	13	322338	2	322326	27	40	322365	-999999	322341	0	36	TrialsPROC	PL_017_SCENE_03.png	2	2	62	SessionSelectionList														lure	3	Place	2-Back	54	80	53	0	0	100	9	40	217421	1	13	72	215381	-1	216222	1	841	3	3	2040	53	217434	-54	0																62												
WM080112	161731_fnca	2	1	1	215527562	1	75.031	75.031	2.0.10.147	2.0.10.242	2.0.10.242	1.0.0.439	7	234	2	3	Verdana	1	80	0	0	0	WM Stimuli\	1	867.6	1	702	1	966.6	1	641.3	1	939.9	1	751.4	1	909.7	1	746.9	13	322338	2	322326	27	40	322365	-999999	322341	0	36	TrialsPROC	PL_016_SCENE_02.png	2	2	63	SessionSelectionList														nonlure	3	Place	2-Back	55	80	54	0	0	100	10	39	219993	1	13	73	217954	-1	218954	1	1000	3	3	2039	52	220006	-53	0																63												
WM080112	161731_fnca	2	1	1	215527562	1	75.031	75.031	2.0.10.147	2.0.10.242	2.0.10.242	1.0.0.439	7	234	2	3	Verdana	1	80	0	0	0	WM Stimuli\	1	867.6	1	702	1	966.6	1	641.3	1	939.9	1	751.4	1	909.7	1	746.9	13	322338	2	322326	27	40	322365	-999999	322341	0	36	TrialsPROC	PL_015_SCENE_01.png	2	2	64	SessionSelectionList														nonlure	3	Place	2-Back	56	80	55	0	0	100	11	39	222565	2	14	72	220526	-1	221727	1	1201	3	3	2039	53	222579	-54	0																64												
WM080112	161731_fnca	2	1	1	215527562	1	75.031	75.031	2.0.10.147	2.0.10.242	2.0.10.242	1.0.0.439	7	234	2	3	Verdana	1	80	0	0	0	WM Stimuli\	1	867.6	1	702	1	966.6	1	641.3	1	939.9	1	751.4	1	909.7	1	746.9	13	322338	2	322326	27	40	322365	-999999	322341	0	36	TrialsPROC	PL_016_SCENE_02.png	2	2	65	SessionSelectionList														target	2	Place	2-Back	57	80	56	0	0	100	1	39	225137	2	14	72	223098	-1	223739	1	641	2	2	2039	53	225151	-54	0																65												
WM080112	161731_fnca	2	1	1	215527562	1	75.031	75.031	2.0.10.147	2.0.10.242	2.0.10.242	1.0.0.439	7	234	2	3	Verdana	1	80	0	0	0	WM Stimuli\	1	867.6	1	702	1	966.6	1	641.3	1	939.9	1	751.4	1	909.7	1	746.9	13	322338	2	322326	27	40	322365	-999999	322341	0	36	TrialsPROC	PL_015_SCENE_01.png	2	2	66	SessionSelectionList														target	2	Place	2-Back	58	80	57	0	0	100	2	39	227710	1	13	73	225671	-1	226598	1	927	2	2	2039	52	227723	-53	0																66												
WM080112	161731_fnca	2	1	1	215527562	1	75.031	75.031	2.0.10.147	2.0.10.242	2.0.10.242	1.0.0.439	7	234	2	3	Verdana	1	80	0	0	0	WM Stimuli\	1	867.6	1	702	1	966.6	1	641.3	1	939.9	1	751.4	1	909.7	1	746.9	13	322338	2	322326	27	40	322365	-999999	322341	0	36	TrialsPROC	PL_020_SCENE_06.png	2	2	67	SessionSelectionList														nonlure	3	Place	2-Back	59	80	58	0	0	100	1	39	230282	1	13	72	228243	-1	228956	1	713	3	3	2039	52	230295	-53	0																67												
WM080112	161731_fnca	2	1	1	215527562	1	75.031	75.031	2.0.10.147	2.0.10.242	2.0.10.242	1.0.0.439	7	234	2	3	Verdana	1	80	0	0	0	WM Stimuli\	1	867.6	1	702	1	966.6	1	641.3	1	939.9	1	751.4	1	909.7	1	746.9	13	322338	2	322326	27	40	322365	-999999	322341	0	36	TrialsPROC	PL_020_SCENE_06.png	2	2	68	SessionSelectionList														lure	3	Place	2-Back	60	80	59	0	0	100	2	39	232854	2	14	72	230815	-1	231715	1	900	3	3	2039	53	232868	-54	0																68												
WM080112	161731_fnca	2	1	1	215527562	1	75.031	75.031	2.0.10.147	2.0.10.242	2.0.10.242	1.0.0.439	7	234	2	3	Verdana	1	80	0	0	0	WM Stimuli\	1	867.6	1	702	1	966.6	1	641.3	1	939.9	1	751.4	1	909.7	1	746.9	13	322338	2	322326	27	40	322365	-999999	322341	0	36	TrialsPROC	PL_018_SCENE_04.png	2	2	69	SessionSelectionList														nonlure	3	Place	2-Back	61	80	60	0	0	100	3	40	235427	1	13	72	233387	-1	234462	1	1075	3	3	2040	53	235440	-54	0																69												
WM080112	161731_fnca	2	1	1	215527562	1	75.031	75.031	2.0.10.147	2.0.10.242	2.0.10.242	1.0.0.439	7	234	2	3	Verdana	1	80	0	0	0	WM Stimuli\	1	867.6	1	702	1	966.6	1	641.3	1	939.9	1	751.4	1	909.7	1	746.9	13	322338	2	322326	27	40	322365	-999999	322341	0	37	Fix15secPROC	""	2	2	70	SessionSelectionList																																															6	235893	-7	0							70												
WM080112	161731_fnca	2	1	1	215527562	1	75.031	75.031	2.0.10.147	2.0.10.242	2.0.10.242	1.0.0.439	7	234	2	3	Verdana	1	80	0	0	0	WM Stimuli\	1	867.6	1	702	1	966.6	1	641.3	1	939.9	1	751.4	1	909.7	1	746.9	13	322338	2	322326	27	40	322365	-999999	322341	0	38	Cue0BackPROC	FC_020_F10.png	2	2	71	SessionSelectionList																																										14	250901	-15	0												71												
WM080112	161731_fnca	2	1	1	215527562	1	75.031	75.031	2.0.10.147	2.0.10.242	2.0.10.242	1.0.0.439	7	234	2	3	Verdana	1	80	0	0	0	WM Stimuli\	1	867.6	1	702	1	966.6	1	641.3	1	939.9	1	751.4	1	909.7	1	746.9	13	322338	2	322326	27	40	322365	-999999	322341	0	39	TrialsPROC	FC_024_F12.png	2	2	72	SessionSelectionList														nonlure	3	Face	0-Back	62	80	61	0	0	100	4	39	255498	2	14	72	253459	-1	254102	1	643	3	3	2039	53	255512	-54	0																72												
WM080112	161731_fnca	2	1	1	215527562	1	75.031	75.031	2.0.10.147	2.0.10.242	2.0.10.242	1.0.0.439	7	234	2	3	Verdana	1	80	0	0	0	WM Stimuli\	1	867.6	1	702	1	966.6	1	641.3	1	939.9	1	751.4	1	909.7	1	746.9	13	322338	2	322326	27	40	322365	-999999	322341	0	39	TrialsPROC	FC_023_M12.png	2	2	73	SessionSelectionList														nonlure	3	Face	0-Back	63	80	62	0	0	100	5	39	258071	1	13	73	256032	-1	256712	1	680	3	3	2039	52	258084	-53	0																73												
WM080112	161731_fnca	2	1	1	215527562	1	75.031	75.031	2.0.10.147	2.0.10.242	2.0.10.242	1.0.0.439	7	234	2	3	Verdana	1	80	0	0	0	WM Stimuli\	1	867.6	1	702	1	966.6	1	641.3	1	939.9	1	751.4	1	909.7	1	746.9	13	322338	2	322326	27	40	322365	-999999	322341	0	39	TrialsPROC	FC_020_F10.png	2	2	74	SessionSelectionList														target	2	Face	0-Back	64	80	63	0	0	100	1	39	260643	1	13	72	258604	-1	259305	1	701	2	2	2039	52	260656	-53	0																74												
WM080112	161731_fnca	2	1	1	215527562	1	75.031	75.031	2.0.10.147	2.0.10.242	2.0.10.242	1.0.0.439	7	234	2	3	Verdana	1	80	0	0	0	WM Stimuli\	1	867.6	1	702	1	966.6	1	641.3	1	939.9	1	751.4	1	909.7	1	746.9	13	322338	2	322326	27	40	322365	-999999	322341	0	39	TrialsPROC	FC_024_F12.png	2	2	75	SessionSelectionList														lure	3	Face	0-Back	65	80	64	0	0	100	1	39	263215	2	14	72	261176	-1	261653	1	477	3	3	2039	53	263229	-54	0																75												
WM080112	161731_fnca	2	1	1	215527562	1	75.031	75.031	2.0.10.147	2.0.10.242	2.0.10.242	1.0.0.439	7	234	2	3	Verdana	1	80	0	0	0	WM Stimuli\	1	867.6	1	702	1	966.6	1	641.3	1	939.9	1	751.4	1	909.7	1	746.9	13	322338	2	322326	27	40	322365	-999999	322341	0	39	TrialsPROC	FC_020_F10.png	2	2	76	SessionSelectionList														target	2	Face	0-Back	66	80	65	0	0	100	1	40	265788	1	13	72	263748	-1	264517	1	769	2	2	2040	53	265801	-54	0																76												
WM080112	161731_fnca	2	1	1	215527562	1	75.031	75.031	2.0.10.147	2.0.10.242	2.0.10.242	1.0.0.439	7	234	2	3	Verdana	1	80	0	0	0	WM Stimuli\	1	867.6	1	702	1	966.6	1	641.3	1	939.9	1	751.4	1	909.7	1	746.9	13	322338	2	322326	27	40	322365	-999999	322341	0	39	TrialsPROC	FC_022_F11.png	2	2	77	SessionSelectionList														nonlure	3	Face	0-Back	67	80	66	0	0	100	1	39	268360	1	13	73	266321	-1	266769	1	448	3	3	2039	52	268373	-53	0																77												
WM080112	161731_fnca	2	1	1	215527562	1	75.031	75.031	2.0.10.147	2.0.10.242	2.0.10.242	1.0.0.439	7	234	2	3	Verdana	1	80	0	0	0	WM Stimuli\	1	867.6	1	702	1	966.6	1	641.3	1	939.9	1	751.4	1	909.7	1	746.9	13	322338	2	322326	27	40	322365	-999999	322341	0	39	TrialsPROC	FC_023_M12.png	2	2	78	SessionSelectionList														lure	3	Face	0-Back	68	80	67	0	0	100	2	39	270932	1	14	72	268893	-1	269539	1	646	3	3	2039	53	270946	-54	0																78												
WM080112	161731_fnca	2	1	1	215527562	1	75.031	75.031	2.0.10.147	2.0.10.242	2.0.10.242	1.0.0.439	7	234	2	3	Verdana	1	80	0	0	0	WM Stimuli\	1	867.6	1	702	1	966.6	1	641.3	1	939.9	1	751.4	1	909.7	1	746.9	13	322338	2	322326	27	40	322365	-999999	322341	0	39	TrialsPROC	FC_021_M11.png	2	2	79	SessionSelectionList														nonlure	3	Face	0-Back	69	80	68	0	0	100	3	39	273504	2	14	72	271465	-1	272134	1	669	3	3	2039	53	273518	-54	0																79												
WM080112	161731_fnca	2	1	1	215527562	1	75.031	75.031	2.0.10.147	2.0.10.242	2.0.10.242	1.0.0.439	7	234	2	3	Verdana	1	80	0	0	0	WM Stimuli\	1	867.6	1	702	1	966.6	1	641.3	1	939.9	1	751.4	1	909.7	1	746.9	13	322338	2	322326	27	40	322365	-999999	322341	0	39	TrialsPROC	FC_021_M11.png	2	2	80	SessionSelectionList														lure	3	Face	0-Back	70	80	69	0	0	100	4	39	276077	1	13	73	274038	-1	274714	1	676	3	3	2039	52	276090	-53	0																80												
WM080112	161731_fnca	2	1	1	215527562	1	75.031	75.031	2.0.10.147	2.0.10.242	2.0.10.242	1.0.0.439	7	234	2	3	Verdana	1	80	0	0	0	WM Stimuli\	1	867.6	1	702	1	966.6	1	641.3	1	939.9	1	751.4	1	909.7	1	746.9	13	322338	2	322326	27	40	322365	-999999	322341	0	39	TrialsPROC	FC_019_M10.png	2	2	81	SessionSelectionList														nonlure	3	Face	0-Back	71	80	70	0	0	100	5	39	278649	1	13	72	276610	-1	277314	1	704	3	3	2039	52	278662	-53	0																81												
WM080112	161731_fnca	2	1	1	215527562	1	75.031	75.031	2.0.10.147	2.0.10.242	2.0.10.242	1.0.0.439	7	234	2	3	Verdana	1	80	0	0	0	WM Stimuli\	1	867.6	1	702	1	966.6	1	641.3	1	939.9	1	751.4	1	909.7	1	746.9	13	322338	2	322326	27	40	322365	-999999	322341	0	40	Cue0BackPROC	PL_021_SCENE_07.png	2	2	82	SessionSelectionList																																										19	279129	-20	0												82												
WM080112	161731_fnca	2	1	1	215527562	1	75.031	75.031	2.0.10.147	2.0.10.242	2.0.10.242	1.0.0.439	7	234	2	3	Verdana	1	80	0	0	0	WM Stimuli\	1	867.6	1	702	1	966.6	1	641.3	1	939.9	1	751.4	1	909.7	1	746.9	13	322338	2	322326	27	40	322365	-999999	322341	0	41	TrialsPROC	PL_025_SCENE_18.png	2	2	83	SessionSelectionList														nonlure	3	Place	0-Back	72	80	71	0	0	100	6	40	283714	1	13	64	281674	-1	282260	1	586	3	3	2040	53	283727	-54	0																83												
WM080112	161731_fnca	2	1	1	215527562	1	75.031	75.031	2.0.10.147	2.0.10.242	2.0.10.242	1.0.0.439	7	234	2	3	Verdana	1	80	0	0	0	WM Stimuli\	1	867.6	1	702	1	966.6	1	641.3	1	939.9	1	751.4	1	909.7	1	746.9	13	322338	2	322326	27	40	322365	-999999	322341	0	41	TrialsPROC	PL_026_SCENE_24.png	2	2	84	SessionSelectionList														nonlure	3	Place	0-Back	73	80	72	0	0	100	7	39	286286	1	13	73	284247	-1	284857	1	610	3	3	2039	52	286299	-53	0																84												
WM080112	161731_fnca	2	1	1	215527562	1	75.031	75.031	2.0.10.147	2.0.10.242	2.0.10.242	1.0.0.439	7	234	2	3	Verdana	1	80	0	0	0	WM Stimuli\	1	867.6	1	702	1	966.6	1	641.3	1	939.9	1	751.4	1	909.7	1	746.9	13	322338	2	322326	27	40	322365	-999999	322341	0	41	TrialsPROC	PL_025_SCENE_18.png	2	2	85	SessionSelectionList														lure	3	Place	0-Back	74	80	73	0	0	100	8	39	288858	1	14	72	286819	-1	287669	1	850	3	3	2039	53	288872	-54	0																85												
WM080112	161731_fnca	2	1	1	215527562	1	75.031	75.031	2.0.10.147	2.0.10.242	2.0.10.242	1.0.0.439	7	234	2	3	Verdana	1	80	0	0	0	WM Stimuli\	1	867.6	1	702	1	966.6	1	641.3	1	939.9	1	751.4	1	909.7	1	746.9	13	322338	2	322326	27	40	322365	-999999	322341	0	41	TrialsPROC	PL_022_SCENE_08.png	2	2	86	SessionSelectionList														nonlure	3	Place	0-Back	75	80	74	0	0	100	9	39	291430	2	14	72	289391	-1	290588	1	1197	3	3	2039	53	291444	-54	0																86												
WM080112	161731_fnca	2	1	1	215527562	1	75.031	75.031	2.0.10.147	2.0.10.242	2.0.10.242	1.0.0.439	7	234	2	3	Verdana	1	80	0	0	0	WM Stimuli\	1	867.6	1	702	1	966.6	1	641.3	1	939.9	1	751.4	1	909.7	1	746.9	13	322338	2	322326	27	40	322365	-999999	322341	0	41	TrialsPROC	PL_026_SCENE_24.png	2	2	87	SessionSelectionList														lure	3	Place	0-Back	76	80	75	0	0	100	10	39	294003	1	13	73	291964	-1	292720	1	756	3	3	2039	52	294016	-53	0																87												
WM080112	161731_fnca	2	1	1	215527562	1	75.031	75.031	2.0.10.147	2.0.10.242	2.0.10.242	1.0.0.439	7	234	2	3	Verdana	1	80	0	0	0	WM Stimuli\	1	867.6	1	702	1	966.6	1	641.3	1	939.9	1	751.4	1	909.7	1	746.9	13	322338	2	322326	27	40	322365	-999999	322341	0	41	TrialsPROC	PL_021_SCENE_07.png	2	2	88	SessionSelectionList														target	2	Place	0-Back	77	80	76	0	0	100	1	39	296575	1	13	72	294536	-1	295144	1	608	2	2	2039	52	296588	-53	0																88												
WM080112	161731_fnca	2	1	1	215527562	1	75.031	75.031	2.0.10.147	2.0.10.242	2.0.10.242	1.0.0.439	7	234	2	3	Verdana	1	80	0	0	0	WM Stimuli\	1	867.6	1	702	1	966.6	1	641.3	1	939.9	1	751.4	1	909.7	1	746.9	13	322338	2	322326	27	40	322365	-999999	322341	0	41	TrialsPROC	PL_021_SCENE_07.png	2	2	89	SessionSelectionList														target	2	Place	0-Back	78	80	77	0	0	100	2	39	299147	2	14	72	297108	-1	297852	1	744	2	2	2039	53	299161	-54	0																89												
WM080112	161731_fnca	2	1	1	215527562	1	75.031	75.031	2.0.10.147	2.0.10.242	2.0.10.242	1.0.0.439	7	234	2	3	Verdana	1	80	0	0	0	WM Stimuli\	1	867.6	1	702	1	966.6	1	641.3	1	939.9	1	751.4	1	909.7	1	746.9	13	322338	2	322326	27	40	322365	-999999	322341	0	41	TrialsPROC	PL_023_SCENE_09.png	2	2	90	SessionSelectionList														nonlure	3	Place	0-Back	79	80	78	0	0	100	1	40	301720	1	13	72	299680	-1	300246	1	566	3	3	2040	53	301733	-54	0																90												
WM080112	161731_fnca	2	1	1	215527562	1	75.031	75.031	2.0.10.147	2.0.10.242	2.0.10.242	1.0.0.439	7	234	2	3	Verdana	1	80	0	0	0	WM Stimuli\	1	867.6	1	702	1	966.6	1	641.3	1	939.9	1	751.4	1	909.7	1	746.9	13	322338	2	322326	27	40	322365	-999999	322341	0	41	TrialsPROC	PL_024_SCENE_10.png	2	2	91	SessionSelectionList														nonlure	3	Place	0-Back	80	80	79	0	0	100	2	39	304292	1	13	73	302253	-1	303053	1	800	3	3	2039	52	304305	-53	0																91												
WM080112	161731_fnca	2	1	1	215527562	1	75.031	75.031	2.0.10.147	2.0.10.242	2.0.10.242	1.0.0.439	7	234	2	3	Verdana	1	80	0	0	0	WM Stimuli\	1	867.6	1	702	1	966.6	1	641.3	1	939.9	1	751.4	1	909.7	1	746.9	13	322338	2	322326	27	40	322365	-999999	322341	0	41	TrialsPROC	PL_022_SCENE_08.png	2	2	92	SessionSelectionList														lure	3	Place	0-Back	80	80	80	0	0	100	3	39	306864	2	14	72	304825	-1	305622	1	797	3	3	2039	53	306878	-54	0																92												
WM080112	161731_fnca	2	1	1	215527562	1	75.031	75.031	2.0.10.147	2.0.10.242	2.0.10.242	1.0.0.439	7	234	2	3	Verdana	1	80	0	0	0	WM Stimuli\	1	867.6	1	702	1	966.6	1	641.3	1	939.9	1	751.4	1	909.7	1	746.9	13	322338	2	322326	27	40	322365	-999999	322341	0	42	Fix15secPROC	""	2	2	93	SessionSelectionList																																															6	307331	-7	0							93												
