ExperimentName	HCPID	RunNumber	Subject	Session	RandomSeed	Group	Laptop.RefreshRate	ScannerD2.RefreshRate	StudioVersion	RuntimeVersion	RuntimeVersionExpected	ExperimentVersion	triggercode	Allowed	Target	Nontarget	FontStyle	RunTrialNumber[Session]	TrialsPerRun[Session]	TotalRespGreater200[Session]	ConsecRTLess200[Session]	ConsecNonResp[Session]	StimuliDir	ACC_2_Back_Body	Avg_RT_For_Correct_Trials_2_Back_Body	ACC_0_Back_Body	Avg_RT_For_Correct_Trials_0_Back_Body	ACC_2_Back_Face	Avg_RT_For_Correct_Trials_2_Back_Face	ACC_0_Back_Face	Avg_RT_For_Correct_Trials_0_Back_Face	ACC_2_Back_Place	Avg_RT_For_Correct_Trials_2_Back_Place	ACC_0_Back_Place	Avg_RT_For_Correct_Trials_0_Back_Place	ACC_2_Back_Tools	Avg_RT_For_Correct_Trials_2_Back_Tools	ACC_0_Back_Tools	Avg_RT_For_Correct_Trials_0_Back_Tools	ExpInstrucFeelFreeToRest.OnsetDelay	ExpInstrucFeelFreeToRest.OnsetTime	ExpInstrucFeelFreeToRest.DurationError	ExpInstrucFeelFreeToRest.StartTime	ExpInstrucFeelFreeToRest.OnsetToOnsetTime	FeelFreeToRest.OnsetDelay	FeelFreeToRest.OnsetTime	FeelFreeToRest.DurationError	FeelFreeToRest.StartTime	FeelFreeToRest.OnsetToOnsetTime	SessionSelectionList	Procedure[Block]	Stimulus[Block]	RunNumberFilterValue	SessionSelectionList.Cycle	SessionSelectionList.Sample	Running[Block]	IntroButtonMap.OnsetDelay	IntroButtonMap.OnsetTime	IntroButtonMap.DurationError	IntroButtonMap.OnsetToOnsetTime	GetReady.OnsetDelay	GetReady.OnsetTime	GetReady.DurationError	GetReady.OnsetToOnsetTime	Cue2Back.OnsetDelay	Cue2Back.OnsetTime	Cue2Back.DurationError	Cue2Back.OnsetToOnsetTime	Run1Block1	TargetType	CorrectResponse	StimType	BlockType	RunTrialNumber[Block]	TrialsPerRun[Block]	TotalRespGreater200[Block]	ConsecRTLess200[Block]	ConsecNonResp[Block]	ControlAcc	ConsecSameResp	ExperimenterWindow.OnsetDelay	ExperimenterWindow.OnsetTime	ExperimenterWindow.DurationError	ExperimenterWindow.OnsetToOnsetTime	Stim.OnsetDelay	Stim.OnsetTime	Stim.DurationError	Stim.RTTime	Stim.ACC	Stim.RT	Stim.RESP	Stim.CRESP	Stim.OnsetToOnsetTime	Fix.OnsetDelay	Fix.OnsetTime	Fix.DurationError	Fix.OnsetToOnsetTime	CueTarget.OnsetDelay	CueTarget.OnsetTime	CueTarget.DurationError	CueTarget.OnsetToOnsetTime	Run1Block2	Fix15sec.OnsetDelay	Fix15sec.OnsetTime	Fix15sec.DurationError	Fix15sec.OnsetToOnsetTime	Run1Block3	Run1Block4	Run1Block5	Run1Block6	Run1Block7	Run1Block8	Block	Procedure[Trial]	Stimulus[Trial]	ReadyList	Running[Trial]	ReadyList.Cycle	ReadyList.Sample	SyncSlide.OnsetDelay	SyncSlide.OnsetTime	SyncSlide.DurationError	SyncSlide.FinishTime	SyncSlide.OnsetToOnsetTime	Trial
WM080112	120111_fnca	2	1	1	1025080159	1	75.031	75.031	2.0.10.147	2.0.10.242	2.0.10.242	1.0.0.439	7	234	2	3	Verdana	1	80	0	0	0	WM Stimuli\	0.7	853	1	705.7	1	829.2	1	534.3	1	864.7	1	673.4	0.9	807.777777777778	1	655.8	13	316988	2	316976	27	40	317015	-999999	316991	0	22	TRSyncPROC	""	2	2	1	SessionSelectionList	106	6728	-999999	0	41	7368	-999999	0																																																	1	InitialTR	4	1	ReadyList	1	1	12	23481	-13	25468	0	1
WM080112	120111_fnca	2	1	1	1025080159	1	75.031	75.031	2.0.10.147	2.0.10.242	2.0.10.242	1.0.0.439	7	234	2	3	Verdana	1	80	0	0	0	WM Stimuli\	0.7	853	1	705.7	1	829.2	1	534.3	1	864.7	1	673.4	0.9	807.777777777778	1	655.8	13	316988	2	316976	27	40	317015	-999999	316991	0	22	TRSyncPROC	""	2	2	1	SessionSelectionList	106	6728	-999999	0	41	7368	-999999	0																																																	1	InitialTR	3	2	ReadyList	1	2	11	25480	-12	27468	0	2
WM080112	120111_fnca	2	1	1	1025080159	1	75.031	75.031	2.0.10.147	2.0.10.242	2.0.10.242	1.0.0.439	7	234	2	3	Verdana	1	80	0	0	0	WM Stimuli\	0.7	853	1	705.7	1	829.2	1	534.3	1	864.7	1	673.4	0.9	807.777777777778	1	655.8	13	316988	2	316976	27	40	317015	-999999	316991	0	22	TRSyncPROC	""	2	2	1	SessionSelectionList	106	6728	-999999	0	41	7368	-999999	0																																																	1	InitialTR	2	3	ReadyList	1	3	10	27479	-11	29468	0	3
WM080112	120111_fnca	2	1	1	1025080159	1	75.031	75.031	2.0.10.147	2.0.10.242	2.0.10.242	1.0.0.439	7	234	2	3	Verdana	1	80	0	0	0	WM Stimuli\	0.7	853	1	705.7	1	829.2	1	534.3	1	864.7	1	673.4	0.9	807.777777777778	1	655.8	13	316988	2	316976	27	40	317015	-999999	316991	0	22	TRSyncPROC	""	2	2	1	SessionSelectionList	106	6728	-999999	0	41	7368	-999999	0																																																	1	InitialTR	1	4	ReadyList	1	4	10	29479	-11	31468	0	4
WM080112	120111_fnca	2	1	1	1025080159	1	75.031	75.031	2.0.10.147	2.0.10.242	2.0.10.242	1.0.0.439	7	234	2	3	Verdana	1	80	0	0	0	WM Stimuli\	0.7	853	1	705.7	1	829.2	1	534.3	1	864.7	1	673.4	0.9	807.777777777778	1	655.8	13	316988	2	316976	27	40	317015	-999999	316991	0	23	Cue2BackPROC	""	2	2	2	SessionSelectionList									9	31478	-10	0																																													2												
WM080112	120111_fnca	2	1	1	1025080159	1	75.031	75.031	2.0.10.147	2.0.10.242	2.0.10.242	1.0.0.439	7	234	2	3	Verdana	1	80	0	0	0	WM Stimuli\	0.7	853	1	705.7	1	829.2	1	534.3	1	864.7	1	673.4	0.9	807.777777777778	1	655.8	13	316988	2	316976	27	40	317015	-999999	316991	0	24	TrialsPROC	TO_014_TOOL14_BA.png	2	2	3	SessionSelectionList														nonlure	3	Tools	2-Back	2	80	1	0	0	0	1	52	36102	3	14	81	34050	-1	35323	1	1273	3	3	2052	66	36116	-67	0																3												
WM080112	120111_fnca	2	1	1	1025080159	1	75.031	75.031	2.0.10.147	2.0.10.242	2.0.10.242	1.0.0.439	7	234	2	3	Verdana	1	80	0	0	0	WM Stimuli\	0.7	853	1	705.7	1	829.2	1	534.3	1	864.7	1	673.4	0.9	807.777777777778	1	655.8	13	316988	2	316976	27	40	317015	-999999	316991	0	24	TrialsPROC	TO_013_TOOL13_BA.png	2	2	4	SessionSelectionList														nonlure	3	Tools	2-Back	3	80	2	0	0	0	2	39	38648	2	14	59	36609	-1	37190	1	581	3	3	2039	53	38662	-54	0																4												
WM080112	120111_fnca	2	1	1	1025080159	1	75.031	75.031	2.0.10.147	2.0.10.242	2.0.10.242	1.0.0.439	7	234	2	3	Verdana	1	80	0	0	0	WM Stimuli\	0.7	853	1	705.7	1	829.2	1	534.3	1	864.7	1	673.4	0.9	807.777777777778	1	655.8	13	316988	2	316976	27	40	317015	-999999	316991	0	24	TrialsPROC	TO_016_TOOL16_BA.png	2	2	5	SessionSelectionList														nonlure	3	Tools	2-Back	4	80	3	0	0	0	3	39	41247	1	14	99	39208	-1	39862	1	654	3	3	2039	53	41261	-54	0																5												
WM080112	120111_fnca	2	1	1	1025080159	1	75.031	75.031	2.0.10.147	2.0.10.242	2.0.10.242	1.0.0.439	7	234	2	3	Verdana	1	80	0	0	0	WM Stimuli\	0.7	853	1	705.7	1	829.2	1	534.3	1	864.7	1	673.4	0.9	807.777777777778	1	655.8	13	316988	2	316976	27	40	317015	-999999	316991	0	24	TrialsPROC	TO_014_TOOL14_BA.png	2	2	6	SessionSelectionList														lure	3	Tools	2-Back	5	80	4	0	0	0	1	39	43819	2	14	72	41780	-1	42544	0	764	2	3	2039	53	43833	-54	0																6												
WM080112	120111_fnca	2	1	1	1025080159	1	75.031	75.031	2.0.10.147	2.0.10.242	2.0.10.242	1.0.0.439	7	234	2	3	Verdana	1	80	0	0	0	WM Stimuli\	0.7	853	1	705.7	1	829.2	1	534.3	1	864.7	1	673.4	0.9	807.777777777778	1	655.8	13	316988	2	316976	27	40	317015	-999999	316991	0	24	TrialsPROC	TO_016_TOOL16_BA.png	2	2	7	SessionSelectionList														target	2	Tools	2-Back	6	80	5	0	0	0	2	39	46378	2	14	59	44339	-1	45243	1	904	2	2	2039	53	46392	-54	0																7												
WM080112	120111_fnca	2	1	1	1025080159	1	75.031	75.031	2.0.10.147	2.0.10.242	2.0.10.242	1.0.0.439	7	234	2	3	Verdana	1	80	0	0	0	WM Stimuli\	0.7	853	1	705.7	1	829.2	1	534.3	1	864.7	1	673.4	0.9	807.777777777778	1	655.8	13	316988	2	316976	27	40	317015	-999999	316991	0	24	TrialsPROC	TO_018_TOOL18_BA.png	2	2	8	SessionSelectionList														nonlure	3	Tools	2-Back	7	80	6	0	0	0	1	39	48937	2	14	59	46898	-1	47730	1	832	3	3	2039	53	48951	-54	0																8												
WM080112	120111_fnca	2	1	1	1025080159	1	75.031	75.031	2.0.10.147	2.0.10.242	2.0.10.242	1.0.0.439	7	234	2	3	Verdana	1	80	0	0	0	WM Stimuli\	0.7	853	1	705.7	1	829.2	1	534.3	1	864.7	1	673.4	0.9	807.777777777778	1	655.8	13	316988	2	316976	27	40	317015	-999999	316991	0	24	TrialsPROC	TO_017_TOOL17_BA.png	2	2	9	SessionSelectionList														nonlure	3	Tools	2-Back	8	80	7	0	0	0	2	39	51496	2	14	59	49457	-1	50090	1	633	3	3	2039	53	51510	-54	0																9												
WM080112	120111_fnca	2	1	1	1025080159	1	75.031	75.031	2.0.10.147	2.0.10.242	2.0.10.242	1.0.0.439	7	234	2	3	Verdana	1	80	0	0	0	WM Stimuli\	0.7	853	1	705.7	1	829.2	1	534.3	1	864.7	1	673.4	0.9	807.777777777778	1	655.8	13	316988	2	316976	27	40	317015	-999999	316991	0	24	TrialsPROC	TO_018_TOOL18_BA.png	2	2	10	SessionSelectionList														target	2	Tools	2-Back	9	80	8	0	0	0	1	39	54055	2	14	59	52016	-1	52550	1	534	2	2	2039	53	54069	-54	0																10												
WM080112	120111_fnca	2	1	1	1025080159	1	75.031	75.031	2.0.10.147	2.0.10.242	2.0.10.242	1.0.0.439	7	234	2	3	Verdana	1	80	0	0	0	WM Stimuli\	0.7	853	1	705.7	1	829.2	1	534.3	1	864.7	1	673.4	0.9	807.777777777778	1	655.8	13	316988	2	316976	27	40	317015	-999999	316991	0	24	TrialsPROC	TO_015_TOOL15_BA.png	2	2	11	SessionSelectionList														nonlure	3	Tools	2-Back	10	80	9	0	0	0	1	39	56614	2	14	59	54575	-1	55442	1	867	3	3	2039	53	56628	-54	0																11												
WM080112	120111_fnca	2	1	1	1025080159	1	75.031	75.031	2.0.10.147	2.0.10.242	2.0.10.242	1.0.0.439	7	234	2	3	Verdana	1	80	0	0	0	WM Stimuli\	0.7	853	1	705.7	1	829.2	1	534.3	1	864.7	1	673.4	0.9	807.777777777778	1	655.8	13	316988	2	316976	27	40	317015	-999999	316991	0	24	TrialsPROC	TO_017_TOOL17_BA.png	2	2	12	SessionSelectionList														lure	3	Tools	2-Back	11	80	10	0	0	0	2	39	59173	1	14	59	57134	-1	58126	1	992	3	3	2039	53	59187	-54	0																12												
WM080112	120111_fnca	2	1	1	1025080159	1	75.031	75.031	2.0.10.147	2.0.10.242	2.0.10.242	1.0.0.439	7	234	2	3	Verdana	1	80	0	0	0	WM Stimuli\	0.7	853	1	705.7	1	829.2	1	534.3	1	864.7	1	673.4	0.9	807.777777777778	1	655.8	13	316988	2	316976	27	40	317015	-999999	316991	0	25	Cue0BackPROC	BP_013_BP7_BA.png	2	2	13	SessionSelectionList																																										19	59653	-20	0												13												
WM080112	120111_fnca	2	1	1	1025080159	1	75.031	75.031	2.0.10.147	2.0.10.242	2.0.10.242	1.0.0.439	7	234	2	3	Verdana	1	80	0	0	0	WM Stimuli\	0.7	853	1	705.7	1	829.2	1	534.3	1	864.7	1	673.4	0.9	807.777777777778	1	655.8	13	316988	2	316976	27	40	317015	-999999	316991	0	26	TrialsPROC	BP_015_H10-T_BA.png	2	2	14	SessionSelectionList														nonlure	3	Body	0-Back	12	80	11	0	0	100	3	38	64224	2	14	52	62186	-1	62801	1	615	3	3	2038	52	64238	-53	0																14												
WM080112	120111_fnca	2	1	1	1025080159	1	75.031	75.031	2.0.10.147	2.0.10.242	2.0.10.242	1.0.0.439	7	234	2	3	Verdana	1	80	0	0	0	WM Stimuli\	0.7	853	1	705.7	1	829.2	1	534.3	1	864.7	1	673.4	0.9	807.777777777778	1	655.8	13	316988	2	316976	27	40	317015	-999999	316991	0	26	TrialsPROC	BP_018_H13-T_BA.png	2	2	15	SessionSelectionList														nonlure	3	Body	0-Back	13	80	12	0	0	100	4	38	66783	2	14	59	64745	-1	65333	1	588	3	3	2038	52	66797	-53	0																15												
WM080112	120111_fnca	2	1	1	1025080159	1	75.031	75.031	2.0.10.147	2.0.10.242	2.0.10.242	1.0.0.439	7	234	2	3	Verdana	1	80	0	0	0	WM Stimuli\	0.7	853	1	705.7	1	829.2	1	534.3	1	864.7	1	673.4	0.9	807.777777777778	1	655.8	13	316988	2	316976	27	40	317015	-999999	316991	0	26	TrialsPROC	BP_014_BP9_BA.png	2	2	16	SessionSelectionList														nonlure	3	Body	0-Back	14	80	13	0	0	100	5	39	69342	2	14	58	67303	-1	68220	1	917	3	3	2039	53	69356	-54	0																16												
WM080112	120111_fnca	2	1	1	1025080159	1	75.031	75.031	2.0.10.147	2.0.10.242	2.0.10.242	1.0.0.439	7	234	2	3	Verdana	1	80	0	0	0	WM Stimuli\	0.7	853	1	705.7	1	829.2	1	534.3	1	864.7	1	673.4	0.9	807.777777777778	1	655.8	13	316988	2	316976	27	40	317015	-999999	316991	0	26	TrialsPROC	BP_018_H13-T_BA.png	2	2	17	SessionSelectionList														lure	3	Body	0-Back	15	80	14	0	0	100	6	39	71901	2	14	59	69862	-1	70772	1	910	3	3	2039	53	71915	-54	0																17												
WM080112	120111_fnca	2	1	1	1025080159	1	75.031	75.031	2.0.10.147	2.0.10.242	2.0.10.242	1.0.0.439	7	234	2	3	Verdana	1	80	0	0	0	WM Stimuli\	0.7	853	1	705.7	1	829.2	1	534.3	1	864.7	1	673.4	0.9	807.777777777778	1	655.8	13	316988	2	316976	27	40	317015	-999999	316991	0	26	TrialsPROC	BP_013_BP7_BA.png	2	2	18	SessionSelectionList														target	2	Body	0-Back	16	80	15	0	0	100	1	39	74460	1	14	59	72421	-1	73163	1	742	2	2	2039	53	74474	-54	0																18												
WM080112	120111_fnca	2	1	1	1025080159	1	75.031	75.031	2.0.10.147	2.0.10.242	2.0.10.242	1.0.0.439	7	234	2	3	Verdana	1	80	0	0	0	WM Stimuli\	0.7	853	1	705.7	1	829.2	1	534.3	1	864.7	1	673.4	0.9	807.777777777778	1	655.8	13	316988	2	316976	27	40	317015	-999999	316991	0	26	TrialsPROC	BP_015_H10-T_BA.png	2	2	19	SessionSelectionList														lure	3	Body	0-Back	17	80	16	0	0	100	1	39	77019	1	14	59	74980	-1	75587	1	607	3	3	2039	53	77033	-54	0																19												
WM080112	120111_fnca	2	1	1	1025080159	1	75.031	75.031	2.0.10.147	2.0.10.242	2.0.10.242	1.0.0.439	7	234	2	3	Verdana	1	80	0	0	0	WM Stimuli\	0.7	853	1	705.7	1	829.2	1	534.3	1	864.7	1	673.4	0.9	807.777777777778	1	655.8	13	316988	2	316976	27	40	317015	-999999	316991	0	26	TrialsPROC	BP_016_H11-T_BA.png	2	2	20	SessionSelectionList														nonlure	3	Body	0-Back	18	80	17	0	0	100	2	39	79591	2	14	72	77552	-1	78144	1	592	3	3	2039	53	79605	-54	0																20												
WM080112	120111_fnca	2	1	1	1025080159	1	75.031	75.031	2.0.10.147	2.0.10.242	2.0.10.242	1.0.0.439	7	234	2	3	Verdana	1	80	0	0	0	WM Stimuli\	0.7	853	1	705.7	1	829.2	1	534.3	1	864.7	1	673.4	0.9	807.777777777778	1	655.8	13	316988	2	316976	27	40	317015	-999999	316991	0	26	TrialsPROC	BP_013_BP7_BA.png	2	2	21	SessionSelectionList														target	2	Body	0-Back	19	80	18	0	0	100	1	38	82150	2	14	60	80112	-1	80759	1	647	2	2	2038	52	82164	-53	0																21												
WM080112	120111_fnca	2	1	1	1025080159	1	75.031	75.031	2.0.10.147	2.0.10.242	2.0.10.242	1.0.0.439	7	234	2	3	Verdana	1	80	0	0	0	WM Stimuli\	0.7	853	1	705.7	1	829.2	1	534.3	1	864.7	1	673.4	0.9	807.777777777778	1	655.8	13	316988	2	316976	27	40	317015	-999999	316991	0	26	TrialsPROC	BP_017_H12-T_BA.png	2	2	22	SessionSelectionList														nonlure	3	Body	0-Back	20	80	19	0	0	100	1	38	84709	2	14	59	82671	-1	83268	1	597	3	3	2038	52	84723	-53	0																22												
WM080112	120111_fnca	2	1	1	1025080159	1	75.031	75.031	2.0.10.147	2.0.10.242	2.0.10.242	1.0.0.439	7	234	2	3	Verdana	1	80	0	0	0	WM Stimuli\	0.7	853	1	705.7	1	829.2	1	534.3	1	864.7	1	673.4	0.9	807.777777777778	1	655.8	13	316988	2	316976	27	40	317015	-999999	316991	0	26	TrialsPROC	BP_014_BP9_BA.png	2	2	23	SessionSelectionList														lure	3	Body	0-Back	21	80	20	0	0	100	2	39	87268	2	14	58	85229	-1	86071	1	842	3	3	2039	53	87282	-54	0																23												
WM080112	120111_fnca	2	1	1	1025080159	1	75.031	75.031	2.0.10.147	2.0.10.242	2.0.10.242	1.0.0.439	7	234	2	3	Verdana	1	80	0	0	0	WM Stimuli\	0.7	853	1	705.7	1	829.2	1	534.3	1	864.7	1	673.4	0.9	807.777777777778	1	655.8	13	316988	2	316976	27	40	317015	-999999	316991	0	27	Fix15secPROC	""	2	2	24	SessionSelectionList																																															6	87735	-7	0							24												
WM080112	120111_fnca	2	1	1	1025080159	1	75.031	75.031	2.0.10.147	2.0.10.242	2.0.10.242	1.0.0.439	7	234	2	3	Verdana	1	80	0	0	0	WM Stimuli\	0.7	853	1	705.7	1	829.2	1	534.3	1	864.7	1	673.4	0.9	807.777777777778	1	655.8	13	316988	2	316976	27	40	317015	-999999	316991	0	28	Cue2BackPROC	""	2	2	25	SessionSelectionList									13	102742	-14	0																																													25												
WM080112	120111_fnca	2	1	1	1025080159	1	75.031	75.031	2.0.10.147	2.0.10.242	2.0.10.242	1.0.0.439	7	234	2	3	Verdana	1	80	0	0	0	WM Stimuli\	0.7	853	1	705.7	1	829.2	1	534.3	1	864.7	1	673.4	0.9	807.777777777778	1	655.8	13	316988	2	316976	27	40	317015	-999999	316991	0	29	TrialsPROC	FC_015_M8.png	2	2	26	SessionSelectionList														nonlure	3	Face	2-Back	22	80	21	0	0	100	3	39	107340	1	14	72	105301	-1	106465	1	1164	3	3	2039	53	107354	-54	0																26												
WM080112	120111_fnca	2	1	1	1025080159	1	75.031	75.031	2.0.10.147	2.0.10.242	2.0.10.242	1.0.0.439	7	234	2	3	Verdana	1	80	0	0	0	WM Stimuli\	0.7	853	1	705.7	1	829.2	1	534.3	1	864.7	1	673.4	0.9	807.777777777778	1	655.8	13	316988	2	316976	27	40	317015	-999999	316991	0	29	TrialsPROC	FC_018_F9.png	2	2	27	SessionSelectionList														nonlure	3	Face	2-Back	23	80	22	0	0	100	4	39	109912	2	14	72	107873	-1	108431	1	558	3	3	2039	53	109926	-54	0																27												
WM080112	120111_fnca	2	1	1	1025080159	1	75.031	75.031	2.0.10.147	2.0.10.242	2.0.10.242	1.0.0.439	7	234	2	3	Verdana	1	80	0	0	0	WM Stimuli\	0.7	853	1	705.7	1	829.2	1	534.3	1	864.7	1	673.4	0.9	807.777777777778	1	655.8	13	316988	2	316976	27	40	317015	-999999	316991	0	29	TrialsPROC	FC_018_F9.png	2	2	28	SessionSelectionList														lure	3	Face	2-Back	24	80	23	0	0	100	5	40	112485	1	13	72	110445	-1	111095	1	650	3	3	2040	53	112498	-54	0																28												
WM080112	120111_fnca	2	1	1	1025080159	1	75.031	75.031	2.0.10.147	2.0.10.242	2.0.10.242	1.0.0.439	7	234	2	3	Verdana	1	80	0	0	0	WM Stimuli\	0.7	853	1	705.7	1	829.2	1	534.3	1	864.7	1	673.4	0.9	807.777777777778	1	655.8	13	316988	2	316976	27	40	317015	-999999	316991	0	29	TrialsPROC	FC_017_M9.png	2	2	29	SessionSelectionList														nonlure	3	Face	2-Back	25	80	24	0	0	100	6	39	115057	2	14	73	113018	-1	113632	1	614	3	3	2039	53	115071	-54	0																29												
WM080112	120111_fnca	2	1	1	1025080159	1	75.031	75.031	2.0.10.147	2.0.10.242	2.0.10.242	1.0.0.439	7	234	2	3	Verdana	1	80	0	0	0	WM Stimuli\	0.7	853	1	705.7	1	829.2	1	534.3	1	864.7	1	673.4	0.9	807.777777777778	1	655.8	13	316988	2	316976	27	40	317015	-999999	316991	0	29	TrialsPROC	FC_017_M9.png	2	2	30	SessionSelectionList														lure	3	Face	2-Back	26	80	25	0	0	100	7	39	117629	2	14	72	115590	-1	116226	1	636	3	3	2039	53	117643	-54	0																30												
WM080112	120111_fnca	2	1	1	1025080159	1	75.031	75.031	2.0.10.147	2.0.10.242	2.0.10.242	1.0.0.439	7	234	2	3	Verdana	1	80	0	0	0	WM Stimuli\	0.7	853	1	705.7	1	829.2	1	534.3	1	864.7	1	673.4	0.9	807.777777777778	1	655.8	13	316988	2	316976	27	40	317015	-999999	316991	0	29	TrialsPROC	FC_016_F8.png	2	2	31	SessionSelectionList														nonlure	3	Face	2-Back	27	80	26	0	0	100	8	39	120201	2	14	72	118162	-1	119108	1	946	3	3	2039	53	120215	-54	0																31												
WM080112	120111_fnca	2	1	1	1025080159	1	75.031	75.031	2.0.10.147	2.0.10.242	2.0.10.242	1.0.0.439	7	234	2	3	Verdana	1	80	0	0	0	WM Stimuli\	0.7	853	1	705.7	1	829.2	1	534.3	1	864.7	1	673.4	0.9	807.777777777778	1	655.8	13	316988	2	316976	27	40	317015	-999999	316991	0	29	TrialsPROC	FC_013_M7.png	2	2	32	SessionSelectionList														nonlure	3	Face	2-Back	28	80	27	0	0	100	9	39	122774	1	13	73	120735	-1	121604	1	869	3	3	2039	52	122787	-53	0																32												
WM080112	120111_fnca	2	1	1	1025080159	1	75.031	75.031	2.0.10.147	2.0.10.242	2.0.10.242	1.0.0.439	7	234	2	3	Verdana	1	80	0	0	0	WM Stimuli\	0.7	853	1	705.7	1	829.2	1	534.3	1	864.7	1	673.4	0.9	807.777777777778	1	655.8	13	316988	2	316976	27	40	317015	-999999	316991	0	29	TrialsPROC	FC_014_F7.png	2	2	33	SessionSelectionList														nonlure	3	Face	2-Back	29	80	28	0	0	100	10	39	125346	1	14	72	123307	-1	124319	1	1012	3	3	2039	53	125360	-54	0																33												
WM080112	120111_fnca	2	1	1	1025080159	1	75.031	75.031	2.0.10.147	2.0.10.242	2.0.10.242	1.0.0.439	7	234	2	3	Verdana	1	80	0	0	0	WM Stimuli\	0.7	853	1	705.7	1	829.2	1	534.3	1	864.7	1	673.4	0.9	807.777777777778	1	655.8	13	316988	2	316976	27	40	317015	-999999	316991	0	29	TrialsPROC	FC_013_M7.png	2	2	34	SessionSelectionList														target	2	Face	2-Back	30	80	29	0	0	100	1	39	127918	2	14	72	125879	-1	126736	1	857	2	2	2039	53	127932	-54	0																34												
WM080112	120111_fnca	2	1	1	1025080159	1	75.031	75.031	2.0.10.147	2.0.10.242	2.0.10.242	1.0.0.439	7	234	2	3	Verdana	1	80	0	0	0	WM Stimuli\	0.7	853	1	705.7	1	829.2	1	534.3	1	864.7	1	673.4	0.9	807.777777777778	1	655.8	13	316988	2	316976	27	40	317015	-999999	316991	0	29	TrialsPROC	FC_014_F7.png	2	2	35	SessionSelectionList														target	2	Face	2-Back	31	80	30	0	0	100	2	40	130491	1	13	72	128451	-1	129437	1	986	2	2	2040	53	130504	-54	0																35												
WM080112	120111_fnca	2	1	1	1025080159	1	75.031	75.031	2.0.10.147	2.0.10.242	2.0.10.242	1.0.0.439	7	234	2	3	Verdana	1	80	0	0	0	WM Stimuli\	0.7	853	1	705.7	1	829.2	1	534.3	1	864.7	1	673.4	0.9	807.777777777778	1	655.8	13	316988	2	316976	27	40	317015	-999999	316991	0	30	Cue0BackPROC	TO_019_TOOL19_BA.png	2	2	36	SessionSelectionList																																										19	130970	-20	0												36												
WM080112	120111_fnca	2	1	1	1025080159	1	75.031	75.031	2.0.10.147	2.0.10.242	2.0.10.242	1.0.0.439	7	234	2	3	Verdana	1	80	0	0	0	WM Stimuli\	0.7	853	1	705.7	1	829.2	1	534.3	1	864.7	1	673.4	0.9	807.777777777778	1	655.8	13	316988	2	316976	27	40	317015	-999999	316991	0	31	TrialsPROC	TO_019_TOOL19_BA.png	2	2	37	SessionSelectionList														target	2	Tools	0-Back	32	80	31	0	0	100	3	39	135542	1	13	52	133503	-1	134465	1	962	2	2	2039	52	135555	-53	0																37												
WM080112	120111_fnca	2	1	1	1025080159	1	75.031	75.031	2.0.10.147	2.0.10.242	2.0.10.242	1.0.0.439	7	234	2	3	Verdana	1	80	0	0	0	WM Stimuli\	0.7	853	1	705.7	1	829.2	1	534.3	1	864.7	1	673.4	0.9	807.777777777778	1	655.8	13	316988	2	316976	27	40	317015	-999999	316991	0	31	TrialsPROC	TO_024_TOOL24_BA.png	2	2	38	SessionSelectionList														nonlure	3	Tools	0-Back	33	80	32	0	0	100	1	39	138101	1	13	59	136062	-1	136664	1	602	3	3	2039	52	138114	-53	0																38												
WM080112	120111_fnca	2	1	1	1025080159	1	75.031	75.031	2.0.10.147	2.0.10.242	2.0.10.242	1.0.0.439	7	234	2	3	Verdana	1	80	0	0	0	WM Stimuli\	0.7	853	1	705.7	1	829.2	1	534.3	1	864.7	1	673.4	0.9	807.777777777778	1	655.8	13	316988	2	316976	27	40	317015	-999999	316991	0	31	TrialsPROC	TO_019_TOOL19_BA.png	2	2	39	SessionSelectionList														target	2	Tools	0-Back	34	80	33	0	0	100	1	39	140660	1	13	59	138621	-1	139243	1	622	2	2	2039	52	140673	-53	0																39												
WM080112	120111_fnca	2	1	1	1025080159	1	75.031	75.031	2.0.10.147	2.0.10.242	2.0.10.242	1.0.0.439	7	234	2	3	Verdana	1	80	0	0	0	WM Stimuli\	0.7	853	1	705.7	1	829.2	1	534.3	1	864.7	1	673.4	0.9	807.777777777778	1	655.8	13	316988	2	316976	27	40	317015	-999999	316991	0	31	TrialsPROC	TO_023_TOOL23_BA.png	2	2	40	SessionSelectionList														nonlure	3	Tools	0-Back	35	80	34	0	0	100	1	39	143219	1	13	59	141180	-1	141734	1	554	3	3	2039	52	143232	-53	0																40												
WM080112	120111_fnca	2	1	1	1025080159	1	75.031	75.031	2.0.10.147	2.0.10.242	2.0.10.242	1.0.0.439	7	234	2	3	Verdana	1	80	0	0	0	WM Stimuli\	0.7	853	1	705.7	1	829.2	1	534.3	1	864.7	1	673.4	0.9	807.777777777778	1	655.8	13	316988	2	316976	27	40	317015	-999999	316991	0	31	TrialsPROC	TO_020_TOOL20_BA.png	2	2	41	SessionSelectionList														nonlure	3	Tools	0-Back	36	80	35	0	0	100	2	40	145778	1	13	58	143738	-1	144352	1	614	3	3	2040	53	145791	-54	0																41												
WM080112	120111_fnca	2	1	1	1025080159	1	75.031	75.031	2.0.10.147	2.0.10.242	2.0.10.242	1.0.0.439	7	234	2	3	Verdana	1	80	0	0	0	WM Stimuli\	0.7	853	1	705.7	1	829.2	1	534.3	1	864.7	1	673.4	0.9	807.777777777778	1	655.8	13	316988	2	316976	27	40	317015	-999999	316991	0	31	TrialsPROC	TO_020_TOOL20_BA.png	2	2	42	SessionSelectionList														lure	3	Tools	0-Back	37	80	36	0	0	100	3	40	148337	1	13	59	146297	-1	146860	1	563	3	3	2040	53	148350	-54	0																42												
WM080112	120111_fnca	2	1	1	1025080159	1	75.031	75.031	2.0.10.147	2.0.10.242	2.0.10.242	1.0.0.439	7	234	2	3	Verdana	1	80	0	0	0	WM Stimuli\	0.7	853	1	705.7	1	829.2	1	534.3	1	864.7	1	673.4	0.9	807.777777777778	1	655.8	13	316988	2	316976	27	40	317015	-999999	316991	0	31	TrialsPROC	TO_022_TOOL22_BA.png	2	2	43	SessionSelectionList														nonlure	3	Tools	0-Back	38	80	37	0	0	100	4	40	150896	1	13	59	148856	-1	149604	1	748	3	3	2040	53	150909	-54	0																43												
WM080112	120111_fnca	2	1	1	1025080159	1	75.031	75.031	2.0.10.147	2.0.10.242	2.0.10.242	1.0.0.439	7	234	2	3	Verdana	1	80	0	0	0	WM Stimuli\	0.7	853	1	705.7	1	829.2	1	534.3	1	864.7	1	673.4	0.9	807.777777777778	1	655.8	13	316988	2	316976	27	40	317015	-999999	316991	0	31	TrialsPROC	TO_022_TOOL22_BA.png	2	2	44	SessionSelectionList														lure	3	Tools	0-Back	39	80	38	0	0	100	5	39	153454	2	14	59	151415	-1	152006	1	591	3	3	2039	53	153468	-54	0																44												
WM080112	120111_fnca	2	1	1	1025080159	1	75.031	75.031	2.0.10.147	2.0.10.242	2.0.10.242	1.0.0.439	7	234	2	3	Verdana	1	80	0	0	0	WM Stimuli\	0.7	853	1	705.7	1	829.2	1	534.3	1	864.7	1	673.4	0.9	807.777777777778	1	655.8	13	316988	2	316976	27	40	317015	-999999	316991	0	31	TrialsPROC	TO_021_TOOL21_BA.png	2	2	45	SessionSelectionList														nonlure	3	Tools	0-Back	40	80	39	0	0	100	6	39	156013	2	14	59	153974	-1	154667	1	693	3	3	2039	53	156027	-54	0																45												
WM080112	120111_fnca	2	1	1	1025080159	1	75.031	75.031	2.0.10.147	2.0.10.242	2.0.10.242	1.0.0.439	7	234	2	3	Verdana	1	80	0	0	0	WM Stimuli\	0.7	853	1	705.7	1	829.2	1	534.3	1	864.7	1	673.4	0.9	807.777777777778	1	655.8	13	316988	2	316976	27	40	317015	-999999	316991	0	31	TrialsPROC	TO_021_TOOL21_BA.png	2	2	46	SessionSelectionList														lure	3	Tools	0-Back	41	80	40	0	0	100	7	39	158572	2	14	59	156533	-1	157142	1	609	3	3	2039	53	158586	-54	0																46												
WM080112	120111_fnca	2	1	1	1025080159	1	75.031	75.031	2.0.10.147	2.0.10.242	2.0.10.242	1.0.0.439	7	234	2	3	Verdana	1	80	0	0	0	WM Stimuli\	0.7	853	1	705.7	1	829.2	1	534.3	1	864.7	1	673.4	0.9	807.777777777778	1	655.8	13	316988	2	316976	27	40	317015	-999999	316991	0	32	Fix15secPROC	""	2	2	47	SessionSelectionList																																															6	159039	-7	0							47												
WM080112	120111_fnca	2	1	1	1025080159	1	75.031	75.031	2.0.10.147	2.0.10.242	2.0.10.242	1.0.0.439	7	234	2	3	Verdana	1	80	0	0	0	WM Stimuli\	0.7	853	1	705.7	1	829.2	1	534.3	1	864.7	1	673.4	0.9	807.777777777778	1	655.8	13	316988	2	316976	27	40	317015	-999999	316991	0	33	Cue2BackPROC	""	2	2	48	SessionSelectionList									13	174046	-14	0																																													48												
WM080112	120111_fnca	2	1	1	1025080159	1	75.031	75.031	2.0.10.147	2.0.10.242	2.0.10.242	1.0.0.439	7	234	2	3	Verdana	1	80	0	0	0	WM Stimuli\	0.7	853	1	705.7	1	829.2	1	534.3	1	864.7	1	673.4	0.9	807.777777777778	1	655.8	13	316988	2	316976	27	40	317015	-999999	316991	0	34	TrialsPROC	BP_020_H17-T_BA.png	2	2	49	SessionSelectionList														nonlure	3	Body	2-Back	42	80	41	0	0	100	8	39	178644	2	14	72	176605	-1	177706	1	1101	3	3	2039	53	178658	-54	0																49												
WM080112	120111_fnca	2	1	1	1025080159	1	75.031	75.031	2.0.10.147	2.0.10.242	2.0.10.242	1.0.0.439	7	234	2	3	Verdana	1	80	0	0	0	WM Stimuli\	0.7	853	1	705.7	1	829.2	1	534.3	1	864.7	1	673.4	0.9	807.777777777778	1	655.8	13	316988	2	316976	27	40	317015	-999999	316991	0	34	TrialsPROC	BP_019_H14-T_BA.png	2	2	50	SessionSelectionList														nonlure	3	Body	2-Back	43	80	42	0	0	100	9	39	181216	2	14	72	179177	-1	179745	1	568	3	3	2039	53	181230	-54	0																50												
WM080112	120111_fnca	2	1	1	1025080159	1	75.031	75.031	2.0.10.147	2.0.10.242	2.0.10.242	1.0.0.439	7	234	2	3	Verdana	1	80	0	0	0	WM Stimuli\	0.7	853	1	705.7	1	829.2	1	534.3	1	864.7	1	673.4	0.9	807.777777777778	1	655.8	13	316988	2	316976	27	40	317015	-999999	316991	0	34	TrialsPROC	BP_020_H17-T_BA.png	2	2	51	SessionSelectionList														target	2	Body	2-Back	44	80	43	0	0	100	1	38	183775	2	14	60	181737	-1	182396	1	659	2	2	2038	52	183789	-53	0																51												
WM080112	120111_fnca	2	1	1	1025080159	1	75.031	75.031	2.0.10.147	2.0.10.242	2.0.10.242	1.0.0.439	7	234	2	3	Verdana	1	80	0	0	0	WM Stimuli\	0.7	853	1	705.7	1	829.2	1	534.3	1	864.7	1	673.4	0.9	807.777777777778	1	655.8	13	316988	2	316976	27	40	317015	-999999	316991	0	34	TrialsPROC	BP_019_H14-T_BA.png	2	2	52	SessionSelectionList														target	2	Body	2-Back	45	80	44	0	0	100	2	38	186334	2	14	59	184296	-1	185377	1	1081	2	2	2038	52	186348	-53	0																52												
WM080112	120111_fnca	2	1	1	1025080159	1	75.031	75.031	2.0.10.147	2.0.10.242	2.0.10.242	1.0.0.439	7	234	2	3	Verdana	1	80	0	0	0	WM Stimuli\	0.7	853	1	705.7	1	829.2	1	534.3	1	864.7	1	673.4	0.9	807.777777777778	1	655.8	13	316988	2	316976	27	40	317015	-999999	316991	0	34	TrialsPROC	BP_024_H3-T_BA.png	2	2	53	SessionSelectionList														nonlure	3	Body	2-Back	46	80	45	0	0	100	3	40	188907	1	13	71	186867	-1	187930	0	1063	2	3	2040	53	188920	-54	0																53												
WM080112	120111_fnca	2	1	1	1025080159	1	75.031	75.031	2.0.10.147	2.0.10.242	2.0.10.242	1.0.0.439	7	234	2	3	Verdana	1	80	0	0	0	WM Stimuli\	0.7	853	1	705.7	1	829.2	1	534.3	1	864.7	1	673.4	0.9	807.777777777778	1	655.8	13	316988	2	316976	27	40	317015	-999999	316991	0	34	TrialsPROC	BP_024_H3-T_BA.png	2	2	54	SessionSelectionList														lure	3	Body	2-Back	47	80	46	0	0	100	1	39	191466	1	13	60	189427	-1	190233	1	806	3	3	2039	52	191479	-53	0																54												
WM080112	120111_fnca	2	1	1	1025080159	1	75.031	75.031	2.0.10.147	2.0.10.242	2.0.10.242	1.0.0.439	7	234	2	3	Verdana	1	80	0	0	0	WM Stimuli\	0.7	853	1	705.7	1	829.2	1	534.3	1	864.7	1	673.4	0.9	807.777777777778	1	655.8	13	316988	2	316976	27	40	317015	-999999	316991	0	34	TrialsPROC	BP_025_H5-T_BA.png	2	2	55	SessionSelectionList														nonlure	3	Body	2-Back	48	80	47	0	0	100	1	39	194025	1	13	59	191986	-1	193375	0	1389	2	3	2039	52	194038	-53	0																55												
WM080112	120111_fnca	2	1	1	1025080159	1	75.031	75.031	2.0.10.147	2.0.10.242	2.0.10.242	1.0.0.439	7	234	2	3	Verdana	1	80	0	0	0	WM Stimuli\	0.7	853	1	705.7	1	829.2	1	534.3	1	864.7	1	673.4	0.9	807.777777777778	1	655.8	13	316988	2	316976	27	40	317015	-999999	316991	0	34	TrialsPROC	BP_023_H25-T_BA.png	2	2	56	SessionSelectionList														nonlure	3	Body	2-Back	49	80	47	0	1	100	1	39	196597	1	14	72	194558	-1	0	0	0	""	3	2039	53	196611	-54	0																56												
WM080112	120111_fnca	2	1	1	1025080159	1	75.031	75.031	2.0.10.147	2.0.10.242	2.0.10.242	1.0.0.439	7	234	2	3	Verdana	1	80	0	0	0	WM Stimuli\	0.7	853	1	705.7	1	829.2	1	534.3	1	864.7	1	673.4	0.9	807.777777777778	1	655.8	13	316988	2	316976	27	40	317015	-999999	316991	0	34	TrialsPROC	BP_022_H24-T_BA.png	2	2	57	SessionSelectionList														nonlure	3	Body	2-Back	50	80	48	0	0	100	1	39	199156	1	14	59	197117	-1	197894	1	777	3	3	2039	53	199170	-54	0																57												
WM080112	120111_fnca	2	1	1	1025080159	1	75.031	75.031	2.0.10.147	2.0.10.242	2.0.10.242	1.0.0.439	7	234	2	3	Verdana	1	80	0	0	0	WM Stimuli\	0.7	853	1	705.7	1	829.2	1	534.3	1	864.7	1	673.4	0.9	807.777777777778	1	655.8	13	316988	2	316976	27	40	317015	-999999	316991	0	34	TrialsPROC	BP_022_H24-T_BA.png	2	2	58	SessionSelectionList														lure	3	Body	2-Back	51	80	49	0	0	100	2	39	201715	1	13	59	199676	-1	200655	1	979	3	3	2039	52	201728	-53	0																58												
WM080112	120111_fnca	2	1	1	1025080159	1	75.031	75.031	2.0.10.147	2.0.10.242	2.0.10.242	1.0.0.439	7	234	2	3	Verdana	1	80	0	0	0	WM Stimuli\	0.7	853	1	705.7	1	829.2	1	534.3	1	864.7	1	673.4	0.9	807.777777777778	1	655.8	13	316988	2	316976	27	40	317015	-999999	316991	0	35	Cue2BackPROC	""	2	2	59	SessionSelectionList									5	202181	-6	0																																													59												
WM080112	120111_fnca	2	1	1	1025080159	1	75.031	75.031	2.0.10.147	2.0.10.242	2.0.10.242	1.0.0.439	7	234	2	3	Verdana	1	80	0	0	0	WM Stimuli\	0.7	853	1	705.7	1	829.2	1	534.3	1	864.7	1	673.4	0.9	807.777777777778	1	655.8	13	316988	2	316976	27	40	317015	-999999	316991	0	36	TrialsPROC	PL_019_SCENE_05.png	2	2	60	SessionSelectionList														nonlure	3	Place	2-Back	52	80	50	0	0	100	3	39	206779	2	14	64	204740	-1	205818	1	1078	3	3	2039	53	206793	-54	0																60												
WM080112	120111_fnca	2	1	1	1025080159	1	75.031	75.031	2.0.10.147	2.0.10.242	2.0.10.242	1.0.0.439	7	234	2	3	Verdana	1	80	0	0	0	WM Stimuli\	0.7	853	1	705.7	1	829.2	1	534.3	1	864.7	1	673.4	0.9	807.777777777778	1	655.8	13	316988	2	316976	27	40	317015	-999999	316991	0	36	TrialsPROC	PL_017_SCENE_03.png	2	2	61	SessionSelectionList														nonlure	3	Place	2-Back	53	80	51	0	0	100	4	40	209352	1	13	72	207312	-1	208068	1	756	3	3	2040	53	209365	-54	0																61												
WM080112	120111_fnca	2	1	1	1025080159	1	75.031	75.031	2.0.10.147	2.0.10.242	2.0.10.242	1.0.0.439	7	234	2	3	Verdana	1	80	0	0	0	WM Stimuli\	0.7	853	1	705.7	1	829.2	1	534.3	1	864.7	1	673.4	0.9	807.777777777778	1	655.8	13	316988	2	316976	27	40	317015	-999999	316991	0	36	TrialsPROC	PL_017_SCENE_03.png	2	2	62	SessionSelectionList														lure	3	Place	2-Back	54	80	52	0	0	100	5	39	211924	1	14	73	209885	-1	210664	1	779	3	3	2039	53	211938	-54	0																62												
WM080112	120111_fnca	2	1	1	1025080159	1	75.031	75.031	2.0.10.147	2.0.10.242	2.0.10.242	1.0.0.439	7	234	2	3	Verdana	1	80	0	0	0	WM Stimuli\	0.7	853	1	705.7	1	829.2	1	534.3	1	864.7	1	673.4	0.9	807.777777777778	1	655.8	13	316988	2	316976	27	40	317015	-999999	316991	0	36	TrialsPROC	PL_016_SCENE_02.png	2	2	63	SessionSelectionList														nonlure	3	Place	2-Back	55	80	53	0	0	100	6	39	214496	2	14	72	212457	-1	213275	1	818	3	3	2039	53	214510	-54	0																63												
WM080112	120111_fnca	2	1	1	1025080159	1	75.031	75.031	2.0.10.147	2.0.10.242	2.0.10.242	1.0.0.439	7	234	2	3	Verdana	1	80	0	0	0	WM Stimuli\	0.7	853	1	705.7	1	829.2	1	534.3	1	864.7	1	673.4	0.9	807.777777777778	1	655.8	13	316988	2	316976	27	40	317015	-999999	316991	0	36	TrialsPROC	PL_015_SCENE_01.png	2	2	64	SessionSelectionList														nonlure	3	Place	2-Back	56	80	54	0	0	100	7	39	217068	2	14	72	215029	-1	215861	1	832	3	3	2039	53	217082	-54	0																64												
WM080112	120111_fnca	2	1	1	1025080159	1	75.031	75.031	2.0.10.147	2.0.10.242	2.0.10.242	1.0.0.439	7	234	2	3	Verdana	1	80	0	0	0	WM Stimuli\	0.7	853	1	705.7	1	829.2	1	534.3	1	864.7	1	673.4	0.9	807.777777777778	1	655.8	13	316988	2	316976	27	40	317015	-999999	316991	0	36	TrialsPROC	PL_016_SCENE_02.png	2	2	65	SessionSelectionList														target	2	Place	2-Back	57	80	55	0	0	100	1	39	219641	1	13	73	217602	-1	218334	1	732	2	2	2039	52	219654	-53	0																65												
WM080112	120111_fnca	2	1	1	1025080159	1	75.031	75.031	2.0.10.147	2.0.10.242	2.0.10.242	1.0.0.439	7	234	2	3	Verdana	1	80	0	0	0	WM Stimuli\	0.7	853	1	705.7	1	829.2	1	534.3	1	864.7	1	673.4	0.9	807.777777777778	1	655.8	13	316988	2	316976	27	40	317015	-999999	316991	0	36	TrialsPROC	PL_015_SCENE_01.png	2	2	66	SessionSelectionList														target	2	Place	2-Back	58	80	56	0	0	100	2	39	222213	1	14	72	220174	-1	220961	1	787	2	2	2039	53	222227	-54	0																66												
WM080112	120111_fnca	2	1	1	1025080159	1	75.031	75.031	2.0.10.147	2.0.10.242	2.0.10.242	1.0.0.439	7	234	2	3	Verdana	1	80	0	0	0	WM Stimuli\	0.7	853	1	705.7	1	829.2	1	534.3	1	864.7	1	673.4	0.9	807.777777777778	1	655.8	13	316988	2	316976	27	40	317015	-999999	316991	0	36	TrialsPROC	PL_020_SCENE_06.png	2	2	67	SessionSelectionList														nonlure	3	Place	2-Back	59	80	57	0	0	100	1	40	224799	1	13	85	222759	-1	223614	1	855	3	3	2040	53	224812	-54	0																67												
WM080112	120111_fnca	2	1	1	1025080159	1	75.031	75.031	2.0.10.147	2.0.10.242	2.0.10.242	1.0.0.439	7	234	2	3	Verdana	1	80	0	0	0	WM Stimuli\	0.7	853	1	705.7	1	829.2	1	534.3	1	864.7	1	673.4	0.9	807.777777777778	1	655.8	13	316988	2	316976	27	40	317015	-999999	316991	0	36	TrialsPROC	PL_020_SCENE_06.png	2	2	68	SessionSelectionList														lure	3	Place	2-Back	60	80	58	0	0	100	2	39	227371	1	14	73	225332	-1	226242	1	910	3	3	2039	53	227385	-54	0																68												
WM080112	120111_fnca	2	1	1	1025080159	1	75.031	75.031	2.0.10.147	2.0.10.242	2.0.10.242	1.0.0.439	7	234	2	3	Verdana	1	80	0	0	0	WM Stimuli\	0.7	853	1	705.7	1	829.2	1	534.3	1	864.7	1	673.4	0.9	807.777777777778	1	655.8	13	316988	2	316976	27	40	317015	-999999	316991	0	36	TrialsPROC	PL_018_SCENE_04.png	2	2	69	SessionSelectionList														nonlure	3	Place	2-Back	61	80	59	0	0	100	3	40	229957	2	13	85	227917	-1	229017	1	1100	3	3	2040	53	229970	-54	0																69												
WM080112	120111_fnca	2	1	1	1025080159	1	75.031	75.031	2.0.10.147	2.0.10.242	2.0.10.242	1.0.0.439	7	234	2	3	Verdana	1	80	0	0	0	WM Stimuli\	0.7	853	1	705.7	1	829.2	1	534.3	1	864.7	1	673.4	0.9	807.777777777778	1	655.8	13	316988	2	316976	27	40	317015	-999999	316991	0	37	Fix15secPROC	""	2	2	70	SessionSelectionList																																															6	230423	-7	0							70												
WM080112	120111_fnca	2	1	1	1025080159	1	75.031	75.031	2.0.10.147	2.0.10.242	2.0.10.242	1.0.0.439	7	234	2	3	Verdana	1	80	0	0	0	WM Stimuli\	0.7	853	1	705.7	1	829.2	1	534.3	1	864.7	1	673.4	0.9	807.777777777778	1	655.8	13	316988	2	316976	27	40	317015	-999999	316991	0	38	Cue0BackPROC	FC_020_F10.png	2	2	71	SessionSelectionList																																										40	245457	-41	0												71												
WM080112	120111_fnca	2	1	1	1025080159	1	75.031	75.031	2.0.10.147	2.0.10.242	2.0.10.242	1.0.0.439	7	234	2	3	Verdana	1	80	0	0	0	WM Stimuli\	0.7	853	1	705.7	1	829.2	1	534.3	1	864.7	1	673.4	0.9	807.777777777778	1	655.8	13	316988	2	316976	27	40	317015	-999999	316991	0	39	TrialsPROC	FC_024_F12.png	2	2	72	SessionSelectionList														nonlure	3	Face	0-Back	62	80	60	0	0	100	4	40	250042	1	13	85	248002	-1	248615	1	613	3	3	2040	53	250055	-54	0																72												
WM080112	120111_fnca	2	1	1	1025080159	1	75.031	75.031	2.0.10.147	2.0.10.242	2.0.10.242	1.0.0.439	7	234	2	3	Verdana	1	80	0	0	0	WM Stimuli\	0.7	853	1	705.7	1	829.2	1	534.3	1	864.7	1	673.4	0.9	807.777777777778	1	655.8	13	316988	2	316976	27	40	317015	-999999	316991	0	39	TrialsPROC	FC_023_M12.png	2	2	73	SessionSelectionList														nonlure	3	Face	0-Back	63	80	61	0	0	100	5	39	252627	2	14	86	250588	-1	251072	1	484	3	3	2039	53	252641	-54	0																73												
WM080112	120111_fnca	2	1	1	1025080159	1	75.031	75.031	2.0.10.147	2.0.10.242	2.0.10.242	1.0.0.439	7	234	2	3	Verdana	1	80	0	0	0	WM Stimuli\	0.7	853	1	705.7	1	829.2	1	534.3	1	864.7	1	673.4	0.9	807.777777777778	1	655.8	13	316988	2	316976	27	40	317015	-999999	316991	0	39	TrialsPROC	FC_020_F10.png	2	2	74	SessionSelectionList														target	2	Face	0-Back	64	80	62	0	0	100	1	40	255200	1	13	72	253160	-1	253668	1	508	2	2	2040	53	255213	-54	0																74												
WM080112	120111_fnca	2	1	1	1025080159	1	75.031	75.031	2.0.10.147	2.0.10.242	2.0.10.242	1.0.0.439	7	234	2	3	Verdana	1	80	0	0	0	WM Stimuli\	0.7	853	1	705.7	1	829.2	1	534.3	1	864.7	1	673.4	0.9	807.777777777778	1	655.8	13	316988	2	316976	27	40	317015	-999999	316991	0	39	TrialsPROC	FC_024_F12.png	2	2	75	SessionSelectionList														lure	3	Face	0-Back	65	80	63	0	0	100	1	39	257772	1	14	73	255733	-1	256109	1	376	3	3	2039	53	257786	-54	0																75												
WM080112	120111_fnca	2	1	1	1025080159	1	75.031	75.031	2.0.10.147	2.0.10.242	2.0.10.242	1.0.0.439	7	234	2	3	Verdana	1	80	0	0	0	WM Stimuli\	0.7	853	1	705.7	1	829.2	1	534.3	1	864.7	1	673.4	0.9	807.777777777778	1	655.8	13	316988	2	316976	27	40	317015	-999999	316991	0	39	TrialsPROC	FC_020_F10.png	2	2	76	SessionSelectionList														target	2	Face	0-Back	66	80	64	0	0	100	1	39	260344	1	14	72	258305	-1	258823	1	518	2	2	2039	53	260358	-54	0																76												
WM080112	120111_fnca	2	1	1	1025080159	1	75.031	75.031	2.0.10.147	2.0.10.242	2.0.10.242	1.0.0.439	7	234	2	3	Verdana	1	80	0	0	0	WM Stimuli\	0.7	853	1	705.7	1	829.2	1	534.3	1	864.7	1	673.4	0.9	807.777777777778	1	655.8	13	316988	2	316976	27	40	317015	-999999	316991	0	39	TrialsPROC	FC_022_F11.png	2	2	77	SessionSelectionList														nonlure	3	Face	0-Back	67	80	65	0	0	100	1	39	262930	1	13	86	260891	-1	261300	1	409	3	3	2039	52	262943	-53	0																77												
WM080112	120111_fnca	2	1	1	1025080159	1	75.031	75.031	2.0.10.147	2.0.10.242	2.0.10.242	1.0.0.439	7	234	2	3	Verdana	1	80	0	0	0	WM Stimuli\	0.7	853	1	705.7	1	829.2	1	534.3	1	864.7	1	673.4	0.9	807.777777777778	1	655.8	13	316988	2	316976	27	40	317015	-999999	316991	0	39	TrialsPROC	FC_023_M12.png	2	2	78	SessionSelectionList														lure	3	Face	0-Back	68	80	66	0	0	100	2	39	265502	1	14	72	263463	-1	264132	1	669	3	3	2039	53	265516	-54	0																78												
WM080112	120111_fnca	2	1	1	1025080159	1	75.031	75.031	2.0.10.147	2.0.10.242	2.0.10.242	1.0.0.439	7	234	2	3	Verdana	1	80	0	0	0	WM Stimuli\	0.7	853	1	705.7	1	829.2	1	534.3	1	864.7	1	673.4	0.9	807.777777777778	1	655.8	13	316988	2	316976	27	40	317015	-999999	316991	0	39	TrialsPROC	FC_021_M11.png	2	2	79	SessionSelectionList														nonlure	3	Face	0-Back	69	80	67	0	0	100	3	40	268088	1	13	85	266048	-1	266583	1	535	3	3	2040	53	268101	-54	0																79												
WM080112	120111_fnca	2	1	1	1025080159	1	75.031	75.031	2.0.10.147	2.0.10.242	2.0.10.242	1.0.0.439	7	234	2	3	Verdana	1	80	0	0	0	WM Stimuli\	0.7	853	1	705.7	1	829.2	1	534.3	1	864.7	1	673.4	0.9	807.777777777778	1	655.8	13	316988	2	316976	27	40	317015	-999999	316991	0	39	TrialsPROC	FC_021_M11.png	2	2	80	SessionSelectionList														lure	3	Face	0-Back	70	80	68	0	0	100	4	39	270660	1	14	73	268621	-1	269251	1	630	3	3	2039	53	270674	-54	0																80												
WM080112	120111_fnca	2	1	1	1025080159	1	75.031	75.031	2.0.10.147	2.0.10.242	2.0.10.242	1.0.0.439	7	234	2	3	Verdana	1	80	0	0	0	WM Stimuli\	0.7	853	1	705.7	1	829.2	1	534.3	1	864.7	1	673.4	0.9	807.777777777778	1	655.8	13	316988	2	316976	27	40	317015	-999999	316991	0	39	TrialsPROC	FC_019_M10.png	2	2	81	SessionSelectionList														nonlure	3	Face	0-Back	71	80	69	0	0	100	5	39	273259	1	14	99	271220	-1	271821	1	601	3	3	2039	53	273273	-54	0																81												
WM080112	120111_fnca	2	1	1	1025080159	1	75.031	75.031	2.0.10.147	2.0.10.242	2.0.10.242	1.0.0.439	7	234	2	3	Verdana	1	80	0	0	0	WM Stimuli\	0.7	853	1	705.7	1	829.2	1	534.3	1	864.7	1	673.4	0.9	807.777777777778	1	655.8	13	316988	2	316976	27	40	317015	-999999	316991	0	40	Cue0BackPROC	PL_021_SCENE_07.png	2	2	82	SessionSelectionList																																										19	273739	-20	0												82												
WM080112	120111_fnca	2	1	1	1025080159	1	75.031	75.031	2.0.10.147	2.0.10.242	2.0.10.242	1.0.0.439	7	234	2	3	Verdana	1	80	0	0	0	WM Stimuli\	0.7	853	1	705.7	1	829.2	1	534.3	1	864.7	1	673.4	0.9	807.777777777778	1	655.8	13	316988	2	316976	27	40	317015	-999999	316991	0	41	TrialsPROC	PL_025_SCENE_18.png	2	2	83	SessionSelectionList														nonlure	3	Place	0-Back	72	80	70	0	0	100	6	39	278350	1	14	91	276311	-1	277040	1	729	3	3	2039	53	278364	-54	0																83												
WM080112	120111_fnca	2	1	1	1025080159	1	75.031	75.031	2.0.10.147	2.0.10.242	2.0.10.242	1.0.0.439	7	234	2	3	Verdana	1	80	0	0	0	WM Stimuli\	0.7	853	1	705.7	1	829.2	1	534.3	1	864.7	1	673.4	0.9	807.777777777778	1	655.8	13	316988	2	316976	27	40	317015	-999999	316991	0	41	TrialsPROC	PL_026_SCENE_24.png	2	2	84	SessionSelectionList														nonlure	3	Place	0-Back	73	80	71	0	0	100	7	40	280936	1	13	85	278896	-1	279579	1	683	3	3	2040	53	280949	-54	0																84												
WM080112	120111_fnca	2	1	1	1025080159	1	75.031	75.031	2.0.10.147	2.0.10.242	2.0.10.242	1.0.0.439	7	234	2	3	Verdana	1	80	0	0	0	WM Stimuli\	0.7	853	1	705.7	1	829.2	1	534.3	1	864.7	1	673.4	0.9	807.777777777778	1	655.8	13	316988	2	316976	27	40	317015	-999999	316991	0	41	TrialsPROC	PL_025_SCENE_18.png	2	2	85	SessionSelectionList														lure	3	Place	0-Back	74	80	72	0	0	100	8	39	283508	1	14	73	281469	-1	282137	1	668	3	3	2039	53	283522	-54	0																85												
WM080112	120111_fnca	2	1	1	1025080159	1	75.031	75.031	2.0.10.147	2.0.10.242	2.0.10.242	1.0.0.439	7	234	2	3	Verdana	1	80	0	0	0	WM Stimuli\	0.7	853	1	705.7	1	829.2	1	534.3	1	864.7	1	673.4	0.9	807.777777777778	1	655.8	13	316988	2	316976	27	40	317015	-999999	316991	0	41	TrialsPROC	PL_022_SCENE_08.png	2	2	86	SessionSelectionList														nonlure	3	Place	0-Back	75	80	73	0	0	100	9	39	286080	2	14	72	284041	-1	284757	1	716	3	3	2039	53	286094	-54	0																86												
WM080112	120111_fnca	2	1	1	1025080159	1	75.031	75.031	2.0.10.147	2.0.10.242	2.0.10.242	1.0.0.439	7	234	2	3	Verdana	1	80	0	0	0	WM Stimuli\	0.7	853	1	705.7	1	829.2	1	534.3	1	864.7	1	673.4	0.9	807.777777777778	1	655.8	13	316988	2	316976	27	40	317015	-999999	316991	0	41	TrialsPROC	PL_026_SCENE_24.png	2	2	87	SessionSelectionList														lure	3	Place	0-Back	76	80	74	0	0	100	10	39	288652	2	14	72	286613	-1	287139	1	526	3	3	2039	53	288666	-54	0																87												
WM080112	120111_fnca	2	1	1	1025080159	1	75.031	75.031	2.0.10.147	2.0.10.242	2.0.10.242	1.0.0.439	7	234	2	3	Verdana	1	80	0	0	0	WM Stimuli\	0.7	853	1	705.7	1	829.2	1	534.3	1	864.7	1	673.4	0.9	807.777777777778	1	655.8	13	316988	2	316976	27	40	317015	-999999	316991	0	41	TrialsPROC	PL_021_SCENE_07.png	2	2	88	SessionSelectionList														target	2	Place	0-Back	77	80	75	0	0	100	1	39	291225	1	13	73	289186	-1	290050	1	864	2	2	2039	52	291238	-53	0																88												
WM080112	120111_fnca	2	1	1	1025080159	1	75.031	75.031	2.0.10.147	2.0.10.242	2.0.10.242	1.0.0.439	7	234	2	3	Verdana	1	80	0	0	0	WM Stimuli\	0.7	853	1	705.7	1	829.2	1	534.3	1	864.7	1	673.4	0.9	807.777777777778	1	655.8	13	316988	2	316976	27	40	317015	-999999	316991	0	41	TrialsPROC	PL_021_SCENE_07.png	2	2	89	SessionSelectionList														target	2	Place	0-Back	78	80	76	0	0	100	2	39	293797	1	14	72	291758	-1	292542	1	784	2	2	2039	53	293811	-54	0																89												
WM080112	120111_fnca	2	1	1	1025080159	1	75.031	75.031	2.0.10.147	2.0.10.242	2.0.10.242	1.0.0.439	7	234	2	3	Verdana	1	80	0	0	0	WM Stimuli\	0.7	853	1	705.7	1	829.2	1	534.3	1	864.7	1	673.4	0.9	807.777777777778	1	655.8	13	316988	2	316976	27	40	317015	-999999	316991	0	41	TrialsPROC	PL_023_SCENE_09.png	2	2	90	SessionSelectionList														nonlure	3	Place	0-Back	79	80	77	0	0	100	1	39	296369	2	14	72	294330	-1	294860	1	530	3	3	2039	53	296383	-54	0																90												
WM080112	120111_fnca	2	1	1	1025080159	1	75.031	75.031	2.0.10.147	2.0.10.242	2.0.10.242	1.0.0.439	7	234	2	3	Verdana	1	80	0	0	0	WM Stimuli\	0.7	853	1	705.7	1	829.2	1	534.3	1	864.7	1	673.4	0.9	807.777777777778	1	655.8	13	316988	2	316976	27	40	317015	-999999	316991	0	41	TrialsPROC	PL_024_SCENE_10.png	2	2	91	SessionSelectionList														nonlure	3	Place	0-Back	80	80	78	0	0	100	2	40	298942	1	13	72	296902	-1	297462	1	560	3	3	2040	53	298955	-54	0																91												
WM080112	120111_fnca	2	1	1	1025080159	1	75.031	75.031	2.0.10.147	2.0.10.242	2.0.10.242	1.0.0.439	7	234	2	3	Verdana	1	80	0	0	0	WM Stimuli\	0.7	853	1	705.7	1	829.2	1	534.3	1	864.7	1	673.4	0.9	807.777777777778	1	655.8	13	316988	2	316976	27	40	317015	-999999	316991	0	41	TrialsPROC	PL_022_SCENE_08.png	2	2	92	SessionSelectionList														lure	3	Place	0-Back	80	80	79	0	0	100	3	39	301514	1	14	73	299475	-1	300149	1	674	3	3	2039	53	301528	-54	0																92												
WM080112	120111_fnca	2	1	1	1025080159	1	75.031	75.031	2.0.10.147	2.0.10.242	2.0.10.242	1.0.0.439	7	234	2	3	Verdana	1	80	0	0	0	WM Stimuli\	0.7	853	1	705.7	1	829.2	1	534.3	1	864.7	1	673.4	0.9	807.777777777778	1	655.8	13	316988	2	316976	27	40	317015	-999999	316991	0	42	Fix15secPROC	""	2	2	93	SessionSelectionList																																															6	301981	-7	0							93												
