ExperimentName	HCPID	RunNumber	Subject	Session	RandomSeed	Group	Laptop.RefreshRate	ScannerD2.RefreshRate	StudioVersion	RuntimeVersion	RuntimeVersionExpected	ExperimentVersion	triggercode	Allowed	Target	Nontarget	FontStyle	RunTrialNumber[Session]	TrialsPerRun[Session]	TotalRespGreater200[Session]	ConsecRTLess200[Session]	ConsecNonResp[Session]	StimuliDir	ACC_2_Back_Body	Avg_RT_For_Correct_Trials_2_Back_Body	ACC_0_Back_Body	Avg_RT_For_Correct_Trials_0_Back_Body	ACC_2_Back_Face	Avg_RT_For_Correct_Trials_2_Back_Face	ACC_0_Back_Face	Avg_RT_For_Correct_Trials_0_Back_Face	ACC_2_Back_Place	Avg_RT_For_Correct_Trials_2_Back_Place	ACC_0_Back_Place	Avg_RT_For_Correct_Trials_0_Back_Place	ACC_2_Back_Tools	Avg_RT_For_Correct_Trials_2_Back_Tools	ACC_0_Back_Tools	Avg_RT_For_Correct_Trials_0_Back_Tools	ExpInstrucFeelFreeToRest.OnsetDelay	ExpInstrucFeelFreeToRest.OnsetTime	ExpInstrucFeelFreeToRest.DurationError	ExpInstrucFeelFreeToRest.StartTime	ExpInstrucFeelFreeToRest.OnsetToOnsetTime	FeelFreeToRest.OnsetDelay	FeelFreeToRest.OnsetTime	FeelFreeToRest.DurationError	FeelFreeToRest.StartTime	FeelFreeToRest.OnsetToOnsetTime	SessionSelectionList	Procedure[Block]	Stimulus[Block]	RunNumberFilterValue	SessionSelectionList.Cycle	SessionSelectionList.Sample	Running[Block]	IntroButtonMap.OnsetDelay	IntroButtonMap.OnsetTime	IntroButtonMap.DurationError	IntroButtonMap.OnsetToOnsetTime	GetReady.OnsetDelay	GetReady.OnsetTime	GetReady.DurationError	GetReady.OnsetToOnsetTime	Cue2Back.OnsetDelay	Cue2Back.OnsetTime	Cue2Back.DurationError	Cue2Back.OnsetToOnsetTime	Run1Block1	TargetType	CorrectResponse	StimType	BlockType	RunTrialNumber[Block]	TrialsPerRun[Block]	TotalRespGreater200[Block]	ConsecRTLess200[Block]	ConsecNonResp[Block]	ControlAcc	ConsecSameResp	ExperimenterWindow.OnsetDelay	ExperimenterWindow.OnsetTime	ExperimenterWindow.DurationError	ExperimenterWindow.OnsetToOnsetTime	Stim.OnsetDelay	Stim.OnsetTime	Stim.DurationError	Stim.RTTime	Stim.ACC	Stim.RT	Stim.RESP	Stim.CRESP	Stim.OnsetToOnsetTime	Fix.OnsetDelay	Fix.OnsetTime	Fix.DurationError	Fix.OnsetToOnsetTime	CueTarget.OnsetDelay	CueTarget.OnsetTime	CueTarget.DurationError	CueTarget.OnsetToOnsetTime	Run1Block2	Fix15sec.OnsetDelay	Fix15sec.OnsetTime	Fix15sec.DurationError	Fix15sec.OnsetToOnsetTime	Run1Block3	Run1Block4	Run1Block5	Run1Block6	Run1Block7	Run1Block8	Block	Procedure[Trial]	Stimulus[Trial]	ReadyList	Running[Trial]	ReadyList.Cycle	ReadyList.Sample	SyncSlide.OnsetDelay	SyncSlide.OnsetTime	SyncSlide.DurationError	SyncSlide.FinishTime	SyncSlide.OnsetToOnsetTime	Trial
WM080112	118528_fnca	2	1	1	-911993784	1	75.037	75.030	2.0.10.147	2.0.10.242	2.0.10.242	1.0.0.439	7	234	2	3	Verdana	1	80	0	0	0	WM Stimuli\	1	1310.4	1	688.5	1	1006	1	657.1	1	913.1	0.9	641.777777777778	1	720.5	1	762.2	13	319025	2	319013	27	40	319052	-999999	319028	0	22	TRSyncPROC	""	2	2	1	SessionSelectionList	103	5312	-999999	0	33	11870	-999999	0																																																	1	InitialTR	4	1	ReadyList	1	1	19	24851	-20	26831	0	1
WM080112	118528_fnca	2	1	1	-911993784	1	75.037	75.030	2.0.10.147	2.0.10.242	2.0.10.242	1.0.0.439	7	234	2	3	Verdana	1	80	0	0	0	WM Stimuli\	1	1310.4	1	688.5	1	1006	1	657.1	1	913.1	0.9	641.777777777778	1	720.5	1	762.2	13	319025	2	319013	27	40	319052	-999999	319028	0	22	TRSyncPROC	""	2	2	1	SessionSelectionList	103	5312	-999999	0	33	11870	-999999	0																																																	1	InitialTR	3	2	ReadyList	1	2	18	26850	-19	28831	0	2
WM080112	118528_fnca	2	1	1	-911993784	1	75.037	75.030	2.0.10.147	2.0.10.242	2.0.10.242	1.0.0.439	7	234	2	3	Verdana	1	80	0	0	0	WM Stimuli\	1	1310.4	1	688.5	1	1006	1	657.1	1	913.1	0.9	641.777777777778	1	720.5	1	762.2	13	319025	2	319013	27	40	319052	-999999	319028	0	22	TRSyncPROC	""	2	2	1	SessionSelectionList	103	5312	-999999	0	33	11870	-999999	0																																																	1	InitialTR	2	3	ReadyList	1	3	4	28836	-5	30831	0	3
WM080112	118528_fnca	2	1	1	-911993784	1	75.037	75.030	2.0.10.147	2.0.10.242	2.0.10.242	1.0.0.439	7	234	2	3	Verdana	1	80	0	0	0	WM Stimuli\	1	1310.4	1	688.5	1	1006	1	657.1	1	913.1	0.9	641.777777777778	1	720.5	1	762.2	13	319025	2	319013	27	40	319052	-999999	319028	0	22	TRSyncPROC	""	2	2	1	SessionSelectionList	103	5312	-999999	0	33	11870	-999999	0																																																	1	InitialTR	1	4	ReadyList	1	4	3	30835	-4	32831	0	4
WM080112	118528_fnca	2	1	1	-911993784	1	75.037	75.030	2.0.10.147	2.0.10.242	2.0.10.242	1.0.0.439	7	234	2	3	Verdana	1	80	0	0	0	WM Stimuli\	1	1310.4	1	688.5	1	1006	1	657.1	1	913.1	0.9	641.777777777778	1	720.5	1	762.2	13	319025	2	319013	27	40	319052	-999999	319028	0	23	Cue2BackPROC	""	2	2	2	SessionSelectionList									16	32848	-17	0																																													2												
WM080112	118528_fnca	2	1	1	-911993784	1	75.037	75.030	2.0.10.147	2.0.10.242	2.0.10.242	1.0.0.439	7	234	2	3	Verdana	1	80	0	0	0	WM Stimuli\	1	1310.4	1	688.5	1	1006	1	657.1	1	913.1	0.9	641.777777777778	1	720.5	1	762.2	13	319025	2	319013	27	40	319052	-999999	319028	0	24	TrialsPROC	TO_014_TOOL14_BA.png	2	2	3	SessionSelectionList														nonlure	3	Tools	2-Back	2	80	1	0	0	0	1	52	37459	3	14	75	35407	-1	36787	1	1380	3	3	2052	66	37473	-67	0																3												
WM080112	118528_fnca	2	1	1	-911993784	1	75.037	75.030	2.0.10.147	2.0.10.242	2.0.10.242	1.0.0.439	7	234	2	3	Verdana	1	80	0	0	0	WM Stimuli\	1	1310.4	1	688.5	1	1006	1	657.1	1	913.1	0.9	641.777777777778	1	720.5	1	762.2	13	319025	2	319013	27	40	319052	-999999	319028	0	24	TrialsPROC	TO_013_TOOL13_BA.png	2	2	4	SessionSelectionList														nonlure	3	Tools	2-Back	3	80	2	0	0	0	2	40	40032	2	13	85	37992	-1	38693	1	701	3	3	2040	53	40045	-54	0																4												
WM080112	118528_fnca	2	1	1	-911993784	1	75.037	75.030	2.0.10.147	2.0.10.242	2.0.10.242	1.0.0.439	7	234	2	3	Verdana	1	80	0	0	0	WM Stimuli\	1	1310.4	1	688.5	1	1006	1	657.1	1	913.1	0.9	641.777777777778	1	720.5	1	762.2	13	319025	2	319013	27	40	319052	-999999	319028	0	24	TrialsPROC	TO_016_TOOL16_BA.png	2	2	5	SessionSelectionList														nonlure	3	Tools	2-Back	4	80	3	0	0	0	3	39	42604	1	13	73	40565	-1	41150	1	585	3	3	2039	52	42617	-53	0																5												
WM080112	118528_fnca	2	1	1	-911993784	1	75.037	75.030	2.0.10.147	2.0.10.242	2.0.10.242	1.0.0.439	7	234	2	3	Verdana	1	80	0	0	0	WM Stimuli\	1	1310.4	1	688.5	1	1006	1	657.1	1	913.1	0.9	641.777777777778	1	720.5	1	762.2	13	319025	2	319013	27	40	319052	-999999	319028	0	24	TrialsPROC	TO_014_TOOL14_BA.png	2	2	6	SessionSelectionList														lure	3	Tools	2-Back	5	80	4	0	0	0	4	39	45176	2	14	72	43137	-1	44052	1	915	3	3	2039	53	45190	-54	0																6												
WM080112	118528_fnca	2	1	1	-911993784	1	75.037	75.030	2.0.10.147	2.0.10.242	2.0.10.242	1.0.0.439	7	234	2	3	Verdana	1	80	0	0	0	WM Stimuli\	1	1310.4	1	688.5	1	1006	1	657.1	1	913.1	0.9	641.777777777778	1	720.5	1	762.2	13	319025	2	319013	27	40	319052	-999999	319028	0	24	TrialsPROC	TO_016_TOOL16_BA.png	2	2	7	SessionSelectionList														target	2	Tools	2-Back	6	80	5	0	0	0	1	39	47735	1	14	59	45696	-1	46208	1	512	2	2	2039	53	47749	-54	0																7												
WM080112	118528_fnca	2	1	1	-911993784	1	75.037	75.030	2.0.10.147	2.0.10.242	2.0.10.242	1.0.0.439	7	234	2	3	Verdana	1	80	0	0	0	WM Stimuli\	1	1310.4	1	688.5	1	1006	1	657.1	1	913.1	0.9	641.777777777778	1	720.5	1	762.2	13	319025	2	319013	27	40	319052	-999999	319028	0	24	TrialsPROC	TO_018_TOOL18_BA.png	2	2	8	SessionSelectionList														nonlure	3	Tools	2-Back	7	80	6	0	0	0	1	40	50321	1	13	85	48281	-1	48799	1	518	3	3	2040	53	50334	-54	0																8												
WM080112	118528_fnca	2	1	1	-911993784	1	75.037	75.030	2.0.10.147	2.0.10.242	2.0.10.242	1.0.0.439	7	234	2	3	Verdana	1	80	0	0	0	WM Stimuli\	1	1310.4	1	688.5	1	1006	1	657.1	1	913.1	0.9	641.777777777778	1	720.5	1	762.2	13	319025	2	319013	27	40	319052	-999999	319028	0	24	TrialsPROC	TO_017_TOOL17_BA.png	2	2	9	SessionSelectionList														nonlure	3	Tools	2-Back	8	80	7	0	0	0	2	39	52906	2	14	86	50867	-1	51422	1	555	3	3	2039	53	52920	-54	0																9												
WM080112	118528_fnca	2	1	1	-911993784	1	75.037	75.030	2.0.10.147	2.0.10.242	2.0.10.242	1.0.0.439	7	234	2	3	Verdana	1	80	0	0	0	WM Stimuli\	1	1310.4	1	688.5	1	1006	1	657.1	1	913.1	0.9	641.777777777778	1	720.5	1	762.2	13	319025	2	319013	27	40	319052	-999999	319028	0	24	TrialsPROC	TO_018_TOOL18_BA.png	2	2	10	SessionSelectionList														target	2	Tools	2-Back	9	80	8	0	0	0	1	39	55465	2	14	59	53426	-1	53962	1	536	2	2	2039	53	55479	-54	0																10												
WM080112	118528_fnca	2	1	1	-911993784	1	75.037	75.030	2.0.10.147	2.0.10.242	2.0.10.242	1.0.0.439	7	234	2	3	Verdana	1	80	0	0	0	WM Stimuli\	1	1310.4	1	688.5	1	1006	1	657.1	1	913.1	0.9	641.777777777778	1	720.5	1	762.2	13	319025	2	319013	27	40	319052	-999999	319028	0	24	TrialsPROC	TO_015_TOOL15_BA.png	2	2	11	SessionSelectionList														nonlure	3	Tools	2-Back	10	80	9	0	0	0	1	39	58051	1	13	86	56012	-1	56696	1	684	3	3	2039	52	58064	-53	0																11												
WM080112	118528_fnca	2	1	1	-911993784	1	75.037	75.030	2.0.10.147	2.0.10.242	2.0.10.242	1.0.0.439	7	234	2	3	Verdana	1	80	0	0	0	WM Stimuli\	1	1310.4	1	688.5	1	1006	1	657.1	1	913.1	0.9	641.777777777778	1	720.5	1	762.2	13	319025	2	319013	27	40	319052	-999999	319028	0	24	TrialsPROC	TO_017_TOOL17_BA.png	2	2	12	SessionSelectionList														lure	3	Tools	2-Back	11	80	10	0	0	0	2	39	60610	1	13	59	58571	-1	59390	1	819	3	3	2039	52	60623	-53	0																12												
WM080112	118528_fnca	2	1	1	-911993784	1	75.037	75.030	2.0.10.147	2.0.10.242	2.0.10.242	1.0.0.439	7	234	2	3	Verdana	1	80	0	0	0	WM Stimuli\	1	1310.4	1	688.5	1	1006	1	657.1	1	913.1	0.9	641.777777777778	1	720.5	1	762.2	13	319025	2	319013	27	40	319052	-999999	319028	0	25	Cue0BackPROC	BP_013_BP7_BA.png	2	2	13	SessionSelectionList																																										45	61116	-46	0												13												
WM080112	118528_fnca	2	1	1	-911993784	1	75.037	75.030	2.0.10.147	2.0.10.242	2.0.10.242	1.0.0.439	7	234	2	3	Verdana	1	80	0	0	0	WM Stimuli\	1	1310.4	1	688.5	1	1006	1	657.1	1	913.1	0.9	641.777777777778	1	720.5	1	762.2	13	319025	2	319013	27	40	319052	-999999	319028	0	26	TrialsPROC	BP_015_H10-T_BA.png	2	2	14	SessionSelectionList														nonlure	3	Body	0-Back	12	80	11	0	0	100	3	39	65674	2	14	64	63635	-1	64702	1	1067	3	3	2039	53	65688	-54	0																14												
WM080112	118528_fnca	2	1	1	-911993784	1	75.037	75.030	2.0.10.147	2.0.10.242	2.0.10.242	1.0.0.439	7	234	2	3	Verdana	1	80	0	0	0	WM Stimuli\	1	1310.4	1	688.5	1	1006	1	657.1	1	913.1	0.9	641.777777777778	1	720.5	1	762.2	13	319025	2	319013	27	40	319052	-999999	319028	0	26	TrialsPROC	BP_018_H13-T_BA.png	2	2	15	SessionSelectionList														nonlure	3	Body	0-Back	13	80	12	0	0	100	4	39	68260	2	14	86	66221	-1	66758	1	537	3	3	2039	53	68274	-54	0																15												
WM080112	118528_fnca	2	1	1	-911993784	1	75.037	75.030	2.0.10.147	2.0.10.242	2.0.10.242	1.0.0.439	7	234	2	3	Verdana	1	80	0	0	0	WM Stimuli\	1	1310.4	1	688.5	1	1006	1	657.1	1	913.1	0.9	641.777777777778	1	720.5	1	762.2	13	319025	2	319013	27	40	319052	-999999	319028	0	26	TrialsPROC	BP_014_BP9_BA.png	2	2	16	SessionSelectionList														nonlure	3	Body	0-Back	14	80	13	0	0	100	5	40	70846	1	13	85	68806	-1	69611	1	805	3	3	2040	53	70859	-54	0																16												
WM080112	118528_fnca	2	1	1	-911993784	1	75.037	75.030	2.0.10.147	2.0.10.242	2.0.10.242	1.0.0.439	7	234	2	3	Verdana	1	80	0	0	0	WM Stimuli\	1	1310.4	1	688.5	1	1006	1	657.1	1	913.1	0.9	641.777777777778	1	720.5	1	762.2	13	319025	2	319013	27	40	319052	-999999	319028	0	26	TrialsPROC	BP_018_H13-T_BA.png	2	2	17	SessionSelectionList														lure	3	Body	0-Back	15	80	14	0	0	100	6	39	73405	1	13	60	71366	-1	72301	1	935	3	3	2039	52	73418	-53	0																17												
WM080112	118528_fnca	2	1	1	-911993784	1	75.037	75.030	2.0.10.147	2.0.10.242	2.0.10.242	1.0.0.439	7	234	2	3	Verdana	1	80	0	0	0	WM Stimuli\	1	1310.4	1	688.5	1	1006	1	657.1	1	913.1	0.9	641.777777777778	1	720.5	1	762.2	13	319025	2	319013	27	40	319052	-999999	319028	0	26	TrialsPROC	BP_013_BP7_BA.png	2	2	18	SessionSelectionList														target	2	Body	0-Back	16	80	15	0	0	100	1	39	75964	1	13	59	73925	-1	74419	1	494	2	2	2039	52	75977	-53	0																18												
WM080112	118528_fnca	2	1	1	-911993784	1	75.037	75.030	2.0.10.147	2.0.10.242	2.0.10.242	1.0.0.439	7	234	2	3	Verdana	1	80	0	0	0	WM Stimuli\	1	1310.4	1	688.5	1	1006	1	657.1	1	913.1	0.9	641.777777777778	1	720.5	1	762.2	13	319025	2	319013	27	40	319052	-999999	319028	0	26	TrialsPROC	BP_015_H10-T_BA.png	2	2	19	SessionSelectionList														lure	3	Body	0-Back	17	80	16	0	0	100	1	39	78523	1	13	59	76484	-1	77043	1	559	3	3	2039	52	78536	-53	0																19												
WM080112	118528_fnca	2	1	1	-911993784	1	75.037	75.030	2.0.10.147	2.0.10.242	2.0.10.242	1.0.0.439	7	234	2	3	Verdana	1	80	0	0	0	WM Stimuli\	1	1310.4	1	688.5	1	1006	1	657.1	1	913.1	0.9	641.777777777778	1	720.5	1	762.2	13	319025	2	319013	27	40	319052	-999999	319028	0	26	TrialsPROC	BP_016_H11-T_BA.png	2	2	20	SessionSelectionList														nonlure	3	Body	0-Back	18	80	17	0	0	100	2	39	81108	2	14	85	79069	-1	79729	1	660	3	3	2039	53	81122	-54	0																20												
WM080112	118528_fnca	2	1	1	-911993784	1	75.037	75.030	2.0.10.147	2.0.10.242	2.0.10.242	1.0.0.439	7	234	2	3	Verdana	1	80	0	0	0	WM Stimuli\	1	1310.4	1	688.5	1	1006	1	657.1	1	913.1	0.9	641.777777777778	1	720.5	1	762.2	13	319025	2	319013	27	40	319052	-999999	319028	0	26	TrialsPROC	BP_013_BP7_BA.png	2	2	21	SessionSelectionList														target	2	Body	0-Back	19	80	18	0	0	100	1	39	83667	2	14	59	81628	-1	82096	1	468	2	2	2039	53	83681	-54	0																21												
WM080112	118528_fnca	2	1	1	-911993784	1	75.037	75.030	2.0.10.147	2.0.10.242	2.0.10.242	1.0.0.439	7	234	2	3	Verdana	1	80	0	0	0	WM Stimuli\	1	1310.4	1	688.5	1	1006	1	657.1	1	913.1	0.9	641.777777777778	1	720.5	1	762.2	13	319025	2	319013	27	40	319052	-999999	319028	0	26	TrialsPROC	BP_017_H12-T_BA.png	2	2	22	SessionSelectionList														nonlure	3	Body	0-Back	20	80	19	0	0	100	1	39	86253	1	13	86	84214	-1	84918	1	704	3	3	2039	52	86266	-53	0																22												
WM080112	118528_fnca	2	1	1	-911993784	1	75.037	75.030	2.0.10.147	2.0.10.242	2.0.10.242	1.0.0.439	7	234	2	3	Verdana	1	80	0	0	0	WM Stimuli\	1	1310.4	1	688.5	1	1006	1	657.1	1	913.1	0.9	641.777777777778	1	720.5	1	762.2	13	319025	2	319013	27	40	319052	-999999	319028	0	26	TrialsPROC	BP_014_BP9_BA.png	2	2	23	SessionSelectionList														lure	3	Body	0-Back	21	80	20	0	0	100	2	39	88812	1	13	59	86773	-1	87429	1	656	3	3	2039	52	88825	-53	0																23												
WM080112	118528_fnca	2	1	1	-911993784	1	75.037	75.030	2.0.10.147	2.0.10.242	2.0.10.242	1.0.0.439	7	234	2	3	Verdana	1	80	0	0	0	WM Stimuli\	1	1310.4	1	688.5	1	1006	1	657.1	1	913.1	0.9	641.777777777778	1	720.5	1	762.2	13	319025	2	319013	27	40	319052	-999999	319028	0	27	Fix15secPROC	""	2	2	24	SessionSelectionList																																															5	89278	-6	0							24												
WM080112	118528_fnca	2	1	1	-911993784	1	75.037	75.030	2.0.10.147	2.0.10.242	2.0.10.242	1.0.0.439	7	234	2	3	Verdana	1	80	0	0	0	WM Stimuli\	1	1310.4	1	688.5	1	1006	1	657.1	1	913.1	0.9	641.777777777778	1	720.5	1	762.2	13	319025	2	319013	27	40	319052	-999999	319028	0	28	Cue2BackPROC	""	2	2	25	SessionSelectionList									12	104285	-13	0																																													25												
WM080112	118528_fnca	2	1	1	-911993784	1	75.037	75.030	2.0.10.147	2.0.10.242	2.0.10.242	1.0.0.439	7	234	2	3	Verdana	1	80	0	0	0	WM Stimuli\	1	1310.4	1	688.5	1	1006	1	657.1	1	913.1	0.9	641.777777777778	1	720.5	1	762.2	13	319025	2	319013	27	40	319052	-999999	319028	0	29	TrialsPROC	FC_015_M8.png	2	2	26	SessionSelectionList														nonlure	3	Face	2-Back	22	80	21	0	0	100	3	39	108897	1	14	85	106858	-1	108105	1	1247	3	3	2039	53	108911	-54	0																26												
WM080112	118528_fnca	2	1	1	-911993784	1	75.037	75.030	2.0.10.147	2.0.10.242	2.0.10.242	1.0.0.439	7	234	2	3	Verdana	1	80	0	0	0	WM Stimuli\	1	1310.4	1	688.5	1	1006	1	657.1	1	913.1	0.9	641.777777777778	1	720.5	1	762.2	13	319025	2	319013	27	40	319052	-999999	319028	0	29	TrialsPROC	FC_018_F9.png	2	2	27	SessionSelectionList														nonlure	3	Face	2-Back	23	80	22	0	0	100	4	39	111496	1	13	99	109457	-1	110281	1	824	3	3	2039	52	111509	-53	0																27												
WM080112	118528_fnca	2	1	1	-911993784	1	75.037	75.030	2.0.10.147	2.0.10.242	2.0.10.242	1.0.0.439	7	234	2	3	Verdana	1	80	0	0	0	WM Stimuli\	1	1310.4	1	688.5	1	1006	1	657.1	1	913.1	0.9	641.777777777778	1	720.5	1	762.2	13	319025	2	319013	27	40	319052	-999999	319028	0	29	TrialsPROC	FC_018_F9.png	2	2	28	SessionSelectionList														lure	3	Face	2-Back	24	80	23	0	0	100	5	39	114068	2	14	72	112029	-1	113219	1	1190	3	3	2039	53	114082	-54	0																28												
WM080112	118528_fnca	2	1	1	-911993784	1	75.037	75.030	2.0.10.147	2.0.10.242	2.0.10.242	1.0.0.439	7	234	2	3	Verdana	1	80	0	0	0	WM Stimuli\	1	1310.4	1	688.5	1	1006	1	657.1	1	913.1	0.9	641.777777777778	1	720.5	1	762.2	13	319025	2	319013	27	40	319052	-999999	319028	0	29	TrialsPROC	FC_017_M9.png	2	2	29	SessionSelectionList														nonlure	3	Face	2-Back	25	80	24	0	0	100	6	39	116654	1	13	86	114615	-1	115477	1	862	3	3	2039	52	116667	-53	0																29												
WM080112	118528_fnca	2	1	1	-911993784	1	75.037	75.030	2.0.10.147	2.0.10.242	2.0.10.242	1.0.0.439	7	234	2	3	Verdana	1	80	0	0	0	WM Stimuli\	1	1310.4	1	688.5	1	1006	1	657.1	1	913.1	0.9	641.777777777778	1	720.5	1	762.2	13	319025	2	319013	27	40	319052	-999999	319028	0	29	TrialsPROC	FC_017_M9.png	2	2	30	SessionSelectionList														lure	3	Face	2-Back	26	80	25	0	0	100	7	39	119226	1	14	72	117187	-1	118127	1	940	3	3	2039	53	119240	-54	0																30												
WM080112	118528_fnca	2	1	1	-911993784	1	75.037	75.030	2.0.10.147	2.0.10.242	2.0.10.242	1.0.0.439	7	234	2	3	Verdana	1	80	0	0	0	WM Stimuli\	1	1310.4	1	688.5	1	1006	1	657.1	1	913.1	0.9	641.777777777778	1	720.5	1	762.2	13	319025	2	319013	27	40	319052	-999999	319028	0	29	TrialsPROC	FC_016_F8.png	2	2	31	SessionSelectionList														nonlure	3	Face	2-Back	27	80	26	0	0	100	8	40	121812	1	13	85	119772	-1	120633	1	861	3	3	2040	53	121825	-54	0																31												
WM080112	118528_fnca	2	1	1	-911993784	1	75.037	75.030	2.0.10.147	2.0.10.242	2.0.10.242	1.0.0.439	7	234	2	3	Verdana	1	80	0	0	0	WM Stimuli\	1	1310.4	1	688.5	1	1006	1	657.1	1	913.1	0.9	641.777777777778	1	720.5	1	762.2	13	319025	2	319013	27	40	319052	-999999	319028	0	29	TrialsPROC	FC_013_M7.png	2	2	32	SessionSelectionList														nonlure	3	Face	2-Back	28	80	27	0	0	100	9	40	124411	1	13	99	122371	-1	123099	1	728	3	3	2040	53	124424	-54	0																32												
WM080112	118528_fnca	2	1	1	-911993784	1	75.037	75.030	2.0.10.147	2.0.10.242	2.0.10.242	1.0.0.439	7	234	2	3	Verdana	1	80	0	0	0	WM Stimuli\	1	1310.4	1	688.5	1	1006	1	657.1	1	913.1	0.9	641.777777777778	1	720.5	1	762.2	13	319025	2	319013	27	40	319052	-999999	319028	0	29	TrialsPROC	FC_014_F7.png	2	2	33	SessionSelectionList														nonlure	3	Face	2-Back	29	80	28	0	0	100	10	40	127010	1	13	99	124970	-1	125672	1	702	3	3	2040	53	127023	-54	0																33												
WM080112	118528_fnca	2	1	1	-911993784	1	75.037	75.030	2.0.10.147	2.0.10.242	2.0.10.242	1.0.0.439	7	234	2	3	Verdana	1	80	0	0	0	WM Stimuli\	1	1310.4	1	688.5	1	1006	1	657.1	1	913.1	0.9	641.777777777778	1	720.5	1	762.2	13	319025	2	319013	27	40	319052	-999999	319028	0	29	TrialsPROC	FC_013_M7.png	2	2	34	SessionSelectionList														target	2	Face	2-Back	30	80	29	0	0	100	1	39	129582	1	13	73	127543	-1	128592	1	1049	2	2	2039	52	129595	-53	0																34												
WM080112	118528_fnca	2	1	1	-911993784	1	75.037	75.030	2.0.10.147	2.0.10.242	2.0.10.242	1.0.0.439	7	234	2	3	Verdana	1	80	0	0	0	WM Stimuli\	1	1310.4	1	688.5	1	1006	1	657.1	1	913.1	0.9	641.777777777778	1	720.5	1	762.2	13	319025	2	319013	27	40	319052	-999999	319028	0	29	TrialsPROC	FC_014_F7.png	2	2	35	SessionSelectionList														target	2	Face	2-Back	31	80	30	0	0	100	2	39	132154	2	14	72	130115	-1	131772	1	1657	2	2	2039	53	132168	-54	0																35												
WM080112	118528_fnca	2	1	1	-911993784	1	75.037	75.030	2.0.10.147	2.0.10.242	2.0.10.242	1.0.0.439	7	234	2	3	Verdana	1	80	0	0	0	WM Stimuli\	1	1310.4	1	688.5	1	1006	1	657.1	1	913.1	0.9	641.777777777778	1	720.5	1	762.2	13	319025	2	319013	27	40	319052	-999999	319028	0	30	Cue0BackPROC	TO_019_TOOL19_BA.png	2	2	36	SessionSelectionList																																										46	132661	-47	0												36												
WM080112	118528_fnca	2	1	1	-911993784	1	75.037	75.030	2.0.10.147	2.0.10.242	2.0.10.242	1.0.0.439	7	234	2	3	Verdana	1	80	0	0	0	WM Stimuli\	1	1310.4	1	688.5	1	1006	1	657.1	1	913.1	0.9	641.777777777778	1	720.5	1	762.2	13	319025	2	319013	27	40	319052	-999999	319028	0	31	TrialsPROC	TO_019_TOOL19_BA.png	2	2	37	SessionSelectionList														target	2	Tools	0-Back	32	80	31	0	0	100	3	39	137205	2	14	51	135166	-1	136629	1	1463	2	2	2039	53	137219	-54	0																37												
WM080112	118528_fnca	2	1	1	-911993784	1	75.037	75.030	2.0.10.147	2.0.10.242	2.0.10.242	1.0.0.439	7	234	2	3	Verdana	1	80	0	0	0	WM Stimuli\	1	1310.4	1	688.5	1	1006	1	657.1	1	913.1	0.9	641.777777777778	1	720.5	1	762.2	13	319025	2	319013	27	40	319052	-999999	319028	0	31	TrialsPROC	TO_024_TOOL24_BA.png	2	2	38	SessionSelectionList														nonlure	3	Tools	0-Back	33	80	32	0	0	100	1	39	139791	1	14	86	137752	-1	138444	1	692	3	3	2039	53	139805	-54	0																38												
WM080112	118528_fnca	2	1	1	-911993784	1	75.037	75.030	2.0.10.147	2.0.10.242	2.0.10.242	1.0.0.439	7	234	2	3	Verdana	1	80	0	0	0	WM Stimuli\	1	1310.4	1	688.5	1	1006	1	657.1	1	913.1	0.9	641.777777777778	1	720.5	1	762.2	13	319025	2	319013	27	40	319052	-999999	319028	0	31	TrialsPROC	TO_019_TOOL19_BA.png	2	2	39	SessionSelectionList														target	2	Tools	0-Back	34	80	33	0	0	100	1	39	142350	1	14	59	140311	-1	140968	1	657	2	2	2039	53	142364	-54	0																39												
WM080112	118528_fnca	2	1	1	-911993784	1	75.037	75.030	2.0.10.147	2.0.10.242	2.0.10.242	1.0.0.439	7	234	2	3	Verdana	1	80	0	0	0	WM Stimuli\	1	1310.4	1	688.5	1	1006	1	657.1	1	913.1	0.9	641.777777777778	1	720.5	1	762.2	13	319025	2	319013	27	40	319052	-999999	319028	0	31	TrialsPROC	TO_023_TOOL23_BA.png	2	2	40	SessionSelectionList														nonlure	3	Tools	0-Back	35	80	34	0	0	100	1	40	144936	1	13	85	142896	-1	143618	1	722	3	3	2040	53	144949	-54	0																40												
WM080112	118528_fnca	2	1	1	-911993784	1	75.037	75.030	2.0.10.147	2.0.10.242	2.0.10.242	1.0.0.439	7	234	2	3	Verdana	1	80	0	0	0	WM Stimuli\	1	1310.4	1	688.5	1	1006	1	657.1	1	913.1	0.9	641.777777777778	1	720.5	1	762.2	13	319025	2	319013	27	40	319052	-999999	319028	0	31	TrialsPROC	TO_020_TOOL20_BA.png	2	2	41	SessionSelectionList														nonlure	3	Tools	0-Back	36	80	35	0	0	100	2	39	147521	2	14	86	145482	-1	146133	1	651	3	3	2039	53	147535	-54	0																41												
WM080112	118528_fnca	2	1	1	-911993784	1	75.037	75.030	2.0.10.147	2.0.10.242	2.0.10.242	1.0.0.439	7	234	2	3	Verdana	1	80	0	0	0	WM Stimuli\	1	1310.4	1	688.5	1	1006	1	657.1	1	913.1	0.9	641.777777777778	1	720.5	1	762.2	13	319025	2	319013	27	40	319052	-999999	319028	0	31	TrialsPROC	TO_020_TOOL20_BA.png	2	2	42	SessionSelectionList														lure	3	Tools	0-Back	37	80	36	0	0	100	3	39	150080	2	14	59	148041	-1	148534	1	493	3	3	2039	53	150094	-54	0																42												
WM080112	118528_fnca	2	1	1	-911993784	1	75.037	75.030	2.0.10.147	2.0.10.242	2.0.10.242	1.0.0.439	7	234	2	3	Verdana	1	80	0	0	0	WM Stimuli\	1	1310.4	1	688.5	1	1006	1	657.1	1	913.1	0.9	641.777777777778	1	720.5	1	762.2	13	319025	2	319013	27	40	319052	-999999	319028	0	31	TrialsPROC	TO_022_TOOL22_BA.png	2	2	43	SessionSelectionList														nonlure	3	Tools	0-Back	38	80	37	0	0	100	4	39	152652	2	14	72	150613	-1	151297	1	684	3	3	2039	53	152666	-54	0																43												
WM080112	118528_fnca	2	1	1	-911993784	1	75.037	75.030	2.0.10.147	2.0.10.242	2.0.10.242	1.0.0.439	7	234	2	3	Verdana	1	80	0	0	0	WM Stimuli\	1	1310.4	1	688.5	1	1006	1	657.1	1	913.1	0.9	641.777777777778	1	720.5	1	762.2	13	319025	2	319013	27	40	319052	-999999	319028	0	31	TrialsPROC	TO_022_TOOL22_BA.png	2	2	44	SessionSelectionList														lure	3	Tools	0-Back	39	80	38	0	0	100	5	39	155211	2	14	59	153172	-1	153915	1	743	3	3	2039	53	155225	-54	0																44												
WM080112	118528_fnca	2	1	1	-911993784	1	75.037	75.030	2.0.10.147	2.0.10.242	2.0.10.242	1.0.0.439	7	234	2	3	Verdana	1	80	0	0	0	WM Stimuli\	1	1310.4	1	688.5	1	1006	1	657.1	1	913.1	0.9	641.777777777778	1	720.5	1	762.2	13	319025	2	319013	27	40	319052	-999999	319028	0	31	TrialsPROC	TO_021_TOOL21_BA.png	2	2	45	SessionSelectionList														nonlure	3	Tools	0-Back	40	80	39	0	0	100	6	39	157797	1	14	86	155758	-1	156585	1	827	3	3	2039	53	157811	-54	0																45												
WM080112	118528_fnca	2	1	1	-911993784	1	75.037	75.030	2.0.10.147	2.0.10.242	2.0.10.242	1.0.0.439	7	234	2	3	Verdana	1	80	0	0	0	WM Stimuli\	1	1310.4	1	688.5	1	1006	1	657.1	1	913.1	0.9	641.777777777778	1	720.5	1	762.2	13	319025	2	319013	27	40	319052	-999999	319028	0	31	TrialsPROC	TO_021_TOOL21_BA.png	2	2	46	SessionSelectionList														lure	3	Tools	0-Back	41	80	40	0	0	100	7	39	160356	1	14	59	158317	-1	159007	1	690	3	3	2039	53	160370	-54	0																46												
WM080112	118528_fnca	2	1	1	-911993784	1	75.037	75.030	2.0.10.147	2.0.10.242	2.0.10.242	1.0.0.439	7	234	2	3	Verdana	1	80	0	0	0	WM Stimuli\	1	1310.4	1	688.5	1	1006	1	657.1	1	913.1	0.9	641.777777777778	1	720.5	1	762.2	13	319025	2	319013	27	40	319052	-999999	319028	0	32	Fix15secPROC	""	2	2	47	SessionSelectionList																																															6	160823	-7	0							47												
WM080112	118528_fnca	2	1	1	-911993784	1	75.037	75.030	2.0.10.147	2.0.10.242	2.0.10.242	1.0.0.439	7	234	2	3	Verdana	1	80	0	0	0	WM Stimuli\	1	1310.4	1	688.5	1	1006	1	657.1	1	913.1	0.9	641.777777777778	1	720.5	1	762.2	13	319025	2	319013	27	40	319052	-999999	319028	0	33	Cue2BackPROC	""	2	2	48	SessionSelectionList									13	175830	-14	0																																													48												
WM080112	118528_fnca	2	1	1	-911993784	1	75.037	75.030	2.0.10.147	2.0.10.242	2.0.10.242	1.0.0.439	7	234	2	3	Verdana	1	80	0	0	0	WM Stimuli\	1	1310.4	1	688.5	1	1006	1	657.1	1	913.1	0.9	641.777777777778	1	720.5	1	762.2	13	319025	2	319013	27	40	319052	-999999	319028	0	34	TrialsPROC	BP_020_H17-T_BA.png	2	2	49	SessionSelectionList														nonlure	3	Body	2-Back	42	80	41	0	0	100	8	39	180441	2	14	85	178402	-1	179258	1	856	3	3	2039	53	180455	-54	0																49												
WM080112	118528_fnca	2	1	1	-911993784	1	75.037	75.030	2.0.10.147	2.0.10.242	2.0.10.242	1.0.0.439	7	234	2	3	Verdana	1	80	0	0	0	WM Stimuli\	1	1310.4	1	688.5	1	1006	1	657.1	1	913.1	0.9	641.777777777778	1	720.5	1	762.2	13	319025	2	319013	27	40	319052	-999999	319028	0	34	TrialsPROC	BP_019_H14-T_BA.png	2	2	50	SessionSelectionList														nonlure	3	Body	2-Back	43	80	42	0	0	100	9	39	183027	1	13	86	180988	-1	182407	1	1419	3	3	2039	52	183040	-53	0																50												
WM080112	118528_fnca	2	1	1	-911993784	1	75.037	75.030	2.0.10.147	2.0.10.242	2.0.10.242	1.0.0.439	7	234	2	3	Verdana	1	80	0	0	0	WM Stimuli\	1	1310.4	1	688.5	1	1006	1	657.1	1	913.1	0.9	641.777777777778	1	720.5	1	762.2	13	319025	2	319013	27	40	319052	-999999	319028	0	34	TrialsPROC	BP_020_H17-T_BA.png	2	2	51	SessionSelectionList														target	2	Body	2-Back	44	80	43	0	0	100	1	39	185586	1	13	59	183547	-1	184720	1	1173	2	2	2039	52	185599	-53	0																51												
WM080112	118528_fnca	2	1	1	-911993784	1	75.037	75.030	2.0.10.147	2.0.10.242	2.0.10.242	1.0.0.439	7	234	2	3	Verdana	1	80	0	0	0	WM Stimuli\	1	1310.4	1	688.5	1	1006	1	657.1	1	913.1	0.9	641.777777777778	1	720.5	1	762.2	13	319025	2	319013	27	40	319052	-999999	319028	0	34	TrialsPROC	BP_019_H14-T_BA.png	2	2	52	SessionSelectionList														target	2	Body	2-Back	45	80	44	0	0	100	2	39	188145	1	13	59	186106	-1	187142	1	1036	2	2	2039	52	188158	-53	0																52												
WM080112	118528_fnca	2	1	1	-911993784	1	75.037	75.030	2.0.10.147	2.0.10.242	2.0.10.242	1.0.0.439	7	234	2	3	Verdana	1	80	0	0	0	WM Stimuli\	1	1310.4	1	688.5	1	1006	1	657.1	1	913.1	0.9	641.777777777778	1	720.5	1	762.2	13	319025	2	319013	27	40	319052	-999999	319028	0	34	TrialsPROC	BP_024_H3-T_BA.png	2	2	53	SessionSelectionList														nonlure	3	Body	2-Back	46	80	45	0	0	100	1	39	190730	2	14	85	188691	-1	190282	1	1591	3	3	2039	53	190744	-54	0																53												
WM080112	118528_fnca	2	1	1	-911993784	1	75.037	75.030	2.0.10.147	2.0.10.242	2.0.10.242	1.0.0.439	7	234	2	3	Verdana	1	80	0	0	0	WM Stimuli\	1	1310.4	1	688.5	1	1006	1	657.1	1	913.1	0.9	641.777777777778	1	720.5	1	762.2	13	319025	2	319013	27	40	319052	-999999	319028	0	34	TrialsPROC	BP_024_H3-T_BA.png	2	2	54	SessionSelectionList														lure	3	Body	2-Back	47	80	46	0	0	100	2	39	193289	2	14	59	191250	-1	192581	1	1331	3	3	2039	53	193303	-54	0																54												
WM080112	118528_fnca	2	1	1	-911993784	1	75.037	75.030	2.0.10.147	2.0.10.242	2.0.10.242	1.0.0.439	7	234	2	3	Verdana	1	80	0	0	0	WM Stimuli\	1	1310.4	1	688.5	1	1006	1	657.1	1	913.1	0.9	641.777777777778	1	720.5	1	762.2	13	319025	2	319013	27	40	319052	-999999	319028	0	34	TrialsPROC	BP_025_H5-T_BA.png	2	2	55	SessionSelectionList														nonlure	3	Body	2-Back	48	80	47	0	0	100	3	39	195875	1	14	86	193836	-1	195176	1	1340	3	3	2039	53	195889	-54	0																55												
WM080112	118528_fnca	2	1	1	-911993784	1	75.037	75.030	2.0.10.147	2.0.10.242	2.0.10.242	1.0.0.439	7	234	2	3	Verdana	1	80	0	0	0	WM Stimuli\	1	1310.4	1	688.5	1	1006	1	657.1	1	913.1	0.9	641.777777777778	1	720.5	1	762.2	13	319025	2	319013	27	40	319052	-999999	319028	0	34	TrialsPROC	BP_023_H25-T_BA.png	2	2	56	SessionSelectionList														nonlure	3	Body	2-Back	49	80	48	0	0	100	4	39	198447	2	14	72	196408	-1	197559	1	1151	3	3	2039	53	198461	-54	0																56												
WM080112	118528_fnca	2	1	1	-911993784	1	75.037	75.030	2.0.10.147	2.0.10.242	2.0.10.242	1.0.0.439	7	234	2	3	Verdana	1	80	0	0	0	WM Stimuli\	1	1310.4	1	688.5	1	1006	1	657.1	1	913.1	0.9	641.777777777778	1	720.5	1	762.2	13	319025	2	319013	27	40	319052	-999999	319028	0	34	TrialsPROC	BP_022_H24-T_BA.png	2	2	57	SessionSelectionList														nonlure	3	Body	2-Back	50	80	49	0	0	100	5	39	201019	2	14	72	198980	-1	200603	1	1623	3	3	2039	53	201033	-54	0																57												
WM080112	118528_fnca	2	1	1	-911993784	1	75.037	75.030	2.0.10.147	2.0.10.242	2.0.10.242	1.0.0.439	7	234	2	3	Verdana	1	80	0	0	0	WM Stimuli\	1	1310.4	1	688.5	1	1006	1	657.1	1	913.1	0.9	641.777777777778	1	720.5	1	762.2	13	319025	2	319013	27	40	319052	-999999	319028	0	34	TrialsPROC	BP_022_H24-T_BA.png	2	2	58	SessionSelectionList														lure	3	Body	2-Back	51	80	50	0	0	100	6	39	203578	2	14	59	201539	-1	203123	1	1584	3	3	2039	53	203592	-54	0																58												
WM080112	118528_fnca	2	1	1	-911993784	1	75.037	75.030	2.0.10.147	2.0.10.242	2.0.10.242	1.0.0.439	7	234	2	3	Verdana	1	80	0	0	0	WM Stimuli\	1	1310.4	1	688.5	1	1006	1	657.1	1	913.1	0.9	641.777777777778	1	720.5	1	762.2	13	319025	2	319013	27	40	319052	-999999	319028	0	35	Cue2BackPROC	""	2	2	59	SessionSelectionList									6	204045	-7	0																																													59												
WM080112	118528_fnca	2	1	1	-911993784	1	75.037	75.030	2.0.10.147	2.0.10.242	2.0.10.242	1.0.0.439	7	234	2	3	Verdana	1	80	0	0	0	WM Stimuli\	1	1310.4	1	688.5	1	1006	1	657.1	1	913.1	0.9	641.777777777778	1	720.5	1	762.2	13	319025	2	319013	27	40	319052	-999999	319028	0	36	TrialsPROC	PL_019_SCENE_05.png	2	2	60	SessionSelectionList														nonlure	3	Place	2-Back	52	80	51	0	0	100	7	39	208670	1	13	92	206631	-1	207754	1	1123	3	3	2039	52	208683	-53	0																60												
WM080112	118528_fnca	2	1	1	-911993784	1	75.037	75.030	2.0.10.147	2.0.10.242	2.0.10.242	1.0.0.439	7	234	2	3	Verdana	1	80	0	0	0	WM Stimuli\	1	1310.4	1	688.5	1	1006	1	657.1	1	913.1	0.9	641.777777777778	1	720.5	1	762.2	13	319025	2	319013	27	40	319052	-999999	319028	0	36	TrialsPROC	PL_017_SCENE_03.png	2	2	61	SessionSelectionList														nonlure	3	Place	2-Back	53	80	52	0	0	100	8	40	211269	1	13	98	209229	-1	209887	1	658	3	3	2040	53	211282	-54	0																61												
WM080112	118528_fnca	2	1	1	-911993784	1	75.037	75.030	2.0.10.147	2.0.10.242	2.0.10.242	1.0.0.439	7	234	2	3	Verdana	1	80	0	0	0	WM Stimuli\	1	1310.4	1	688.5	1	1006	1	657.1	1	913.1	0.9	641.777777777778	1	720.5	1	762.2	13	319025	2	319013	27	40	319052	-999999	319028	0	36	TrialsPROC	PL_017_SCENE_03.png	2	2	62	SessionSelectionList														lure	3	Place	2-Back	54	80	53	0	0	100	9	39	213841	1	14	73	211802	-1	213263	1	1461	3	3	2039	53	213855	-54	0																62												
WM080112	118528_fnca	2	1	1	-911993784	1	75.037	75.030	2.0.10.147	2.0.10.242	2.0.10.242	1.0.0.439	7	234	2	3	Verdana	1	80	0	0	0	WM Stimuli\	1	1310.4	1	688.5	1	1006	1	657.1	1	913.1	0.9	641.777777777778	1	720.5	1	762.2	13	319025	2	319013	27	40	319052	-999999	319028	0	36	TrialsPROC	PL_016_SCENE_02.png	2	2	63	SessionSelectionList														nonlure	3	Place	2-Back	55	80	54	0	0	100	10	39	216440	1	14	99	214401	-1	215544	1	1143	3	3	2039	53	216454	-54	0																63												
WM080112	118528_fnca	2	1	1	-911993784	1	75.037	75.030	2.0.10.147	2.0.10.242	2.0.10.242	1.0.0.439	7	234	2	3	Verdana	1	80	0	0	0	WM Stimuli\	1	1310.4	1	688.5	1	1006	1	657.1	1	913.1	0.9	641.777777777778	1	720.5	1	762.2	13	319025	2	319013	27	40	319052	-999999	319028	0	36	TrialsPROC	PL_015_SCENE_01.png	2	2	64	SessionSelectionList														nonlure	3	Place	2-Back	56	80	55	0	0	100	11	39	219039	1	14	99	217000	-1	217861	1	861	3	3	2039	53	219053	-54	0																64												
WM080112	118528_fnca	2	1	1	-911993784	1	75.037	75.030	2.0.10.147	2.0.10.242	2.0.10.242	1.0.0.439	7	234	2	3	Verdana	1	80	0	0	0	WM Stimuli\	1	1310.4	1	688.5	1	1006	1	657.1	1	913.1	0.9	641.777777777778	1	720.5	1	762.2	13	319025	2	319013	27	40	319052	-999999	319028	0	36	TrialsPROC	PL_016_SCENE_02.png	2	2	65	SessionSelectionList														target	2	Place	2-Back	57	80	56	0	0	100	1	39	221611	2	14	72	219572	-1	220339	1	767	2	2	2039	53	221625	-54	0																65												
WM080112	118528_fnca	2	1	1	-911993784	1	75.037	75.030	2.0.10.147	2.0.10.242	2.0.10.242	1.0.0.439	7	234	2	3	Verdana	1	80	0	0	0	WM Stimuli\	1	1310.4	1	688.5	1	1006	1	657.1	1	913.1	0.9	641.777777777778	1	720.5	1	762.2	13	319025	2	319013	27	40	319052	-999999	319028	0	36	TrialsPROC	PL_015_SCENE_01.png	2	2	66	SessionSelectionList														target	2	Place	2-Back	58	80	57	0	0	100	2	39	224183	2	14	72	222144	-1	223115	1	971	2	2	2039	53	224197	-54	0																66												
WM080112	118528_fnca	2	1	1	-911993784	1	75.037	75.030	2.0.10.147	2.0.10.242	2.0.10.242	1.0.0.439	7	234	2	3	Verdana	1	80	0	0	0	WM Stimuli\	1	1310.4	1	688.5	1	1006	1	657.1	1	913.1	0.9	641.777777777778	1	720.5	1	762.2	13	319025	2	319013	27	40	319052	-999999	319028	0	36	TrialsPROC	PL_020_SCENE_06.png	2	2	67	SessionSelectionList														nonlure	3	Place	2-Back	59	80	58	0	0	100	1	39	226769	2	14	86	224730	-1	225503	1	773	3	3	2039	53	226783	-54	0																67												
WM080112	118528_fnca	2	1	1	-911993784	1	75.037	75.030	2.0.10.147	2.0.10.242	2.0.10.242	1.0.0.439	7	234	2	3	Verdana	1	80	0	0	0	WM Stimuli\	1	1310.4	1	688.5	1	1006	1	657.1	1	913.1	0.9	641.777777777778	1	720.5	1	762.2	13	319025	2	319013	27	40	319052	-999999	319028	0	36	TrialsPROC	PL_020_SCENE_06.png	2	2	68	SessionSelectionList														lure	3	Place	2-Back	60	80	59	0	0	100	2	39	229341	2	14	72	227302	-1	227967	1	665	3	3	2039	53	229355	-54	0																68												
WM080112	118528_fnca	2	1	1	-911993784	1	75.037	75.030	2.0.10.147	2.0.10.242	2.0.10.242	1.0.0.439	7	234	2	3	Verdana	1	80	0	0	0	WM Stimuli\	1	1310.4	1	688.5	1	1006	1	657.1	1	913.1	0.9	641.777777777778	1	720.5	1	762.2	13	319025	2	319013	27	40	319052	-999999	319028	0	36	TrialsPROC	PL_018_SCENE_04.png	2	2	69	SessionSelectionList														nonlure	3	Place	2-Back	61	80	60	0	0	100	3	39	231927	1	14	86	229888	-1	230597	1	709	3	3	2039	53	231941	-54	0																69												
WM080112	118528_fnca	2	1	1	-911993784	1	75.037	75.030	2.0.10.147	2.0.10.242	2.0.10.242	1.0.0.439	7	234	2	3	Verdana	1	80	0	0	0	WM Stimuli\	1	1310.4	1	688.5	1	1006	1	657.1	1	913.1	0.9	641.777777777778	1	720.5	1	762.2	13	319025	2	319013	27	40	319052	-999999	319028	0	37	Fix15secPROC	""	2	2	70	SessionSelectionList																																															6	232394	-7	0							70												
WM080112	118528_fnca	2	1	1	-911993784	1	75.037	75.030	2.0.10.147	2.0.10.242	2.0.10.242	1.0.0.439	7	234	2	3	Verdana	1	80	0	0	0	WM Stimuli\	1	1310.4	1	688.5	1	1006	1	657.1	1	913.1	0.9	641.777777777778	1	720.5	1	762.2	13	319025	2	319013	27	40	319052	-999999	319028	0	38	Cue0BackPROC	FC_020_F10.png	2	2	71	SessionSelectionList																																										39	247427	-40	0												71												
WM080112	118528_fnca	2	1	1	-911993784	1	75.037	75.030	2.0.10.147	2.0.10.242	2.0.10.242	1.0.0.439	7	234	2	3	Verdana	1	80	0	0	0	WM Stimuli\	1	1310.4	1	688.5	1	1006	1	657.1	1	913.1	0.9	641.777777777778	1	720.5	1	762.2	13	319025	2	319013	27	40	319052	-999999	319028	0	39	TrialsPROC	FC_024_F12.png	2	2	72	SessionSelectionList														nonlure	3	Face	0-Back	62	80	61	0	0	100	4	39	252012	2	14	85	249973	-1	250881	1	908	3	3	2039	53	252026	-54	0																72												
WM080112	118528_fnca	2	1	1	-911993784	1	75.037	75.030	2.0.10.147	2.0.10.242	2.0.10.242	1.0.0.439	7	234	2	3	Verdana	1	80	0	0	0	WM Stimuli\	1	1310.4	1	688.5	1	1006	1	657.1	1	913.1	0.9	641.777777777778	1	720.5	1	762.2	13	319025	2	319013	27	40	319052	-999999	319028	0	39	TrialsPROC	FC_023_M12.png	2	2	73	SessionSelectionList														nonlure	3	Face	0-Back	63	80	62	0	0	100	5	39	254598	1	13	86	252559	-1	253205	1	646	3	3	2039	52	254611	-53	0																73												
WM080112	118528_fnca	2	1	1	-911993784	1	75.037	75.030	2.0.10.147	2.0.10.242	2.0.10.242	1.0.0.439	7	234	2	3	Verdana	1	80	0	0	0	WM Stimuli\	1	1310.4	1	688.5	1	1006	1	657.1	1	913.1	0.9	641.777777777778	1	720.5	1	762.2	13	319025	2	319013	27	40	319052	-999999	319028	0	39	TrialsPROC	FC_020_F10.png	2	2	74	SessionSelectionList														target	2	Face	0-Back	64	80	63	0	0	100	1	39	257170	1	14	72	255131	-1	255826	1	695	2	2	2039	53	257184	-54	0																74												
WM080112	118528_fnca	2	1	1	-911993784	1	75.037	75.030	2.0.10.147	2.0.10.242	2.0.10.242	1.0.0.439	7	234	2	3	Verdana	1	80	0	0	0	WM Stimuli\	1	1310.4	1	688.5	1	1006	1	657.1	1	913.1	0.9	641.777777777778	1	720.5	1	762.2	13	319025	2	319013	27	40	319052	-999999	319028	0	39	TrialsPROC	FC_024_F12.png	2	2	75	SessionSelectionList														lure	3	Face	0-Back	65	80	64	0	0	100	1	39	259742	2	14	72	257703	-1	258253	1	550	3	3	2039	53	259756	-54	0																75												
WM080112	118528_fnca	2	1	1	-911993784	1	75.037	75.030	2.0.10.147	2.0.10.242	2.0.10.242	1.0.0.439	7	234	2	3	Verdana	1	80	0	0	0	WM Stimuli\	1	1310.4	1	688.5	1	1006	1	657.1	1	913.1	0.9	641.777777777778	1	720.5	1	762.2	13	319025	2	319013	27	40	319052	-999999	319028	0	39	TrialsPROC	FC_020_F10.png	2	2	76	SessionSelectionList														target	2	Face	0-Back	66	80	65	0	0	100	1	40	262315	1	13	72	260275	-1	260774	1	499	2	2	2040	53	262328	-54	0																76												
WM080112	118528_fnca	2	1	1	-911993784	1	75.037	75.030	2.0.10.147	2.0.10.242	2.0.10.242	1.0.0.439	7	234	2	3	Verdana	1	80	0	0	0	WM Stimuli\	1	1310.4	1	688.5	1	1006	1	657.1	1	913.1	0.9	641.777777777778	1	720.5	1	762.2	13	319025	2	319013	27	40	319052	-999999	319028	0	39	TrialsPROC	FC_022_F11.png	2	2	77	SessionSelectionList														nonlure	3	Face	0-Back	67	80	66	0	0	100	1	39	264900	2	14	86	262861	-1	263580	1	719	3	3	2039	53	264914	-54	0																77												
WM080112	118528_fnca	2	1	1	-911993784	1	75.037	75.030	2.0.10.147	2.0.10.242	2.0.10.242	1.0.0.439	7	234	2	3	Verdana	1	80	0	0	0	WM Stimuli\	1	1310.4	1	688.5	1	1006	1	657.1	1	913.1	0.9	641.777777777778	1	720.5	1	762.2	13	319025	2	319013	27	40	319052	-999999	319028	0	39	TrialsPROC	FC_023_M12.png	2	2	78	SessionSelectionList														lure	3	Face	0-Back	68	80	67	0	0	100	2	40	267473	1	13	72	265433	-1	266096	1	663	3	3	2040	53	267486	-54	0																78												
WM080112	118528_fnca	2	1	1	-911993784	1	75.037	75.030	2.0.10.147	2.0.10.242	2.0.10.242	1.0.0.439	7	234	2	3	Verdana	1	80	0	0	0	WM Stimuli\	1	1310.4	1	688.5	1	1006	1	657.1	1	913.1	0.9	641.777777777778	1	720.5	1	762.2	13	319025	2	319013	27	40	319052	-999999	319028	0	39	TrialsPROC	FC_021_M11.png	2	2	79	SessionSelectionList														nonlure	3	Face	0-Back	69	80	68	0	0	100	3	39	270071	2	14	99	268032	-1	268728	1	696	3	3	2039	53	270085	-54	0																79												
WM080112	118528_fnca	2	1	1	-911993784	1	75.037	75.030	2.0.10.147	2.0.10.242	2.0.10.242	1.0.0.439	7	234	2	3	Verdana	1	80	0	0	0	WM Stimuli\	1	1310.4	1	688.5	1	1006	1	657.1	1	913.1	0.9	641.777777777778	1	720.5	1	762.2	13	319025	2	319013	27	40	319052	-999999	319028	0	39	TrialsPROC	FC_021_M11.png	2	2	80	SessionSelectionList														lure	3	Face	0-Back	70	80	69	0	0	100	4	39	272644	1	13	73	270605	-1	271234	1	629	3	3	2039	52	272657	-53	0																80												
WM080112	118528_fnca	2	1	1	-911993784	1	75.037	75.030	2.0.10.147	2.0.10.242	2.0.10.242	1.0.0.439	7	234	2	3	Verdana	1	80	0	0	0	WM Stimuli\	1	1310.4	1	688.5	1	1006	1	657.1	1	913.1	0.9	641.777777777778	1	720.5	1	762.2	13	319025	2	319013	27	40	319052	-999999	319028	0	39	TrialsPROC	FC_019_M10.png	2	2	81	SessionSelectionList														nonlure	3	Face	0-Back	71	80	70	0	0	100	5	39	275229	2	14	85	273190	-1	273756	1	566	3	3	2039	53	275243	-54	0																81												
WM080112	118528_fnca	2	1	1	-911993784	1	75.037	75.030	2.0.10.147	2.0.10.242	2.0.10.242	1.0.0.439	7	234	2	3	Verdana	1	80	0	0	0	WM Stimuli\	1	1310.4	1	688.5	1	1006	1	657.1	1	913.1	0.9	641.777777777778	1	720.5	1	762.2	13	319025	2	319013	27	40	319052	-999999	319028	0	40	Cue0BackPROC	PL_021_SCENE_07.png	2	2	82	SessionSelectionList																																										46	275736	-47	0												82												
WM080112	118528_fnca	2	1	1	-911993784	1	75.037	75.030	2.0.10.147	2.0.10.242	2.0.10.242	1.0.0.439	7	234	2	3	Verdana	1	80	0	0	0	WM Stimuli\	1	1310.4	1	688.5	1	1006	1	657.1	1	913.1	0.9	641.777777777778	1	720.5	1	762.2	13	319025	2	319013	27	40	319052	-999999	319028	0	41	TrialsPROC	PL_025_SCENE_18.png	2	2	83	SessionSelectionList														nonlure	3	Place	0-Back	72	80	71	0	0	100	6	39	280334	1	14	105	278295	-1	279233	1	938	3	3	2039	53	280348	-54	0																83												
WM080112	118528_fnca	2	1	1	-911993784	1	75.037	75.030	2.0.10.147	2.0.10.242	2.0.10.242	1.0.0.439	7	234	2	3	Verdana	1	80	0	0	0	WM Stimuli\	1	1310.4	1	688.5	1	1006	1	657.1	1	913.1	0.9	641.777777777778	1	720.5	1	762.2	13	319025	2	319013	27	40	319052	-999999	319028	0	41	TrialsPROC	PL_026_SCENE_24.png	2	2	84	SessionSelectionList														nonlure	3	Place	0-Back	73	80	72	0	0	100	7	40	282920	1	13	85	280880	-1	281489	1	609	3	3	2040	53	282933	-54	0																84												
WM080112	118528_fnca	2	1	1	-911993784	1	75.037	75.030	2.0.10.147	2.0.10.242	2.0.10.242	1.0.0.439	7	234	2	3	Verdana	1	80	0	0	0	WM Stimuli\	1	1310.4	1	688.5	1	1006	1	657.1	1	913.1	0.9	641.777777777778	1	720.5	1	762.2	13	319025	2	319013	27	40	319052	-999999	319028	0	41	TrialsPROC	PL_025_SCENE_18.png	2	2	85	SessionSelectionList														lure	3	Place	0-Back	74	80	73	0	0	97	1	39	285492	1	14	73	283453	-1	284348	0	895	2	3	2039	53	285506	-54	0																85												
WM080112	118528_fnca	2	1	1	-911993784	1	75.037	75.030	2.0.10.147	2.0.10.242	2.0.10.242	1.0.0.439	7	234	2	3	Verdana	1	80	0	0	0	WM Stimuli\	1	1310.4	1	688.5	1	1006	1	657.1	1	913.1	0.9	641.777777777778	1	720.5	1	762.2	13	319025	2	319013	27	40	319052	-999999	319028	0	41	TrialsPROC	PL_022_SCENE_08.png	2	2	86	SessionSelectionList														nonlure	3	Place	0-Back	75	80	74	0	0	97	1	39	288091	1	13	99	286052	-1	286530	1	478	3	3	2039	52	288104	-53	0																86												
WM080112	118528_fnca	2	1	1	-911993784	1	75.037	75.030	2.0.10.147	2.0.10.242	2.0.10.242	1.0.0.439	7	234	2	3	Verdana	1	80	0	0	0	WM Stimuli\	1	1310.4	1	688.5	1	1006	1	657.1	1	913.1	0.9	641.777777777778	1	720.5	1	762.2	13	319025	2	319013	27	40	319052	-999999	319028	0	41	TrialsPROC	PL_026_SCENE_24.png	2	2	87	SessionSelectionList														lure	3	Place	0-Back	76	80	75	0	0	97	2	39	290663	2	14	72	288624	-1	289217	1	593	3	3	2039	53	290677	-54	0																87												
WM080112	118528_fnca	2	1	1	-911993784	1	75.037	75.030	2.0.10.147	2.0.10.242	2.0.10.242	1.0.0.439	7	234	2	3	Verdana	1	80	0	0	0	WM Stimuli\	1	1310.4	1	688.5	1	1006	1	657.1	1	913.1	0.9	641.777777777778	1	720.5	1	762.2	13	319025	2	319013	27	40	319052	-999999	319028	0	41	TrialsPROC	PL_021_SCENE_07.png	2	2	88	SessionSelectionList														target	2	Place	0-Back	77	80	76	0	0	97	1	39	293235	2	14	72	291196	-1	292038	1	842	2	2	2039	53	293249	-54	0																88												
WM080112	118528_fnca	2	1	1	-911993784	1	75.037	75.030	2.0.10.147	2.0.10.242	2.0.10.242	1.0.0.439	7	234	2	3	Verdana	1	80	0	0	0	WM Stimuli\	1	1310.4	1	688.5	1	1006	1	657.1	1	913.1	0.9	641.777777777778	1	720.5	1	762.2	13	319025	2	319013	27	40	319052	-999999	319028	0	41	TrialsPROC	PL_021_SCENE_07.png	2	2	89	SessionSelectionList														target	2	Place	0-Back	78	80	77	0	0	97	2	39	295808	1	13	73	293769	-1	294351	1	582	2	2	2039	52	295821	-53	0																89												
WM080112	118528_fnca	2	1	1	-911993784	1	75.037	75.030	2.0.10.147	2.0.10.242	2.0.10.242	1.0.0.439	7	234	2	3	Verdana	1	80	0	0	0	WM Stimuli\	1	1310.4	1	688.5	1	1006	1	657.1	1	913.1	0.9	641.777777777778	1	720.5	1	762.2	13	319025	2	319013	27	40	319052	-999999	319028	0	41	TrialsPROC	PL_023_SCENE_09.png	2	2	90	SessionSelectionList														nonlure	3	Place	0-Back	79	80	78	0	0	97	1	39	298393	2	14	85	296354	-1	296948	1	594	3	3	2039	53	298407	-54	0																90												
WM080112	118528_fnca	2	1	1	-911993784	1	75.037	75.030	2.0.10.147	2.0.10.242	2.0.10.242	1.0.0.439	7	234	2	3	Verdana	1	80	0	0	0	WM Stimuli\	1	1310.4	1	688.5	1	1006	1	657.1	1	913.1	0.9	641.777777777778	1	720.5	1	762.2	13	319025	2	319013	27	40	319052	-999999	319028	0	41	TrialsPROC	PL_024_SCENE_10.png	2	2	91	SessionSelectionList														nonlure	3	Place	0-Back	80	80	79	0	0	97	2	39	300979	1	14	86	298940	-1	299470	1	530	3	3	2039	53	300993	-54	0																91												
WM080112	118528_fnca	2	1	1	-911993784	1	75.037	75.030	2.0.10.147	2.0.10.242	2.0.10.242	1.0.0.439	7	234	2	3	Verdana	1	80	0	0	0	WM Stimuli\	1	1310.4	1	688.5	1	1006	1	657.1	1	913.1	0.9	641.777777777778	1	720.5	1	762.2	13	319025	2	319013	27	40	319052	-999999	319028	0	41	TrialsPROC	PL_022_SCENE_08.png	2	2	92	SessionSelectionList														lure	3	Place	0-Back	80	80	80	0	0	98	3	39	303551	2	14	72	301512	-1	302122	1	610	3	3	2039	53	303565	-54	0																92												
WM080112	118528_fnca	2	1	1	-911993784	1	75.037	75.030	2.0.10.147	2.0.10.242	2.0.10.242	1.0.0.439	7	234	2	3	Verdana	1	80	0	0	0	WM Stimuli\	1	1310.4	1	688.5	1	1006	1	657.1	1	913.1	0.9	641.777777777778	1	720.5	1	762.2	13	319025	2	319013	27	40	319052	-999999	319028	0	42	Fix15secPROC	""	2	2	93	SessionSelectionList																																															6	304018	-7	0							93												
