ExperimentName	HCPID	RunNumber	Subject	Session	RandomSeed	Group	Laptop.RefreshRate	ScannerD2.RefreshRate	StudioVersion	RuntimeVersion	RuntimeVersionExpected	ExperimentVersion	triggercode	Allowed	Target	Nontarget	FontStyle	RunTrialNumber[Session]	TrialsPerRun[Session]	TotalRespGreater200[Session]	ConsecRTLess200[Session]	ConsecNonResp[Session]	StimuliDir	ACC_2_Back_Body	Avg_RT_For_Correct_Trials_2_Back_Body	ACC_0_Back_Body	Avg_RT_For_Correct_Trials_0_Back_Body	ACC_2_Back_Face	Avg_RT_For_Correct_Trials_2_Back_Face	ACC_0_Back_Face	Avg_RT_For_Correct_Trials_0_Back_Face	ACC_2_Back_Place	Avg_RT_For_Correct_Trials_2_Back_Place	ACC_0_Back_Place	Avg_RT_For_Correct_Trials_0_Back_Place	ACC_2_Back_Tools	Avg_RT_For_Correct_Trials_2_Back_Tools	ACC_0_Back_Tools	Avg_RT_For_Correct_Trials_0_Back_Tools	ExpInstrucFeelFreeToRest.OnsetDelay	ExpInstrucFeelFreeToRest.OnsetTime	ExpInstrucFeelFreeToRest.DurationError	ExpInstrucFeelFreeToRest.StartTime	ExpInstrucFeelFreeToRest.OnsetToOnsetTime	FeelFreeToRest.OnsetDelay	FeelFreeToRest.OnsetTime	FeelFreeToRest.DurationError	FeelFreeToRest.StartTime	FeelFreeToRest.OnsetToOnsetTime	SessionSelectionList	Procedure[Block]	Stimulus[Block]	RunNumberFilterValue	SessionSelectionList.Cycle	SessionSelectionList.Sample	Running[Block]	IntroButtonMap.OnsetDelay	IntroButtonMap.OnsetTime	IntroButtonMap.DurationError	IntroButtonMap.OnsetToOnsetTime	GetReady.OnsetDelay	GetReady.OnsetTime	GetReady.DurationError	GetReady.OnsetToOnsetTime	Cue2Back.OnsetDelay	Cue2Back.OnsetTime	Cue2Back.DurationError	Cue2Back.OnsetToOnsetTime	Run1Block1	TargetType	CorrectResponse	StimType	BlockType	RunTrialNumber[Block]	TrialsPerRun[Block]	TotalRespGreater200[Block]	ConsecRTLess200[Block]	ConsecNonResp[Block]	ControlAcc	ConsecSameResp	ExperimenterWindow.OnsetDelay	ExperimenterWindow.OnsetTime	ExperimenterWindow.DurationError	ExperimenterWindow.OnsetToOnsetTime	Stim.OnsetDelay	Stim.OnsetTime	Stim.DurationError	Stim.RTTime	Stim.ACC	Stim.RT	Stim.RESP	Stim.CRESP	Stim.OnsetToOnsetTime	Fix.OnsetDelay	Fix.OnsetTime	Fix.DurationError	Fix.OnsetToOnsetTime	CueTarget.OnsetDelay	CueTarget.OnsetTime	CueTarget.DurationError	CueTarget.OnsetToOnsetTime	Run1Block2	Fix15sec.OnsetDelay	Fix15sec.OnsetTime	Fix15sec.DurationError	Fix15sec.OnsetToOnsetTime	Run1Block3	Run1Block4	Run1Block5	Run1Block6	Run1Block7	Run1Block8	Block	Procedure[Trial]	Stimulus[Trial]	ReadyList	Running[Trial]	ReadyList.Cycle	ReadyList.Sample	SyncSlide.OnsetDelay	SyncSlide.OnsetTime	SyncSlide.DurationError	SyncSlide.FinishTime	SyncSlide.OnsetToOnsetTime	Trial
WM080112	147737_fnca	1	1	1	605164536	1	75.032	75.031	2.0.10.147	2.0.10.242	2.0.10.242	1.0.0.439	7	234	2	3	Verdana	1	80	0	0	0	WM Stimuli\	0.9	1378.44444444444	1	933.6	1	1145.6	1	795.3	1	1008.2	0.9	697.333333333333	0.8	1070.125	1	814.7	12	439737	3	439726	27	39	439764	-999999	439740	0	1	TRSyncPROC	""	1	2	1	SessionSelectionList	102	74009	-999999	0	37	131639	-999999	0																																																	1	InitialTR	4	1	ReadyList	1	1	19	146552	-20	148532	0	1
WM080112	147737_fnca	1	1	1	605164536	1	75.032	75.031	2.0.10.147	2.0.10.242	2.0.10.242	1.0.0.439	7	234	2	3	Verdana	1	80	0	0	0	WM Stimuli\	0.9	1378.44444444444	1	933.6	1	1145.6	1	795.3	1	1008.2	0.9	697.333333333333	0.8	1070.125	1	814.7	12	439737	3	439726	27	39	439764	-999999	439740	0	1	TRSyncPROC	""	1	2	1	SessionSelectionList	102	74009	-999999	0	37	131639	-999999	0																																																	1	InitialTR	3	2	ReadyList	1	2	18	148551	-19	150532	0	2
WM080112	147737_fnca	1	1	1	605164536	1	75.032	75.031	2.0.10.147	2.0.10.242	2.0.10.242	1.0.0.439	7	234	2	3	Verdana	1	80	0	0	0	WM Stimuli\	0.9	1378.44444444444	1	933.6	1	1145.6	1	795.3	1	1008.2	0.9	697.333333333333	0.8	1070.125	1	814.7	12	439737	3	439726	27	39	439764	-999999	439740	0	1	TRSyncPROC	""	1	2	1	SessionSelectionList	102	74009	-999999	0	37	131639	-999999	0																																																	1	InitialTR	2	3	ReadyList	1	3	4	150537	-5	152532	0	3
WM080112	147737_fnca	1	1	1	605164536	1	75.032	75.031	2.0.10.147	2.0.10.242	2.0.10.242	1.0.0.439	7	234	2	3	Verdana	1	80	0	0	0	WM Stimuli\	0.9	1378.44444444444	1	933.6	1	1145.6	1	795.3	1	1008.2	0.9	697.333333333333	0.8	1070.125	1	814.7	12	439737	3	439726	27	39	439764	-999999	439740	0	1	TRSyncPROC	""	1	2	1	SessionSelectionList	102	74009	-999999	0	37	131639	-999999	0																																																	1	InitialTR	1	4	ReadyList	1	4	4	152537	-5	154532	0	4
WM080112	147737_fnca	1	1	1	605164536	1	75.032	75.031	2.0.10.147	2.0.10.242	2.0.10.242	1.0.0.439	7	234	2	3	Verdana	1	80	0	0	0	WM Stimuli\	0.9	1378.44444444444	1	933.6	1	1145.6	1	795.3	1	1008.2	0.9	697.333333333333	0.8	1070.125	1	814.7	12	439737	3	439726	27	39	439764	-999999	439740	0	2	Cue2BackPROC	""	1	2	2	SessionSelectionList									16	154549	-17	0																																													2												
WM080112	147737_fnca	1	1	1	605164536	1	75.032	75.031	2.0.10.147	2.0.10.242	2.0.10.242	1.0.0.439	7	234	2	3	Verdana	1	80	0	0	0	WM Stimuli\	0.9	1378.44444444444	1	933.6	1	1145.6	1	795.3	1	1008.2	0.9	697.333333333333	0.8	1070.125	1	814.7	12	439737	3	439726	27	39	439764	-999999	439740	0	3	TrialsPROC	BP_002_BP10_BA.png	1	2	3	SessionSelectionList													1	nonlure	3	Body	2-Back	2	80	1	0	0	0	1	52	159160	3	14	75	157108	-1	157662	1	554	3	3	2052	66	159174	-67	0																3												
WM080112	147737_fnca	1	1	1	605164536	1	75.032	75.031	2.0.10.147	2.0.10.242	2.0.10.242	1.0.0.439	7	234	2	3	Verdana	1	80	0	0	0	WM Stimuli\	0.9	1378.44444444444	1	933.6	1	1145.6	1	795.3	1	1008.2	0.9	697.333333333333	0.8	1070.125	1	814.7	12	439737	3	439726	27	39	439764	-999999	439740	0	3	TrialsPROC	BP_001_BP1_BA.png	1	2	4	SessionSelectionList													2	nonlure	3	Body	2-Back	3	80	2	0	0	0	2	39	161706	2	14	59	159667	-1	161019	1	1352	3	3	2039	53	161720	-54	0																4												
WM080112	147737_fnca	1	1	1	605164536	1	75.032	75.031	2.0.10.147	2.0.10.242	2.0.10.242	1.0.0.439	7	234	2	3	Verdana	1	80	0	0	0	WM Stimuli\	0.9	1378.44444444444	1	933.6	1	1145.6	1	795.3	1	1008.2	0.9	697.333333333333	0.8	1070.125	1	814.7	12	439737	3	439726	27	39	439764	-999999	439740	0	3	TrialsPROC	BP_006_BP2_BA.png	1	2	5	SessionSelectionList													3	nonlure	3	Body	2-Back	4	80	3	0	0	0	1	39	164265	2	14	59	162226	-1	163140	0	914	2	3	2039	53	164279	-54	0																5												
WM080112	147737_fnca	1	1	1	605164536	1	75.032	75.031	2.0.10.147	2.0.10.242	2.0.10.242	1.0.0.439	7	234	2	3	Verdana	1	80	0	0	0	WM Stimuli\	0.9	1378.44444444444	1	933.6	1	1145.6	1	795.3	1	1008.2	0.9	697.333333333333	0.8	1070.125	1	814.7	12	439737	3	439726	27	39	439764	-999999	439740	0	3	TrialsPROC	BP_001_BP1_BA.png	1	2	6	SessionSelectionList													4	target	2	Body	2-Back	5	80	4	0	0	0	2	39	166837	2	14	72	164798	-1	166790	1	1992	2	2	2039	53	166851	-54	0																6												
WM080112	147737_fnca	1	1	1	605164536	1	75.032	75.031	2.0.10.147	2.0.10.242	2.0.10.242	1.0.0.439	7	234	2	3	Verdana	1	80	0	0	0	WM Stimuli\	0.9	1378.44444444444	1	933.6	1	1145.6	1	795.3	1	1008.2	0.9	697.333333333333	0.8	1070.125	1	814.7	12	439737	3	439726	27	39	439764	-999999	439740	0	3	TrialsPROC	BP_005_BP19_BA.png	1	2	7	SessionSelectionList													5	nonlure	3	Body	2-Back	6	80	5	0	0	0	1	40	169410	2	13	72	167370	-1	169013	1	1643	3	3	2040	53	169423	-54	0																7												
WM080112	147737_fnca	1	1	1	605164536	1	75.032	75.031	2.0.10.147	2.0.10.242	2.0.10.242	1.0.0.439	7	234	2	3	Verdana	1	80	0	0	0	WM Stimuli\	0.9	1378.44444444444	1	933.6	1	1145.6	1	795.3	1	1008.2	0.9	697.333333333333	0.8	1070.125	1	814.7	12	439737	3	439726	27	39	439764	-999999	439740	0	3	TrialsPROC	BP_003_BP16_BA.png	1	2	8	SessionSelectionList													6	nonlure	3	Body	2-Back	7	80	6	0	0	0	2	39	171968	3	14	59	169929	-1	171064	1	1135	3	3	2039	53	171982	-54	0																8												
WM080112	147737_fnca	1	1	1	605164536	1	75.032	75.031	2.0.10.147	2.0.10.242	2.0.10.242	1.0.0.439	7	234	2	3	Verdana	1	80	0	0	0	WM Stimuli\	0.9	1378.44444444444	1	933.6	1	1145.6	1	795.3	1	1008.2	0.9	697.333333333333	0.8	1070.125	1	814.7	12	439737	3	439726	27	39	439764	-999999	439740	0	3	TrialsPROC	BP_006_BP2_BA.png	1	2	9	SessionSelectionList													7	lure	3	Body	2-Back	8	80	7	0	0	0	3	39	174527	2	14	59	172488	-1	173770	1	1282	3	3	2039	53	174541	-54	0																9												
WM080112	147737_fnca	1	1	1	605164536	1	75.032	75.031	2.0.10.147	2.0.10.242	2.0.10.242	1.0.0.439	7	234	2	3	Verdana	1	80	0	0	0	WM Stimuli\	0.9	1378.44444444444	1	933.6	1	1145.6	1	795.3	1	1008.2	0.9	697.333333333333	0.8	1070.125	1	814.7	12	439737	3	439726	27	39	439764	-999999	439740	0	3	TrialsPROC	BP_004_BP18_BA.png	1	2	10	SessionSelectionList													8	nonlure	3	Body	2-Back	9	80	8	0	0	0	4	39	177086	2	14	59	175047	-1	176498	1	1451	3	3	2039	53	177100	-54	0																10												
WM080112	147737_fnca	1	1	1	605164536	1	75.032	75.031	2.0.10.147	2.0.10.242	2.0.10.242	1.0.0.439	7	234	2	3	Verdana	1	80	0	0	0	WM Stimuli\	0.9	1378.44444444444	1	933.6	1	1145.6	1	795.3	1	1008.2	0.9	697.333333333333	0.8	1070.125	1	814.7	12	439737	3	439726	27	39	439764	-999999	439740	0	3	TrialsPROC	BP_005_BP19_BA.png	1	2	11	SessionSelectionList													9	lure	3	Body	2-Back	10	80	9	0	0	0	5	39	179645	2	14	59	177606	-1	179221	1	1615	3	3	2039	53	179659	-54	0																11												
WM080112	147737_fnca	1	1	1	605164536	1	75.032	75.031	2.0.10.147	2.0.10.242	2.0.10.242	1.0.0.439	7	234	2	3	Verdana	1	80	0	0	0	WM Stimuli\	0.9	1378.44444444444	1	933.6	1	1145.6	1	795.3	1	1008.2	0.9	697.333333333333	0.8	1070.125	1	814.7	12	439737	3	439726	27	39	439764	-999999	439740	0	3	TrialsPROC	BP_004_BP18_BA.png	1	2	12	SessionSelectionList													10	target	2	Body	2-Back	11	80	10	0	0	0	1	39	182204	2	14	59	180165	-1	181547	1	1382	2	2	2039	53	182218	-54	0																12												
WM080112	147737_fnca	1	1	1	605164536	1	75.032	75.031	2.0.10.147	2.0.10.242	2.0.10.242	1.0.0.439	7	234	2	3	Verdana	1	80	0	0	0	WM Stimuli\	0.9	1378.44444444444	1	933.6	1	1145.6	1	795.3	1	1008.2	0.9	697.333333333333	0.8	1070.125	1	814.7	12	439737	3	439726	27	39	439764	-999999	439740	0	4	Cue0BackPROC	FC_001_M1.png	1	2	13	SessionSelectionList																																										19	182684	-20	0												13												
WM080112	147737_fnca	1	1	1	605164536	1	75.032	75.031	2.0.10.147	2.0.10.242	2.0.10.242	1.0.0.439	7	234	2	3	Verdana	1	80	0	0	0	WM Stimuli\	0.9	1378.44444444444	1	933.6	1	1145.6	1	795.3	1	1008.2	0.9	697.333333333333	0.8	1070.125	1	814.7	12	439737	3	439726	27	39	439764	-999999	439740	0	5	TrialsPROC	FC_005_M3.png	1	2	14	SessionSelectionList														nonlure	3	Face	0-Back	12	80	11	0	0	100	1	39	187269	1	13	65	185230	-1	186241	1	1011	3	3	2039	52	187282	-53	0					1											14												
WM080112	147737_fnca	1	1	1	605164536	1	75.032	75.031	2.0.10.147	2.0.10.242	2.0.10.242	1.0.0.439	7	234	2	3	Verdana	1	80	0	0	0	WM Stimuli\	0.9	1378.44444444444	1	933.6	1	1145.6	1	795.3	1	1008.2	0.9	697.333333333333	0.8	1070.125	1	814.7	12	439737	3	439726	27	39	439764	-999999	439740	0	5	TrialsPROC	FC_001_M1.png	1	2	15	SessionSelectionList														target	2	Face	0-Back	13	80	12	0	0	100	1	39	189841	1	14	72	187802	-1	188414	1	612	2	2	2039	53	189855	-54	0					2											15												
WM080112	147737_fnca	1	1	1	605164536	1	75.032	75.031	2.0.10.147	2.0.10.242	2.0.10.242	1.0.0.439	7	234	2	3	Verdana	1	80	0	0	0	WM Stimuli\	0.9	1378.44444444444	1	933.6	1	1145.6	1	795.3	1	1008.2	0.9	697.333333333333	0.8	1070.125	1	814.7	12	439737	3	439726	27	39	439764	-999999	439740	0	5	TrialsPROC	FC_003_M2.png	1	2	16	SessionSelectionList														nonlure	3	Face	0-Back	14	80	13	0	0	100	1	39	192413	2	14	72	190374	-1	191610	1	1236	3	3	2039	53	192427	-54	0					3											16												
WM080112	147737_fnca	1	1	1	605164536	1	75.032	75.031	2.0.10.147	2.0.10.242	2.0.10.242	1.0.0.439	7	234	2	3	Verdana	1	80	0	0	0	WM Stimuli\	0.9	1378.44444444444	1	933.6	1	1145.6	1	795.3	1	1008.2	0.9	697.333333333333	0.8	1070.125	1	814.7	12	439737	3	439726	27	39	439764	-999999	439740	0	5	TrialsPROC	FC_004_F2.png	1	2	17	SessionSelectionList														nonlure	3	Face	0-Back	15	80	14	0	0	100	2	40	194986	2	13	72	192946	-1	193775	1	829	3	3	2040	53	194999	-54	0					4											17												
WM080112	147737_fnca	1	1	1	605164536	1	75.032	75.031	2.0.10.147	2.0.10.242	2.0.10.242	1.0.0.439	7	234	2	3	Verdana	1	80	0	0	0	WM Stimuli\	0.9	1378.44444444444	1	933.6	1	1145.6	1	795.3	1	1008.2	0.9	697.333333333333	0.8	1070.125	1	814.7	12	439737	3	439726	27	39	439764	-999999	439740	0	5	TrialsPROC	FC_004_F2.png	1	2	18	SessionSelectionList														lure	3	Face	0-Back	16	80	15	0	0	100	3	39	197558	1	14	73	195519	-1	196180	1	661	3	3	2039	53	197572	-54	0					5											18												
WM080112	147737_fnca	1	1	1	605164536	1	75.032	75.031	2.0.10.147	2.0.10.242	2.0.10.242	1.0.0.439	7	234	2	3	Verdana	1	80	0	0	0	WM Stimuli\	0.9	1378.44444444444	1	933.6	1	1145.6	1	795.3	1	1008.2	0.9	697.333333333333	0.8	1070.125	1	814.7	12	439737	3	439726	27	39	439764	-999999	439740	0	5	TrialsPROC	FC_001_M1.png	1	2	19	SessionSelectionList														target	2	Face	0-Back	17	80	16	0	0	100	1	39	200130	1	14	72	198091	-1	198672	1	581	2	2	2039	53	200144	-54	0					6											19												
WM080112	147737_fnca	1	1	1	605164536	1	75.032	75.031	2.0.10.147	2.0.10.242	2.0.10.242	1.0.0.439	7	234	2	3	Verdana	1	80	0	0	0	WM Stimuli\	0.9	1378.44444444444	1	933.6	1	1145.6	1	795.3	1	1008.2	0.9	697.333333333333	0.8	1070.125	1	814.7	12	439737	3	439726	27	39	439764	-999999	439740	0	5	TrialsPROC	FC_006_F3.png	1	2	20	SessionSelectionList														nonlure	3	Face	0-Back	18	80	17	0	0	100	1	39	202702	2	14	72	200663	-1	201227	1	564	3	3	2039	53	202716	-54	0					7											20												
WM080112	147737_fnca	1	1	1	605164536	1	75.032	75.031	2.0.10.147	2.0.10.242	2.0.10.242	1.0.0.439	7	234	2	3	Verdana	1	80	0	0	0	WM Stimuli\	0.9	1378.44444444444	1	933.6	1	1145.6	1	795.3	1	1008.2	0.9	697.333333333333	0.8	1070.125	1	814.7	12	439737	3	439726	27	39	439764	-999999	439740	0	5	TrialsPROC	FC_006_F3.png	1	2	21	SessionSelectionList														lure	3	Face	0-Back	19	80	18	0	0	100	2	40	205275	1	13	72	203235	-1	203861	1	626	3	3	2040	53	205288	-54	0					8											21												
WM080112	147737_fnca	1	1	1	605164536	1	75.032	75.031	2.0.10.147	2.0.10.242	2.0.10.242	1.0.0.439	7	234	2	3	Verdana	1	80	0	0	0	WM Stimuli\	0.9	1378.44444444444	1	933.6	1	1145.6	1	795.3	1	1008.2	0.9	697.333333333333	0.8	1070.125	1	814.7	12	439737	3	439726	27	39	439764	-999999	439740	0	5	TrialsPROC	FC_003_M2.png	1	2	22	SessionSelectionList														lure	3	Face	0-Back	20	80	19	0	0	100	3	39	207847	1	14	73	205808	-1	206977	1	1169	3	3	2039	53	207861	-54	0					9											22												
WM080112	147737_fnca	1	1	1	605164536	1	75.032	75.031	2.0.10.147	2.0.10.242	2.0.10.242	1.0.0.439	7	234	2	3	Verdana	1	80	0	0	0	WM Stimuli\	0.9	1378.44444444444	1	933.6	1	1145.6	1	795.3	1	1008.2	0.9	697.333333333333	0.8	1070.125	1	814.7	12	439737	3	439726	27	39	439764	-999999	439740	0	5	TrialsPROC	FC_002_F1.png	1	2	23	SessionSelectionList														nonlure	3	Face	0-Back	21	80	20	0	0	100	4	39	210419	2	14	72	208380	-1	209044	1	664	3	3	2039	53	210433	-54	0					10											23												
WM080112	147737_fnca	1	1	1	605164536	1	75.032	75.031	2.0.10.147	2.0.10.242	2.0.10.242	1.0.0.439	7	234	2	3	Verdana	1	80	0	0	0	WM Stimuli\	0.9	1378.44444444444	1	933.6	1	1145.6	1	795.3	1	1008.2	0.9	697.333333333333	0.8	1070.125	1	814.7	12	439737	3	439726	27	39	439764	-999999	439740	0	6	Fix15secPROC	""	1	2	24	SessionSelectionList																																															6	210886	-7	0							24												
WM080112	147737_fnca	1	1	1	605164536	1	75.032	75.031	2.0.10.147	2.0.10.242	2.0.10.242	1.0.0.439	7	234	2	3	Verdana	1	80	0	0	0	WM Stimuli\	0.9	1378.44444444444	1	933.6	1	1145.6	1	795.3	1	1008.2	0.9	697.333333333333	0.8	1070.125	1	814.7	12	439737	3	439726	27	39	439764	-999999	439740	0	7	Cue2BackPROC	""	1	2	25	SessionSelectionList									13	225893	-14	0																																													25												
WM080112	147737_fnca	1	1	1	605164536	1	75.032	75.031	2.0.10.147	2.0.10.242	2.0.10.242	1.0.0.439	7	234	2	3	Verdana	1	80	0	0	0	WM Stimuli\	0.9	1378.44444444444	1	933.6	1	1145.6	1	795.3	1	1008.2	0.9	697.333333333333	0.8	1070.125	1	814.7	12	439737	3	439726	27	39	439764	-999999	439740	0	8	TrialsPROC	TO_001_TOOL1_BA.png	1	2	26	SessionSelectionList														nonlure	3	Tools	2-Back	22	80	21	0	0	100	5	39	230477	2	14	58	228438	-1	229963	1	1525	3	3	2039	53	230491	-54	0										1						26												
WM080112	147737_fnca	1	1	1	605164536	1	75.032	75.031	2.0.10.147	2.0.10.242	2.0.10.242	1.0.0.439	7	234	2	3	Verdana	1	80	0	0	0	WM Stimuli\	0.9	1378.44444444444	1	933.6	1	1145.6	1	795.3	1	1008.2	0.9	697.333333333333	0.8	1070.125	1	814.7	12	439737	3	439726	27	39	439764	-999999	439740	0	8	TrialsPROC	TO_002_TOOL2_BA.png	1	2	27	SessionSelectionList														nonlure	3	Tools	2-Back	23	80	22	0	0	100	6	39	233036	2	14	59	230997	-1	231955	1	958	3	3	2039	53	233050	-54	0										2						27												
WM080112	147737_fnca	1	1	1	605164536	1	75.032	75.031	2.0.10.147	2.0.10.242	2.0.10.242	1.0.0.439	7	234	2	3	Verdana	1	80	0	0	0	WM Stimuli\	0.9	1378.44444444444	1	933.6	1	1145.6	1	795.3	1	1008.2	0.9	697.333333333333	0.8	1070.125	1	814.7	12	439737	3	439726	27	39	439764	-999999	439740	0	8	TrialsPROC	TO_004_TOOL4_BA.png	1	2	28	SessionSelectionList														nonlure	3	Tools	2-Back	24	80	23	0	0	100	7	39	235595	2	14	59	233556	-1	234889	1	1333	3	3	2039	53	235609	-54	0										3						28												
WM080112	147737_fnca	1	1	1	605164536	1	75.032	75.031	2.0.10.147	2.0.10.242	2.0.10.242	1.0.0.439	7	234	2	3	Verdana	1	80	0	0	0	WM Stimuli\	0.9	1378.44444444444	1	933.6	1	1145.6	1	795.3	1	1008.2	0.9	697.333333333333	0.8	1070.125	1	814.7	12	439737	3	439726	27	39	439764	-999999	439740	0	8	TrialsPROC	TO_002_TOOL2_BA.png	1	2	29	SessionSelectionList														target	2	Tools	2-Back	25	80	24	0	0	100	1	39	238154	2	14	59	236115	-1	236985	1	870	2	2	2039	53	238168	-54	0										4						29												
WM080112	147737_fnca	1	1	1	605164536	1	75.032	75.031	2.0.10.147	2.0.10.242	2.0.10.242	1.0.0.439	7	234	2	3	Verdana	1	80	0	0	0	WM Stimuli\	0.9	1378.44444444444	1	933.6	1	1145.6	1	795.3	1	1008.2	0.9	697.333333333333	0.8	1070.125	1	814.7	12	439737	3	439726	27	39	439764	-999999	439740	0	8	TrialsPROC	TO_001_TOOL1_BA.png	1	2	30	SessionSelectionList														lure	3	Tools	2-Back	26	80	24	0	1	100	1	39	240713	2	14	59	238674	-1	0	0	0	""	3	2039	53	240727	-54	0										5						30												
WM080112	147737_fnca	1	1	1	605164536	1	75.032	75.031	2.0.10.147	2.0.10.242	2.0.10.242	1.0.0.439	7	234	2	3	Verdana	1	80	0	0	0	WM Stimuli\	0.9	1378.44444444444	1	933.6	1	1145.6	1	795.3	1	1008.2	0.9	697.333333333333	0.8	1070.125	1	814.7	12	439737	3	439726	27	39	439764	-999999	439740	0	8	TrialsPROC	TO_004_TOOL4_BA.png	1	2	31	SessionSelectionList														lure	3	Tools	2-Back	27	80	25	0	0	100	1	39	243272	3	14	59	241233	-1	242911	0	1678	2	3	2039	53	243286	-54	0										6						31												
WM080112	147737_fnca	1	1	1	605164536	1	75.032	75.031	2.0.10.147	2.0.10.242	2.0.10.242	1.0.0.439	7	234	2	3	Verdana	1	80	0	0	0	WM Stimuli\	0.9	1378.44444444444	1	933.6	1	1145.6	1	795.3	1	1008.2	0.9	697.333333333333	0.8	1070.125	1	814.7	12	439737	3	439726	27	39	439764	-999999	439740	0	8	TrialsPROC	TO_006_TOOL6_BA.png	1	2	32	SessionSelectionList														nonlure	3	Tools	2-Back	28	80	26	0	0	100	1	39	245831	2	14	59	243792	-1	244715	1	923	3	3	2039	53	245845	-54	0										7						32												
WM080112	147737_fnca	1	1	1	605164536	1	75.032	75.031	2.0.10.147	2.0.10.242	2.0.10.242	1.0.0.439	7	234	2	3	Verdana	1	80	0	0	0	WM Stimuli\	0.9	1378.44444444444	1	933.6	1	1145.6	1	795.3	1	1008.2	0.9	697.333333333333	0.8	1070.125	1	814.7	12	439737	3	439726	27	39	439764	-999999	439740	0	8	TrialsPROC	TO_005_TOOL5_BA.png	1	2	33	SessionSelectionList														nonlure	3	Tools	2-Back	29	80	27	0	0	100	2	39	248390	2	14	59	246351	-1	247525	1	1174	3	3	2039	53	248404	-54	0										8						33												
WM080112	147737_fnca	1	1	1	605164536	1	75.032	75.031	2.0.10.147	2.0.10.242	2.0.10.242	1.0.0.439	7	234	2	3	Verdana	1	80	0	0	0	WM Stimuli\	0.9	1378.44444444444	1	933.6	1	1145.6	1	795.3	1	1008.2	0.9	697.333333333333	0.8	1070.125	1	814.7	12	439737	3	439726	27	39	439764	-999999	439740	0	8	TrialsPROC	TO_006_TOOL6_BA.png	1	2	34	SessionSelectionList														target	2	Tools	2-Back	30	80	28	0	0	100	1	39	250949	2	14	59	248910	-1	250016	1	1106	2	2	2039	53	250963	-54	0										9						34												
WM080112	147737_fnca	1	1	1	605164536	1	75.032	75.031	2.0.10.147	2.0.10.242	2.0.10.242	1.0.0.439	7	234	2	3	Verdana	1	80	0	0	0	WM Stimuli\	0.9	1378.44444444444	1	933.6	1	1145.6	1	795.3	1	1008.2	0.9	697.333333333333	0.8	1070.125	1	814.7	12	439737	3	439726	27	39	439764	-999999	439740	0	8	TrialsPROC	TO_003_TOOL3_BA.png	1	2	35	SessionSelectionList														nonlure	3	Tools	2-Back	31	80	29	0	0	100	1	39	253508	2	14	59	251469	-1	252141	1	672	3	3	2039	53	253522	-54	0										10						35												
WM080112	147737_fnca	1	1	1	605164536	1	75.032	75.031	2.0.10.147	2.0.10.242	2.0.10.242	1.0.0.439	7	234	2	3	Verdana	1	80	0	0	0	WM Stimuli\	0.9	1378.44444444444	1	933.6	1	1145.6	1	795.3	1	1008.2	0.9	697.333333333333	0.8	1070.125	1	814.7	12	439737	3	439726	27	39	439764	-999999	439740	0	9	Cue0BackPROC	BP_007_BP20_BA.png	1	2	36	SessionSelectionList																																										19	253988	-20	0												36												
WM080112	147737_fnca	1	1	1	605164536	1	75.032	75.031	2.0.10.147	2.0.10.242	2.0.10.242	1.0.0.439	7	234	2	3	Verdana	1	80	0	0	0	WM Stimuli\	0.9	1378.44444444444	1	933.6	1	1145.6	1	795.3	1	1008.2	0.9	697.333333333333	0.8	1070.125	1	814.7	12	439737	3	439726	27	39	439764	-999999	439740	0	10	TrialsPROC	BP_007_BP20_BA.png	1	2	37	SessionSelectionList														target	2	Body	0-Back	32	80	30	0	0	100	1	39	258559	2	14	51	256520	-1	257612	1	1092	2	2	2039	53	258573	-54	0											1					37												
WM080112	147737_fnca	1	1	1	605164536	1	75.032	75.031	2.0.10.147	2.0.10.242	2.0.10.242	1.0.0.439	7	234	2	3	Verdana	1	80	0	0	0	WM Stimuli\	0.9	1378.44444444444	1	933.6	1	1145.6	1	795.3	1	1008.2	0.9	697.333333333333	0.8	1070.125	1	814.7	12	439737	3	439726	27	39	439764	-999999	439740	0	10	TrialsPROC	BP_011_BP4_BA.png	1	2	38	SessionSelectionList														nonlure	3	Body	0-Back	33	80	31	0	0	100	1	39	261118	2	14	59	259079	-1	259697	1	618	3	3	2039	53	261132	-54	0											2					38												
WM080112	147737_fnca	1	1	1	605164536	1	75.032	75.031	2.0.10.147	2.0.10.242	2.0.10.242	1.0.0.439	7	234	2	3	Verdana	1	80	0	0	0	WM Stimuli\	0.9	1378.44444444444	1	933.6	1	1145.6	1	795.3	1	1008.2	0.9	697.333333333333	0.8	1070.125	1	814.7	12	439737	3	439726	27	39	439764	-999999	439740	0	10	TrialsPROC	BP_010_BP3_BA.png	1	2	39	SessionSelectionList														nonlure	3	Body	0-Back	34	80	32	0	0	100	2	39	263677	1	14	59	261638	-1	262769	1	1131	3	3	2039	53	263691	-54	0											3					39												
WM080112	147737_fnca	1	1	1	605164536	1	75.032	75.031	2.0.10.147	2.0.10.242	2.0.10.242	1.0.0.439	7	234	2	3	Verdana	1	80	0	0	0	WM Stimuli\	0.9	1378.44444444444	1	933.6	1	1145.6	1	795.3	1	1008.2	0.9	697.333333333333	0.8	1070.125	1	814.7	12	439737	3	439726	27	39	439764	-999999	439740	0	10	TrialsPROC	BP_008_BP21_BA.png	1	2	40	SessionSelectionList														nonlure	3	Body	0-Back	35	80	33	0	0	100	3	39	266236	2	14	59	264197	-1	265079	1	882	3	3	2039	53	266250	-54	0											4					40												
WM080112	147737_fnca	1	1	1	605164536	1	75.032	75.031	2.0.10.147	2.0.10.242	2.0.10.242	1.0.0.439	7	234	2	3	Verdana	1	80	0	0	0	WM Stimuli\	0.9	1378.44444444444	1	933.6	1	1145.6	1	795.3	1	1008.2	0.9	697.333333333333	0.8	1070.125	1	814.7	12	439737	3	439726	27	39	439764	-999999	439740	0	10	TrialsPROC	BP_011_BP4_BA.png	1	2	41	SessionSelectionList														lure	3	Body	0-Back	36	80	34	0	0	100	4	39	268795	2	14	59	266756	-1	267754	1	998	3	3	2039	53	268809	-54	0											5					41												
WM080112	147737_fnca	1	1	1	605164536	1	75.032	75.031	2.0.10.147	2.0.10.242	2.0.10.242	1.0.0.439	7	234	2	3	Verdana	1	80	0	0	0	WM Stimuli\	0.9	1378.44444444444	1	933.6	1	1145.6	1	795.3	1	1008.2	0.9	697.333333333333	0.8	1070.125	1	814.7	12	439737	3	439726	27	39	439764	-999999	439740	0	10	TrialsPROC	BP_009_BP22_BA.png	1	2	42	SessionSelectionList														nonlure	3	Body	0-Back	37	80	35	0	0	100	5	39	271354	2	14	59	269315	-1	270309	1	994	3	3	2039	53	271368	-54	0											6					42												
WM080112	147737_fnca	1	1	1	605164536	1	75.032	75.031	2.0.10.147	2.0.10.242	2.0.10.242	1.0.0.439	7	234	2	3	Verdana	1	80	0	0	0	WM Stimuli\	0.9	1378.44444444444	1	933.6	1	1145.6	1	795.3	1	1008.2	0.9	697.333333333333	0.8	1070.125	1	814.7	12	439737	3	439726	27	39	439764	-999999	439740	0	10	TrialsPROC	BP_009_BP22_BA.png	1	2	43	SessionSelectionList														lure	3	Body	0-Back	38	80	36	0	0	100	6	39	273913	1	13	59	271874	-1	272873	1	999	3	3	2039	52	273926	-53	0											7					43												
WM080112	147737_fnca	1	1	1	605164536	1	75.032	75.031	2.0.10.147	2.0.10.242	2.0.10.242	1.0.0.439	7	234	2	3	Verdana	1	80	0	0	0	WM Stimuli\	0.9	1378.44444444444	1	933.6	1	1145.6	1	795.3	1	1008.2	0.9	697.333333333333	0.8	1070.125	1	814.7	12	439737	3	439726	27	39	439764	-999999	439740	0	10	TrialsPROC	BP_008_BP21_BA.png	1	2	44	SessionSelectionList														lure	3	Body	0-Back	39	80	37	0	0	100	7	39	276472	1	13	59	274433	-1	275749	1	1316	3	3	2039	52	276485	-53	0											8					44												
WM080112	147737_fnca	1	1	1	605164536	1	75.032	75.031	2.0.10.147	2.0.10.242	2.0.10.242	1.0.0.439	7	234	2	3	Verdana	1	80	0	0	0	WM Stimuli\	0.9	1378.44444444444	1	933.6	1	1145.6	1	795.3	1	1008.2	0.9	697.333333333333	0.8	1070.125	1	814.7	12	439737	3	439726	27	39	439764	-999999	439740	0	10	TrialsPROC	BP_007_BP20_BA.png	1	2	45	SessionSelectionList														target	2	Body	0-Back	40	80	38	0	0	100	1	39	279031	1	13	59	276992	-1	277639	1	647	2	2	2039	52	279044	-53	0											9					45												
WM080112	147737_fnca	1	1	1	605164536	1	75.032	75.031	2.0.10.147	2.0.10.242	2.0.10.242	1.0.0.439	7	234	2	3	Verdana	1	80	0	0	0	WM Stimuli\	0.9	1378.44444444444	1	933.6	1	1145.6	1	795.3	1	1008.2	0.9	697.333333333333	0.8	1070.125	1	814.7	12	439737	3	439726	27	39	439764	-999999	439740	0	10	TrialsPROC	BP_012_BP5_BA.png	1	2	46	SessionSelectionList														nonlure	3	Body	0-Back	41	80	39	0	0	100	1	39	281590	2	13	59	279551	-1	280210	1	659	3	3	2039	52	281603	-53	0											10					46												
WM080112	147737_fnca	1	1	1	605164536	1	75.032	75.031	2.0.10.147	2.0.10.242	2.0.10.242	1.0.0.439	7	234	2	3	Verdana	1	80	0	0	0	WM Stimuli\	0.9	1378.44444444444	1	933.6	1	1145.6	1	795.3	1	1008.2	0.9	697.333333333333	0.8	1070.125	1	814.7	12	439737	3	439726	27	39	439764	-999999	439740	0	11	Fix15secPROC	""	1	2	47	SessionSelectionList																																															5	282056	-6	0							47												
WM080112	147737_fnca	1	1	1	605164536	1	75.032	75.031	2.0.10.147	2.0.10.242	2.0.10.242	1.0.0.439	7	234	2	3	Verdana	1	80	0	0	0	WM Stimuli\	0.9	1378.44444444444	1	933.6	1	1145.6	1	795.3	1	1008.2	0.9	697.333333333333	0.8	1070.125	1	814.7	12	439737	3	439726	27	39	439764	-999999	439740	0	12	Cue0BackPROC	PL_001_92012.png	1	2	48	SessionSelectionList																																										12	297063	-13	0												48												
WM080112	147737_fnca	1	1	1	605164536	1	75.032	75.031	2.0.10.147	2.0.10.242	2.0.10.242	1.0.0.439	7	234	2	3	Verdana	1	80	0	0	0	WM Stimuli\	0.9	1378.44444444444	1	933.6	1	1145.6	1	795.3	1	1008.2	0.9	697.333333333333	0.8	1070.125	1	814.7	12	439737	3	439726	27	39	439764	-999999	439740	0	13	TrialsPROC	PL_003_92016.png	1	2	49	SessionSelectionList														nonlure	3	Place	0-Back	42	80	40	0	0	100	2	39	301661	2	14	71	299622	-1	300543	1	921	3	3	2039	53	301675	-54	0												1				49												
WM080112	147737_fnca	1	1	1	605164536	1	75.032	75.031	2.0.10.147	2.0.10.242	2.0.10.242	1.0.0.439	7	234	2	3	Verdana	1	80	0	0	0	WM Stimuli\	0.9	1378.44444444444	1	933.6	1	1145.6	1	795.3	1	1008.2	0.9	697.333333333333	0.8	1070.125	1	814.7	12	439737	3	439726	27	39	439764	-999999	439740	0	13	TrialsPROC	PL_003_92016.png	1	2	50	SessionSelectionList														lure	3	Place	0-Back	43	80	41	0	0	100	3	40	304234	1	13	72	302194	-1	302856	1	662	3	3	2040	53	304247	-54	0												2				50												
WM080112	147737_fnca	1	1	1	605164536	1	75.032	75.031	2.0.10.147	2.0.10.242	2.0.10.242	1.0.0.439	7	234	2	3	Verdana	1	80	0	0	0	WM Stimuli\	0.9	1378.44444444444	1	933.6	1	1145.6	1	795.3	1	1008.2	0.9	697.333333333333	0.8	1070.125	1	814.7	12	439737	3	439726	27	39	439764	-999999	439740	0	13	TrialsPROC	PL_006_92025.png	1	2	51	SessionSelectionList														nonlure	3	Place	0-Back	44	80	42	0	0	100	4	39	306806	2	14	73	304767	-1	305644	1	877	3	3	2039	53	306820	-54	0												3				51												
WM080112	147737_fnca	1	1	1	605164536	1	75.032	75.031	2.0.10.147	2.0.10.242	2.0.10.242	1.0.0.439	7	234	2	3	Verdana	1	80	0	0	0	WM Stimuli\	0.9	1378.44444444444	1	933.6	1	1145.6	1	795.3	1	1008.2	0.9	697.333333333333	0.8	1070.125	1	814.7	12	439737	3	439726	27	39	439764	-999999	439740	0	13	TrialsPROC	PL_001_92012.png	1	2	52	SessionSelectionList														target	2	Place	0-Back	45	80	42	0	1	96	4	39	309378	1	14	72	307339	-1	0	0	0	""	2	2039	53	309392	-54	0												4				52												
WM080112	147737_fnca	1	1	1	605164536	1	75.032	75.031	2.0.10.147	2.0.10.242	2.0.10.242	1.0.0.439	7	234	2	3	Verdana	1	80	0	0	0	WM Stimuli\	0.9	1378.44444444444	1	933.6	1	1145.6	1	795.3	1	1008.2	0.9	697.333333333333	0.8	1070.125	1	814.7	12	439737	3	439726	27	39	439764	-999999	439740	0	13	TrialsPROC	PL_004_92023.png	1	2	53	SessionSelectionList														nonlure	3	Place	0-Back	46	80	43	0	0	96	1	39	311937	1	14	59	309898	-1	310552	1	654	3	3	2039	53	311951	-54	0												5				53												
WM080112	147737_fnca	1	1	1	605164536	1	75.032	75.031	2.0.10.147	2.0.10.242	2.0.10.242	1.0.0.439	7	234	2	3	Verdana	1	80	0	0	0	WM Stimuli\	0.9	1378.44444444444	1	933.6	1	1145.6	1	795.3	1	1008.2	0.9	697.333333333333	0.8	1070.125	1	814.7	12	439737	3	439726	27	39	439764	-999999	439740	0	13	TrialsPROC	PL_005_92024.png	1	2	54	SessionSelectionList														nonlure	3	Place	0-Back	47	80	44	0	0	96	2	39	314509	2	14	72	312470	-1	313396	1	926	3	3	2039	53	314523	-54	0												6				54												
WM080112	147737_fnca	1	1	1	605164536	1	75.032	75.031	2.0.10.147	2.0.10.242	2.0.10.242	1.0.0.439	7	234	2	3	Verdana	1	80	0	0	0	WM Stimuli\	0.9	1378.44444444444	1	933.6	1	1145.6	1	795.3	1	1008.2	0.9	697.333333333333	0.8	1070.125	1	814.7	12	439737	3	439726	27	39	439764	-999999	439740	0	13	TrialsPROC	PL_001_92012.png	1	2	55	SessionSelectionList														target	2	Place	0-Back	48	80	45	0	0	96	1	40	317082	1	13	72	315042	-1	315584	1	542	2	2	2040	53	317095	-54	0												7				55												
WM080112	147737_fnca	1	1	1	605164536	1	75.032	75.031	2.0.10.147	2.0.10.242	2.0.10.242	1.0.0.439	7	234	2	3	Verdana	1	80	0	0	0	WM Stimuli\	0.9	1378.44444444444	1	933.6	1	1145.6	1	795.3	1	1008.2	0.9	697.333333333333	0.8	1070.125	1	814.7	12	439737	3	439726	27	39	439764	-999999	439740	0	13	TrialsPROC	PL_002_92014.png	1	2	56	SessionSelectionList														nonlure	3	Place	0-Back	49	80	46	0	0	96	1	39	319654	1	13	73	317615	-1	318154	1	539	3	3	2039	52	319667	-53	0												8				56												
WM080112	147737_fnca	1	1	1	605164536	1	75.032	75.031	2.0.10.147	2.0.10.242	2.0.10.242	1.0.0.439	7	234	2	3	Verdana	1	80	0	0	0	WM Stimuli\	0.9	1378.44444444444	1	933.6	1	1145.6	1	795.3	1	1008.2	0.9	697.333333333333	0.8	1070.125	1	814.7	12	439737	3	439726	27	39	439764	-999999	439740	0	13	TrialsPROC	PL_004_92023.png	1	2	57	SessionSelectionList														lure	3	Place	0-Back	50	80	47	0	0	97	2	39	322226	1	14	72	320187	-1	320784	1	597	3	3	2039	53	322240	-54	0												9				57												
WM080112	147737_fnca	1	1	1	605164536	1	75.032	75.031	2.0.10.147	2.0.10.242	2.0.10.242	1.0.0.439	7	234	2	3	Verdana	1	80	0	0	0	WM Stimuli\	0.9	1378.44444444444	1	933.6	1	1145.6	1	795.3	1	1008.2	0.9	697.333333333333	0.8	1070.125	1	814.7	12	439737	3	439726	27	39	439764	-999999	439740	0	13	TrialsPROC	PL_006_92025.png	1	2	58	SessionSelectionList														lure	3	Place	0-Back	51	80	48	0	0	97	3	39	324798	2	14	72	322759	-1	323317	1	558	3	3	2039	53	324812	-54	0												10				58												
WM080112	147737_fnca	1	1	1	605164536	1	75.032	75.031	2.0.10.147	2.0.10.242	2.0.10.242	1.0.0.439	7	234	2	3	Verdana	1	80	0	0	0	WM Stimuli\	0.9	1378.44444444444	1	933.6	1	1145.6	1	795.3	1	1008.2	0.9	697.333333333333	0.8	1070.125	1	814.7	12	439737	3	439726	27	39	439764	-999999	439740	0	14	Cue2BackPROC	""	1	2	59	SessionSelectionList									6	325265	-7	0																																													59												
WM080112	147737_fnca	1	1	1	605164536	1	75.032	75.031	2.0.10.147	2.0.10.242	2.0.10.242	1.0.0.439	7	234	2	3	Verdana	1	80	0	0	0	WM Stimuli\	0.9	1378.44444444444	1	933.6	1	1145.6	1	795.3	1	1008.2	0.9	697.333333333333	0.8	1070.125	1	814.7	12	439737	3	439726	27	39	439764	-999999	439740	0	15	TrialsPROC	FC_010_F5.png	1	2	60	SessionSelectionList														nonlure	3	Face	2-Back	52	80	49	0	0	97	4	39	329863	2	14	65	327824	-1	329180	1	1356	3	3	2039	53	329877	-54	0													1			60												
WM080112	147737_fnca	1	1	1	605164536	1	75.032	75.031	2.0.10.147	2.0.10.242	2.0.10.242	1.0.0.439	7	234	2	3	Verdana	1	80	0	0	0	WM Stimuli\	0.9	1378.44444444444	1	933.6	1	1145.6	1	795.3	1	1008.2	0.9	697.333333333333	0.8	1070.125	1	814.7	12	439737	3	439726	27	39	439764	-999999	439740	0	15	TrialsPROC	FC_012_F6.png	1	2	61	SessionSelectionList														nonlure	3	Face	2-Back	53	80	50	0	0	97	5	39	332435	2	14	72	330396	-1	331277	1	881	3	3	2039	53	332449	-54	0													2			61												
WM080112	147737_fnca	1	1	1	605164536	1	75.032	75.031	2.0.10.147	2.0.10.242	2.0.10.242	1.0.0.439	7	234	2	3	Verdana	1	80	0	0	0	WM Stimuli\	0.9	1378.44444444444	1	933.6	1	1145.6	1	795.3	1	1008.2	0.9	697.333333333333	0.8	1070.125	1	814.7	12	439737	3	439726	27	39	439764	-999999	439740	0	15	TrialsPROC	FC_010_F5.png	1	2	62	SessionSelectionList														target	2	Face	2-Back	54	80	51	0	0	97	1	39	335007	3	14	72	332968	-1	333886	1	918	2	2	2039	53	335021	-54	0													3			62												
WM080112	147737_fnca	1	1	1	605164536	1	75.032	75.031	2.0.10.147	2.0.10.242	2.0.10.242	1.0.0.439	7	234	2	3	Verdana	1	80	0	0	0	WM Stimuli\	0.9	1378.44444444444	1	933.6	1	1145.6	1	795.3	1	1008.2	0.9	697.333333333333	0.8	1070.125	1	814.7	12	439737	3	439726	27	39	439764	-999999	439740	0	15	TrialsPROC	FC_008_F4.png	1	2	63	SessionSelectionList														nonlure	3	Face	2-Back	55	80	52	0	0	97	1	39	337580	1	13	73	335541	-1	336767	1	1226	3	3	2039	52	337593	-53	0													4			63												
WM080112	147737_fnca	1	1	1	605164536	1	75.032	75.031	2.0.10.147	2.0.10.242	2.0.10.242	1.0.0.439	7	234	2	3	Verdana	1	80	0	0	0	WM Stimuli\	0.9	1378.44444444444	1	933.6	1	1145.6	1	795.3	1	1008.2	0.9	697.333333333333	0.8	1070.125	1	814.7	12	439737	3	439726	27	39	439764	-999999	439740	0	15	TrialsPROC	FC_012_F6.png	1	2	64	SessionSelectionList														lure	3	Face	2-Back	56	80	53	0	0	97	2	39	340152	2	14	72	338113	-1	339779	1	1666	3	3	2039	53	340166	-54	0													5			64												
WM080112	147737_fnca	1	1	1	605164536	1	75.032	75.031	2.0.10.147	2.0.10.242	2.0.10.242	1.0.0.439	7	234	2	3	Verdana	1	80	0	0	0	WM Stimuli\	0.9	1378.44444444444	1	933.6	1	1145.6	1	795.3	1	1008.2	0.9	697.333333333333	0.8	1070.125	1	814.7	12	439737	3	439726	27	39	439764	-999999	439740	0	15	TrialsPROC	FC_008_F4.png	1	2	65	SessionSelectionList														target	2	Face	2-Back	57	80	54	0	0	97	1	39	342724	2	14	72	340685	-1	341441	1	756	2	2	2039	53	342738	-54	0													6			65												
WM080112	147737_fnca	1	1	1	605164536	1	75.032	75.031	2.0.10.147	2.0.10.242	2.0.10.242	1.0.0.439	7	234	2	3	Verdana	1	80	0	0	0	WM Stimuli\	0.9	1378.44444444444	1	933.6	1	1145.6	1	795.3	1	1008.2	0.9	697.333333333333	0.8	1070.125	1	814.7	12	439737	3	439726	27	39	439764	-999999	439740	0	15	TrialsPROC	FC_007_M4.png	1	2	66	SessionSelectionList														nonlure	3	Face	2-Back	58	80	55	0	0	97	1	40	345297	2	13	72	343257	-1	344220	1	963	3	3	2040	53	345310	-54	0													7			66												
WM080112	147737_fnca	1	1	1	605164536	1	75.032	75.031	2.0.10.147	2.0.10.242	2.0.10.242	1.0.0.439	7	234	2	3	Verdana	1	80	0	0	0	WM Stimuli\	0.9	1378.44444444444	1	933.6	1	1145.6	1	795.3	1	1008.2	0.9	697.333333333333	0.8	1070.125	1	814.7	12	439737	3	439726	27	39	439764	-999999	439740	0	15	TrialsPROC	FC_007_M4.png	1	2	67	SessionSelectionList														lure	3	Face	2-Back	59	80	56	0	0	97	2	39	347869	1	13	73	345830	-1	347014	1	1184	3	3	2039	52	347882	-53	0													8			67												
WM080112	147737_fnca	1	1	1	605164536	1	75.032	75.031	2.0.10.147	2.0.10.242	2.0.10.242	1.0.0.439	7	234	2	3	Verdana	1	80	0	0	0	WM Stimuli\	0.9	1378.44444444444	1	933.6	1	1145.6	1	795.3	1	1008.2	0.9	697.333333333333	0.8	1070.125	1	814.7	12	439737	3	439726	27	39	439764	-999999	439740	0	15	TrialsPROC	FC_009_M5.png	1	2	68	SessionSelectionList														nonlure	3	Face	2-Back	60	80	57	0	0	97	3	39	350441	1	14	72	348402	-1	349412	1	1010	3	3	2039	53	350455	-54	0													9			68												
WM080112	147737_fnca	1	1	1	605164536	1	75.032	75.031	2.0.10.147	2.0.10.242	2.0.10.242	1.0.0.439	7	234	2	3	Verdana	1	80	0	0	0	WM Stimuli\	0.9	1378.44444444444	1	933.6	1	1145.6	1	795.3	1	1008.2	0.9	697.333333333333	0.8	1070.125	1	814.7	12	439737	3	439726	27	39	439764	-999999	439740	0	15	TrialsPROC	FC_011_M6.png	1	2	69	SessionSelectionList														nonlure	3	Face	2-Back	61	80	58	0	0	97	4	39	353013	3	14	72	350974	-1	352470	1	1496	3	3	2039	53	353027	-54	0													10			69												
WM080112	147737_fnca	1	1	1	605164536	1	75.032	75.031	2.0.10.147	2.0.10.242	2.0.10.242	1.0.0.439	7	234	2	3	Verdana	1	80	0	0	0	WM Stimuli\	0.9	1378.44444444444	1	933.6	1	1145.6	1	795.3	1	1008.2	0.9	697.333333333333	0.8	1070.125	1	814.7	12	439737	3	439726	27	39	439764	-999999	439740	0	16	Fix15secPROC	""	1	2	70	SessionSelectionList																																															6	353480	-7	0							70												
WM080112	147737_fnca	1	1	1	605164536	1	75.032	75.031	2.0.10.147	2.0.10.242	2.0.10.242	1.0.0.439	7	234	2	3	Verdana	1	80	0	0	0	WM Stimuli\	0.9	1378.44444444444	1	933.6	1	1145.6	1	795.3	1	1008.2	0.9	697.333333333333	0.8	1070.125	1	814.7	12	439737	3	439726	27	39	439764	-999999	439740	0	17	Cue0BackPROC	TO_007_TOOL7_BA.png	1	2	71	SessionSelectionList																																										13	368487	-14	0												71												
WM080112	147737_fnca	1	1	1	605164536	1	75.032	75.031	2.0.10.147	2.0.10.242	2.0.10.242	1.0.0.439	7	234	2	3	Verdana	1	80	0	0	0	WM Stimuli\	0.9	1378.44444444444	1	933.6	1	1145.6	1	795.3	1	1008.2	0.9	697.333333333333	0.8	1070.125	1	814.7	12	439737	3	439726	27	39	439764	-999999	439740	0	18	TrialsPROC	TO_010_TOOL10_BA.png	1	2	72	SessionSelectionList														nonlure	3	Tools	0-Back	62	80	59	0	0	97	5	40	373072	1	13	58	371032	-1	372719	1	1687	3	3	2040	53	373085	-54	0														1		72												
WM080112	147737_fnca	1	1	1	605164536	1	75.032	75.031	2.0.10.147	2.0.10.242	2.0.10.242	1.0.0.439	7	234	2	3	Verdana	1	80	0	0	0	WM Stimuli\	0.9	1378.44444444444	1	933.6	1	1145.6	1	795.3	1	1008.2	0.9	697.333333333333	0.8	1070.125	1	814.7	12	439737	3	439726	27	39	439764	-999999	439740	0	18	TrialsPROC	TO_009_TOOL9_BA.png	1	2	73	SessionSelectionList														nonlure	3	Tools	0-Back	63	80	60	0	0	97	6	40	375631	1	13	59	373591	-1	374232	1	641	3	3	2040	53	375644	-54	0														2		73												
WM080112	147737_fnca	1	1	1	605164536	1	75.032	75.031	2.0.10.147	2.0.10.242	2.0.10.242	1.0.0.439	7	234	2	3	Verdana	1	80	0	0	0	WM Stimuli\	0.9	1378.44444444444	1	933.6	1	1145.6	1	795.3	1	1008.2	0.9	697.333333333333	0.8	1070.125	1	814.7	12	439737	3	439726	27	39	439764	-999999	439740	0	18	TrialsPROC	TO_009_TOOL9_BA.png	1	2	74	SessionSelectionList														lure	3	Tools	0-Back	64	80	61	0	0	97	7	40	378190	2	13	59	376150	-1	377006	1	856	3	3	2040	53	378203	-54	0														3		74												
WM080112	147737_fnca	1	1	1	605164536	1	75.032	75.031	2.0.10.147	2.0.10.242	2.0.10.242	1.0.0.439	7	234	2	3	Verdana	1	80	0	0	0	WM Stimuli\	0.9	1378.44444444444	1	933.6	1	1145.6	1	795.3	1	1008.2	0.9	697.333333333333	0.8	1070.125	1	814.7	12	439737	3	439726	27	39	439764	-999999	439740	0	18	TrialsPROC	TO_008_TOOL8_BA.png	1	2	75	SessionSelectionList														nonlure	3	Tools	0-Back	65	80	62	0	0	97	8	39	380748	2	14	59	378709	-1	379393	1	684	3	3	2039	53	380762	-54	0														4		75												
WM080112	147737_fnca	1	1	1	605164536	1	75.032	75.031	2.0.10.147	2.0.10.242	2.0.10.242	1.0.0.439	7	234	2	3	Verdana	1	80	0	0	0	WM Stimuli\	0.9	1378.44444444444	1	933.6	1	1145.6	1	795.3	1	1008.2	0.9	697.333333333333	0.8	1070.125	1	814.7	12	439737	3	439726	27	39	439764	-999999	439740	0	18	TrialsPROC	TO_011_TOOL11_BA.png	1	2	76	SessionSelectionList														nonlure	3	Tools	0-Back	66	80	63	0	0	97	9	39	383307	2	14	59	381268	-1	381722	1	454	3	3	2039	53	383321	-54	0														5		76												
WM080112	147737_fnca	1	1	1	605164536	1	75.032	75.031	2.0.10.147	2.0.10.242	2.0.10.242	1.0.0.439	7	234	2	3	Verdana	1	80	0	0	0	WM Stimuli\	0.9	1378.44444444444	1	933.6	1	1145.6	1	795.3	1	1008.2	0.9	697.333333333333	0.8	1070.125	1	814.7	12	439737	3	439726	27	39	439764	-999999	439740	0	18	TrialsPROC	TO_012_TOOL12_BA.png	1	2	77	SessionSelectionList														nonlure	3	Tools	0-Back	67	80	64	0	0	97	10	39	385866	3	14	59	383827	-1	384801	1	974	3	3	2039	53	385880	-54	0														6		77												
WM080112	147737_fnca	1	1	1	605164536	1	75.032	75.031	2.0.10.147	2.0.10.242	2.0.10.242	1.0.0.439	7	234	2	3	Verdana	1	80	0	0	0	WM Stimuli\	0.9	1378.44444444444	1	933.6	1	1145.6	1	795.3	1	1008.2	0.9	697.333333333333	0.8	1070.125	1	814.7	12	439737	3	439726	27	39	439764	-999999	439740	0	18	TrialsPROC	TO_010_TOOL10_BA.png	1	2	78	SessionSelectionList														lure	3	Tools	0-Back	68	80	65	0	0	97	11	39	388425	3	14	59	386386	-1	387276	1	890	3	3	2039	53	388439	-54	0														7		78												
WM080112	147737_fnca	1	1	1	605164536	1	75.032	75.031	2.0.10.147	2.0.10.242	2.0.10.242	1.0.0.439	7	234	2	3	Verdana	1	80	0	0	0	WM Stimuli\	0.9	1378.44444444444	1	933.6	1	1145.6	1	795.3	1	1008.2	0.9	697.333333333333	0.8	1070.125	1	814.7	12	439737	3	439726	27	39	439764	-999999	439740	0	18	TrialsPROC	TO_007_TOOL7_BA.png	1	2	79	SessionSelectionList														target	2	Tools	0-Back	69	80	66	0	0	97	1	39	390984	2	14	59	388945	-1	389517	1	572	2	2	2039	53	390998	-54	0														8		79												
WM080112	147737_fnca	1	1	1	605164536	1	75.032	75.031	2.0.10.147	2.0.10.242	2.0.10.242	1.0.0.439	7	234	2	3	Verdana	1	80	0	0	0	WM Stimuli\	0.9	1378.44444444444	1	933.6	1	1145.6	1	795.3	1	1008.2	0.9	697.333333333333	0.8	1070.125	1	814.7	12	439737	3	439726	27	39	439764	-999999	439740	0	18	TrialsPROC	TO_008_TOOL8_BA.png	1	2	80	SessionSelectionList														lure	3	Tools	0-Back	70	80	67	0	0	97	1	39	393543	2	14	59	391504	-1	392130	1	626	3	3	2039	53	393557	-54	0														9		80												
WM080112	147737_fnca	1	1	1	605164536	1	75.032	75.031	2.0.10.147	2.0.10.242	2.0.10.242	1.0.0.439	7	234	2	3	Verdana	1	80	0	0	0	WM Stimuli\	0.9	1378.44444444444	1	933.6	1	1145.6	1	795.3	1	1008.2	0.9	697.333333333333	0.8	1070.125	1	814.7	12	439737	3	439726	27	39	439764	-999999	439740	0	18	TrialsPROC	TO_007_TOOL7_BA.png	1	2	81	SessionSelectionList														target	2	Tools	0-Back	71	80	68	0	0	98	1	39	396102	1	14	59	394063	-1	394826	1	763	2	2	2039	53	396116	-54	0														10		81												
WM080112	147737_fnca	1	1	1	605164536	1	75.032	75.031	2.0.10.147	2.0.10.242	2.0.10.242	1.0.0.439	7	234	2	3	Verdana	1	80	0	0	0	WM Stimuli\	0.9	1378.44444444444	1	933.6	1	1145.6	1	795.3	1	1008.2	0.9	697.333333333333	0.8	1070.125	1	814.7	12	439737	3	439726	27	39	439764	-999999	439740	0	19	Cue2BackPROC	""	1	2	82	SessionSelectionList									6	396569	-7	0																																													82												
WM080112	147737_fnca	1	1	1	605164536	1	75.032	75.031	2.0.10.147	2.0.10.242	2.0.10.242	1.0.0.439	7	234	2	3	Verdana	1	80	0	0	0	WM Stimuli\	0.9	1378.44444444444	1	933.6	1	1145.6	1	795.3	1	1008.2	0.9	697.333333333333	0.8	1070.125	1	814.7	12	439737	3	439726	27	39	439764	-999999	439740	0	20	TrialsPROC	PL_007_92026.png	1	2	83	SessionSelectionList														nonlure	3	Place	2-Back	72	80	69	0	0	98	1	39	401167	1	13	65	399128	-1	400694	1	1566	3	3	2039	52	401180	-53	0															1	83												
WM080112	147737_fnca	1	1	1	605164536	1	75.032	75.031	2.0.10.147	2.0.10.242	2.0.10.242	1.0.0.439	7	234	2	3	Verdana	1	80	0	0	0	WM Stimuli\	0.9	1378.44444444444	1	933.6	1	1145.6	1	795.3	1	1008.2	0.9	697.333333333333	0.8	1070.125	1	814.7	12	439737	3	439726	27	39	439764	-999999	439740	0	20	TrialsPROC	PL_007_92026.png	1	2	84	SessionSelectionList														lure	3	Place	2-Back	73	80	70	0	0	98	2	40	403726	1	13	58	401686	-1	403063	1	1377	3	3	2040	53	403739	-54	0															2	84												
WM080112	147737_fnca	1	1	1	605164536	1	75.032	75.031	2.0.10.147	2.0.10.242	2.0.10.242	1.0.0.439	7	234	2	3	Verdana	1	80	0	0	0	WM Stimuli\	0.9	1378.44444444444	1	933.6	1	1145.6	1	795.3	1	1008.2	0.9	697.333333333333	0.8	1070.125	1	814.7	12	439737	3	439726	27	39	439764	-999999	439740	0	20	TrialsPROC	PL_010_92038.png	1	2	85	SessionSelectionList														nonlure	3	Place	2-Back	74	80	71	0	0	98	3	39	406298	1	14	73	404259	-1	405413	1	1154	3	3	2039	53	406312	-54	0															3	85												
WM080112	147737_fnca	1	1	1	605164536	1	75.032	75.031	2.0.10.147	2.0.10.242	2.0.10.242	1.0.0.439	7	234	2	3	Verdana	1	80	0	0	0	WM Stimuli\	0.9	1378.44444444444	1	933.6	1	1145.6	1	795.3	1	1008.2	0.9	697.333333333333	0.8	1070.125	1	814.7	12	439737	3	439726	27	39	439764	-999999	439740	0	20	TrialsPROC	PL_009_92037.png	1	2	86	SessionSelectionList														nonlure	3	Place	2-Back	75	80	72	0	0	98	4	39	408857	2	13	59	406818	-1	407650	1	832	3	3	2039	52	408870	-53	0															4	86												
WM080112	147737_fnca	1	1	1	605164536	1	75.032	75.031	2.0.10.147	2.0.10.242	2.0.10.242	1.0.0.439	7	234	2	3	Verdana	1	80	0	0	0	WM Stimuli\	0.9	1378.44444444444	1	933.6	1	1145.6	1	795.3	1	1008.2	0.9	697.333333333333	0.8	1070.125	1	814.7	12	439737	3	439726	27	39	439764	-999999	439740	0	20	TrialsPROC	PL_010_92038.png	1	2	87	SessionSelectionList														target	2	Place	2-Back	76	80	73	0	0	98	1	39	411416	1	13	59	409377	-1	410000	1	623	2	2	2039	52	411429	-53	0															5	87												
WM080112	147737_fnca	1	1	1	605164536	1	75.032	75.031	2.0.10.147	2.0.10.242	2.0.10.242	1.0.0.439	7	234	2	3	Verdana	1	80	0	0	0	WM Stimuli\	0.9	1378.44444444444	1	933.6	1	1145.6	1	795.3	1	1008.2	0.9	697.333333333333	0.8	1070.125	1	814.7	12	439737	3	439726	27	39	439764	-999999	439740	0	20	TrialsPROC	PL_009_92037.png	1	2	88	SessionSelectionList														target	2	Place	2-Back	77	80	74	0	0	98	2	39	413975	1	13	59	411936	-1	412885	1	949	2	2	2039	52	413988	-53	0															6	88												
WM080112	147737_fnca	1	1	1	605164536	1	75.032	75.031	2.0.10.147	2.0.10.242	2.0.10.242	1.0.0.439	7	234	2	3	Verdana	1	80	0	0	0	WM Stimuli\	0.9	1378.44444444444	1	933.6	1	1145.6	1	795.3	1	1008.2	0.9	697.333333333333	0.8	1070.125	1	814.7	12	439737	3	439726	27	39	439764	-999999	439740	0	20	TrialsPROC	PL_008_92033.png	1	2	89	SessionSelectionList														nonlure	3	Place	2-Back	78	80	75	0	0	98	1	39	416547	2	14	72	414508	-1	415398	1	890	3	3	2039	53	416561	-54	0															7	89												
WM080112	147737_fnca	1	1	1	605164536	1	75.032	75.031	2.0.10.147	2.0.10.242	2.0.10.242	1.0.0.439	7	234	2	3	Verdana	1	80	0	0	0	WM Stimuli\	0.9	1378.44444444444	1	933.6	1	1145.6	1	795.3	1	1008.2	0.9	697.333333333333	0.8	1070.125	1	814.7	12	439737	3	439726	27	39	439764	-999999	439740	0	20	TrialsPROC	PL_012_92047.png	1	2	90	SessionSelectionList														nonlure	3	Place	2-Back	79	80	76	0	0	98	2	39	419119	3	14	72	417080	-1	417802	1	722	3	3	2039	53	419133	-54	0															8	90												
WM080112	147737_fnca	1	1	1	605164536	1	75.032	75.031	2.0.10.147	2.0.10.242	2.0.10.242	1.0.0.439	7	234	2	3	Verdana	1	80	0	0	0	WM Stimuli\	0.9	1378.44444444444	1	933.6	1	1145.6	1	795.3	1	1008.2	0.9	697.333333333333	0.8	1070.125	1	814.7	12	439737	3	439726	27	39	439764	-999999	439740	0	20	TrialsPROC	PL_012_92047.png	1	2	91	SessionSelectionList														lure	3	Place	2-Back	80	80	77	0	0	98	3	39	421691	2	14	72	419652	-1	420645	1	993	3	3	2039	53	421705	-54	0															9	91												
WM080112	147737_fnca	1	1	1	605164536	1	75.032	75.031	2.0.10.147	2.0.10.242	2.0.10.242	1.0.0.439	7	234	2	3	Verdana	1	80	0	0	0	WM Stimuli\	0.9	1378.44444444444	1	933.6	1	1145.6	1	795.3	1	1008.2	0.9	697.333333333333	0.8	1070.125	1	814.7	12	439737	3	439726	27	39	439764	-999999	439740	0	20	TrialsPROC	PL_011_92044.png	1	2	92	SessionSelectionList														nonlure	3	Place	2-Back	80	80	78	0	0	98	4	39	424264	1	13	73	422225	-1	423201	1	976	3	3	2039	52	424277	-53	0															10	92												
WM080112	147737_fnca	1	1	1	605164536	1	75.032	75.031	2.0.10.147	2.0.10.242	2.0.10.242	1.0.0.439	7	234	2	3	Verdana	1	80	0	0	0	WM Stimuli\	0.9	1378.44444444444	1	933.6	1	1145.6	1	795.3	1	1008.2	0.9	697.333333333333	0.8	1070.125	1	814.7	12	439737	3	439726	27	39	439764	-999999	439740	0	21	Fix15secPROC	""	1	2	93	SessionSelectionList																																															6	424731	-7	0							93												
