ExperimentName	HCPID	RunNumber	Subject	Session	RandomSeed	Group	Laptop.RefreshRate	ScannerD2.RefreshRate	StudioVersion	RuntimeVersion	RuntimeVersionExpected	ExperimentVersion	triggercode	Allowed	Target	Nontarget	FontStyle	RunTrialNumber[Session]	TrialsPerRun[Session]	TotalRespGreater200[Session]	ConsecRTLess200[Session]	ConsecNonResp[Session]	StimuliDir	ACC_2_Back_Body	Avg_RT_For_Correct_Trials_2_Back_Body	ACC_0_Back_Body	Avg_RT_For_Correct_Trials_0_Back_Body	ACC_2_Back_Face	Avg_RT_For_Correct_Trials_2_Back_Face	ACC_0_Back_Face	Avg_RT_For_Correct_Trials_0_Back_Face	ACC_2_Back_Place	Avg_RT_For_Correct_Trials_2_Back_Place	ACC_0_Back_Place	Avg_RT_For_Correct_Trials_0_Back_Place	ACC_2_Back_Tools	Avg_RT_For_Correct_Trials_2_Back_Tools	ACC_0_Back_Tools	Avg_RT_For_Correct_Trials_0_Back_Tools	ExpInstrucFeelFreeToRest.OnsetDelay	ExpInstrucFeelFreeToRest.OnsetTime	ExpInstrucFeelFreeToRest.DurationError	ExpInstrucFeelFreeToRest.StartTime	ExpInstrucFeelFreeToRest.OnsetToOnsetTime	FeelFreeToRest.OnsetDelay	FeelFreeToRest.OnsetTime	FeelFreeToRest.DurationError	FeelFreeToRest.StartTime	FeelFreeToRest.OnsetToOnsetTime	SessionSelectionList	Procedure[Block]	Stimulus[Block]	RunNumberFilterValue	SessionSelectionList.Cycle	SessionSelectionList.Sample	Running[Block]	IntroButtonMap.OnsetDelay	IntroButtonMap.OnsetTime	IntroButtonMap.DurationError	IntroButtonMap.OnsetToOnsetTime	GetReady.OnsetDelay	GetReady.OnsetTime	GetReady.DurationError	GetReady.OnsetToOnsetTime	Cue2Back.OnsetDelay	Cue2Back.OnsetTime	Cue2Back.DurationError	Cue2Back.OnsetToOnsetTime	Run1Block1	TargetType	CorrectResponse	StimType	BlockType	RunTrialNumber[Block]	TrialsPerRun[Block]	TotalRespGreater200[Block]	ConsecRTLess200[Block]	ConsecNonResp[Block]	ControlAcc	ConsecSameResp	ExperimenterWindow.OnsetDelay	ExperimenterWindow.OnsetTime	ExperimenterWindow.DurationError	ExperimenterWindow.OnsetToOnsetTime	Stim.OnsetDelay	Stim.OnsetTime	Stim.DurationError	Stim.RTTime	Stim.ACC	Stim.RT	Stim.RESP	Stim.CRESP	Stim.OnsetToOnsetTime	Fix.OnsetDelay	Fix.OnsetTime	Fix.DurationError	Fix.OnsetToOnsetTime	CueTarget.OnsetDelay	CueTarget.OnsetTime	CueTarget.DurationError	CueTarget.OnsetToOnsetTime	Run1Block2	Fix15sec.OnsetDelay	Fix15sec.OnsetTime	Fix15sec.DurationError	Fix15sec.OnsetToOnsetTime	Run1Block3	Run1Block4	Run1Block5	Run1Block6	Run1Block7	Run1Block8	Block	Procedure[Trial]	Stimulus[Trial]	ReadyList	Running[Trial]	ReadyList.Cycle	ReadyList.Sample	SyncSlide.OnsetDelay	SyncSlide.OnsetTime	SyncSlide.DurationError	SyncSlide.FinishTime	SyncSlide.OnsetToOnsetTime	Trial
WM080112	101107_fnca	2	1	1	752013558	1	75.033	75.030	2.0.10.147	2.0.10.242	2.0.10.242	1.0.0.439	7	234	2	3	Verdana	1	80	0	0	0	WM Stimuli\	1	758.3	1	814.3	1	847.7	1	639.9	0.8	745.5	1	574.5	0.9	760.777777777778	0.9	624	13	328060	3	328048	27	40	328087	-999999	328063	0	22	TRSyncPROC	""	2	2	1	SessionSelectionList	105	14999	-999999	0	32	21530	-999999	0																																																	1	InitialTR	4	1	ReadyList	1	1	11	34671	-12	36659	0	1
WM080112	101107_fnca	2	1	1	752013558	1	75.033	75.030	2.0.10.147	2.0.10.242	2.0.10.242	1.0.0.439	7	234	2	3	Verdana	1	80	0	0	0	WM Stimuli\	1	758.3	1	814.3	1	847.7	1	639.9	0.8	745.5	1	574.5	0.9	760.777777777778	0.9	624	13	328060	3	328048	27	40	328087	-999999	328063	0	22	TRSyncPROC	""	2	2	1	SessionSelectionList	105	14999	-999999	0	32	21530	-999999	0																																																	1	InitialTR	3	2	ReadyList	1	2	10	36670	-11	38659	0	2
WM080112	101107_fnca	2	1	1	752013558	1	75.033	75.030	2.0.10.147	2.0.10.242	2.0.10.242	1.0.0.439	7	234	2	3	Verdana	1	80	0	0	0	WM Stimuli\	1	758.3	1	814.3	1	847.7	1	639.9	0.8	745.5	1	574.5	0.9	760.777777777778	0.9	624	13	328060	3	328048	27	40	328087	-999999	328063	0	22	TRSyncPROC	""	2	2	1	SessionSelectionList	105	14999	-999999	0	32	21530	-999999	0																																																	1	InitialTR	2	3	ReadyList	1	3	10	38670	-11	40659	0	3
WM080112	101107_fnca	2	1	1	752013558	1	75.033	75.030	2.0.10.147	2.0.10.242	2.0.10.242	1.0.0.439	7	234	2	3	Verdana	1	80	0	0	0	WM Stimuli\	1	758.3	1	814.3	1	847.7	1	639.9	0.8	745.5	1	574.5	0.9	760.777777777778	0.9	624	13	328060	3	328048	27	40	328087	-999999	328063	0	22	TRSyncPROC	""	2	2	1	SessionSelectionList	105	14999	-999999	0	32	21530	-999999	0																																																	1	InitialTR	1	4	ReadyList	1	4	9	40669	-10	42659	0	4
WM080112	101107_fnca	2	1	1	752013558	1	75.033	75.030	2.0.10.147	2.0.10.242	2.0.10.242	1.0.0.439	7	234	2	3	Verdana	1	80	0	0	0	WM Stimuli\	1	758.3	1	814.3	1	847.7	1	639.9	0.8	745.5	1	574.5	0.9	760.777777777778	0.9	624	13	328060	3	328048	27	40	328087	-999999	328063	0	23	Cue2BackPROC	""	2	2	2	SessionSelectionList									8	42668	-9	0																																													2												
WM080112	101107_fnca	2	1	1	752013558	1	75.033	75.030	2.0.10.147	2.0.10.242	2.0.10.242	1.0.0.439	7	234	2	3	Verdana	1	80	0	0	0	WM Stimuli\	1	758.3	1	814.3	1	847.7	1	639.9	0.8	745.5	1	574.5	0.9	760.777777777778	0.9	624	13	328060	3	328048	27	40	328087	-999999	328063	0	24	TrialsPROC	TO_014_TOOL14_BA.png	2	2	3	SessionSelectionList														nonlure	3	Tools	2-Back	2	80	1	0	0	0	1	53	47293	3	13	80	45240	-1	45704	1	464	3	3	2053	66	47306	-67	0																3												
WM080112	101107_fnca	2	1	1	752013558	1	75.033	75.030	2.0.10.147	2.0.10.242	2.0.10.242	1.0.0.439	7	234	2	3	Verdana	1	80	0	0	0	WM Stimuli\	1	758.3	1	814.3	1	847.7	1	639.9	0.8	745.5	1	574.5	0.9	760.777777777778	0.9	624	13	328060	3	328048	27	40	328087	-999999	328063	0	24	TrialsPROC	TO_013_TOOL13_BA.png	2	2	4	SessionSelectionList														nonlure	3	Tools	2-Back	3	80	2	0	0	0	2	39	49838	2	14	59	47799	-1	48252	1	453	3	3	2039	53	49852	-54	0																4												
WM080112	101107_fnca	2	1	1	752013558	1	75.033	75.030	2.0.10.147	2.0.10.242	2.0.10.242	1.0.0.439	7	234	2	3	Verdana	1	80	0	0	0	WM Stimuli\	1	758.3	1	814.3	1	847.7	1	639.9	0.8	745.5	1	574.5	0.9	760.777777777778	0.9	624	13	328060	3	328048	27	40	328087	-999999	328063	0	24	TrialsPROC	TO_016_TOOL16_BA.png	2	2	5	SessionSelectionList														nonlure	3	Tools	2-Back	4	80	3	0	0	0	3	38	52397	2	14	60	50359	-1	51352	1	993	3	3	2038	52	52411	-53	0																5												
WM080112	101107_fnca	2	1	1	752013558	1	75.033	75.030	2.0.10.147	2.0.10.242	2.0.10.242	1.0.0.439	7	234	2	3	Verdana	1	80	0	0	0	WM Stimuli\	1	758.3	1	814.3	1	847.7	1	639.9	0.8	745.5	1	574.5	0.9	760.777777777778	0.9	624	13	328060	3	328048	27	40	328087	-999999	328063	0	24	TrialsPROC	TO_014_TOOL14_BA.png	2	2	6	SessionSelectionList														lure	3	Tools	2-Back	5	80	4	0	0	0	4	39	54970	1	13	72	52931	-1	53936	1	1005	3	3	2039	52	54983	-53	0																6												
WM080112	101107_fnca	2	1	1	752013558	1	75.033	75.030	2.0.10.147	2.0.10.242	2.0.10.242	1.0.0.439	7	234	2	3	Verdana	1	80	0	0	0	WM Stimuli\	1	758.3	1	814.3	1	847.7	1	639.9	0.8	745.5	1	574.5	0.9	760.777777777778	0.9	624	13	328060	3	328048	27	40	328087	-999999	328063	0	24	TrialsPROC	TO_016_TOOL16_BA.png	2	2	7	SessionSelectionList														target	2	Tools	2-Back	6	80	5	0	0	0	1	39	57529	1	13	59	55490	-1	56308	1	818	2	2	2039	52	57542	-53	0																7												
WM080112	101107_fnca	2	1	1	752013558	1	75.033	75.030	2.0.10.147	2.0.10.242	2.0.10.242	1.0.0.439	7	234	2	3	Verdana	1	80	0	0	0	WM Stimuli\	1	758.3	1	814.3	1	847.7	1	639.9	0.8	745.5	1	574.5	0.9	760.777777777778	0.9	624	13	328060	3	328048	27	40	328087	-999999	328063	0	24	TrialsPROC	TO_018_TOOL18_BA.png	2	2	8	SessionSelectionList														nonlure	3	Tools	2-Back	7	80	6	0	0	0	1	39	60088	1	13	59	58049	-1	59110	1	1061	3	3	2039	52	60101	-53	0																8												
WM080112	101107_fnca	2	1	1	752013558	1	75.033	75.030	2.0.10.147	2.0.10.242	2.0.10.242	1.0.0.439	7	234	2	3	Verdana	1	80	0	0	0	WM Stimuli\	1	758.3	1	814.3	1	847.7	1	639.9	0.8	745.5	1	574.5	0.9	760.777777777778	0.9	624	13	328060	3	328048	27	40	328087	-999999	328063	0	24	TrialsPROC	TO_017_TOOL17_BA.png	2	2	9	SessionSelectionList														nonlure	3	Tools	2-Back	8	80	7	0	0	0	2	40	62647	1	13	58	60607	-1	61315	1	708	3	3	2040	53	62660	-54	0																9												
WM080112	101107_fnca	2	1	1	752013558	1	75.033	75.030	2.0.10.147	2.0.10.242	2.0.10.242	1.0.0.439	7	234	2	3	Verdana	1	80	0	0	0	WM Stimuli\	1	758.3	1	814.3	1	847.7	1	639.9	0.8	745.5	1	574.5	0.9	760.777777777778	0.9	624	13	328060	3	328048	27	40	328087	-999999	328063	0	24	TrialsPROC	TO_018_TOOL18_BA.png	2	2	10	SessionSelectionList														target	2	Tools	2-Back	9	80	8	0	0	0	1	40	65206	1	13	59	63166	-1	63811	1	645	2	2	2040	53	65219	-54	0																10												
WM080112	101107_fnca	2	1	1	752013558	1	75.033	75.030	2.0.10.147	2.0.10.242	2.0.10.242	1.0.0.439	7	234	2	3	Verdana	1	80	0	0	0	WM Stimuli\	1	758.3	1	814.3	1	847.7	1	639.9	0.8	745.5	1	574.5	0.9	760.777777777778	0.9	624	13	328060	3	328048	27	40	328087	-999999	328063	0	24	TrialsPROC	TO_015_TOOL15_BA.png	2	2	11	SessionSelectionList														nonlure	3	Tools	2-Back	10	80	9	0	0	0	1	40	67765	1	14	59	65725	-1	66425	1	700	3	3	2040	54	67779	-55	0																11												
WM080112	101107_fnca	2	1	1	752013558	1	75.033	75.030	2.0.10.147	2.0.10.242	2.0.10.242	1.0.0.439	7	234	2	3	Verdana	1	80	0	0	0	WM Stimuli\	1	758.3	1	814.3	1	847.7	1	639.9	0.8	745.5	1	574.5	0.9	760.777777777778	0.9	624	13	328060	3	328048	27	40	328087	-999999	328063	0	24	TrialsPROC	TO_017_TOOL17_BA.png	2	2	12	SessionSelectionList														lure	3	Tools	2-Back	11	80	10	0	0	0	1	40	70324	1	13	59	68284	-1	69151	0	867	2	3	2040	53	70337	-54	0																12												
WM080112	101107_fnca	2	1	1	752013558	1	75.033	75.030	2.0.10.147	2.0.10.242	2.0.10.242	1.0.0.439	7	234	2	3	Verdana	1	80	0	0	0	WM Stimuli\	1	758.3	1	814.3	1	847.7	1	639.9	0.8	745.5	1	574.5	0.9	760.777777777778	0.9	624	13	328060	3	328048	27	40	328087	-999999	328063	0	25	Cue0BackPROC	BP_013_BP7_BA.png	2	2	13	SessionSelectionList																																										19	70803	-20	0												13												
WM080112	101107_fnca	2	1	1	752013558	1	75.033	75.030	2.0.10.147	2.0.10.242	2.0.10.242	1.0.0.439	7	234	2	3	Verdana	1	80	0	0	0	WM Stimuli\	1	758.3	1	814.3	1	847.7	1	639.9	0.8	745.5	1	574.5	0.9	760.777777777778	0.9	624	13	328060	3	328048	27	40	328087	-999999	328063	0	26	TrialsPROC	BP_015_H10-T_BA.png	2	2	14	SessionSelectionList														nonlure	3	Body	0-Back	12	80	11	0	0	100	1	39	75388	2	14	65	73349	-1	75121	1	1772	3	3	2039	53	75402	-54	0																14												
WM080112	101107_fnca	2	1	1	752013558	1	75.033	75.030	2.0.10.147	2.0.10.242	2.0.10.242	1.0.0.439	7	234	2	3	Verdana	1	80	0	0	0	WM Stimuli\	1	758.3	1	814.3	1	847.7	1	639.9	0.8	745.5	1	574.5	0.9	760.777777777778	0.9	624	13	328060	3	328048	27	40	328087	-999999	328063	0	26	TrialsPROC	BP_018_H13-T_BA.png	2	2	15	SessionSelectionList														nonlure	3	Body	0-Back	13	80	12	0	0	100	2	39	77960	2	14	72	75921	-1	77165	1	1244	3	3	2039	53	77974	-54	0																15												
WM080112	101107_fnca	2	1	1	752013558	1	75.033	75.030	2.0.10.147	2.0.10.242	2.0.10.242	1.0.0.439	7	234	2	3	Verdana	1	80	0	0	0	WM Stimuli\	1	758.3	1	814.3	1	847.7	1	639.9	0.8	745.5	1	574.5	0.9	760.777777777778	0.9	624	13	328060	3	328048	27	40	328087	-999999	328063	0	26	TrialsPROC	BP_014_BP9_BA.png	2	2	16	SessionSelectionList														nonlure	3	Body	0-Back	14	80	13	0	0	100	3	38	80519	2	14	60	78481	-1	79202	1	721	3	3	2038	52	80533	-53	0																16												
WM080112	101107_fnca	2	1	1	752013558	1	75.033	75.030	2.0.10.147	2.0.10.242	2.0.10.242	1.0.0.439	7	234	2	3	Verdana	1	80	0	0	0	WM Stimuli\	1	758.3	1	814.3	1	847.7	1	639.9	0.8	745.5	1	574.5	0.9	760.777777777778	0.9	624	13	328060	3	328048	27	40	328087	-999999	328063	0	26	TrialsPROC	BP_018_H13-T_BA.png	2	2	17	SessionSelectionList														lure	3	Body	0-Back	15	80	14	0	0	100	4	38	83078	2	14	59	81040	-1	81526	1	486	3	3	2038	52	83092	-53	0																17												
WM080112	101107_fnca	2	1	1	752013558	1	75.033	75.030	2.0.10.147	2.0.10.242	2.0.10.242	1.0.0.439	7	234	2	3	Verdana	1	80	0	0	0	WM Stimuli\	1	758.3	1	814.3	1	847.7	1	639.9	0.8	745.5	1	574.5	0.9	760.777777777778	0.9	624	13	328060	3	328048	27	40	328087	-999999	328063	0	26	TrialsPROC	BP_013_BP7_BA.png	2	2	18	SessionSelectionList														target	2	Body	0-Back	16	80	15	0	0	100	1	38	85637	2	14	59	83599	-1	84115	1	516	2	2	2038	52	85651	-53	0																18												
WM080112	101107_fnca	2	1	1	752013558	1	75.033	75.030	2.0.10.147	2.0.10.242	2.0.10.242	1.0.0.439	7	234	2	3	Verdana	1	80	0	0	0	WM Stimuli\	1	758.3	1	814.3	1	847.7	1	639.9	0.8	745.5	1	574.5	0.9	760.777777777778	0.9	624	13	328060	3	328048	27	40	328087	-999999	328063	0	26	TrialsPROC	BP_015_H10-T_BA.png	2	2	19	SessionSelectionList														lure	3	Body	0-Back	17	80	16	0	0	100	1	39	88196	2	14	58	86157	-1	86660	1	503	3	3	2039	53	88210	-54	0																19												
WM080112	101107_fnca	2	1	1	752013558	1	75.033	75.030	2.0.10.147	2.0.10.242	2.0.10.242	1.0.0.439	7	234	2	3	Verdana	1	80	0	0	0	WM Stimuli\	1	758.3	1	814.3	1	847.7	1	639.9	0.8	745.5	1	574.5	0.9	760.777777777778	0.9	624	13	328060	3	328048	27	40	328087	-999999	328063	0	26	TrialsPROC	BP_016_H11-T_BA.png	2	2	20	SessionSelectionList														nonlure	3	Body	0-Back	18	80	17	0	0	100	2	39	90769	1	13	73	88730	-1	89265	1	535	3	3	2039	52	90782	-53	0																20												
WM080112	101107_fnca	2	1	1	752013558	1	75.033	75.030	2.0.10.147	2.0.10.242	2.0.10.242	1.0.0.439	7	234	2	3	Verdana	1	80	0	0	0	WM Stimuli\	1	758.3	1	814.3	1	847.7	1	639.9	0.8	745.5	1	574.5	0.9	760.777777777778	0.9	624	13	328060	3	328048	27	40	328087	-999999	328063	0	26	TrialsPROC	BP_013_BP7_BA.png	2	2	21	SessionSelectionList														target	2	Body	0-Back	19	80	18	0	0	100	1	39	93328	1	13	59	91289	-1	91845	1	556	2	2	2039	52	93341	-53	0																21												
WM080112	101107_fnca	2	1	1	752013558	1	75.033	75.030	2.0.10.147	2.0.10.242	2.0.10.242	1.0.0.439	7	234	2	3	Verdana	1	80	0	0	0	WM Stimuli\	1	758.3	1	814.3	1	847.7	1	639.9	0.8	745.5	1	574.5	0.9	760.777777777778	0.9	624	13	328060	3	328048	27	40	328087	-999999	328063	0	26	TrialsPROC	BP_017_H12-T_BA.png	2	2	22	SessionSelectionList														nonlure	3	Body	0-Back	20	80	19	0	0	100	1	39	95887	1	13	59	93848	-1	95025	1	1177	3	3	2039	52	95900	-53	0																22												
WM080112	101107_fnca	2	1	1	752013558	1	75.033	75.030	2.0.10.147	2.0.10.242	2.0.10.242	1.0.0.439	7	234	2	3	Verdana	1	80	0	0	0	WM Stimuli\	1	758.3	1	814.3	1	847.7	1	639.9	0.8	745.5	1	574.5	0.9	760.777777777778	0.9	624	13	328060	3	328048	27	40	328087	-999999	328063	0	26	TrialsPROC	BP_014_BP9_BA.png	2	2	23	SessionSelectionList														lure	3	Body	0-Back	21	80	20	0	0	100	2	39	98446	1	13	59	96407	-1	97040	1	633	3	3	2039	52	98459	-53	0																23												
WM080112	101107_fnca	2	1	1	752013558	1	75.033	75.030	2.0.10.147	2.0.10.242	2.0.10.242	1.0.0.439	7	234	2	3	Verdana	1	80	0	0	0	WM Stimuli\	1	758.3	1	814.3	1	847.7	1	639.9	0.8	745.5	1	574.5	0.9	760.777777777778	0.9	624	13	328060	3	328048	27	40	328087	-999999	328063	0	27	Fix15secPROC	""	2	2	24	SessionSelectionList																																															5	98912	-6	0							24												
WM080112	101107_fnca	2	1	1	752013558	1	75.033	75.030	2.0.10.147	2.0.10.242	2.0.10.242	1.0.0.439	7	234	2	3	Verdana	1	80	0	0	0	WM Stimuli\	1	758.3	1	814.3	1	847.7	1	639.9	0.8	745.5	1	574.5	0.9	760.777777777778	0.9	624	13	328060	3	328048	27	40	328087	-999999	328063	0	28	Cue2BackPROC	""	2	2	25	SessionSelectionList									12	113919	-13	0																																													25												
WM080112	101107_fnca	2	1	1	752013558	1	75.033	75.030	2.0.10.147	2.0.10.242	2.0.10.242	1.0.0.439	7	234	2	3	Verdana	1	80	0	0	0	WM Stimuli\	1	758.3	1	814.3	1	847.7	1	639.9	0.8	745.5	1	574.5	0.9	760.777777777778	0.9	624	13	328060	3	328048	27	40	328087	-999999	328063	0	29	TrialsPROC	FC_015_M8.png	2	2	26	SessionSelectionList														nonlure	3	Face	2-Back	22	80	21	0	0	100	3	40	118518	1	13	71	116478	-1	117797	1	1319	3	3	2040	53	118531	-54	0																26												
WM080112	101107_fnca	2	1	1	752013558	1	75.033	75.030	2.0.10.147	2.0.10.242	2.0.10.242	1.0.0.439	7	234	2	3	Verdana	1	80	0	0	0	WM Stimuli\	1	758.3	1	814.3	1	847.7	1	639.9	0.8	745.5	1	574.5	0.9	760.777777777778	0.9	624	13	328060	3	328048	27	40	328087	-999999	328063	0	29	TrialsPROC	FC_018_F9.png	2	2	27	SessionSelectionList														nonlure	3	Face	2-Back	23	80	22	0	0	100	4	39	121090	1	14	73	119051	-1	119663	1	612	3	3	2039	53	121104	-54	0																27												
WM080112	101107_fnca	2	1	1	752013558	1	75.033	75.030	2.0.10.147	2.0.10.242	2.0.10.242	1.0.0.439	7	234	2	3	Verdana	1	80	0	0	0	WM Stimuli\	1	758.3	1	814.3	1	847.7	1	639.9	0.8	745.5	1	574.5	0.9	760.777777777778	0.9	624	13	328060	3	328048	27	40	328087	-999999	328063	0	29	TrialsPROC	FC_018_F9.png	2	2	28	SessionSelectionList														lure	3	Face	2-Back	24	80	23	0	0	100	5	39	123662	2	14	72	121623	-1	122357	1	734	3	3	2039	53	123676	-54	0																28												
WM080112	101107_fnca	2	1	1	752013558	1	75.033	75.030	2.0.10.147	2.0.10.242	2.0.10.242	1.0.0.439	7	234	2	3	Verdana	1	80	0	0	0	WM Stimuli\	1	758.3	1	814.3	1	847.7	1	639.9	0.8	745.5	1	574.5	0.9	760.777777777778	0.9	624	13	328060	3	328048	27	40	328087	-999999	328063	0	29	TrialsPROC	FC_017_M9.png	2	2	29	SessionSelectionList														nonlure	3	Face	2-Back	25	80	24	0	0	100	6	39	126234	2	14	72	124195	-1	124860	1	665	3	3	2039	53	126248	-54	0																29												
WM080112	101107_fnca	2	1	1	752013558	1	75.033	75.030	2.0.10.147	2.0.10.242	2.0.10.242	1.0.0.439	7	234	2	3	Verdana	1	80	0	0	0	WM Stimuli\	1	758.3	1	814.3	1	847.7	1	639.9	0.8	745.5	1	574.5	0.9	760.777777777778	0.9	624	13	328060	3	328048	27	40	328087	-999999	328063	0	29	TrialsPROC	FC_017_M9.png	2	2	30	SessionSelectionList														lure	3	Face	2-Back	26	80	25	0	0	100	7	39	128807	1	13	73	126768	-1	128093	1	1325	3	3	2039	52	128820	-53	0																30												
WM080112	101107_fnca	2	1	1	752013558	1	75.033	75.030	2.0.10.147	2.0.10.242	2.0.10.242	1.0.0.439	7	234	2	3	Verdana	1	80	0	0	0	WM Stimuli\	1	758.3	1	814.3	1	847.7	1	639.9	0.8	745.5	1	574.5	0.9	760.777777777778	0.9	624	13	328060	3	328048	27	40	328087	-999999	328063	0	29	TrialsPROC	FC_016_F8.png	2	2	31	SessionSelectionList														nonlure	3	Face	2-Back	27	80	26	0	0	100	8	39	131379	1	14	72	129340	-1	129963	1	623	3	3	2039	53	131393	-54	0																31												
WM080112	101107_fnca	2	1	1	752013558	1	75.033	75.030	2.0.10.147	2.0.10.242	2.0.10.242	1.0.0.439	7	234	2	3	Verdana	1	80	0	0	0	WM Stimuli\	1	758.3	1	814.3	1	847.7	1	639.9	0.8	745.5	1	574.5	0.9	760.777777777778	0.9	624	13	328060	3	328048	27	40	328087	-999999	328063	0	29	TrialsPROC	FC_013_M7.png	2	2	32	SessionSelectionList														nonlure	3	Face	2-Back	28	80	27	0	0	100	9	39	133951	2	14	72	131912	-1	132726	1	814	3	3	2039	53	133965	-54	0																32												
WM080112	101107_fnca	2	1	1	752013558	1	75.033	75.030	2.0.10.147	2.0.10.242	2.0.10.242	1.0.0.439	7	234	2	3	Verdana	1	80	0	0	0	WM Stimuli\	1	758.3	1	814.3	1	847.7	1	639.9	0.8	745.5	1	574.5	0.9	760.777777777778	0.9	624	13	328060	3	328048	27	40	328087	-999999	328063	0	29	TrialsPROC	FC_014_F7.png	2	2	33	SessionSelectionList														nonlure	3	Face	2-Back	29	80	28	0	0	100	10	39	136524	1	13	73	134485	-1	134996	1	511	3	3	2039	52	136537	-53	0																33												
WM080112	101107_fnca	2	1	1	752013558	1	75.033	75.030	2.0.10.147	2.0.10.242	2.0.10.242	1.0.0.439	7	234	2	3	Verdana	1	80	0	0	0	WM Stimuli\	1	758.3	1	814.3	1	847.7	1	639.9	0.8	745.5	1	574.5	0.9	760.777777777778	0.9	624	13	328060	3	328048	27	40	328087	-999999	328063	0	29	TrialsPROC	FC_013_M7.png	2	2	34	SessionSelectionList														target	2	Face	2-Back	30	80	29	0	0	100	1	39	139096	1	14	72	137057	-1	137764	1	707	2	2	2039	53	139110	-54	0																34												
WM080112	101107_fnca	2	1	1	752013558	1	75.033	75.030	2.0.10.147	2.0.10.242	2.0.10.242	1.0.0.439	7	234	2	3	Verdana	1	80	0	0	0	WM Stimuli\	1	758.3	1	814.3	1	847.7	1	639.9	0.8	745.5	1	574.5	0.9	760.777777777778	0.9	624	13	328060	3	328048	27	40	328087	-999999	328063	0	29	TrialsPROC	FC_014_F7.png	2	2	35	SessionSelectionList														target	2	Face	2-Back	31	80	30	0	0	100	2	39	141668	2	14	72	139629	-1	140796	1	1167	2	2	2039	53	141682	-54	0																35												
WM080112	101107_fnca	2	1	1	752013558	1	75.033	75.030	2.0.10.147	2.0.10.242	2.0.10.242	1.0.0.439	7	234	2	3	Verdana	1	80	0	0	0	WM Stimuli\	1	758.3	1	814.3	1	847.7	1	639.9	0.8	745.5	1	574.5	0.9	760.777777777778	0.9	624	13	328060	3	328048	27	40	328087	-999999	328063	0	30	Cue0BackPROC	TO_019_TOOL19_BA.png	2	2	36	SessionSelectionList																																										19	142148	-20	0												36												
WM080112	101107_fnca	2	1	1	752013558	1	75.033	75.030	2.0.10.147	2.0.10.242	2.0.10.242	1.0.0.439	7	234	2	3	Verdana	1	80	0	0	0	WM Stimuli\	1	758.3	1	814.3	1	847.7	1	639.9	0.8	745.5	1	574.5	0.9	760.777777777778	0.9	624	13	328060	3	328048	27	40	328087	-999999	328063	0	31	TrialsPROC	TO_019_TOOL19_BA.png	2	2	37	SessionSelectionList														target	2	Tools	0-Back	32	80	31	0	0	91	1	40	146720	1	13	51	144680	-1	145895	0	1215	3	2	2040	53	146733	-54	0																37												
WM080112	101107_fnca	2	1	1	752013558	1	75.033	75.030	2.0.10.147	2.0.10.242	2.0.10.242	1.0.0.439	7	234	2	3	Verdana	1	80	0	0	0	WM Stimuli\	1	758.3	1	814.3	1	847.7	1	639.9	0.8	745.5	1	574.5	0.9	760.777777777778	0.9	624	13	328060	3	328048	27	40	328087	-999999	328063	0	31	TrialsPROC	TO_024_TOOL24_BA.png	2	2	38	SessionSelectionList														nonlure	3	Tools	0-Back	33	80	32	0	0	92	2	39	149279	1	13	60	147240	-1	148152	1	912	3	3	2039	52	149292	-53	0																38												
WM080112	101107_fnca	2	1	1	752013558	1	75.033	75.030	2.0.10.147	2.0.10.242	2.0.10.242	1.0.0.439	7	234	2	3	Verdana	1	80	0	0	0	WM Stimuli\	1	758.3	1	814.3	1	847.7	1	639.9	0.8	745.5	1	574.5	0.9	760.777777777778	0.9	624	13	328060	3	328048	27	40	328087	-999999	328063	0	31	TrialsPROC	TO_019_TOOL19_BA.png	2	2	39	SessionSelectionList														target	2	Tools	0-Back	34	80	33	0	0	92	1	40	151838	1	13	58	149798	-1	150417	1	619	2	2	2040	53	151851	-54	0																39												
WM080112	101107_fnca	2	1	1	752013558	1	75.033	75.030	2.0.10.147	2.0.10.242	2.0.10.242	1.0.0.439	7	234	2	3	Verdana	1	80	0	0	0	WM Stimuli\	1	758.3	1	814.3	1	847.7	1	639.9	0.8	745.5	1	574.5	0.9	760.777777777778	0.9	624	13	328060	3	328048	27	40	328087	-999999	328063	0	31	TrialsPROC	TO_023_TOOL23_BA.png	2	2	40	SessionSelectionList														nonlure	3	Tools	0-Back	35	80	34	0	0	93	1	39	154397	1	13	60	152358	-1	153343	1	985	3	3	2039	52	154410	-53	0																40												
WM080112	101107_fnca	2	1	1	752013558	1	75.033	75.030	2.0.10.147	2.0.10.242	2.0.10.242	1.0.0.439	7	234	2	3	Verdana	1	80	0	0	0	WM Stimuli\	1	758.3	1	814.3	1	847.7	1	639.9	0.8	745.5	1	574.5	0.9	760.777777777778	0.9	624	13	328060	3	328048	27	40	328087	-999999	328063	0	31	TrialsPROC	TO_020_TOOL20_BA.png	2	2	41	SessionSelectionList														nonlure	3	Tools	0-Back	36	80	35	0	0	93	2	40	156956	1	13	58	154916	-1	155491	1	575	3	3	2040	53	156969	-54	0																41												
WM080112	101107_fnca	2	1	1	752013558	1	75.033	75.030	2.0.10.147	2.0.10.242	2.0.10.242	1.0.0.439	7	234	2	3	Verdana	1	80	0	0	0	WM Stimuli\	1	758.3	1	814.3	1	847.7	1	639.9	0.8	745.5	1	574.5	0.9	760.777777777778	0.9	624	13	328060	3	328048	27	40	328087	-999999	328063	0	31	TrialsPROC	TO_020_TOOL20_BA.png	2	2	42	SessionSelectionList														lure	3	Tools	0-Back	37	80	36	0	0	94	3	39	159514	2	14	59	157475	-1	157952	1	477	3	3	2039	53	159528	-54	0																42												
WM080112	101107_fnca	2	1	1	752013558	1	75.033	75.030	2.0.10.147	2.0.10.242	2.0.10.242	1.0.0.439	7	234	2	3	Verdana	1	80	0	0	0	WM Stimuli\	1	758.3	1	814.3	1	847.7	1	639.9	0.8	745.5	1	574.5	0.9	760.777777777778	0.9	624	13	328060	3	328048	27	40	328087	-999999	328063	0	31	TrialsPROC	TO_022_TOOL22_BA.png	2	2	43	SessionSelectionList														nonlure	3	Tools	0-Back	38	80	37	0	0	94	4	38	162073	2	14	60	160035	-1	160587	1	552	3	3	2038	52	162087	-53	0																43												
WM080112	101107_fnca	2	1	1	752013558	1	75.033	75.030	2.0.10.147	2.0.10.242	2.0.10.242	1.0.0.439	7	234	2	3	Verdana	1	80	0	0	0	WM Stimuli\	1	758.3	1	814.3	1	847.7	1	639.9	0.8	745.5	1	574.5	0.9	760.777777777778	0.9	624	13	328060	3	328048	27	40	328087	-999999	328063	0	31	TrialsPROC	TO_022_TOOL22_BA.png	2	2	44	SessionSelectionList														lure	3	Tools	0-Back	39	80	38	0	0	94	5	39	164632	2	14	58	162593	-1	163050	1	457	3	3	2039	53	164646	-54	0																44												
WM080112	101107_fnca	2	1	1	752013558	1	75.033	75.030	2.0.10.147	2.0.10.242	2.0.10.242	1.0.0.439	7	234	2	3	Verdana	1	80	0	0	0	WM Stimuli\	1	758.3	1	814.3	1	847.7	1	639.9	0.8	745.5	1	574.5	0.9	760.777777777778	0.9	624	13	328060	3	328048	27	40	328087	-999999	328063	0	31	TrialsPROC	TO_021_TOOL21_BA.png	2	2	45	SessionSelectionList														nonlure	3	Tools	0-Back	40	80	39	0	0	95	6	39	167191	2	14	59	165152	-1	165791	1	639	3	3	2039	53	167205	-54	0																45												
WM080112	101107_fnca	2	1	1	752013558	1	75.033	75.030	2.0.10.147	2.0.10.242	2.0.10.242	1.0.0.439	7	234	2	3	Verdana	1	80	0	0	0	WM Stimuli\	1	758.3	1	814.3	1	847.7	1	639.9	0.8	745.5	1	574.5	0.9	760.777777777778	0.9	624	13	328060	3	328048	27	40	328087	-999999	328063	0	31	TrialsPROC	TO_021_TOOL21_BA.png	2	2	46	SessionSelectionList														lure	3	Tools	0-Back	41	80	40	0	0	95	7	39	169750	2	14	59	167711	-1	168111	1	400	3	3	2039	53	169764	-54	0																46												
WM080112	101107_fnca	2	1	1	752013558	1	75.033	75.030	2.0.10.147	2.0.10.242	2.0.10.242	1.0.0.439	7	234	2	3	Verdana	1	80	0	0	0	WM Stimuli\	1	758.3	1	814.3	1	847.7	1	639.9	0.8	745.5	1	574.5	0.9	760.777777777778	0.9	624	13	328060	3	328048	27	40	328087	-999999	328063	0	32	Fix15secPROC	""	2	2	47	SessionSelectionList																																															6	170217	-7	0							47												
WM080112	101107_fnca	2	1	1	752013558	1	75.033	75.030	2.0.10.147	2.0.10.242	2.0.10.242	1.0.0.439	7	234	2	3	Verdana	1	80	0	0	0	WM Stimuli\	1	758.3	1	814.3	1	847.7	1	639.9	0.8	745.5	1	574.5	0.9	760.777777777778	0.9	624	13	328060	3	328048	27	40	328087	-999999	328063	0	33	Cue2BackPROC	""	2	2	48	SessionSelectionList									13	185224	-14	0																																													48												
WM080112	101107_fnca	2	1	1	752013558	1	75.033	75.030	2.0.10.147	2.0.10.242	2.0.10.242	1.0.0.439	7	234	2	3	Verdana	1	80	0	0	0	WM Stimuli\	1	758.3	1	814.3	1	847.7	1	639.9	0.8	745.5	1	574.5	0.9	760.777777777778	0.9	624	13	328060	3	328048	27	40	328087	-999999	328063	0	34	TrialsPROC	BP_020_H17-T_BA.png	2	2	49	SessionSelectionList														nonlure	3	Body	2-Back	42	80	41	0	0	95	8	39	189809	1	14	59	187770	-1	188835	1	1065	3	3	2039	53	189823	-54	0																49												
WM080112	101107_fnca	2	1	1	752013558	1	75.033	75.030	2.0.10.147	2.0.10.242	2.0.10.242	1.0.0.439	7	234	2	3	Verdana	1	80	0	0	0	WM Stimuli\	1	758.3	1	814.3	1	847.7	1	639.9	0.8	745.5	1	574.5	0.9	760.777777777778	0.9	624	13	328060	3	328048	27	40	328087	-999999	328063	0	34	TrialsPROC	BP_019_H14-T_BA.png	2	2	50	SessionSelectionList														nonlure	3	Body	2-Back	43	80	42	0	0	95	9	39	192381	2	14	72	190342	-1	190851	1	509	3	3	2039	53	192395	-54	0																50												
WM080112	101107_fnca	2	1	1	752013558	1	75.033	75.030	2.0.10.147	2.0.10.242	2.0.10.242	1.0.0.439	7	234	2	3	Verdana	1	80	0	0	0	WM Stimuli\	1	758.3	1	814.3	1	847.7	1	639.9	0.8	745.5	1	574.5	0.9	760.777777777778	0.9	624	13	328060	3	328048	27	40	328087	-999999	328063	0	34	TrialsPROC	BP_020_H17-T_BA.png	2	2	51	SessionSelectionList														target	2	Body	2-Back	44	80	43	0	0	95	1	39	194940	2	14	59	192901	-1	193371	1	470	2	2	2039	53	194954	-54	0																51												
WM080112	101107_fnca	2	1	1	752013558	1	75.033	75.030	2.0.10.147	2.0.10.242	2.0.10.242	1.0.0.439	7	234	2	3	Verdana	1	80	0	0	0	WM Stimuli\	1	758.3	1	814.3	1	847.7	1	639.9	0.8	745.5	1	574.5	0.9	760.777777777778	0.9	624	13	328060	3	328048	27	40	328087	-999999	328063	0	34	TrialsPROC	BP_019_H14-T_BA.png	2	2	52	SessionSelectionList														target	2	Body	2-Back	45	80	44	0	0	95	2	39	197499	2	14	59	195460	-1	195986	1	526	2	2	2039	53	197513	-54	0																52												
WM080112	101107_fnca	2	1	1	752013558	1	75.033	75.030	2.0.10.147	2.0.10.242	2.0.10.242	1.0.0.439	7	234	2	3	Verdana	1	80	0	0	0	WM Stimuli\	1	758.3	1	814.3	1	847.7	1	639.9	0.8	745.5	1	574.5	0.9	760.777777777778	0.9	624	13	328060	3	328048	27	40	328087	-999999	328063	0	34	TrialsPROC	BP_024_H3-T_BA.png	2	2	53	SessionSelectionList														nonlure	3	Body	2-Back	46	80	45	0	0	95	1	40	200072	1	13	72	198032	-1	198839	1	807	3	3	2040	53	200085	-54	0																53												
WM080112	101107_fnca	2	1	1	752013558	1	75.033	75.030	2.0.10.147	2.0.10.242	2.0.10.242	1.0.0.439	7	234	2	3	Verdana	1	80	0	0	0	WM Stimuli\	1	758.3	1	814.3	1	847.7	1	639.9	0.8	745.5	1	574.5	0.9	760.777777777778	0.9	624	13	328060	3	328048	27	40	328087	-999999	328063	0	34	TrialsPROC	BP_024_H3-T_BA.png	2	2	54	SessionSelectionList														lure	3	Body	2-Back	47	80	46	0	0	95	2	39	202631	1	13	60	200592	-1	201727	1	1135	3	3	2039	52	202644	-53	0																54												
WM080112	101107_fnca	2	1	1	752013558	1	75.033	75.030	2.0.10.147	2.0.10.242	2.0.10.242	1.0.0.439	7	234	2	3	Verdana	1	80	0	0	0	WM Stimuli\	1	758.3	1	814.3	1	847.7	1	639.9	0.8	745.5	1	574.5	0.9	760.777777777778	0.9	624	13	328060	3	328048	27	40	328087	-999999	328063	0	34	TrialsPROC	BP_025_H5-T_BA.png	2	2	55	SessionSelectionList														nonlure	3	Body	2-Back	48	80	47	0	0	95	3	39	205203	1	14	72	203164	-1	203860	1	696	3	3	2039	53	205217	-54	0																55												
WM080112	101107_fnca	2	1	1	752013558	1	75.033	75.030	2.0.10.147	2.0.10.242	2.0.10.242	1.0.0.439	7	234	2	3	Verdana	1	80	0	0	0	WM Stimuli\	1	758.3	1	814.3	1	847.7	1	639.9	0.8	745.5	1	574.5	0.9	760.777777777778	0.9	624	13	328060	3	328048	27	40	328087	-999999	328063	0	34	TrialsPROC	BP_023_H25-T_BA.png	2	2	56	SessionSelectionList														nonlure	3	Body	2-Back	49	80	48	0	0	95	4	39	207775	2	14	72	205736	-1	206551	1	815	3	3	2039	53	207789	-54	0																56												
WM080112	101107_fnca	2	1	1	752013558	1	75.033	75.030	2.0.10.147	2.0.10.242	2.0.10.242	1.0.0.439	7	234	2	3	Verdana	1	80	0	0	0	WM Stimuli\	1	758.3	1	814.3	1	847.7	1	639.9	0.8	745.5	1	574.5	0.9	760.777777777778	0.9	624	13	328060	3	328048	27	40	328087	-999999	328063	0	34	TrialsPROC	BP_022_H24-T_BA.png	2	2	57	SessionSelectionList														nonlure	3	Body	2-Back	50	80	49	0	0	95	5	39	210334	1	14	59	208295	-1	208946	1	651	3	3	2039	53	210348	-54	0																57												
WM080112	101107_fnca	2	1	1	752013558	1	75.033	75.030	2.0.10.147	2.0.10.242	2.0.10.242	1.0.0.439	7	234	2	3	Verdana	1	80	0	0	0	WM Stimuli\	1	758.3	1	814.3	1	847.7	1	639.9	0.8	745.5	1	574.5	0.9	760.777777777778	0.9	624	13	328060	3	328048	27	40	328087	-999999	328063	0	34	TrialsPROC	BP_022_H24-T_BA.png	2	2	58	SessionSelectionList														lure	3	Body	2-Back	51	80	50	0	0	95	6	39	212893	2	14	59	210854	-1	211763	1	909	3	3	2039	53	212907	-54	0																58												
WM080112	101107_fnca	2	1	1	752013558	1	75.033	75.030	2.0.10.147	2.0.10.242	2.0.10.242	1.0.0.439	7	234	2	3	Verdana	1	80	0	0	0	WM Stimuli\	1	758.3	1	814.3	1	847.7	1	639.9	0.8	745.5	1	574.5	0.9	760.777777777778	0.9	624	13	328060	3	328048	27	40	328087	-999999	328063	0	35	Cue2BackPROC	""	2	2	59	SessionSelectionList									6	213360	-7	0																																													59												
WM080112	101107_fnca	2	1	1	752013558	1	75.033	75.030	2.0.10.147	2.0.10.242	2.0.10.242	1.0.0.439	7	234	2	3	Verdana	1	80	0	0	0	WM Stimuli\	1	758.3	1	814.3	1	847.7	1	639.9	0.8	745.5	1	574.5	0.9	760.777777777778	0.9	624	13	328060	3	328048	27	40	328087	-999999	328063	0	36	TrialsPROC	PL_019_SCENE_05.png	2	2	60	SessionSelectionList														nonlure	3	Place	2-Back	52	80	51	0	0	95	7	39	217958	1	13	65	215919	-1	217135	1	1216	3	3	2039	52	217971	-53	0																60												
WM080112	101107_fnca	2	1	1	752013558	1	75.033	75.030	2.0.10.147	2.0.10.242	2.0.10.242	1.0.0.439	7	234	2	3	Verdana	1	80	0	0	0	WM Stimuli\	1	758.3	1	814.3	1	847.7	1	639.9	0.8	745.5	1	574.5	0.9	760.777777777778	0.9	624	13	328060	3	328048	27	40	328087	-999999	328063	0	36	TrialsPROC	PL_017_SCENE_03.png	2	2	61	SessionSelectionList														nonlure	3	Place	2-Back	53	80	52	0	0	95	8	39	220530	1	14	72	218491	-1	219079	1	588	3	3	2039	53	220544	-54	0																61												
WM080112	101107_fnca	2	1	1	752013558	1	75.033	75.030	2.0.10.147	2.0.10.242	2.0.10.242	1.0.0.439	7	234	2	3	Verdana	1	80	0	0	0	WM Stimuli\	1	758.3	1	814.3	1	847.7	1	639.9	0.8	745.5	1	574.5	0.9	760.777777777778	0.9	624	13	328060	3	328048	27	40	328087	-999999	328063	0	36	TrialsPROC	PL_017_SCENE_03.png	2	2	62	SessionSelectionList														lure	3	Place	2-Back	54	80	53	0	0	95	9	39	223102	2	14	72	221063	-1	221776	1	713	3	3	2039	53	223116	-54	0																62												
WM080112	101107_fnca	2	1	1	752013558	1	75.033	75.030	2.0.10.147	2.0.10.242	2.0.10.242	1.0.0.439	7	234	2	3	Verdana	1	80	0	0	0	WM Stimuli\	1	758.3	1	814.3	1	847.7	1	639.9	0.8	745.5	1	574.5	0.9	760.777777777778	0.9	624	13	328060	3	328048	27	40	328087	-999999	328063	0	36	TrialsPROC	PL_016_SCENE_02.png	2	2	63	SessionSelectionList														nonlure	3	Place	2-Back	55	80	54	0	0	95	10	40	225675	1	13	72	223635	-1	224437	1	802	3	3	2040	53	225688	-54	0																63												
WM080112	101107_fnca	2	1	1	752013558	1	75.033	75.030	2.0.10.147	2.0.10.242	2.0.10.242	1.0.0.439	7	234	2	3	Verdana	1	80	0	0	0	WM Stimuli\	1	758.3	1	814.3	1	847.7	1	639.9	0.8	745.5	1	574.5	0.9	760.777777777778	0.9	624	13	328060	3	328048	27	40	328087	-999999	328063	0	36	TrialsPROC	PL_015_SCENE_01.png	2	2	64	SessionSelectionList														nonlure	3	Place	2-Back	56	80	55	0	0	95	11	39	228247	1	14	73	226208	-1	226928	1	720	3	3	2039	53	228261	-54	0																64												
WM080112	101107_fnca	2	1	1	752013558	1	75.033	75.030	2.0.10.147	2.0.10.242	2.0.10.242	1.0.0.439	7	234	2	3	Verdana	1	80	0	0	0	WM Stimuli\	1	758.3	1	814.3	1	847.7	1	639.9	0.8	745.5	1	574.5	0.9	760.777777777778	0.9	624	13	328060	3	328048	27	40	328087	-999999	328063	0	36	TrialsPROC	PL_016_SCENE_02.png	2	2	65	SessionSelectionList														target	2	Place	2-Back	57	80	56	0	0	95	12	39	230819	2	14	72	228780	-1	229714	0	934	3	2	2039	53	230833	-54	0																65												
WM080112	101107_fnca	2	1	1	752013558	1	75.033	75.030	2.0.10.147	2.0.10.242	2.0.10.242	1.0.0.439	7	234	2	3	Verdana	1	80	0	0	0	WM Stimuli\	1	758.3	1	814.3	1	847.7	1	639.9	0.8	745.5	1	574.5	0.9	760.777777777778	0.9	624	13	328060	3	328048	27	40	328087	-999999	328063	0	36	TrialsPROC	PL_015_SCENE_01.png	2	2	66	SessionSelectionList														target	2	Place	2-Back	58	80	57	0	0	95	13	40	233392	1	13	72	231352	-1	232940	0	1588	3	2	2040	53	233405	-54	0																66												
WM080112	101107_fnca	2	1	1	752013558	1	75.033	75.030	2.0.10.147	2.0.10.242	2.0.10.242	1.0.0.439	7	234	2	3	Verdana	1	80	0	0	0	WM Stimuli\	1	758.3	1	814.3	1	847.7	1	639.9	0.8	745.5	1	574.5	0.9	760.777777777778	0.9	624	13	328060	3	328048	27	40	328087	-999999	328063	0	36	TrialsPROC	PL_020_SCENE_06.png	2	2	67	SessionSelectionList														nonlure	3	Place	2-Back	59	80	58	0	0	95	14	39	235977	2	14	86	233938	-1	234534	1	596	3	3	2039	53	235991	-54	0																67												
WM080112	101107_fnca	2	1	1	752013558	1	75.033	75.030	2.0.10.147	2.0.10.242	2.0.10.242	1.0.0.439	7	234	2	3	Verdana	1	80	0	0	0	WM Stimuli\	1	758.3	1	814.3	1	847.7	1	639.9	0.8	745.5	1	574.5	0.9	760.777777777778	0.9	624	13	328060	3	328048	27	40	328087	-999999	328063	0	36	TrialsPROC	PL_020_SCENE_06.png	2	2	68	SessionSelectionList														lure	3	Place	2-Back	60	80	59	0	0	95	15	39	238549	2	14	72	236510	-1	237233	1	723	3	3	2039	53	238563	-54	0																68												
WM080112	101107_fnca	2	1	1	752013558	1	75.033	75.030	2.0.10.147	2.0.10.242	2.0.10.242	1.0.0.439	7	234	2	3	Verdana	1	80	0	0	0	WM Stimuli\	1	758.3	1	814.3	1	847.7	1	639.9	0.8	745.5	1	574.5	0.9	760.777777777778	0.9	624	13	328060	3	328048	27	40	328087	-999999	328063	0	36	TrialsPROC	PL_018_SCENE_04.png	2	2	69	SessionSelectionList														nonlure	3	Place	2-Back	61	80	60	0	0	95	16	39	241135	2	14	86	239096	-1	239702	1	606	3	3	2039	53	241149	-54	0																69												
WM080112	101107_fnca	2	1	1	752013558	1	75.033	75.030	2.0.10.147	2.0.10.242	2.0.10.242	1.0.0.439	7	234	2	3	Verdana	1	80	0	0	0	WM Stimuli\	1	758.3	1	814.3	1	847.7	1	639.9	0.8	745.5	1	574.5	0.9	760.777777777778	0.9	624	13	328060	3	328048	27	40	328087	-999999	328063	0	37	Fix15secPROC	""	2	2	70	SessionSelectionList																																															6	241602	-7	0							70												
WM080112	101107_fnca	2	1	1	752013558	1	75.033	75.030	2.0.10.147	2.0.10.242	2.0.10.242	1.0.0.439	7	234	2	3	Verdana	1	80	0	0	0	WM Stimuli\	1	758.3	1	814.3	1	847.7	1	639.9	0.8	745.5	1	574.5	0.9	760.777777777778	0.9	624	13	328060	3	328048	27	40	328087	-999999	328063	0	38	Cue0BackPROC	FC_020_F10.png	2	2	71	SessionSelectionList																																										40	256636	-41	0												71												
WM080112	101107_fnca	2	1	1	752013558	1	75.033	75.030	2.0.10.147	2.0.10.242	2.0.10.242	1.0.0.439	7	234	2	3	Verdana	1	80	0	0	0	WM Stimuli\	1	758.3	1	814.3	1	847.7	1	639.9	0.8	745.5	1	574.5	0.9	760.777777777778	0.9	624	13	328060	3	328048	27	40	328087	-999999	328063	0	39	TrialsPROC	FC_024_F12.png	2	2	72	SessionSelectionList														nonlure	3	Face	0-Back	62	80	61	0	0	95	17	39	261220	2	14	85	259181	-1	259937	1	756	3	3	2039	53	261234	-54	0																72												
WM080112	101107_fnca	2	1	1	752013558	1	75.033	75.030	2.0.10.147	2.0.10.242	2.0.10.242	1.0.0.439	7	234	2	3	Verdana	1	80	0	0	0	WM Stimuli\	1	758.3	1	814.3	1	847.7	1	639.9	0.8	745.5	1	574.5	0.9	760.777777777778	0.9	624	13	328060	3	328048	27	40	328087	-999999	328063	0	39	TrialsPROC	FC_023_M12.png	2	2	73	SessionSelectionList														nonlure	3	Face	0-Back	63	80	62	0	0	95	18	39	263793	1	13	73	261754	-1	262210	1	456	3	3	2039	52	263806	-53	0																73												
WM080112	101107_fnca	2	1	1	752013558	1	75.033	75.030	2.0.10.147	2.0.10.242	2.0.10.242	1.0.0.439	7	234	2	3	Verdana	1	80	0	0	0	WM Stimuli\	1	758.3	1	814.3	1	847.7	1	639.9	0.8	745.5	1	574.5	0.9	760.777777777778	0.9	624	13	328060	3	328048	27	40	328087	-999999	328063	0	39	TrialsPROC	FC_020_F10.png	2	2	74	SessionSelectionList														target	2	Face	0-Back	64	80	63	0	0	96	1	39	266365	1	14	72	264326	-1	265011	1	685	2	2	2039	53	266379	-54	0																74												
WM080112	101107_fnca	2	1	1	752013558	1	75.033	75.030	2.0.10.147	2.0.10.242	2.0.10.242	1.0.0.439	7	234	2	3	Verdana	1	80	0	0	0	WM Stimuli\	1	758.3	1	814.3	1	847.7	1	639.9	0.8	745.5	1	574.5	0.9	760.777777777778	0.9	624	13	328060	3	328048	27	40	328087	-999999	328063	0	39	TrialsPROC	FC_024_F12.png	2	2	75	SessionSelectionList														lure	3	Face	0-Back	65	80	64	0	0	96	1	39	268937	2	14	72	266898	-1	267773	1	875	3	3	2039	53	268951	-54	0																75												
WM080112	101107_fnca	2	1	1	752013558	1	75.033	75.030	2.0.10.147	2.0.10.242	2.0.10.242	1.0.0.439	7	234	2	3	Verdana	1	80	0	0	0	WM Stimuli\	1	758.3	1	814.3	1	847.7	1	639.9	0.8	745.5	1	574.5	0.9	760.777777777778	0.9	624	13	328060	3	328048	27	40	328087	-999999	328063	0	39	TrialsPROC	FC_020_F10.png	2	2	76	SessionSelectionList														target	2	Face	0-Back	66	80	65	0	0	96	1	40	271510	1	13	72	269470	-1	270122	1	652	2	2	2040	53	271523	-54	0																76												
WM080112	101107_fnca	2	1	1	752013558	1	75.033	75.030	2.0.10.147	2.0.10.242	2.0.10.242	1.0.0.439	7	234	2	3	Verdana	1	80	0	0	0	WM Stimuli\	1	758.3	1	814.3	1	847.7	1	639.9	0.8	745.5	1	574.5	0.9	760.777777777778	0.9	624	13	328060	3	328048	27	40	328087	-999999	328063	0	39	TrialsPROC	FC_022_F11.png	2	2	77	SessionSelectionList														nonlure	3	Face	0-Back	67	80	66	0	0	96	1	39	274082	1	14	73	272043	-1	272626	1	583	3	3	2039	53	274096	-54	0																77												
WM080112	101107_fnca	2	1	1	752013558	1	75.033	75.030	2.0.10.147	2.0.10.242	2.0.10.242	1.0.0.439	7	234	2	3	Verdana	1	80	0	0	0	WM Stimuli\	1	758.3	1	814.3	1	847.7	1	639.9	0.8	745.5	1	574.5	0.9	760.777777777778	0.9	624	13	328060	3	328048	27	40	328087	-999999	328063	0	39	TrialsPROC	FC_023_M12.png	2	2	78	SessionSelectionList														lure	3	Face	0-Back	68	80	67	0	0	96	2	39	276654	2	14	72	274615	-1	275119	1	504	3	3	2039	53	276668	-54	0																78												
WM080112	101107_fnca	2	1	1	752013558	1	75.033	75.030	2.0.10.147	2.0.10.242	2.0.10.242	1.0.0.439	7	234	2	3	Verdana	1	80	0	0	0	WM Stimuli\	1	758.3	1	814.3	1	847.7	1	639.9	0.8	745.5	1	574.5	0.9	760.777777777778	0.9	624	13	328060	3	328048	27	40	328087	-999999	328063	0	39	TrialsPROC	FC_021_M11.png	2	2	79	SessionSelectionList														nonlure	3	Face	0-Back	69	80	68	0	0	96	3	39	279226	2	14	72	277187	-1	277907	1	720	3	3	2039	53	279240	-54	0																79												
WM080112	101107_fnca	2	1	1	752013558	1	75.033	75.030	2.0.10.147	2.0.10.242	2.0.10.242	1.0.0.439	7	234	2	3	Verdana	1	80	0	0	0	WM Stimuli\	1	758.3	1	814.3	1	847.7	1	639.9	0.8	745.5	1	574.5	0.9	760.777777777778	0.9	624	13	328060	3	328048	27	40	328087	-999999	328063	0	39	TrialsPROC	FC_021_M11.png	2	2	80	SessionSelectionList														lure	3	Face	0-Back	70	80	69	0	0	97	4	39	281799	1	13	73	279760	-1	280233	1	473	3	3	2039	52	281812	-53	0																80												
WM080112	101107_fnca	2	1	1	752013558	1	75.033	75.030	2.0.10.147	2.0.10.242	2.0.10.242	1.0.0.439	7	234	2	3	Verdana	1	80	0	0	0	WM Stimuli\	1	758.3	1	814.3	1	847.7	1	639.9	0.8	745.5	1	574.5	0.9	760.777777777778	0.9	624	13	328060	3	328048	27	40	328087	-999999	328063	0	39	TrialsPROC	FC_019_M10.png	2	2	81	SessionSelectionList														nonlure	3	Face	0-Back	71	80	70	0	0	97	5	39	284371	1	14	72	282332	-1	283027	1	695	3	3	2039	53	284385	-54	0																81												
WM080112	101107_fnca	2	1	1	752013558	1	75.033	75.030	2.0.10.147	2.0.10.242	2.0.10.242	1.0.0.439	7	234	2	3	Verdana	1	80	0	0	0	WM Stimuli\	1	758.3	1	814.3	1	847.7	1	639.9	0.8	745.5	1	574.5	0.9	760.777777777778	0.9	624	13	328060	3	328048	27	40	328087	-999999	328063	0	40	Cue0BackPROC	PL_021_SCENE_07.png	2	2	82	SessionSelectionList																																										19	284851	-20	0												82												
WM080112	101107_fnca	2	1	1	752013558	1	75.033	75.030	2.0.10.147	2.0.10.242	2.0.10.242	1.0.0.439	7	234	2	3	Verdana	1	80	0	0	0	WM Stimuli\	1	758.3	1	814.3	1	847.7	1	639.9	0.8	745.5	1	574.5	0.9	760.777777777778	0.9	624	13	328060	3	328048	27	40	328087	-999999	328063	0	41	TrialsPROC	PL_025_SCENE_18.png	2	2	83	SessionSelectionList														nonlure	3	Place	0-Back	72	80	71	0	0	97	6	39	289436	1	13	65	287397	-1	287969	1	572	3	3	2039	52	289449	-53	0																83												
WM080112	101107_fnca	2	1	1	752013558	1	75.033	75.030	2.0.10.147	2.0.10.242	2.0.10.242	1.0.0.439	7	234	2	3	Verdana	1	80	0	0	0	WM Stimuli\	1	758.3	1	814.3	1	847.7	1	639.9	0.8	745.5	1	574.5	0.9	760.777777777778	0.9	624	13	328060	3	328048	27	40	328087	-999999	328063	0	41	TrialsPROC	PL_026_SCENE_24.png	2	2	84	SessionSelectionList														nonlure	3	Place	0-Back	73	80	72	0	0	97	7	39	292008	1	14	72	289969	-1	290457	1	488	3	3	2039	53	292022	-54	0																84												
WM080112	101107_fnca	2	1	1	752013558	1	75.033	75.030	2.0.10.147	2.0.10.242	2.0.10.242	1.0.0.439	7	234	2	3	Verdana	1	80	0	0	0	WM Stimuli\	1	758.3	1	814.3	1	847.7	1	639.9	0.8	745.5	1	574.5	0.9	760.777777777778	0.9	624	13	328060	3	328048	27	40	328087	-999999	328063	0	41	TrialsPROC	PL_025_SCENE_18.png	2	2	85	SessionSelectionList														lure	3	Place	0-Back	74	80	73	0	0	97	8	39	294580	2	14	72	292541	-1	292999	1	458	3	3	2039	53	294594	-54	0																85												
WM080112	101107_fnca	2	1	1	752013558	1	75.033	75.030	2.0.10.147	2.0.10.242	2.0.10.242	1.0.0.439	7	234	2	3	Verdana	1	80	0	0	0	WM Stimuli\	1	758.3	1	814.3	1	847.7	1	639.9	0.8	745.5	1	574.5	0.9	760.777777777778	0.9	624	13	328060	3	328048	27	40	328087	-999999	328063	0	41	TrialsPROC	PL_022_SCENE_08.png	2	2	86	SessionSelectionList														nonlure	3	Place	0-Back	75	80	74	0	0	97	9	40	297153	1	13	72	295113	-1	295664	1	551	3	3	2040	53	297166	-54	0																86												
WM080112	101107_fnca	2	1	1	752013558	1	75.033	75.030	2.0.10.147	2.0.10.242	2.0.10.242	1.0.0.439	7	234	2	3	Verdana	1	80	0	0	0	WM Stimuli\	1	758.3	1	814.3	1	847.7	1	639.9	0.8	745.5	1	574.5	0.9	760.777777777778	0.9	624	13	328060	3	328048	27	40	328087	-999999	328063	0	41	TrialsPROC	PL_026_SCENE_24.png	2	2	87	SessionSelectionList														lure	3	Place	0-Back	76	80	75	0	0	97	10	39	299725	1	14	73	297686	-1	298449	1	763	3	3	2039	53	299739	-54	0																87												
WM080112	101107_fnca	2	1	1	752013558	1	75.033	75.030	2.0.10.147	2.0.10.242	2.0.10.242	1.0.0.439	7	234	2	3	Verdana	1	80	0	0	0	WM Stimuli\	1	758.3	1	814.3	1	847.7	1	639.9	0.8	745.5	1	574.5	0.9	760.777777777778	0.9	624	13	328060	3	328048	27	40	328087	-999999	328063	0	41	TrialsPROC	PL_021_SCENE_07.png	2	2	88	SessionSelectionList														target	2	Place	0-Back	77	80	76	0	0	97	1	39	302297	2	14	72	300258	-1	301000	1	742	2	2	2039	53	302311	-54	0																88												
WM080112	101107_fnca	2	1	1	752013558	1	75.033	75.030	2.0.10.147	2.0.10.242	2.0.10.242	1.0.0.439	7	234	2	3	Verdana	1	80	0	0	0	WM Stimuli\	1	758.3	1	814.3	1	847.7	1	639.9	0.8	745.5	1	574.5	0.9	760.777777777778	0.9	624	13	328060	3	328048	27	40	328087	-999999	328063	0	41	TrialsPROC	PL_021_SCENE_07.png	2	2	89	SessionSelectionList														target	2	Place	0-Back	78	80	77	0	0	97	2	40	304870	1	13	72	302830	-1	303296	1	466	2	2	2040	53	304883	-54	0																89												
WM080112	101107_fnca	2	1	1	752013558	1	75.033	75.030	2.0.10.147	2.0.10.242	2.0.10.242	1.0.0.439	7	234	2	3	Verdana	1	80	0	0	0	WM Stimuli\	1	758.3	1	814.3	1	847.7	1	639.9	0.8	745.5	1	574.5	0.9	760.777777777778	0.9	624	13	328060	3	328048	27	40	328087	-999999	328063	0	41	TrialsPROC	PL_023_SCENE_09.png	2	2	90	SessionSelectionList														nonlure	3	Place	0-Back	79	80	78	0	0	97	1	39	307442	1	14	73	305403	-1	306070	1	667	3	3	2039	53	307456	-54	0																90												
WM080112	101107_fnca	2	1	1	752013558	1	75.033	75.030	2.0.10.147	2.0.10.242	2.0.10.242	1.0.0.439	7	234	2	3	Verdana	1	80	0	0	0	WM Stimuli\	1	758.3	1	814.3	1	847.7	1	639.9	0.8	745.5	1	574.5	0.9	760.777777777778	0.9	624	13	328060	3	328048	27	40	328087	-999999	328063	0	41	TrialsPROC	PL_024_SCENE_10.png	2	2	91	SessionSelectionList														nonlure	3	Place	0-Back	80	80	79	0	0	97	2	39	310014	2	14	72	307975	-1	308532	1	557	3	3	2039	53	310028	-54	0																91												
WM080112	101107_fnca	2	1	1	752013558	1	75.033	75.030	2.0.10.147	2.0.10.242	2.0.10.242	1.0.0.439	7	234	2	3	Verdana	1	80	0	0	0	WM Stimuli\	1	758.3	1	814.3	1	847.7	1	639.9	0.8	745.5	1	574.5	0.9	760.777777777778	0.9	624	13	328060	3	328048	27	40	328087	-999999	328063	0	41	TrialsPROC	PL_022_SCENE_08.png	2	2	92	SessionSelectionList														lure	3	Place	0-Back	80	80	80	0	0	98	3	39	312586	2	14	72	310547	-1	311028	1	481	3	3	2039	53	312600	-54	0																92												
WM080112	101107_fnca	2	1	1	752013558	1	75.033	75.030	2.0.10.147	2.0.10.242	2.0.10.242	1.0.0.439	7	234	2	3	Verdana	1	80	0	0	0	WM Stimuli\	1	758.3	1	814.3	1	847.7	1	639.9	0.8	745.5	1	574.5	0.9	760.777777777778	0.9	624	13	328060	3	328048	27	40	328087	-999999	328063	0	42	Fix15secPROC	""	2	2	93	SessionSelectionList																																															6	313053	-7	0							93												
