ExperimentName	HCPID	RunNumber	Subject	Session	RandomSeed	Group	Laptop.RefreshRate	ScannerD2.RefreshRate	StudioVersion	RuntimeVersion	RuntimeVersionExpected	ExperimentVersion	triggercode	Allowed	Target	Nontarget	FontStyle	RunTrialNumber[Session]	TrialsPerRun[Session]	TotalRespGreater200[Session]	ConsecRTLess200[Session]	ConsecNonResp[Session]	StimuliDir	ACC_2_Back_Body	Avg_RT_For_Correct_Trials_2_Back_Body	ACC_0_Back_Body	Avg_RT_For_Correct_Trials_0_Back_Body	ACC_2_Back_Face	Avg_RT_For_Correct_Trials_2_Back_Face	ACC_0_Back_Face	Avg_RT_For_Correct_Trials_0_Back_Face	ACC_2_Back_Place	Avg_RT_For_Correct_Trials_2_Back_Place	ACC_0_Back_Place	Avg_RT_For_Correct_Trials_0_Back_Place	ACC_2_Back_Tools	Avg_RT_For_Correct_Trials_2_Back_Tools	ACC_0_Back_Tools	Avg_RT_For_Correct_Trials_0_Back_Tools	ExpInstrucFeelFreeToRest.OnsetDelay	ExpInstrucFeelFreeToRest.OnsetTime	ExpInstrucFeelFreeToRest.DurationError	ExpInstrucFeelFreeToRest.StartTime	ExpInstrucFeelFreeToRest.OnsetToOnsetTime	FeelFreeToRest.OnsetDelay	FeelFreeToRest.OnsetTime	FeelFreeToRest.DurationError	FeelFreeToRest.StartTime	FeelFreeToRest.OnsetToOnsetTime	SessionSelectionList	Procedure[Block]	Stimulus[Block]	RunNumberFilterValue	SessionSelectionList.Cycle	SessionSelectionList.Sample	Running[Block]	IntroButtonMap.OnsetDelay	IntroButtonMap.OnsetTime	IntroButtonMap.DurationError	IntroButtonMap.OnsetToOnsetTime	GetReady.OnsetDelay	GetReady.OnsetTime	GetReady.DurationError	GetReady.OnsetToOnsetTime	Cue2Back.OnsetDelay	Cue2Back.OnsetTime	Cue2Back.DurationError	Cue2Back.OnsetToOnsetTime	Run1Block1	TargetType	CorrectResponse	StimType	BlockType	RunTrialNumber[Block]	TrialsPerRun[Block]	TotalRespGreater200[Block]	ConsecRTLess200[Block]	ConsecNonResp[Block]	ControlAcc	ConsecSameResp	ExperimenterWindow.OnsetDelay	ExperimenterWindow.OnsetTime	ExperimenterWindow.DurationError	ExperimenterWindow.OnsetToOnsetTime	Stim.OnsetDelay	Stim.OnsetTime	Stim.DurationError	Stim.RTTime	Stim.ACC	Stim.RT	Stim.RESP	Stim.CRESP	Stim.OnsetToOnsetTime	Fix.OnsetDelay	Fix.OnsetTime	Fix.DurationError	Fix.OnsetToOnsetTime	CueTarget.OnsetDelay	CueTarget.OnsetTime	CueTarget.DurationError	CueTarget.OnsetToOnsetTime	Run1Block2	Fix15sec.OnsetDelay	Fix15sec.OnsetTime	Fix15sec.DurationError	Fix15sec.OnsetToOnsetTime	Run1Block3	Run1Block4	Run1Block5	Run1Block6	Run1Block7	Run1Block8	Block	Procedure[Trial]	Stimulus[Trial]	ReadyList	Running[Trial]	ReadyList.Cycle	ReadyList.Sample	SyncSlide.OnsetDelay	SyncSlide.OnsetTime	SyncSlide.DurationError	SyncSlide.FinishTime	SyncSlide.OnsetToOnsetTime	Trial
WM080112	139637_fnca	2	1	1	-1476785481	1	75.035	75.031	2.0.10.147	2.0.10.242	2.0.10.242	1.0.0.439	7	234	2	3	Verdana	1	80	0	0	0	WM Stimuli\	1	1038.3	1	615.4	1	850.6	1	733.8	0.9	805	1	602.7	1	895.3	1	686.7	12	330965	2	330954	27	39	330992	-999999	330967	0	22	TRSyncPROC	""	2	2	1	SessionSelectionList	102	23240	-999999	0	31	24227	-999999	0																																																	1	InitialTR	4	1	ReadyList	1	1	15	37714	-16	39698	0	1
WM080112	139637_fnca	2	1	1	-1476785481	1	75.035	75.031	2.0.10.147	2.0.10.242	2.0.10.242	1.0.0.439	7	234	2	3	Verdana	1	80	0	0	0	WM Stimuli\	1	1038.3	1	615.4	1	850.6	1	733.8	0.9	805	1	602.7	1	895.3	1	686.7	12	330965	2	330954	27	39	330992	-999999	330967	0	22	TRSyncPROC	""	2	2	1	SessionSelectionList	102	23240	-999999	0	31	24227	-999999	0																																																	1	InitialTR	3	2	ReadyList	1	2	14	39713	-15	41698	0	2
WM080112	139637_fnca	2	1	1	-1476785481	1	75.035	75.031	2.0.10.147	2.0.10.242	2.0.10.242	1.0.0.439	7	234	2	3	Verdana	1	80	0	0	0	WM Stimuli\	1	1038.3	1	615.4	1	850.6	1	733.8	0.9	805	1	602.7	1	895.3	1	686.7	12	330965	2	330954	27	39	330992	-999999	330967	0	22	TRSyncPROC	""	2	2	1	SessionSelectionList	102	23240	-999999	0	31	24227	-999999	0																																																	1	InitialTR	2	3	ReadyList	1	3	14	41713	-15	43698	0	3
WM080112	139637_fnca	2	1	1	-1476785481	1	75.035	75.031	2.0.10.147	2.0.10.242	2.0.10.242	1.0.0.439	7	234	2	3	Verdana	1	80	0	0	0	WM Stimuli\	1	1038.3	1	615.4	1	850.6	1	733.8	0.9	805	1	602.7	1	895.3	1	686.7	12	330965	2	330954	27	39	330992	-999999	330967	0	22	TRSyncPROC	""	2	2	1	SessionSelectionList	102	23240	-999999	0	31	24227	-999999	0																																																	1	InitialTR	1	4	ReadyList	1	4	13	43712	-14	45698	0	4
WM080112	139637_fnca	2	1	1	-1476785481	1	75.035	75.031	2.0.10.147	2.0.10.242	2.0.10.242	1.0.0.439	7	234	2	3	Verdana	1	80	0	0	0	WM Stimuli\	1	1038.3	1	615.4	1	850.6	1	733.8	0.9	805	1	602.7	1	895.3	1	686.7	12	330965	2	330954	27	39	330992	-999999	330967	0	23	Cue2BackPROC	""	2	2	2	SessionSelectionList									12	45711	-13	0																																													2												
WM080112	139637_fnca	2	1	1	-1476785481	1	75.035	75.031	2.0.10.147	2.0.10.242	2.0.10.242	1.0.0.439	7	234	2	3	Verdana	1	80	0	0	0	WM Stimuli\	1	1038.3	1	615.4	1	850.6	1	733.8	0.9	805	1	602.7	1	895.3	1	686.7	12	330965	2	330954	27	39	330992	-999999	330967	0	24	TrialsPROC	TO_014_TOOL14_BA.png	2	2	3	SessionSelectionList														nonlure	3	Tools	2-Back	2	80	1	0	0	0	1	53	50336	2	13	84	48283	-1	49182	1	899	3	3	2053	66	50349	-67	0																3												
WM080112	139637_fnca	2	1	1	-1476785481	1	75.035	75.031	2.0.10.147	2.0.10.242	2.0.10.242	1.0.0.439	7	234	2	3	Verdana	1	80	0	0	0	WM Stimuli\	1	1038.3	1	615.4	1	850.6	1	733.8	0.9	805	1	602.7	1	895.3	1	686.7	12	330965	2	330954	27	39	330992	-999999	330967	0	24	TrialsPROC	TO_013_TOOL13_BA.png	2	2	4	SessionSelectionList														nonlure	3	Tools	2-Back	3	80	2	0	0	0	2	39	52881	2	14	59	50842	-1	51576	1	734	3	3	2039	53	52895	-54	0																4												
WM080112	139637_fnca	2	1	1	-1476785481	1	75.035	75.031	2.0.10.147	2.0.10.242	2.0.10.242	1.0.0.439	7	234	2	3	Verdana	1	80	0	0	0	WM Stimuli\	1	1038.3	1	615.4	1	850.6	1	733.8	0.9	805	1	602.7	1	895.3	1	686.7	12	330965	2	330954	27	39	330992	-999999	330967	0	24	TrialsPROC	TO_016_TOOL16_BA.png	2	2	5	SessionSelectionList														nonlure	3	Tools	2-Back	4	80	3	0	0	0	3	39	55440	1	14	59	53401	-1	54374	1	973	3	3	2039	53	55454	-54	0																5												
WM080112	139637_fnca	2	1	1	-1476785481	1	75.035	75.031	2.0.10.147	2.0.10.242	2.0.10.242	1.0.0.439	7	234	2	3	Verdana	1	80	0	0	0	WM Stimuli\	1	1038.3	1	615.4	1	850.6	1	733.8	0.9	805	1	602.7	1	895.3	1	686.7	12	330965	2	330954	27	39	330992	-999999	330967	0	24	TrialsPROC	TO_014_TOOL14_BA.png	2	2	6	SessionSelectionList														lure	3	Tools	2-Back	5	80	4	0	0	0	4	39	58012	1	14	72	55973	-1	56989	1	1016	3	3	2039	53	58026	-54	0																6												
WM080112	139637_fnca	2	1	1	-1476785481	1	75.035	75.031	2.0.10.147	2.0.10.242	2.0.10.242	1.0.0.439	7	234	2	3	Verdana	1	80	0	0	0	WM Stimuli\	1	1038.3	1	615.4	1	850.6	1	733.8	0.9	805	1	602.7	1	895.3	1	686.7	12	330965	2	330954	27	39	330992	-999999	330967	0	24	TrialsPROC	TO_016_TOOL16_BA.png	2	2	7	SessionSelectionList														target	2	Tools	2-Back	6	80	5	0	0	0	1	39	60571	1	14	59	58532	-1	59632	1	1100	2	2	2039	53	60585	-54	0																7												
WM080112	139637_fnca	2	1	1	-1476785481	1	75.035	75.031	2.0.10.147	2.0.10.242	2.0.10.242	1.0.0.439	7	234	2	3	Verdana	1	80	0	0	0	WM Stimuli\	1	1038.3	1	615.4	1	850.6	1	733.8	0.9	805	1	602.7	1	895.3	1	686.7	12	330965	2	330954	27	39	330992	-999999	330967	0	24	TrialsPROC	TO_018_TOOL18_BA.png	2	2	8	SessionSelectionList														nonlure	3	Tools	2-Back	7	80	6	0	0	0	1	39	63130	1	14	59	61091	-1	61862	1	771	3	3	2039	53	63144	-54	0																8												
WM080112	139637_fnca	2	1	1	-1476785481	1	75.035	75.031	2.0.10.147	2.0.10.242	2.0.10.242	1.0.0.439	7	234	2	3	Verdana	1	80	0	0	0	WM Stimuli\	1	1038.3	1	615.4	1	850.6	1	733.8	0.9	805	1	602.7	1	895.3	1	686.7	12	330965	2	330954	27	39	330992	-999999	330967	0	24	TrialsPROC	TO_017_TOOL17_BA.png	2	2	9	SessionSelectionList														nonlure	3	Tools	2-Back	8	80	7	0	0	0	2	39	65689	1	14	59	63650	-1	64442	1	792	3	3	2039	53	65703	-54	0																9												
WM080112	139637_fnca	2	1	1	-1476785481	1	75.035	75.031	2.0.10.147	2.0.10.242	2.0.10.242	1.0.0.439	7	234	2	3	Verdana	1	80	0	0	0	WM Stimuli\	1	1038.3	1	615.4	1	850.6	1	733.8	0.9	805	1	602.7	1	895.3	1	686.7	12	330965	2	330954	27	39	330992	-999999	330967	0	24	TrialsPROC	TO_018_TOOL18_BA.png	2	2	10	SessionSelectionList														target	2	Tools	2-Back	9	80	8	0	0	0	1	39	68248	1	14	59	66209	-1	66842	1	633	2	2	2039	53	68262	-54	0																10												
WM080112	139637_fnca	2	1	1	-1476785481	1	75.035	75.031	2.0.10.147	2.0.10.242	2.0.10.242	1.0.0.439	7	234	2	3	Verdana	1	80	0	0	0	WM Stimuli\	1	1038.3	1	615.4	1	850.6	1	733.8	0.9	805	1	602.7	1	895.3	1	686.7	12	330965	2	330954	27	39	330992	-999999	330967	0	24	TrialsPROC	TO_015_TOOL15_BA.png	2	2	11	SessionSelectionList														nonlure	3	Tools	2-Back	10	80	9	0	0	0	1	39	70807	1	14	59	68768	-1	69636	1	868	3	3	2039	53	70821	-54	0																11												
WM080112	139637_fnca	2	1	1	-1476785481	1	75.035	75.031	2.0.10.147	2.0.10.242	2.0.10.242	1.0.0.439	7	234	2	3	Verdana	1	80	0	0	0	WM Stimuli\	1	1038.3	1	615.4	1	850.6	1	733.8	0.9	805	1	602.7	1	895.3	1	686.7	12	330965	2	330954	27	39	330992	-999999	330967	0	24	TrialsPROC	TO_017_TOOL17_BA.png	2	2	12	SessionSelectionList														lure	3	Tools	2-Back	11	80	10	0	0	0	2	39	73366	1	14	59	71327	-1	72494	1	1167	3	3	2039	53	73380	-54	0																12												
WM080112	139637_fnca	2	1	1	-1476785481	1	75.035	75.031	2.0.10.147	2.0.10.242	2.0.10.242	1.0.0.439	7	234	2	3	Verdana	1	80	0	0	0	WM Stimuli\	1	1038.3	1	615.4	1	850.6	1	733.8	0.9	805	1	602.7	1	895.3	1	686.7	12	330965	2	330954	27	39	330992	-999999	330967	0	25	Cue0BackPROC	BP_013_BP7_BA.png	2	2	13	SessionSelectionList																																										19	73846	-20	0												13												
WM080112	139637_fnca	2	1	1	-1476785481	1	75.035	75.031	2.0.10.147	2.0.10.242	2.0.10.242	1.0.0.439	7	234	2	3	Verdana	1	80	0	0	0	WM Stimuli\	1	1038.3	1	615.4	1	850.6	1	733.8	0.9	805	1	602.7	1	895.3	1	686.7	12	330965	2	330954	27	39	330992	-999999	330967	0	26	TrialsPROC	BP_015_H10-T_BA.png	2	2	14	SessionSelectionList														nonlure	3	Body	0-Back	12	80	11	0	0	100	3	39	78417	1	14	51	76378	-1	77248	1	870	3	3	2039	53	78431	-54	0																14												
WM080112	139637_fnca	2	1	1	-1476785481	1	75.035	75.031	2.0.10.147	2.0.10.242	2.0.10.242	1.0.0.439	7	234	2	3	Verdana	1	80	0	0	0	WM Stimuli\	1	1038.3	1	615.4	1	850.6	1	733.8	0.9	805	1	602.7	1	895.3	1	686.7	12	330965	2	330954	27	39	330992	-999999	330967	0	26	TrialsPROC	BP_018_H13-T_BA.png	2	2	15	SessionSelectionList														nonlure	3	Body	0-Back	13	80	12	0	0	100	4	39	80976	1	14	59	78937	-1	79521	1	584	3	3	2039	53	80990	-54	0																15												
WM080112	139637_fnca	2	1	1	-1476785481	1	75.035	75.031	2.0.10.147	2.0.10.242	2.0.10.242	1.0.0.439	7	234	2	3	Verdana	1	80	0	0	0	WM Stimuli\	1	1038.3	1	615.4	1	850.6	1	733.8	0.9	805	1	602.7	1	895.3	1	686.7	12	330965	2	330954	27	39	330992	-999999	330967	0	26	TrialsPROC	BP_014_BP9_BA.png	2	2	16	SessionSelectionList														nonlure	3	Body	0-Back	14	80	13	0	0	100	5	39	83535	1	14	59	81496	-1	82314	1	818	3	3	2039	53	83549	-54	0																16												
WM080112	139637_fnca	2	1	1	-1476785481	1	75.035	75.031	2.0.10.147	2.0.10.242	2.0.10.242	1.0.0.439	7	234	2	3	Verdana	1	80	0	0	0	WM Stimuli\	1	1038.3	1	615.4	1	850.6	1	733.8	0.9	805	1	602.7	1	895.3	1	686.7	12	330965	2	330954	27	39	330992	-999999	330967	0	26	TrialsPROC	BP_018_H13-T_BA.png	2	2	17	SessionSelectionList														lure	3	Body	0-Back	15	80	14	0	0	100	6	39	86094	1	14	59	84055	-1	84607	1	552	3	3	2039	53	86108	-54	0																17												
WM080112	139637_fnca	2	1	1	-1476785481	1	75.035	75.031	2.0.10.147	2.0.10.242	2.0.10.242	1.0.0.439	7	234	2	3	Verdana	1	80	0	0	0	WM Stimuli\	1	1038.3	1	615.4	1	850.6	1	733.8	0.9	805	1	602.7	1	895.3	1	686.7	12	330965	2	330954	27	39	330992	-999999	330967	0	26	TrialsPROC	BP_013_BP7_BA.png	2	2	18	SessionSelectionList														target	2	Body	0-Back	16	80	15	0	0	100	1	39	88653	1	14	59	86614	-1	87087	1	473	2	2	2039	53	88667	-54	0																18												
WM080112	139637_fnca	2	1	1	-1476785481	1	75.035	75.031	2.0.10.147	2.0.10.242	2.0.10.242	1.0.0.439	7	234	2	3	Verdana	1	80	0	0	0	WM Stimuli\	1	1038.3	1	615.4	1	850.6	1	733.8	0.9	805	1	602.7	1	895.3	1	686.7	12	330965	2	330954	27	39	330992	-999999	330967	0	26	TrialsPROC	BP_015_H10-T_BA.png	2	2	19	SessionSelectionList														lure	3	Body	0-Back	17	80	16	0	0	100	1	39	91212	1	14	59	89173	-1	89723	1	550	3	3	2039	53	91226	-54	0																19												
WM080112	139637_fnca	2	1	1	-1476785481	1	75.035	75.031	2.0.10.147	2.0.10.242	2.0.10.242	1.0.0.439	7	234	2	3	Verdana	1	80	0	0	0	WM Stimuli\	1	1038.3	1	615.4	1	850.6	1	733.8	0.9	805	1	602.7	1	895.3	1	686.7	12	330965	2	330954	27	39	330992	-999999	330967	0	26	TrialsPROC	BP_016_H11-T_BA.png	2	2	20	SessionSelectionList														nonlure	3	Body	0-Back	18	80	17	0	0	100	2	39	93771	1	14	59	91732	-1	92282	1	550	3	3	2039	53	93785	-54	0																20												
WM080112	139637_fnca	2	1	1	-1476785481	1	75.035	75.031	2.0.10.147	2.0.10.242	2.0.10.242	1.0.0.439	7	234	2	3	Verdana	1	80	0	0	0	WM Stimuli\	1	1038.3	1	615.4	1	850.6	1	733.8	0.9	805	1	602.7	1	895.3	1	686.7	12	330965	2	330954	27	39	330992	-999999	330967	0	26	TrialsPROC	BP_013_BP7_BA.png	2	2	21	SessionSelectionList														target	2	Body	0-Back	19	80	18	0	0	100	1	39	96330	1	14	59	94291	-1	94888	1	597	2	2	2039	53	96344	-54	0																21												
WM080112	139637_fnca	2	1	1	-1476785481	1	75.035	75.031	2.0.10.147	2.0.10.242	2.0.10.242	1.0.0.439	7	234	2	3	Verdana	1	80	0	0	0	WM Stimuli\	1	1038.3	1	615.4	1	850.6	1	733.8	0.9	805	1	602.7	1	895.3	1	686.7	12	330965	2	330954	27	39	330992	-999999	330967	0	26	TrialsPROC	BP_017_H12-T_BA.png	2	2	22	SessionSelectionList														nonlure	3	Body	0-Back	20	80	19	0	0	100	1	39	98889	1	14	59	96850	-1	97362	1	512	3	3	2039	53	98903	-54	0																22												
WM080112	139637_fnca	2	1	1	-1476785481	1	75.035	75.031	2.0.10.147	2.0.10.242	2.0.10.242	1.0.0.439	7	234	2	3	Verdana	1	80	0	0	0	WM Stimuli\	1	1038.3	1	615.4	1	850.6	1	733.8	0.9	805	1	602.7	1	895.3	1	686.7	12	330965	2	330954	27	39	330992	-999999	330967	0	26	TrialsPROC	BP_014_BP9_BA.png	2	2	23	SessionSelectionList														lure	3	Body	0-Back	21	80	20	0	0	100	2	39	101448	1	14	59	99409	-1	100057	1	648	3	3	2039	53	101462	-54	0																23												
WM080112	139637_fnca	2	1	1	-1476785481	1	75.035	75.031	2.0.10.147	2.0.10.242	2.0.10.242	1.0.0.439	7	234	2	3	Verdana	1	80	0	0	0	WM Stimuli\	1	1038.3	1	615.4	1	850.6	1	733.8	0.9	805	1	602.7	1	895.3	1	686.7	12	330965	2	330954	27	39	330992	-999999	330967	0	27	Fix15secPROC	""	2	2	24	SessionSelectionList																																															6	101915	-7	0							24												
WM080112	139637_fnca	2	1	1	-1476785481	1	75.035	75.031	2.0.10.147	2.0.10.242	2.0.10.242	1.0.0.439	7	234	2	3	Verdana	1	80	0	0	0	WM Stimuli\	1	1038.3	1	615.4	1	850.6	1	733.8	0.9	805	1	602.7	1	895.3	1	686.7	12	330965	2	330954	27	39	330992	-999999	330967	0	28	Cue2BackPROC	""	2	2	25	SessionSelectionList									12	116921	-13	0																																													25												
WM080112	139637_fnca	2	1	1	-1476785481	1	75.035	75.031	2.0.10.147	2.0.10.242	2.0.10.242	1.0.0.439	7	234	2	3	Verdana	1	80	0	0	0	WM Stimuli\	1	1038.3	1	615.4	1	850.6	1	733.8	0.9	805	1	602.7	1	895.3	1	686.7	12	330965	2	330954	27	39	330992	-999999	330967	0	29	TrialsPROC	FC_015_M8.png	2	2	26	SessionSelectionList														nonlure	3	Face	2-Back	22	80	21	0	0	100	3	39	121519	1	14	71	119480	-1	120235	1	755	3	3	2039	53	121533	-54	0																26												
WM080112	139637_fnca	2	1	1	-1476785481	1	75.035	75.031	2.0.10.147	2.0.10.242	2.0.10.242	1.0.0.439	7	234	2	3	Verdana	1	80	0	0	0	WM Stimuli\	1	1038.3	1	615.4	1	850.6	1	733.8	0.9	805	1	602.7	1	895.3	1	686.7	12	330965	2	330954	27	39	330992	-999999	330967	0	29	TrialsPROC	FC_018_F9.png	2	2	27	SessionSelectionList														nonlure	3	Face	2-Back	23	80	22	0	0	100	4	40	124092	1	13	72	122052	-1	122769	1	717	3	3	2040	53	124105	-54	0																27												
WM080112	139637_fnca	2	1	1	-1476785481	1	75.035	75.031	2.0.10.147	2.0.10.242	2.0.10.242	1.0.0.439	7	234	2	3	Verdana	1	80	0	0	0	WM Stimuli\	1	1038.3	1	615.4	1	850.6	1	733.8	0.9	805	1	602.7	1	895.3	1	686.7	12	330965	2	330954	27	39	330992	-999999	330967	0	29	TrialsPROC	FC_018_F9.png	2	2	28	SessionSelectionList														lure	3	Face	2-Back	24	80	23	0	0	100	5	39	126664	1	14	73	124625	-1	125421	1	796	3	3	2039	53	126678	-54	0																28												
WM080112	139637_fnca	2	1	1	-1476785481	1	75.035	75.031	2.0.10.147	2.0.10.242	2.0.10.242	1.0.0.439	7	234	2	3	Verdana	1	80	0	0	0	WM Stimuli\	1	1038.3	1	615.4	1	850.6	1	733.8	0.9	805	1	602.7	1	895.3	1	686.7	12	330965	2	330954	27	39	330992	-999999	330967	0	29	TrialsPROC	FC_017_M9.png	2	2	29	SessionSelectionList														nonlure	3	Face	2-Back	25	80	24	0	0	100	6	39	129236	1	14	72	127197	-1	128204	1	1007	3	3	2039	53	129250	-54	0																29												
WM080112	139637_fnca	2	1	1	-1476785481	1	75.035	75.031	2.0.10.147	2.0.10.242	2.0.10.242	1.0.0.439	7	234	2	3	Verdana	1	80	0	0	0	WM Stimuli\	1	1038.3	1	615.4	1	850.6	1	733.8	0.9	805	1	602.7	1	895.3	1	686.7	12	330965	2	330954	27	39	330992	-999999	330967	0	29	TrialsPROC	FC_017_M9.png	2	2	30	SessionSelectionList														lure	3	Face	2-Back	26	80	25	0	0	100	7	39	131808	1	14	72	129769	-1	130580	1	811	3	3	2039	53	131822	-54	0																30												
WM080112	139637_fnca	2	1	1	-1476785481	1	75.035	75.031	2.0.10.147	2.0.10.242	2.0.10.242	1.0.0.439	7	234	2	3	Verdana	1	80	0	0	0	WM Stimuli\	1	1038.3	1	615.4	1	850.6	1	733.8	0.9	805	1	602.7	1	895.3	1	686.7	12	330965	2	330954	27	39	330992	-999999	330967	0	29	TrialsPROC	FC_016_F8.png	2	2	31	SessionSelectionList														nonlure	3	Face	2-Back	27	80	26	0	0	100	8	39	134381	1	13	73	132342	-1	133210	1	868	3	3	2039	52	134394	-53	0																31												
WM080112	139637_fnca	2	1	1	-1476785481	1	75.035	75.031	2.0.10.147	2.0.10.242	2.0.10.242	1.0.0.439	7	234	2	3	Verdana	1	80	0	0	0	WM Stimuli\	1	1038.3	1	615.4	1	850.6	1	733.8	0.9	805	1	602.7	1	895.3	1	686.7	12	330965	2	330954	27	39	330992	-999999	330967	0	29	TrialsPROC	FC_013_M7.png	2	2	32	SessionSelectionList														nonlure	3	Face	2-Back	28	80	27	0	0	100	9	39	136953	1	14	72	134914	-1	135673	1	759	3	3	2039	53	136967	-54	0																32												
WM080112	139637_fnca	2	1	1	-1476785481	1	75.035	75.031	2.0.10.147	2.0.10.242	2.0.10.242	1.0.0.439	7	234	2	3	Verdana	1	80	0	0	0	WM Stimuli\	1	1038.3	1	615.4	1	850.6	1	733.8	0.9	805	1	602.7	1	895.3	1	686.7	12	330965	2	330954	27	39	330992	-999999	330967	0	29	TrialsPROC	FC_014_F7.png	2	2	33	SessionSelectionList														nonlure	3	Face	2-Back	29	80	28	0	0	100	10	39	139525	1	14	72	137486	-1	138219	1	733	3	3	2039	53	139539	-54	0																33												
WM080112	139637_fnca	2	1	1	-1476785481	1	75.035	75.031	2.0.10.147	2.0.10.242	2.0.10.242	1.0.0.439	7	234	2	3	Verdana	1	80	0	0	0	WM Stimuli\	1	1038.3	1	615.4	1	850.6	1	733.8	0.9	805	1	602.7	1	895.3	1	686.7	12	330965	2	330954	27	39	330992	-999999	330967	0	29	TrialsPROC	FC_013_M7.png	2	2	34	SessionSelectionList														target	2	Face	2-Back	30	80	29	0	0	100	1	39	142097	1	14	72	140058	-1	140974	1	916	2	2	2039	53	142111	-54	0																34												
WM080112	139637_fnca	2	1	1	-1476785481	1	75.035	75.031	2.0.10.147	2.0.10.242	2.0.10.242	1.0.0.439	7	234	2	3	Verdana	1	80	0	0	0	WM Stimuli\	1	1038.3	1	615.4	1	850.6	1	733.8	0.9	805	1	602.7	1	895.3	1	686.7	12	330965	2	330954	27	39	330992	-999999	330967	0	29	TrialsPROC	FC_014_F7.png	2	2	35	SessionSelectionList														target	2	Face	2-Back	31	80	30	0	0	100	2	39	144670	1	13	73	142631	-1	143775	1	1144	2	2	2039	52	144683	-53	0																35												
WM080112	139637_fnca	2	1	1	-1476785481	1	75.035	75.031	2.0.10.147	2.0.10.242	2.0.10.242	1.0.0.439	7	234	2	3	Verdana	1	80	0	0	0	WM Stimuli\	1	1038.3	1	615.4	1	850.6	1	733.8	0.9	805	1	602.7	1	895.3	1	686.7	12	330965	2	330954	27	39	330992	-999999	330967	0	30	Cue0BackPROC	TO_019_TOOL19_BA.png	2	2	36	SessionSelectionList																																										18	145149	-19	0												36												
WM080112	139637_fnca	2	1	1	-1476785481	1	75.035	75.031	2.0.10.147	2.0.10.242	2.0.10.242	1.0.0.439	7	234	2	3	Verdana	1	80	0	0	0	WM Stimuli\	1	1038.3	1	615.4	1	850.6	1	733.8	0.9	805	1	602.7	1	895.3	1	686.7	12	330965	2	330954	27	39	330992	-999999	330967	0	31	TrialsPROC	TO_019_TOOL19_BA.png	2	2	37	SessionSelectionList														target	2	Tools	0-Back	32	80	31	0	0	100	3	39	149721	1	14	51	147682	-1	148758	1	1076	2	2	2039	53	149735	-54	0																37												
WM080112	139637_fnca	2	1	1	-1476785481	1	75.035	75.031	2.0.10.147	2.0.10.242	2.0.10.242	1.0.0.439	7	234	2	3	Verdana	1	80	0	0	0	WM Stimuli\	1	1038.3	1	615.4	1	850.6	1	733.8	0.9	805	1	602.7	1	895.3	1	686.7	12	330965	2	330954	27	39	330992	-999999	330967	0	31	TrialsPROC	TO_024_TOOL24_BA.png	2	2	38	SessionSelectionList														nonlure	3	Tools	0-Back	33	80	32	0	0	100	1	39	152280	1	14	59	150241	-1	150722	1	481	3	3	2039	53	152294	-54	0																38												
WM080112	139637_fnca	2	1	1	-1476785481	1	75.035	75.031	2.0.10.147	2.0.10.242	2.0.10.242	1.0.0.439	7	234	2	3	Verdana	1	80	0	0	0	WM Stimuli\	1	1038.3	1	615.4	1	850.6	1	733.8	0.9	805	1	602.7	1	895.3	1	686.7	12	330965	2	330954	27	39	330992	-999999	330967	0	31	TrialsPROC	TO_019_TOOL19_BA.png	2	2	39	SessionSelectionList														target	2	Tools	0-Back	34	80	33	0	0	100	1	39	154839	1	14	59	152800	-1	153412	1	612	2	2	2039	53	154853	-54	0																39												
WM080112	139637_fnca	2	1	1	-1476785481	1	75.035	75.031	2.0.10.147	2.0.10.242	2.0.10.242	1.0.0.439	7	234	2	3	Verdana	1	80	0	0	0	WM Stimuli\	1	1038.3	1	615.4	1	850.6	1	733.8	0.9	805	1	602.7	1	895.3	1	686.7	12	330965	2	330954	27	39	330992	-999999	330967	0	31	TrialsPROC	TO_023_TOOL23_BA.png	2	2	40	SessionSelectionList														nonlure	3	Tools	0-Back	35	80	34	0	0	100	1	39	157398	1	13	59	155359	-1	156058	1	699	3	3	2039	52	157411	-53	0																40												
WM080112	139637_fnca	2	1	1	-1476785481	1	75.035	75.031	2.0.10.147	2.0.10.242	2.0.10.242	1.0.0.439	7	234	2	3	Verdana	1	80	0	0	0	WM Stimuli\	1	1038.3	1	615.4	1	850.6	1	733.8	0.9	805	1	602.7	1	895.3	1	686.7	12	330965	2	330954	27	39	330992	-999999	330967	0	31	TrialsPROC	TO_020_TOOL20_BA.png	2	2	41	SessionSelectionList														nonlure	3	Tools	0-Back	36	80	35	0	0	100	2	40	159957	0	13	58	157917	-1	158487	1	570	3	3	2040	53	159970	-54	0																41												
WM080112	139637_fnca	2	1	1	-1476785481	1	75.035	75.031	2.0.10.147	2.0.10.242	2.0.10.242	1.0.0.439	7	234	2	3	Verdana	1	80	0	0	0	WM Stimuli\	1	1038.3	1	615.4	1	850.6	1	733.8	0.9	805	1	602.7	1	895.3	1	686.7	12	330965	2	330954	27	39	330992	-999999	330967	0	31	TrialsPROC	TO_020_TOOL20_BA.png	2	2	42	SessionSelectionList														lure	3	Tools	0-Back	37	80	36	0	0	100	3	40	162516	0	13	59	160476	-1	161043	1	567	3	3	2040	53	162529	-54	0																42												
WM080112	139637_fnca	2	1	1	-1476785481	1	75.035	75.031	2.0.10.147	2.0.10.242	2.0.10.242	1.0.0.439	7	234	2	3	Verdana	1	80	0	0	0	WM Stimuli\	1	1038.3	1	615.4	1	850.6	1	733.8	0.9	805	1	602.7	1	895.3	1	686.7	12	330965	2	330954	27	39	330992	-999999	330967	0	31	TrialsPROC	TO_022_TOOL22_BA.png	2	2	43	SessionSelectionList														nonlure	3	Tools	0-Back	38	80	37	0	0	100	4	40	165075	0	13	59	163035	-1	163999	1	964	3	3	2040	53	165088	-54	0																43												
WM080112	139637_fnca	2	1	1	-1476785481	1	75.035	75.031	2.0.10.147	2.0.10.242	2.0.10.242	1.0.0.439	7	234	2	3	Verdana	1	80	0	0	0	WM Stimuli\	1	1038.3	1	615.4	1	850.6	1	733.8	0.9	805	1	602.7	1	895.3	1	686.7	12	330965	2	330954	27	39	330992	-999999	330967	0	31	TrialsPROC	TO_022_TOOL22_BA.png	2	2	44	SessionSelectionList														lure	3	Tools	0-Back	39	80	38	0	0	100	5	39	167633	1	14	59	165594	-1	166092	1	498	3	3	2039	53	167647	-54	0																44												
WM080112	139637_fnca	2	1	1	-1476785481	1	75.035	75.031	2.0.10.147	2.0.10.242	2.0.10.242	1.0.0.439	7	234	2	3	Verdana	1	80	0	0	0	WM Stimuli\	1	1038.3	1	615.4	1	850.6	1	733.8	0.9	805	1	602.7	1	895.3	1	686.7	12	330965	2	330954	27	39	330992	-999999	330967	0	31	TrialsPROC	TO_021_TOOL21_BA.png	2	2	45	SessionSelectionList														nonlure	3	Tools	0-Back	40	80	39	0	0	100	6	39	170192	1	14	59	168153	-1	168824	1	671	3	3	2039	53	170206	-54	0																45												
WM080112	139637_fnca	2	1	1	-1476785481	1	75.035	75.031	2.0.10.147	2.0.10.242	2.0.10.242	1.0.0.439	7	234	2	3	Verdana	1	80	0	0	0	WM Stimuli\	1	1038.3	1	615.4	1	850.6	1	733.8	0.9	805	1	602.7	1	895.3	1	686.7	12	330965	2	330954	27	39	330992	-999999	330967	0	31	TrialsPROC	TO_021_TOOL21_BA.png	2	2	46	SessionSelectionList														lure	3	Tools	0-Back	41	80	40	0	0	100	7	39	172751	1	14	59	170712	-1	171441	1	729	3	3	2039	53	172765	-54	0																46												
WM080112	139637_fnca	2	1	1	-1476785481	1	75.035	75.031	2.0.10.147	2.0.10.242	2.0.10.242	1.0.0.439	7	234	2	3	Verdana	1	80	0	0	0	WM Stimuli\	1	1038.3	1	615.4	1	850.6	1	733.8	0.9	805	1	602.7	1	895.3	1	686.7	12	330965	2	330954	27	39	330992	-999999	330967	0	32	Fix15secPROC	""	2	2	47	SessionSelectionList																																															6	173218	-7	0							47												
WM080112	139637_fnca	2	1	1	-1476785481	1	75.035	75.031	2.0.10.147	2.0.10.242	2.0.10.242	1.0.0.439	7	234	2	3	Verdana	1	80	0	0	0	WM Stimuli\	1	1038.3	1	615.4	1	850.6	1	733.8	0.9	805	1	602.7	1	895.3	1	686.7	12	330965	2	330954	27	39	330992	-999999	330967	0	33	Cue2BackPROC	""	2	2	48	SessionSelectionList									13	188225	-14	0																																													48												
WM080112	139637_fnca	2	1	1	-1476785481	1	75.035	75.031	2.0.10.147	2.0.10.242	2.0.10.242	1.0.0.439	7	234	2	3	Verdana	1	80	0	0	0	WM Stimuli\	1	1038.3	1	615.4	1	850.6	1	733.8	0.9	805	1	602.7	1	895.3	1	686.7	12	330965	2	330954	27	39	330992	-999999	330967	0	34	TrialsPROC	BP_020_H17-T_BA.png	2	2	49	SessionSelectionList														nonlure	3	Body	2-Back	42	80	41	0	0	100	8	40	192810	0	13	58	190770	-1	191237	1	467	3	3	2040	53	192823	-54	0																49												
WM080112	139637_fnca	2	1	1	-1476785481	1	75.035	75.031	2.0.10.147	2.0.10.242	2.0.10.242	1.0.0.439	7	234	2	3	Verdana	1	80	0	0	0	WM Stimuli\	1	1038.3	1	615.4	1	850.6	1	733.8	0.9	805	1	602.7	1	895.3	1	686.7	12	330965	2	330954	27	39	330992	-999999	330967	0	34	TrialsPROC	BP_019_H14-T_BA.png	2	2	50	SessionSelectionList														nonlure	3	Body	2-Back	43	80	42	0	0	100	9	40	195369	0	13	59	193329	-1	194128	1	799	3	3	2040	53	195382	-54	0																50												
WM080112	139637_fnca	2	1	1	-1476785481	1	75.035	75.031	2.0.10.147	2.0.10.242	2.0.10.242	1.0.0.439	7	234	2	3	Verdana	1	80	0	0	0	WM Stimuli\	1	1038.3	1	615.4	1	850.6	1	733.8	0.9	805	1	602.7	1	895.3	1	686.7	12	330965	2	330954	27	39	330992	-999999	330967	0	34	TrialsPROC	BP_020_H17-T_BA.png	2	2	51	SessionSelectionList														target	2	Body	2-Back	44	80	43	0	0	100	1	39	197927	1	14	59	195888	-1	197101	1	1213	2	2	2039	53	197941	-54	0																51												
WM080112	139637_fnca	2	1	1	-1476785481	1	75.035	75.031	2.0.10.147	2.0.10.242	2.0.10.242	1.0.0.439	7	234	2	3	Verdana	1	80	0	0	0	WM Stimuli\	1	1038.3	1	615.4	1	850.6	1	733.8	0.9	805	1	602.7	1	895.3	1	686.7	12	330965	2	330954	27	39	330992	-999999	330967	0	34	TrialsPROC	BP_019_H14-T_BA.png	2	2	52	SessionSelectionList														target	2	Body	2-Back	45	80	44	0	0	100	2	39	200486	1	14	59	198447	-1	199471	1	1024	2	2	2039	53	200500	-54	0																52												
WM080112	139637_fnca	2	1	1	-1476785481	1	75.035	75.031	2.0.10.147	2.0.10.242	2.0.10.242	1.0.0.439	7	234	2	3	Verdana	1	80	0	0	0	WM Stimuli\	1	1038.3	1	615.4	1	850.6	1	733.8	0.9	805	1	602.7	1	895.3	1	686.7	12	330965	2	330954	27	39	330992	-999999	330967	0	34	TrialsPROC	BP_024_H3-T_BA.png	2	2	53	SessionSelectionList														nonlure	3	Body	2-Back	46	80	45	0	0	100	1	39	203045	1	14	59	201006	-1	202050	1	1044	3	3	2039	53	203059	-54	0																53												
WM080112	139637_fnca	2	1	1	-1476785481	1	75.035	75.031	2.0.10.147	2.0.10.242	2.0.10.242	1.0.0.439	7	234	2	3	Verdana	1	80	0	0	0	WM Stimuli\	1	1038.3	1	615.4	1	850.6	1	733.8	0.9	805	1	602.7	1	895.3	1	686.7	12	330965	2	330954	27	39	330992	-999999	330967	0	34	TrialsPROC	BP_024_H3-T_BA.png	2	2	54	SessionSelectionList														lure	3	Body	2-Back	47	80	46	0	0	100	2	39	205604	1	14	59	203565	-1	205297	1	1732	3	3	2039	53	205618	-54	0																54												
WM080112	139637_fnca	2	1	1	-1476785481	1	75.035	75.031	2.0.10.147	2.0.10.242	2.0.10.242	1.0.0.439	7	234	2	3	Verdana	1	80	0	0	0	WM Stimuli\	1	1038.3	1	615.4	1	850.6	1	733.8	0.9	805	1	602.7	1	895.3	1	686.7	12	330965	2	330954	27	39	330992	-999999	330967	0	34	TrialsPROC	BP_025_H5-T_BA.png	2	2	55	SessionSelectionList														nonlure	3	Body	2-Back	48	80	47	0	0	100	3	39	208163	1	14	59	206124	-1	207354	1	1230	3	3	2039	53	208177	-54	0																55												
WM080112	139637_fnca	2	1	1	-1476785481	1	75.035	75.031	2.0.10.147	2.0.10.242	2.0.10.242	1.0.0.439	7	234	2	3	Verdana	1	80	0	0	0	WM Stimuli\	1	1038.3	1	615.4	1	850.6	1	733.8	0.9	805	1	602.7	1	895.3	1	686.7	12	330965	2	330954	27	39	330992	-999999	330967	0	34	TrialsPROC	BP_023_H25-T_BA.png	2	2	56	SessionSelectionList														nonlure	3	Body	2-Back	49	80	48	0	0	100	4	39	210722	1	14	59	208683	-1	209883	1	1200	3	3	2039	53	210736	-54	0																56												
WM080112	139637_fnca	2	1	1	-1476785481	1	75.035	75.031	2.0.10.147	2.0.10.242	2.0.10.242	1.0.0.439	7	234	2	3	Verdana	1	80	0	0	0	WM Stimuli\	1	1038.3	1	615.4	1	850.6	1	733.8	0.9	805	1	602.7	1	895.3	1	686.7	12	330965	2	330954	27	39	330992	-999999	330967	0	34	TrialsPROC	BP_022_H24-T_BA.png	2	2	57	SessionSelectionList														nonlure	3	Body	2-Back	50	80	49	0	0	100	5	39	213281	1	14	59	211242	-1	212005	1	763	3	3	2039	53	213295	-54	0																57												
WM080112	139637_fnca	2	1	1	-1476785481	1	75.035	75.031	2.0.10.147	2.0.10.242	2.0.10.242	1.0.0.439	7	234	2	3	Verdana	1	80	0	0	0	WM Stimuli\	1	1038.3	1	615.4	1	850.6	1	733.8	0.9	805	1	602.7	1	895.3	1	686.7	12	330965	2	330954	27	39	330992	-999999	330967	0	34	TrialsPROC	BP_022_H24-T_BA.png	2	2	58	SessionSelectionList														lure	3	Body	2-Back	51	80	50	0	0	100	6	39	215840	1	14	59	213801	-1	214712	1	911	3	3	2039	53	215854	-54	0																58												
WM080112	139637_fnca	2	1	1	-1476785481	1	75.035	75.031	2.0.10.147	2.0.10.242	2.0.10.242	1.0.0.439	7	234	2	3	Verdana	1	80	0	0	0	WM Stimuli\	1	1038.3	1	615.4	1	850.6	1	733.8	0.9	805	1	602.7	1	895.3	1	686.7	12	330965	2	330954	27	39	330992	-999999	330967	0	35	Cue2BackPROC	""	2	2	59	SessionSelectionList									5	216306	-6	0																																													59												
WM080112	139637_fnca	2	1	1	-1476785481	1	75.035	75.031	2.0.10.147	2.0.10.242	2.0.10.242	1.0.0.439	7	234	2	3	Verdana	1	80	0	0	0	WM Stimuli\	1	1038.3	1	615.4	1	850.6	1	733.8	0.9	805	1	602.7	1	895.3	1	686.7	12	330965	2	330954	27	39	330992	-999999	330967	0	36	TrialsPROC	PL_019_SCENE_05.png	2	2	60	SessionSelectionList														nonlure	3	Place	2-Back	52	80	51	0	0	100	7	40	220905	0	13	64	218865	-1	219564	1	699	3	3	2040	53	220918	-54	0																60												
WM080112	139637_fnca	2	1	1	-1476785481	1	75.035	75.031	2.0.10.147	2.0.10.242	2.0.10.242	1.0.0.439	7	234	2	3	Verdana	1	80	0	0	0	WM Stimuli\	1	1038.3	1	615.4	1	850.6	1	733.8	0.9	805	1	602.7	1	895.3	1	686.7	12	330965	2	330954	27	39	330992	-999999	330967	0	36	TrialsPROC	PL_017_SCENE_03.png	2	2	61	SessionSelectionList														nonlure	3	Place	2-Back	53	80	52	0	0	100	8	39	223477	1	14	73	221438	-1	222282	1	844	3	3	2039	53	223491	-54	0																61												
WM080112	139637_fnca	2	1	1	-1476785481	1	75.035	75.031	2.0.10.147	2.0.10.242	2.0.10.242	1.0.0.439	7	234	2	3	Verdana	1	80	0	0	0	WM Stimuli\	1	1038.3	1	615.4	1	850.6	1	733.8	0.9	805	1	602.7	1	895.3	1	686.7	12	330965	2	330954	27	39	330992	-999999	330967	0	36	TrialsPROC	PL_017_SCENE_03.png	2	2	62	SessionSelectionList														lure	3	Place	2-Back	54	80	53	0	0	100	9	39	226049	1	14	72	224010	-1	224702	1	692	3	3	2039	53	226063	-54	0																62												
WM080112	139637_fnca	2	1	1	-1476785481	1	75.035	75.031	2.0.10.147	2.0.10.242	2.0.10.242	1.0.0.439	7	234	2	3	Verdana	1	80	0	0	0	WM Stimuli\	1	1038.3	1	615.4	1	850.6	1	733.8	0.9	805	1	602.7	1	895.3	1	686.7	12	330965	2	330954	27	39	330992	-999999	330967	0	36	TrialsPROC	PL_016_SCENE_02.png	2	2	63	SessionSelectionList														nonlure	3	Place	2-Back	55	80	54	0	0	100	10	39	228621	1	14	72	226582	-1	227331	1	749	3	3	2039	53	228635	-54	0																63												
WM080112	139637_fnca	2	1	1	-1476785481	1	75.035	75.031	2.0.10.147	2.0.10.242	2.0.10.242	1.0.0.439	7	234	2	3	Verdana	1	80	0	0	0	WM Stimuli\	1	1038.3	1	615.4	1	850.6	1	733.8	0.9	805	1	602.7	1	895.3	1	686.7	12	330965	2	330954	27	39	330992	-999999	330967	0	36	TrialsPROC	PL_015_SCENE_01.png	2	2	64	SessionSelectionList														nonlure	3	Place	2-Back	56	80	55	0	0	100	11	40	231194	0	13	72	229154	-1	229935	1	781	3	3	2040	53	231207	-54	0																64												
WM080112	139637_fnca	2	1	1	-1476785481	1	75.035	75.031	2.0.10.147	2.0.10.242	2.0.10.242	1.0.0.439	7	234	2	3	Verdana	1	80	0	0	0	WM Stimuli\	1	1038.3	1	615.4	1	850.6	1	733.8	0.9	805	1	602.7	1	895.3	1	686.7	12	330965	2	330954	27	39	330992	-999999	330967	0	36	TrialsPROC	PL_016_SCENE_02.png	2	2	65	SessionSelectionList														target	2	Place	2-Back	57	80	56	0	0	100	12	39	233766	1	14	73	231727	-1	232723	0	996	3	2	2039	53	233780	-54	0																65												
WM080112	139637_fnca	2	1	1	-1476785481	1	75.035	75.031	2.0.10.147	2.0.10.242	2.0.10.242	1.0.0.439	7	234	2	3	Verdana	1	80	0	0	0	WM Stimuli\	1	1038.3	1	615.4	1	850.6	1	733.8	0.9	805	1	602.7	1	895.3	1	686.7	12	330965	2	330954	27	39	330992	-999999	330967	0	36	TrialsPROC	PL_015_SCENE_01.png	2	2	66	SessionSelectionList														target	2	Place	2-Back	58	80	57	0	0	100	1	39	236338	1	14	72	234299	-1	235160	1	861	2	2	2039	53	236352	-54	0																66												
WM080112	139637_fnca	2	1	1	-1476785481	1	75.035	75.031	2.0.10.147	2.0.10.242	2.0.10.242	1.0.0.439	7	234	2	3	Verdana	1	80	0	0	0	WM Stimuli\	1	1038.3	1	615.4	1	850.6	1	733.8	0.9	805	1	602.7	1	895.3	1	686.7	12	330965	2	330954	27	39	330992	-999999	330967	0	36	TrialsPROC	PL_020_SCENE_06.png	2	2	67	SessionSelectionList														nonlure	3	Place	2-Back	59	80	58	0	0	100	1	39	238910	1	14	72	236871	-1	237701	1	830	3	3	2039	53	238924	-54	0																67												
WM080112	139637_fnca	2	1	1	-1476785481	1	75.035	75.031	2.0.10.147	2.0.10.242	2.0.10.242	1.0.0.439	7	234	2	3	Verdana	1	80	0	0	0	WM Stimuli\	1	1038.3	1	615.4	1	850.6	1	733.8	0.9	805	1	602.7	1	895.3	1	686.7	12	330965	2	330954	27	39	330992	-999999	330967	0	36	TrialsPROC	PL_020_SCENE_06.png	2	2	68	SessionSelectionList														lure	3	Place	2-Back	60	80	59	0	0	100	2	39	241483	1	13	73	239444	-1	240145	1	701	3	3	2039	52	241496	-53	0																68												
WM080112	139637_fnca	2	1	1	-1476785481	1	75.035	75.031	2.0.10.147	2.0.10.242	2.0.10.242	1.0.0.439	7	234	2	3	Verdana	1	80	0	0	0	WM Stimuli\	1	1038.3	1	615.4	1	850.6	1	733.8	0.9	805	1	602.7	1	895.3	1	686.7	12	330965	2	330954	27	39	330992	-999999	330967	0	36	TrialsPROC	PL_018_SCENE_04.png	2	2	69	SessionSelectionList														nonlure	3	Place	2-Back	61	80	60	0	0	100	3	39	244055	1	14	72	242016	-1	243104	1	1088	3	3	2039	53	244069	-54	0																69												
WM080112	139637_fnca	2	1	1	-1476785481	1	75.035	75.031	2.0.10.147	2.0.10.242	2.0.10.242	1.0.0.439	7	234	2	3	Verdana	1	80	0	0	0	WM Stimuli\	1	1038.3	1	615.4	1	850.6	1	733.8	0.9	805	1	602.7	1	895.3	1	686.7	12	330965	2	330954	27	39	330992	-999999	330967	0	37	Fix15secPROC	""	2	2	70	SessionSelectionList																																															6	244522	-7	0							70												
WM080112	139637_fnca	2	1	1	-1476785481	1	75.035	75.031	2.0.10.147	2.0.10.242	2.0.10.242	1.0.0.439	7	234	2	3	Verdana	1	80	0	0	0	WM Stimuli\	1	1038.3	1	615.4	1	850.6	1	733.8	0.9	805	1	602.7	1	895.3	1	686.7	12	330965	2	330954	27	39	330992	-999999	330967	0	38	Cue0BackPROC	FC_020_F10.png	2	2	71	SessionSelectionList																																										26	259542	-27	0												71												
WM080112	139637_fnca	2	1	1	-1476785481	1	75.035	75.031	2.0.10.147	2.0.10.242	2.0.10.242	1.0.0.439	7	234	2	3	Verdana	1	80	0	0	0	WM Stimuli\	1	1038.3	1	615.4	1	850.6	1	733.8	0.9	805	1	602.7	1	895.3	1	686.7	12	330965	2	330954	27	39	330992	-999999	330967	0	39	TrialsPROC	FC_024_F12.png	2	2	72	SessionSelectionList														nonlure	3	Face	0-Back	62	80	61	0	0	100	4	40	264127	0	13	71	262087	-1	263042	1	955	3	3	2040	53	264140	-54	0																72												
WM080112	139637_fnca	2	1	1	-1476785481	1	75.035	75.031	2.0.10.147	2.0.10.242	2.0.10.242	1.0.0.439	7	234	2	3	Verdana	1	80	0	0	0	WM Stimuli\	1	1038.3	1	615.4	1	850.6	1	733.8	0.9	805	1	602.7	1	895.3	1	686.7	12	330965	2	330954	27	39	330992	-999999	330967	0	39	TrialsPROC	FC_023_M12.png	2	2	73	SessionSelectionList														nonlure	3	Face	0-Back	63	80	62	0	0	100	5	39	266699	1	14	73	264660	-1	265281	1	621	3	3	2039	53	266713	-54	0																73												
WM080112	139637_fnca	2	1	1	-1476785481	1	75.035	75.031	2.0.10.147	2.0.10.242	2.0.10.242	1.0.0.439	7	234	2	3	Verdana	1	80	0	0	0	WM Stimuli\	1	1038.3	1	615.4	1	850.6	1	733.8	0.9	805	1	602.7	1	895.3	1	686.7	12	330965	2	330954	27	39	330992	-999999	330967	0	39	TrialsPROC	FC_020_F10.png	2	2	74	SessionSelectionList														target	2	Face	0-Back	64	80	63	0	0	100	1	39	269271	1	14	72	267232	-1	267956	1	724	2	2	2039	53	269285	-54	0																74												
WM080112	139637_fnca	2	1	1	-1476785481	1	75.035	75.031	2.0.10.147	2.0.10.242	2.0.10.242	1.0.0.439	7	234	2	3	Verdana	1	80	0	0	0	WM Stimuli\	1	1038.3	1	615.4	1	850.6	1	733.8	0.9	805	1	602.7	1	895.3	1	686.7	12	330965	2	330954	27	39	330992	-999999	330967	0	39	TrialsPROC	FC_024_F12.png	2	2	75	SessionSelectionList														lure	3	Face	0-Back	65	80	64	0	0	100	1	39	271843	1	14	72	269804	-1	270537	1	733	3	3	2039	53	271857	-54	0																75												
WM080112	139637_fnca	2	1	1	-1476785481	1	75.035	75.031	2.0.10.147	2.0.10.242	2.0.10.242	1.0.0.439	7	234	2	3	Verdana	1	80	0	0	0	WM Stimuli\	1	1038.3	1	615.4	1	850.6	1	733.8	0.9	805	1	602.7	1	895.3	1	686.7	12	330965	2	330954	27	39	330992	-999999	330967	0	39	TrialsPROC	FC_020_F10.png	2	2	76	SessionSelectionList														target	2	Face	0-Back	66	80	65	0	0	100	1	40	274416	1	13	72	272376	-1	273436	1	1060	2	2	2040	53	274429	-54	0																76												
WM080112	139637_fnca	2	1	1	-1476785481	1	75.035	75.031	2.0.10.147	2.0.10.242	2.0.10.242	1.0.0.439	7	234	2	3	Verdana	1	80	0	0	0	WM Stimuli\	1	1038.3	1	615.4	1	850.6	1	733.8	0.9	805	1	602.7	1	895.3	1	686.7	12	330965	2	330954	27	39	330992	-999999	330967	0	39	TrialsPROC	FC_022_F11.png	2	2	77	SessionSelectionList														nonlure	3	Face	0-Back	67	80	66	0	0	100	1	39	276988	1	14	73	274949	-1	275544	1	595	3	3	2039	53	277002	-54	0																77												
WM080112	139637_fnca	2	1	1	-1476785481	1	75.035	75.031	2.0.10.147	2.0.10.242	2.0.10.242	1.0.0.439	7	234	2	3	Verdana	1	80	0	0	0	WM Stimuli\	1	1038.3	1	615.4	1	850.6	1	733.8	0.9	805	1	602.7	1	895.3	1	686.7	12	330965	2	330954	27	39	330992	-999999	330967	0	39	TrialsPROC	FC_023_M12.png	2	2	78	SessionSelectionList														lure	3	Face	0-Back	68	80	67	0	0	100	2	39	279560	1	14	72	277521	-1	278557	1	1036	3	3	2039	53	279574	-54	0																78												
WM080112	139637_fnca	2	1	1	-1476785481	1	75.035	75.031	2.0.10.147	2.0.10.242	2.0.10.242	1.0.0.439	7	234	2	3	Verdana	1	80	0	0	0	WM Stimuli\	1	1038.3	1	615.4	1	850.6	1	733.8	0.9	805	1	602.7	1	895.3	1	686.7	12	330965	2	330954	27	39	330992	-999999	330967	0	39	TrialsPROC	FC_021_M11.png	2	2	79	SessionSelectionList														nonlure	3	Face	0-Back	69	80	68	0	0	100	3	39	282132	1	14	72	280093	-1	280665	1	572	3	3	2039	53	282146	-54	0																79												
WM080112	139637_fnca	2	1	1	-1476785481	1	75.035	75.031	2.0.10.147	2.0.10.242	2.0.10.242	1.0.0.439	7	234	2	3	Verdana	1	80	0	0	0	WM Stimuli\	1	1038.3	1	615.4	1	850.6	1	733.8	0.9	805	1	602.7	1	895.3	1	686.7	12	330965	2	330954	27	39	330992	-999999	330967	0	39	TrialsPROC	FC_021_M11.png	2	2	80	SessionSelectionList														lure	3	Face	0-Back	70	80	69	0	0	100	4	40	284705	1	13	72	282665	-1	283155	1	490	3	3	2040	53	284718	-54	0																80												
WM080112	139637_fnca	2	1	1	-1476785481	1	75.035	75.031	2.0.10.147	2.0.10.242	2.0.10.242	1.0.0.439	7	234	2	3	Verdana	1	80	0	0	0	WM Stimuli\	1	1038.3	1	615.4	1	850.6	1	733.8	0.9	805	1	602.7	1	895.3	1	686.7	12	330965	2	330954	27	39	330992	-999999	330967	0	39	TrialsPROC	FC_019_M10.png	2	2	81	SessionSelectionList														nonlure	3	Face	0-Back	71	80	70	0	0	100	5	39	287277	1	14	73	285238	-1	285790	1	552	3	3	2039	53	287291	-54	0																81												
WM080112	139637_fnca	2	1	1	-1476785481	1	75.035	75.031	2.0.10.147	2.0.10.242	2.0.10.242	1.0.0.439	7	234	2	3	Verdana	1	80	0	0	0	WM Stimuli\	1	1038.3	1	615.4	1	850.6	1	733.8	0.9	805	1	602.7	1	895.3	1	686.7	12	330965	2	330954	27	39	330992	-999999	330967	0	40	Cue0BackPROC	PL_021_SCENE_07.png	2	2	82	SessionSelectionList																																										19	287757	-20	0												82												
WM080112	139637_fnca	2	1	1	-1476785481	1	75.035	75.031	2.0.10.147	2.0.10.242	2.0.10.242	1.0.0.439	7	234	2	3	Verdana	1	80	0	0	0	WM Stimuli\	1	1038.3	1	615.4	1	850.6	1	733.8	0.9	805	1	602.7	1	895.3	1	686.7	12	330965	2	330954	27	39	330992	-999999	330967	0	41	TrialsPROC	PL_025_SCENE_18.png	2	2	83	SessionSelectionList														nonlure	3	Place	0-Back	72	80	71	0	0	100	6	39	292341	1	14	64	290302	-1	291014	1	712	3	3	2039	53	292355	-54	0																83												
WM080112	139637_fnca	2	1	1	-1476785481	1	75.035	75.031	2.0.10.147	2.0.10.242	2.0.10.242	1.0.0.439	7	234	2	3	Verdana	1	80	0	0	0	WM Stimuli\	1	1038.3	1	615.4	1	850.6	1	733.8	0.9	805	1	602.7	1	895.3	1	686.7	12	330965	2	330954	27	39	330992	-999999	330967	0	41	TrialsPROC	PL_026_SCENE_24.png	2	2	84	SessionSelectionList														nonlure	3	Place	0-Back	73	80	72	0	0	100	7	39	294914	1	14	73	292875	-1	293486	1	611	3	3	2039	53	294928	-54	0																84												
WM080112	139637_fnca	2	1	1	-1476785481	1	75.035	75.031	2.0.10.147	2.0.10.242	2.0.10.242	1.0.0.439	7	234	2	3	Verdana	1	80	0	0	0	WM Stimuli\	1	1038.3	1	615.4	1	850.6	1	733.8	0.9	805	1	602.7	1	895.3	1	686.7	12	330965	2	330954	27	39	330992	-999999	330967	0	41	TrialsPROC	PL_025_SCENE_18.png	2	2	85	SessionSelectionList														lure	3	Place	0-Back	74	80	73	0	0	100	8	39	297486	1	14	72	295447	-1	295998	1	551	3	3	2039	53	297500	-54	0																85												
WM080112	139637_fnca	2	1	1	-1476785481	1	75.035	75.031	2.0.10.147	2.0.10.242	2.0.10.242	1.0.0.439	7	234	2	3	Verdana	1	80	0	0	0	WM Stimuli\	1	1038.3	1	615.4	1	850.6	1	733.8	0.9	805	1	602.7	1	895.3	1	686.7	12	330965	2	330954	27	39	330992	-999999	330967	0	41	TrialsPROC	PL_022_SCENE_08.png	2	2	86	SessionSelectionList														nonlure	3	Place	0-Back	75	80	74	0	0	100	9	39	300058	1	14	72	298019	-1	298703	1	684	3	3	2039	53	300072	-54	0																86												
WM080112	139637_fnca	2	1	1	-1476785481	1	75.035	75.031	2.0.10.147	2.0.10.242	2.0.10.242	1.0.0.439	7	234	2	3	Verdana	1	80	0	0	0	WM Stimuli\	1	1038.3	1	615.4	1	850.6	1	733.8	0.9	805	1	602.7	1	895.3	1	686.7	12	330965	2	330954	27	39	330992	-999999	330967	0	41	TrialsPROC	PL_026_SCENE_24.png	2	2	87	SessionSelectionList														lure	3	Place	0-Back	76	80	75	0	0	100	10	40	302631	0	13	72	300591	-1	301131	1	540	3	3	2040	53	302644	-54	0																87												
WM080112	139637_fnca	2	1	1	-1476785481	1	75.035	75.031	2.0.10.147	2.0.10.242	2.0.10.242	1.0.0.439	7	234	2	3	Verdana	1	80	0	0	0	WM Stimuli\	1	1038.3	1	615.4	1	850.6	1	733.8	0.9	805	1	602.7	1	895.3	1	686.7	12	330965	2	330954	27	39	330992	-999999	330967	0	41	TrialsPROC	PL_021_SCENE_07.png	2	2	88	SessionSelectionList														target	2	Place	0-Back	77	80	76	0	0	100	1	39	305203	1	14	73	303164	-1	303684	1	520	2	2	2039	53	305217	-54	0																88												
WM080112	139637_fnca	2	1	1	-1476785481	1	75.035	75.031	2.0.10.147	2.0.10.242	2.0.10.242	1.0.0.439	7	234	2	3	Verdana	1	80	0	0	0	WM Stimuli\	1	1038.3	1	615.4	1	850.6	1	733.8	0.9	805	1	602.7	1	895.3	1	686.7	12	330965	2	330954	27	39	330992	-999999	330967	0	41	TrialsPROC	PL_021_SCENE_07.png	2	2	89	SessionSelectionList														target	2	Place	0-Back	78	80	77	0	0	100	2	39	307775	1	14	72	305736	-1	306412	1	676	2	2	2039	53	307789	-54	0																89												
WM080112	139637_fnca	2	1	1	-1476785481	1	75.035	75.031	2.0.10.147	2.0.10.242	2.0.10.242	1.0.0.439	7	234	2	3	Verdana	1	80	0	0	0	WM Stimuli\	1	1038.3	1	615.4	1	850.6	1	733.8	0.9	805	1	602.7	1	895.3	1	686.7	12	330965	2	330954	27	39	330992	-999999	330967	0	41	TrialsPROC	PL_023_SCENE_09.png	2	2	90	SessionSelectionList														nonlure	3	Place	0-Back	79	80	78	0	0	100	1	39	310347	1	14	72	308308	-1	308848	1	540	3	3	2039	53	310361	-54	0																90												
WM080112	139637_fnca	2	1	1	-1476785481	1	75.035	75.031	2.0.10.147	2.0.10.242	2.0.10.242	1.0.0.439	7	234	2	3	Verdana	1	80	0	0	0	WM Stimuli\	1	1038.3	1	615.4	1	850.6	1	733.8	0.9	805	1	602.7	1	895.3	1	686.7	12	330965	2	330954	27	39	330992	-999999	330967	0	41	TrialsPROC	PL_024_SCENE_10.png	2	2	91	SessionSelectionList														nonlure	3	Place	0-Back	80	80	79	0	0	100	2	40	312920	0	13	72	310880	-1	311362	1	482	3	3	2040	53	312933	-54	0																91												
WM080112	139637_fnca	2	1	1	-1476785481	1	75.035	75.031	2.0.10.147	2.0.10.242	2.0.10.242	1.0.0.439	7	234	2	3	Verdana	1	80	0	0	0	WM Stimuli\	1	1038.3	1	615.4	1	850.6	1	733.8	0.9	805	1	602.7	1	895.3	1	686.7	12	330965	2	330954	27	39	330992	-999999	330967	0	41	TrialsPROC	PL_022_SCENE_08.png	2	2	92	SessionSelectionList														lure	3	Place	0-Back	80	80	80	0	0	100	3	39	315492	1	14	73	313453	-1	314164	1	711	3	3	2039	53	315506	-54	0																92												
WM080112	139637_fnca	2	1	1	-1476785481	1	75.035	75.031	2.0.10.147	2.0.10.242	2.0.10.242	1.0.0.439	7	234	2	3	Verdana	1	80	0	0	0	WM Stimuli\	1	1038.3	1	615.4	1	850.6	1	733.8	0.9	805	1	602.7	1	895.3	1	686.7	12	330965	2	330954	27	39	330992	-999999	330967	0	42	Fix15secPROC	""	2	2	93	SessionSelectionList																																															6	315959	-7	0							93												
