ExperimentName	HCPID	RunNumber	Subject	Session	RandomSeed	Group	Laptop.RefreshRate	ScannerD2.RefreshRate	StudioVersion	RuntimeVersion	RuntimeVersionExpected	ExperimentVersion	triggercode	Allowed	Target	Nontarget	FontStyle	RunTrialNumber[Session]	TrialsPerRun[Session]	TotalRespGreater200[Session]	ConsecRTLess200[Session]	ConsecNonResp[Session]	StimuliDir	ACC_2_Back_Body	Avg_RT_For_Correct_Trials_2_Back_Body	ACC_0_Back_Body	Avg_RT_For_Correct_Trials_0_Back_Body	ACC_2_Back_Face	Avg_RT_For_Correct_Trials_2_Back_Face	ACC_0_Back_Face	Avg_RT_For_Correct_Trials_0_Back_Face	ACC_2_Back_Place	Avg_RT_For_Correct_Trials_2_Back_Place	ACC_0_Back_Place	Avg_RT_For_Correct_Trials_0_Back_Place	ACC_2_Back_Tools	Avg_RT_For_Correct_Trials_2_Back_Tools	ACC_0_Back_Tools	Avg_RT_For_Correct_Trials_0_Back_Tools	ExpInstrucFeelFreeToRest.OnsetDelay	ExpInstrucFeelFreeToRest.OnsetTime	ExpInstrucFeelFreeToRest.DurationError	ExpInstrucFeelFreeToRest.StartTime	ExpInstrucFeelFreeToRest.OnsetToOnsetTime	FeelFreeToRest.OnsetDelay	FeelFreeToRest.OnsetTime	FeelFreeToRest.DurationError	FeelFreeToRest.StartTime	FeelFreeToRest.OnsetToOnsetTime	SessionSelectionList	Procedure[Block]	Stimulus[Block]	RunNumberFilterValue	SessionSelectionList.Cycle	SessionSelectionList.Sample	Running[Block]	IntroButtonMap.OnsetDelay	IntroButtonMap.OnsetTime	IntroButtonMap.DurationError	IntroButtonMap.OnsetToOnsetTime	GetReady.OnsetDelay	GetReady.OnsetTime	GetReady.DurationError	GetReady.OnsetToOnsetTime	Cue2Back.OnsetDelay	Cue2Back.OnsetTime	Cue2Back.DurationError	Cue2Back.OnsetToOnsetTime	Run1Block1	TargetType	CorrectResponse	StimType	BlockType	RunTrialNumber[Block]	TrialsPerRun[Block]	TotalRespGreater200[Block]	ConsecRTLess200[Block]	ConsecNonResp[Block]	ControlAcc	ConsecSameResp	ExperimenterWindow.OnsetDelay	ExperimenterWindow.OnsetTime	ExperimenterWindow.DurationError	ExperimenterWindow.OnsetToOnsetTime	Stim.OnsetDelay	Stim.OnsetTime	Stim.DurationError	Stim.RTTime	Stim.ACC	Stim.RT	Stim.RESP	Stim.CRESP	Stim.OnsetToOnsetTime	Fix.OnsetDelay	Fix.OnsetTime	Fix.DurationError	Fix.OnsetToOnsetTime	CueTarget.OnsetDelay	CueTarget.OnsetTime	CueTarget.DurationError	CueTarget.OnsetToOnsetTime	Run1Block2	Fix15sec.OnsetDelay	Fix15sec.OnsetTime	Fix15sec.DurationError	Fix15sec.OnsetToOnsetTime	Run1Block3	Run1Block4	Run1Block5	Run1Block6	Run1Block7	Run1Block8	Block	Procedure[Trial]	Stimulus[Trial]	ReadyList	Running[Trial]	ReadyList.Cycle	ReadyList.Sample	SyncSlide.OnsetDelay	SyncSlide.OnsetTime	SyncSlide.DurationError	SyncSlide.FinishTime	SyncSlide.OnsetToOnsetTime	Trial
WM080112	133982_fnca	1	1	1	-202656962	1	75.031	75.031	2.0.10.147	2.0.10.242	2.0.10.242	1.0.0.439	7	234	2	3	Verdana	1	80	0	0	0	WM Stimuli\	0.5	961.8	0.8	1039.5	0.8	878.75	0.9	983.555555555556	0.9	941.333333333333	1	692.9	0.9	893.888888888889	1	579.5	13	639988	2	639976	27	40	640015	-999999	639991	0	1	TRSyncPROC	""	1	2	1	SessionSelectionList	116	19403	-999999	0	39	332301	-999999	0																																																	1	InitialTR	4	1	ReadyList	1	1	15	346482	-16	348466	0	1
WM080112	133982_fnca	1	1	1	-202656962	1	75.031	75.031	2.0.10.147	2.0.10.242	2.0.10.242	1.0.0.439	7	234	2	3	Verdana	1	80	0	0	0	WM Stimuli\	0.5	961.8	0.8	1039.5	0.8	878.75	0.9	983.555555555556	0.9	941.333333333333	1	692.9	0.9	893.888888888889	1	579.5	13	639988	2	639976	27	40	640015	-999999	639991	0	1	TRSyncPROC	""	1	2	1	SessionSelectionList	116	19403	-999999	0	39	332301	-999999	0																																																	1	InitialTR	3	2	ReadyList	1	2	14	348481	-15	350466	0	2
WM080112	133982_fnca	1	1	1	-202656962	1	75.031	75.031	2.0.10.147	2.0.10.242	2.0.10.242	1.0.0.439	7	234	2	3	Verdana	1	80	0	0	0	WM Stimuli\	0.5	961.8	0.8	1039.5	0.8	878.75	0.9	983.555555555556	0.9	941.333333333333	1	692.9	0.9	893.888888888889	1	579.5	13	639988	2	639976	27	40	640015	-999999	639991	0	1	TRSyncPROC	""	1	2	1	SessionSelectionList	116	19403	-999999	0	39	332301	-999999	0																																																	1	InitialTR	2	3	ReadyList	1	3	13	350480	-14	352466	0	3
WM080112	133982_fnca	1	1	1	-202656962	1	75.031	75.031	2.0.10.147	2.0.10.242	2.0.10.242	1.0.0.439	7	234	2	3	Verdana	1	80	0	0	0	WM Stimuli\	0.5	961.8	0.8	1039.5	0.8	878.75	0.9	983.555555555556	0.9	941.333333333333	1	692.9	0.9	893.888888888889	1	579.5	13	639988	2	639976	27	40	640015	-999999	639991	0	1	TRSyncPROC	""	1	2	1	SessionSelectionList	116	19403	-999999	0	39	332301	-999999	0																																																	1	InitialTR	1	4	ReadyList	1	4	12	352479	-13	354466	0	4
WM080112	133982_fnca	1	1	1	-202656962	1	75.031	75.031	2.0.10.147	2.0.10.242	2.0.10.242	1.0.0.439	7	234	2	3	Verdana	1	80	0	0	0	WM Stimuli\	0.5	961.8	0.8	1039.5	0.8	878.75	0.9	983.555555555556	0.9	941.333333333333	1	692.9	0.9	893.888888888889	1	579.5	13	639988	2	639976	27	40	640015	-999999	639991	0	2	Cue2BackPROC	""	1	2	2	SessionSelectionList									12	354479	-13	0																																													2												
WM080112	133982_fnca	1	1	1	-202656962	1	75.031	75.031	2.0.10.147	2.0.10.242	2.0.10.242	1.0.0.439	7	234	2	3	Verdana	1	80	0	0	0	WM Stimuli\	0.5	961.8	0.8	1039.5	0.8	878.75	0.9	983.555555555556	0.9	941.333333333333	1	692.9	0.9	893.888888888889	1	579.5	13	639988	2	639976	27	40	640015	-999999	639991	0	3	TrialsPROC	BP_002_BP10_BA.png	1	2	3	SessionSelectionList													1	nonlure	3	Body	2-Back	2	80	0	0	1	0	0	52	359103	3	14	84	357051	-1	0	0	0	""	3	2052	66	359117	-67	0																3												
WM080112	133982_fnca	1	1	1	-202656962	1	75.031	75.031	2.0.10.147	2.0.10.242	2.0.10.242	1.0.0.439	7	234	2	3	Verdana	1	80	0	0	0	WM Stimuli\	0.5	961.8	0.8	1039.5	0.8	878.75	0.9	983.555555555556	0.9	941.333333333333	1	692.9	0.9	893.888888888889	1	579.5	13	639988	2	639976	27	40	640015	-999999	639991	0	3	TrialsPROC	BP_001_BP1_BA.png	1	2	4	SessionSelectionList													2	nonlure	3	Body	2-Back	3	80	1	0	0	0	1	39	361662	2	14	72	359623	-1	360511	1	888	3	3	2039	53	361676	-54	0																4												
WM080112	133982_fnca	1	1	1	-202656962	1	75.031	75.031	2.0.10.147	2.0.10.242	2.0.10.242	1.0.0.439	7	234	2	3	Verdana	1	80	0	0	0	WM Stimuli\	0.5	961.8	0.8	1039.5	0.8	878.75	0.9	983.555555555556	0.9	941.333333333333	1	692.9	0.9	893.888888888889	1	579.5	13	639988	2	639976	27	40	640015	-999999	639991	0	3	TrialsPROC	BP_006_BP2_BA.png	1	2	5	SessionSelectionList													3	nonlure	3	Body	2-Back	4	80	2	0	0	0	1	39	364221	2	14	59	362182	-1	363553	0	1371	2	3	2039	53	364235	-54	0																5												
WM080112	133982_fnca	1	1	1	-202656962	1	75.031	75.031	2.0.10.147	2.0.10.242	2.0.10.242	1.0.0.439	7	234	2	3	Verdana	1	80	0	0	0	WM Stimuli\	0.5	961.8	0.8	1039.5	0.8	878.75	0.9	983.555555555556	0.9	941.333333333333	1	692.9	0.9	893.888888888889	1	579.5	13	639988	2	639976	27	40	640015	-999999	639991	0	3	TrialsPROC	BP_001_BP1_BA.png	1	2	6	SessionSelectionList													4	target	2	Body	2-Back	5	80	3	0	0	0	2	40	366794	2	13	72	364754	-1	366340	1	1586	2	2	2040	53	366807	-54	0																6												
WM080112	133982_fnca	1	1	1	-202656962	1	75.031	75.031	2.0.10.147	2.0.10.242	2.0.10.242	1.0.0.439	7	234	2	3	Verdana	1	80	0	0	0	WM Stimuli\	0.5	961.8	0.8	1039.5	0.8	878.75	0.9	983.555555555556	0.9	941.333333333333	1	692.9	0.9	893.888888888889	1	579.5	13	639988	2	639976	27	40	640015	-999999	639991	0	3	TrialsPROC	BP_005_BP19_BA.png	1	2	7	SessionSelectionList													5	nonlure	3	Body	2-Back	6	80	4	0	0	0	1	39	369366	2	13	73	367327	-1	368144	1	817	3	3	2039	52	369379	-53	0																7												
WM080112	133982_fnca	1	1	1	-202656962	1	75.031	75.031	2.0.10.147	2.0.10.242	2.0.10.242	1.0.0.439	7	234	2	3	Verdana	1	80	0	0	0	WM Stimuli\	0.5	961.8	0.8	1039.5	0.8	878.75	0.9	983.555555555556	0.9	941.333333333333	1	692.9	0.9	893.888888888889	1	579.5	13	639988	2	639976	27	40	640015	-999999	639991	0	3	TrialsPROC	BP_003_BP16_BA.png	1	2	8	SessionSelectionList													6	nonlure	3	Body	2-Back	7	80	5	0	0	0	2	39	371925	2	13	59	369886	-1	370733	1	847	3	3	2039	52	371938	-53	0																8												
WM080112	133982_fnca	1	1	1	-202656962	1	75.031	75.031	2.0.10.147	2.0.10.242	2.0.10.242	1.0.0.439	7	234	2	3	Verdana	1	80	0	0	0	WM Stimuli\	0.5	961.8	0.8	1039.5	0.8	878.75	0.9	983.555555555556	0.9	941.333333333333	1	692.9	0.9	893.888888888889	1	579.5	13	639988	2	639976	27	40	640015	-999999	639991	0	3	TrialsPROC	BP_006_BP2_BA.png	1	2	9	SessionSelectionList													7	lure	3	Body	2-Back	8	80	6	0	0	0	1	39	374484	2	13	59	372445	-1	373262	0	817	2	3	2039	52	374497	-53	0																9												
WM080112	133982_fnca	1	1	1	-202656962	1	75.031	75.031	2.0.10.147	2.0.10.242	2.0.10.242	1.0.0.439	7	234	2	3	Verdana	1	80	0	0	0	WM Stimuli\	0.5	961.8	0.8	1039.5	0.8	878.75	0.9	983.555555555556	0.9	941.333333333333	1	692.9	0.9	893.888888888889	1	579.5	13	639988	2	639976	27	40	640015	-999999	639991	0	3	TrialsPROC	BP_004_BP18_BA.png	1	2	10	SessionSelectionList													8	nonlure	3	Body	2-Back	9	80	7	0	0	0	1	39	377043	1	13	59	375004	-1	375675	1	671	3	3	2039	52	377056	-53	0																10												
WM080112	133982_fnca	1	1	1	-202656962	1	75.031	75.031	2.0.10.147	2.0.10.242	2.0.10.242	1.0.0.439	7	234	2	3	Verdana	1	80	0	0	0	WM Stimuli\	0.5	961.8	0.8	1039.5	0.8	878.75	0.9	983.555555555556	0.9	941.333333333333	1	692.9	0.9	893.888888888889	1	579.5	13	639988	2	639976	27	40	640015	-999999	639991	0	3	TrialsPROC	BP_005_BP19_BA.png	1	2	11	SessionSelectionList													9	lure	3	Body	2-Back	10	80	8	0	0	0	1	39	379602	1	13	59	377563	-1	378454	0	891	2	3	2039	52	379615	-53	0																11												
WM080112	133982_fnca	1	1	1	-202656962	1	75.031	75.031	2.0.10.147	2.0.10.242	2.0.10.242	1.0.0.439	7	234	2	3	Verdana	1	80	0	0	0	WM Stimuli\	0.5	961.8	0.8	1039.5	0.8	878.75	0.9	983.555555555556	0.9	941.333333333333	1	692.9	0.9	893.888888888889	1	579.5	13	639988	2	639976	27	40	640015	-999999	639991	0	3	TrialsPROC	BP_004_BP18_BA.png	1	2	12	SessionSelectionList													10	target	2	Body	2-Back	11	80	9	0	0	0	1	40	382161	2	13	58	380121	-1	381039	0	918	3	2	2040	53	382174	-54	0																12												
WM080112	133982_fnca	1	1	1	-202656962	1	75.031	75.031	2.0.10.147	2.0.10.242	2.0.10.242	1.0.0.439	7	234	2	3	Verdana	1	80	0	0	0	WM Stimuli\	0.5	961.8	0.8	1039.5	0.8	878.75	0.9	983.555555555556	0.9	941.333333333333	1	692.9	0.9	893.888888888889	1	579.5	13	639988	2	639976	27	40	640015	-999999	639991	0	4	Cue0BackPROC	FC_001_M1.png	1	2	13	SessionSelectionList																																										19	382640	-20	0												13												
WM080112	133982_fnca	1	1	1	-202656962	1	75.031	75.031	2.0.10.147	2.0.10.242	2.0.10.242	1.0.0.439	7	234	2	3	Verdana	1	80	0	0	0	WM Stimuli\	0.5	961.8	0.8	1039.5	0.8	878.75	0.9	983.555555555556	0.9	941.333333333333	1	692.9	0.9	893.888888888889	1	579.5	13	639988	2	639976	27	40	640015	-999999	639991	0	5	TrialsPROC	FC_005_M3.png	1	2	14	SessionSelectionList														nonlure	3	Face	0-Back	12	80	10	0	0	100	2	39	387225	3	14	65	385186	-1	385994	1	808	3	3	2039	53	387239	-54	0					1											14												
WM080112	133982_fnca	1	1	1	-202656962	1	75.031	75.031	2.0.10.147	2.0.10.242	2.0.10.242	1.0.0.439	7	234	2	3	Verdana	1	80	0	0	0	WM Stimuli\	0.5	961.8	0.8	1039.5	0.8	878.75	0.9	983.555555555556	0.9	941.333333333333	1	692.9	0.9	893.888888888889	1	579.5	13	639988	2	639976	27	40	640015	-999999	639991	0	5	TrialsPROC	FC_001_M1.png	1	2	15	SessionSelectionList														target	2	Face	0-Back	13	80	11	0	0	100	1	39	389797	2	14	72	387758	-1	388583	1	825	2	2	2039	53	389811	-54	0					2											15												
WM080112	133982_fnca	1	1	1	-202656962	1	75.031	75.031	2.0.10.147	2.0.10.242	2.0.10.242	1.0.0.439	7	234	2	3	Verdana	1	80	0	0	0	WM Stimuli\	0.5	961.8	0.8	1039.5	0.8	878.75	0.9	983.555555555556	0.9	941.333333333333	1	692.9	0.9	893.888888888889	1	579.5	13	639988	2	639976	27	40	640015	-999999	639991	0	5	TrialsPROC	FC_003_M2.png	1	2	16	SessionSelectionList														nonlure	3	Face	0-Back	14	80	12	0	0	100	1	39	392370	2	13	73	390331	-1	391416	1	1085	3	3	2039	52	392383	-53	0					3											16												
WM080112	133982_fnca	1	1	1	-202656962	1	75.031	75.031	2.0.10.147	2.0.10.242	2.0.10.242	1.0.0.439	7	234	2	3	Verdana	1	80	0	0	0	WM Stimuli\	0.5	961.8	0.8	1039.5	0.8	878.75	0.9	983.555555555556	0.9	941.333333333333	1	692.9	0.9	893.888888888889	1	579.5	13	639988	2	639976	27	40	640015	-999999	639991	0	5	TrialsPROC	FC_004_F2.png	1	2	17	SessionSelectionList														nonlure	3	Face	0-Back	15	80	13	0	0	100	2	39	394942	1	13	72	392903	-1	394472	1	1569	3	3	2039	52	394955	-53	0					4											17												
WM080112	133982_fnca	1	1	1	-202656962	1	75.031	75.031	2.0.10.147	2.0.10.242	2.0.10.242	1.0.0.439	7	234	2	3	Verdana	1	80	0	0	0	WM Stimuli\	0.5	961.8	0.8	1039.5	0.8	878.75	0.9	983.555555555556	0.9	941.333333333333	1	692.9	0.9	893.888888888889	1	579.5	13	639988	2	639976	27	40	640015	-999999	639991	0	5	TrialsPROC	FC_004_F2.png	1	2	18	SessionSelectionList														lure	3	Face	0-Back	16	80	13	0	1	80	2	39	397514	2	14	72	395475	-1	0	0	0	""	3	2039	53	397528	-54	0					5											18												
WM080112	133982_fnca	1	1	1	-202656962	1	75.031	75.031	2.0.10.147	2.0.10.242	2.0.10.242	1.0.0.439	7	234	2	3	Verdana	1	80	0	0	0	WM Stimuli\	0.5	961.8	0.8	1039.5	0.8	878.75	0.9	983.555555555556	0.9	941.333333333333	1	692.9	0.9	893.888888888889	1	579.5	13	639988	2	639976	27	40	640015	-999999	639991	0	5	TrialsPROC	FC_001_M1.png	1	2	19	SessionSelectionList														target	2	Face	0-Back	17	80	14	0	0	83	1	40	400087	2	13	72	398047	-1	399333	1	1286	2	2	2040	53	400100	-54	0					6											19												
WM080112	133982_fnca	1	1	1	-202656962	1	75.031	75.031	2.0.10.147	2.0.10.242	2.0.10.242	1.0.0.439	7	234	2	3	Verdana	1	80	0	0	0	WM Stimuli\	0.5	961.8	0.8	1039.5	0.8	878.75	0.9	983.555555555556	0.9	941.333333333333	1	692.9	0.9	893.888888888889	1	579.5	13	639988	2	639976	27	40	640015	-999999	639991	0	5	TrialsPROC	FC_006_F3.png	1	2	20	SessionSelectionList														nonlure	3	Face	0-Back	18	80	15	0	0	86	1	39	402659	1	13	73	400620	-1	401562	1	942	3	3	2039	52	402672	-53	0					7											20												
WM080112	133982_fnca	1	1	1	-202656962	1	75.031	75.031	2.0.10.147	2.0.10.242	2.0.10.242	1.0.0.439	7	234	2	3	Verdana	1	80	0	0	0	WM Stimuli\	0.5	961.8	0.8	1039.5	0.8	878.75	0.9	983.555555555556	0.9	941.333333333333	1	692.9	0.9	893.888888888889	1	579.5	13	639988	2	639976	27	40	640015	-999999	639991	0	5	TrialsPROC	FC_006_F3.png	1	2	21	SessionSelectionList														lure	3	Face	0-Back	19	80	16	0	0	88	2	39	405231	2	14	72	403192	-1	403794	1	602	3	3	2039	53	405245	-54	0					8											21												
WM080112	133982_fnca	1	1	1	-202656962	1	75.031	75.031	2.0.10.147	2.0.10.242	2.0.10.242	1.0.0.439	7	234	2	3	Verdana	1	80	0	0	0	WM Stimuli\	0.5	961.8	0.8	1039.5	0.8	878.75	0.9	983.555555555556	0.9	941.333333333333	1	692.9	0.9	893.888888888889	1	579.5	13	639988	2	639976	27	40	640015	-999999	639991	0	5	TrialsPROC	FC_003_M2.png	1	2	22	SessionSelectionList														lure	3	Face	0-Back	20	80	17	0	0	89	3	39	407803	2	14	72	405764	-1	406795	1	1031	3	3	2039	53	407817	-54	0					9											22												
WM080112	133982_fnca	1	1	1	-202656962	1	75.031	75.031	2.0.10.147	2.0.10.242	2.0.10.242	1.0.0.439	7	234	2	3	Verdana	1	80	0	0	0	WM Stimuli\	0.5	961.8	0.8	1039.5	0.8	878.75	0.9	983.555555555556	0.9	941.333333333333	1	692.9	0.9	893.888888888889	1	579.5	13	639988	2	639976	27	40	640015	-999999	639991	0	5	TrialsPROC	FC_002_F1.png	1	2	23	SessionSelectionList														nonlure	3	Face	0-Back	21	80	18	0	0	90	4	39	410376	2	13	73	408337	-1	409041	1	704	3	3	2039	52	410389	-53	0					10											23												
WM080112	133982_fnca	1	1	1	-202656962	1	75.031	75.031	2.0.10.147	2.0.10.242	2.0.10.242	1.0.0.439	7	234	2	3	Verdana	1	80	0	0	0	WM Stimuli\	0.5	961.8	0.8	1039.5	0.8	878.75	0.9	983.555555555556	0.9	941.333333333333	1	692.9	0.9	893.888888888889	1	579.5	13	639988	2	639976	27	40	640015	-999999	639991	0	6	Fix15secPROC	""	1	2	24	SessionSelectionList																																															5	410842	-6	0							24												
WM080112	133982_fnca	1	1	1	-202656962	1	75.031	75.031	2.0.10.147	2.0.10.242	2.0.10.242	1.0.0.439	7	234	2	3	Verdana	1	80	0	0	0	WM Stimuli\	0.5	961.8	0.8	1039.5	0.8	878.75	0.9	983.555555555556	0.9	941.333333333333	1	692.9	0.9	893.888888888889	1	579.5	13	639988	2	639976	27	40	640015	-999999	639991	0	7	Cue2BackPROC	""	1	2	25	SessionSelectionList									12	425849	-13	0																																													25												
WM080112	133982_fnca	1	1	1	-202656962	1	75.031	75.031	2.0.10.147	2.0.10.242	2.0.10.242	1.0.0.439	7	234	2	3	Verdana	1	80	0	0	0	WM Stimuli\	0.5	961.8	0.8	1039.5	0.8	878.75	0.9	983.555555555556	0.9	941.333333333333	1	692.9	0.9	893.888888888889	1	579.5	13	639988	2	639976	27	40	640015	-999999	639991	0	8	TrialsPROC	TO_001_TOOL1_BA.png	1	2	26	SessionSelectionList														nonlure	3	Tools	2-Back	22	80	19	0	0	90	5	39	430434	3	14	58	428395	-1	429616	1	1221	3	3	2039	53	430448	-54	0										1						26												
WM080112	133982_fnca	1	1	1	-202656962	1	75.031	75.031	2.0.10.147	2.0.10.242	2.0.10.242	1.0.0.439	7	234	2	3	Verdana	1	80	0	0	0	WM Stimuli\	0.5	961.8	0.8	1039.5	0.8	878.75	0.9	983.555555555556	0.9	941.333333333333	1	692.9	0.9	893.888888888889	1	579.5	13	639988	2	639976	27	40	640015	-999999	639991	0	8	TrialsPROC	TO_002_TOOL2_BA.png	1	2	27	SessionSelectionList														nonlure	3	Tools	2-Back	23	80	20	0	0	90	6	39	432993	2	14	59	430954	-1	431844	1	890	3	3	2039	53	433007	-54	0										2						27												
WM080112	133982_fnca	1	1	1	-202656962	1	75.031	75.031	2.0.10.147	2.0.10.242	2.0.10.242	1.0.0.439	7	234	2	3	Verdana	1	80	0	0	0	WM Stimuli\	0.5	961.8	0.8	1039.5	0.8	878.75	0.9	983.555555555556	0.9	941.333333333333	1	692.9	0.9	893.888888888889	1	579.5	13	639988	2	639976	27	40	640015	-999999	639991	0	8	TrialsPROC	TO_004_TOOL4_BA.png	1	2	28	SessionSelectionList														nonlure	3	Tools	2-Back	24	80	21	0	0	90	7	39	435552	3	13	59	433513	-1	434377	1	864	3	3	2039	52	435565	-53	0										3						28												
WM080112	133982_fnca	1	1	1	-202656962	1	75.031	75.031	2.0.10.147	2.0.10.242	2.0.10.242	1.0.0.439	7	234	2	3	Verdana	1	80	0	0	0	WM Stimuli\	0.5	961.8	0.8	1039.5	0.8	878.75	0.9	983.555555555556	0.9	941.333333333333	1	692.9	0.9	893.888888888889	1	579.5	13	639988	2	639976	27	40	640015	-999999	639991	0	8	TrialsPROC	TO_002_TOOL2_BA.png	1	2	29	SessionSelectionList														target	2	Tools	2-Back	25	80	22	0	0	90	1	39	438111	1	13	59	436072	-1	436819	1	747	2	2	2039	52	438124	-53	0										4						29												
WM080112	133982_fnca	1	1	1	-202656962	1	75.031	75.031	2.0.10.147	2.0.10.242	2.0.10.242	1.0.0.439	7	234	2	3	Verdana	1	80	0	0	0	WM Stimuli\	0.5	961.8	0.8	1039.5	0.8	878.75	0.9	983.555555555556	0.9	941.333333333333	1	692.9	0.9	893.888888888889	1	579.5	13	639988	2	639976	27	40	640015	-999999	639991	0	8	TrialsPROC	TO_001_TOOL1_BA.png	1	2	30	SessionSelectionList														lure	3	Tools	2-Back	26	80	23	0	0	90	1	39	440670	1	13	59	438631	-1	439234	1	603	3	3	2039	52	440683	-53	0										5						30												
WM080112	133982_fnca	1	1	1	-202656962	1	75.031	75.031	2.0.10.147	2.0.10.242	2.0.10.242	1.0.0.439	7	234	2	3	Verdana	1	80	0	0	0	WM Stimuli\	0.5	961.8	0.8	1039.5	0.8	878.75	0.9	983.555555555556	0.9	941.333333333333	1	692.9	0.9	893.888888888889	1	579.5	13	639988	2	639976	27	40	640015	-999999	639991	0	8	TrialsPROC	TO_004_TOOL4_BA.png	1	2	31	SessionSelectionList														lure	3	Tools	2-Back	27	80	24	0	0	90	1	39	443229	1	13	59	441190	-1	442149	0	959	2	3	2039	52	443242	-53	0										6						31												
WM080112	133982_fnca	1	1	1	-202656962	1	75.031	75.031	2.0.10.147	2.0.10.242	2.0.10.242	1.0.0.439	7	234	2	3	Verdana	1	80	0	0	0	WM Stimuli\	0.5	961.8	0.8	1039.5	0.8	878.75	0.9	983.555555555556	0.9	941.333333333333	1	692.9	0.9	893.888888888889	1	579.5	13	639988	2	639976	27	40	640015	-999999	639991	0	8	TrialsPROC	TO_006_TOOL6_BA.png	1	2	32	SessionSelectionList														nonlure	3	Tools	2-Back	28	80	25	0	0	90	1	39	445788	2	13	59	443749	-1	444892	1	1143	3	3	2039	52	445801	-53	0										7						32												
WM080112	133982_fnca	1	1	1	-202656962	1	75.031	75.031	2.0.10.147	2.0.10.242	2.0.10.242	1.0.0.439	7	234	2	3	Verdana	1	80	0	0	0	WM Stimuli\	0.5	961.8	0.8	1039.5	0.8	878.75	0.9	983.555555555556	0.9	941.333333333333	1	692.9	0.9	893.888888888889	1	579.5	13	639988	2	639976	27	40	640015	-999999	639991	0	8	TrialsPROC	TO_005_TOOL5_BA.png	1	2	33	SessionSelectionList														nonlure	3	Tools	2-Back	29	80	26	0	0	90	2	39	448347	1	13	59	446308	-1	447216	1	908	3	3	2039	52	448360	-53	0										8						33												
WM080112	133982_fnca	1	1	1	-202656962	1	75.031	75.031	2.0.10.147	2.0.10.242	2.0.10.242	1.0.0.439	7	234	2	3	Verdana	1	80	0	0	0	WM Stimuli\	0.5	961.8	0.8	1039.5	0.8	878.75	0.9	983.555555555556	0.9	941.333333333333	1	692.9	0.9	893.888888888889	1	579.5	13	639988	2	639976	27	40	640015	-999999	639991	0	8	TrialsPROC	TO_006_TOOL6_BA.png	1	2	34	SessionSelectionList														target	2	Tools	2-Back	30	80	27	0	0	90	1	39	450906	2	13	59	448867	-1	449636	1	769	2	2	2039	52	450919	-53	0										9						34												
WM080112	133982_fnca	1	1	1	-202656962	1	75.031	75.031	2.0.10.147	2.0.10.242	2.0.10.242	1.0.0.439	7	234	2	3	Verdana	1	80	0	0	0	WM Stimuli\	0.5	961.8	0.8	1039.5	0.8	878.75	0.9	983.555555555556	0.9	941.333333333333	1	692.9	0.9	893.888888888889	1	579.5	13	639988	2	639976	27	40	640015	-999999	639991	0	8	TrialsPROC	TO_003_TOOL3_BA.png	1	2	35	SessionSelectionList														nonlure	3	Tools	2-Back	31	80	28	0	0	90	1	39	453465	2	13	59	451426	-1	452326	1	900	3	3	2039	52	453478	-53	0										10						35												
WM080112	133982_fnca	1	1	1	-202656962	1	75.031	75.031	2.0.10.147	2.0.10.242	2.0.10.242	1.0.0.439	7	234	2	3	Verdana	1	80	0	0	0	WM Stimuli\	0.5	961.8	0.8	1039.5	0.8	878.75	0.9	983.555555555556	0.9	941.333333333333	1	692.9	0.9	893.888888888889	1	579.5	13	639988	2	639976	27	40	640015	-999999	639991	0	9	Cue0BackPROC	BP_007_BP20_BA.png	1	2	36	SessionSelectionList																																										18	453944	-19	0												36												
WM080112	133982_fnca	1	1	1	-202656962	1	75.031	75.031	2.0.10.147	2.0.10.242	2.0.10.242	1.0.0.439	7	234	2	3	Verdana	1	80	0	0	0	WM Stimuli\	0.5	961.8	0.8	1039.5	0.8	878.75	0.9	983.555555555556	0.9	941.333333333333	1	692.9	0.9	893.888888888889	1	579.5	13	639988	2	639976	27	40	640015	-999999	639991	0	10	TrialsPROC	BP_007_BP20_BA.png	1	2	37	SessionSelectionList														target	2	Body	0-Back	32	80	29	0	0	91	1	39	458516	1	13	51	456477	-1	458144	1	1667	2	2	2039	52	458529	-53	0											1					37												
WM080112	133982_fnca	1	1	1	-202656962	1	75.031	75.031	2.0.10.147	2.0.10.242	2.0.10.242	1.0.0.439	7	234	2	3	Verdana	1	80	0	0	0	WM Stimuli\	0.5	961.8	0.8	1039.5	0.8	878.75	0.9	983.555555555556	0.9	941.333333333333	1	692.9	0.9	893.888888888889	1	579.5	13	639988	2	639976	27	40	640015	-999999	639991	0	10	TrialsPROC	BP_011_BP4_BA.png	1	2	38	SessionSelectionList														nonlure	3	Body	0-Back	33	80	30	0	0	92	1	39	461088	3	14	72	459049	-1	460078	1	1029	3	3	2039	53	461102	-54	0											2					38												
WM080112	133982_fnca	1	1	1	-202656962	1	75.031	75.031	2.0.10.147	2.0.10.242	2.0.10.242	1.0.0.439	7	234	2	3	Verdana	1	80	0	0	0	WM Stimuli\	0.5	961.8	0.8	1039.5	0.8	878.75	0.9	983.555555555556	0.9	941.333333333333	1	692.9	0.9	893.888888888889	1	579.5	13	639988	2	639976	27	40	640015	-999999	639991	0	10	TrialsPROC	BP_010_BP3_BA.png	1	2	39	SessionSelectionList														nonlure	3	Body	0-Back	34	80	31	0	0	92	2	39	463647	2	14	59	461608	-1	462391	1	783	3	3	2039	53	463661	-54	0											3					39												
WM080112	133982_fnca	1	1	1	-202656962	1	75.031	75.031	2.0.10.147	2.0.10.242	2.0.10.242	1.0.0.439	7	234	2	3	Verdana	1	80	0	0	0	WM Stimuli\	0.5	961.8	0.8	1039.5	0.8	878.75	0.9	983.555555555556	0.9	941.333333333333	1	692.9	0.9	893.888888888889	1	579.5	13	639988	2	639976	27	40	640015	-999999	639991	0	10	TrialsPROC	BP_008_BP21_BA.png	1	2	40	SessionSelectionList														nonlure	3	Body	0-Back	35	80	32	0	0	93	3	39	466206	3	14	59	464167	-1	465069	1	902	3	3	2039	53	466220	-54	0											4					40												
WM080112	133982_fnca	1	1	1	-202656962	1	75.031	75.031	2.0.10.147	2.0.10.242	2.0.10.242	1.0.0.439	7	234	2	3	Verdana	1	80	0	0	0	WM Stimuli\	0.5	961.8	0.8	1039.5	0.8	878.75	0.9	983.555555555556	0.9	941.333333333333	1	692.9	0.9	893.888888888889	1	579.5	13	639988	2	639976	27	40	640015	-999999	639991	0	10	TrialsPROC	BP_011_BP4_BA.png	1	2	41	SessionSelectionList														lure	3	Body	0-Back	36	80	33	0	0	93	4	39	468778	2	14	72	466739	-1	467750	1	1011	3	3	2039	53	468792	-54	0											5					41												
WM080112	133982_fnca	1	1	1	-202656962	1	75.031	75.031	2.0.10.147	2.0.10.242	2.0.10.242	1.0.0.439	7	234	2	3	Verdana	1	80	0	0	0	WM Stimuli\	0.5	961.8	0.8	1039.5	0.8	878.75	0.9	983.555555555556	0.9	941.333333333333	1	692.9	0.9	893.888888888889	1	579.5	13	639988	2	639976	27	40	640015	-999999	639991	0	10	TrialsPROC	BP_009_BP22_BA.png	1	2	42	SessionSelectionList														nonlure	3	Body	0-Back	37	80	34	0	0	94	5	39	471337	3	14	59	469298	-1	470215	1	917	3	3	2039	53	471351	-54	0											6					42												
WM080112	133982_fnca	1	1	1	-202656962	1	75.031	75.031	2.0.10.147	2.0.10.242	2.0.10.242	1.0.0.439	7	234	2	3	Verdana	1	80	0	0	0	WM Stimuli\	0.5	961.8	0.8	1039.5	0.8	878.75	0.9	983.555555555556	0.9	941.333333333333	1	692.9	0.9	893.888888888889	1	579.5	13	639988	2	639976	27	40	640015	-999999	639991	0	10	TrialsPROC	BP_009_BP22_BA.png	1	2	43	SessionSelectionList														lure	3	Body	0-Back	38	80	35	0	0	94	6	39	473896	2	14	59	471857	-1	473011	1	1154	3	3	2039	53	473910	-54	0											7					43												
WM080112	133982_fnca	1	1	1	-202656962	1	75.031	75.031	2.0.10.147	2.0.10.242	2.0.10.242	1.0.0.439	7	234	2	3	Verdana	1	80	0	0	0	WM Stimuli\	0.5	961.8	0.8	1039.5	0.8	878.75	0.9	983.555555555556	0.9	941.333333333333	1	692.9	0.9	893.888888888889	1	579.5	13	639988	2	639976	27	40	640015	-999999	639991	0	10	TrialsPROC	BP_008_BP21_BA.png	1	2	44	SessionSelectionList														lure	3	Body	0-Back	39	80	36	0	0	89	1	39	476455	2	14	59	474416	-1	475147	0	731	2	3	2039	53	476469	-54	0											8					44												
WM080112	133982_fnca	1	1	1	-202656962	1	75.031	75.031	2.0.10.147	2.0.10.242	2.0.10.242	1.0.0.439	7	234	2	3	Verdana	1	80	0	0	0	WM Stimuli\	0.5	961.8	0.8	1039.5	0.8	878.75	0.9	983.555555555556	0.9	941.333333333333	1	692.9	0.9	893.888888888889	1	579.5	13	639988	2	639976	27	40	640015	-999999	639991	0	10	TrialsPROC	BP_007_BP20_BA.png	1	2	45	SessionSelectionList														target	2	Body	0-Back	40	80	37	0	0	84	1	39	479014	2	14	59	476975	-1	477840	0	865	3	2	2039	53	479028	-54	0											9					45												
WM080112	133982_fnca	1	1	1	-202656962	1	75.031	75.031	2.0.10.147	2.0.10.242	2.0.10.242	1.0.0.439	7	234	2	3	Verdana	1	80	0	0	0	WM Stimuli\	0.5	961.8	0.8	1039.5	0.8	878.75	0.9	983.555555555556	0.9	941.333333333333	1	692.9	0.9	893.888888888889	1	579.5	13	639988	2	639976	27	40	640015	-999999	639991	0	10	TrialsPROC	BP_012_BP5_BA.png	1	2	46	SessionSelectionList														nonlure	3	Body	0-Back	41	80	38	0	0	85	2	39	481586	3	14	72	479547	-1	480400	1	853	3	3	2039	53	481600	-54	0											10					46												
WM080112	133982_fnca	1	1	1	-202656962	1	75.031	75.031	2.0.10.147	2.0.10.242	2.0.10.242	1.0.0.439	7	234	2	3	Verdana	1	80	0	0	0	WM Stimuli\	0.5	961.8	0.8	1039.5	0.8	878.75	0.9	983.555555555556	0.9	941.333333333333	1	692.9	0.9	893.888888888889	1	579.5	13	639988	2	639976	27	40	640015	-999999	639991	0	11	Fix15secPROC	""	1	2	47	SessionSelectionList																																															6	482053	-7	0							47												
WM080112	133982_fnca	1	1	1	-202656962	1	75.031	75.031	2.0.10.147	2.0.10.242	2.0.10.242	1.0.0.439	7	234	2	3	Verdana	1	80	0	0	0	WM Stimuli\	0.5	961.8	0.8	1039.5	0.8	878.75	0.9	983.555555555556	0.9	941.333333333333	1	692.9	0.9	893.888888888889	1	579.5	13	639988	2	639976	27	40	640015	-999999	639991	0	12	Cue0BackPROC	PL_001_92012.png	1	2	48	SessionSelectionList																																										13	497060	-14	0												48												
WM080112	133982_fnca	1	1	1	-202656962	1	75.031	75.031	2.0.10.147	2.0.10.242	2.0.10.242	1.0.0.439	7	234	2	3	Verdana	1	80	0	0	0	WM Stimuli\	0.5	961.8	0.8	1039.5	0.8	878.75	0.9	983.555555555556	0.9	941.333333333333	1	692.9	0.9	893.888888888889	1	579.5	13	639988	2	639976	27	40	640015	-999999	639991	0	13	TrialsPROC	PL_003_92016.png	1	2	49	SessionSelectionList														nonlure	3	Place	0-Back	42	80	39	0	0	86	3	39	501658	3	14	72	499619	-1	500468	1	849	3	3	2039	53	501672	-54	0												1				49												
WM080112	133982_fnca	1	1	1	-202656962	1	75.031	75.031	2.0.10.147	2.0.10.242	2.0.10.242	1.0.0.439	7	234	2	3	Verdana	1	80	0	0	0	WM Stimuli\	0.5	961.8	0.8	1039.5	0.8	878.75	0.9	983.555555555556	0.9	941.333333333333	1	692.9	0.9	893.888888888889	1	579.5	13	639988	2	639976	27	40	640015	-999999	639991	0	13	TrialsPROC	PL_003_92016.png	1	2	50	SessionSelectionList														lure	3	Place	0-Back	43	80	40	0	0	86	4	40	504231	2	13	72	502191	-1	503172	1	981	3	3	2040	53	504244	-54	0												2				50												
WM080112	133982_fnca	1	1	1	-202656962	1	75.031	75.031	2.0.10.147	2.0.10.242	2.0.10.242	1.0.0.439	7	234	2	3	Verdana	1	80	0	0	0	WM Stimuli\	0.5	961.8	0.8	1039.5	0.8	878.75	0.9	983.555555555556	0.9	941.333333333333	1	692.9	0.9	893.888888888889	1	579.5	13	639988	2	639976	27	40	640015	-999999	639991	0	13	TrialsPROC	PL_006_92025.png	1	2	51	SessionSelectionList														nonlure	3	Place	0-Back	44	80	41	0	0	87	5	39	506803	2	13	73	504764	-1	505578	1	814	3	3	2039	52	506816	-53	0												3				51												
WM080112	133982_fnca	1	1	1	-202656962	1	75.031	75.031	2.0.10.147	2.0.10.242	2.0.10.242	1.0.0.439	7	234	2	3	Verdana	1	80	0	0	0	WM Stimuli\	0.5	961.8	0.8	1039.5	0.8	878.75	0.9	983.555555555556	0.9	941.333333333333	1	692.9	0.9	893.888888888889	1	579.5	13	639988	2	639976	27	40	640015	-999999	639991	0	13	TrialsPROC	PL_001_92012.png	1	2	52	SessionSelectionList														target	2	Place	0-Back	45	80	42	0	0	88	1	39	509375	1	14	72	507336	-1	507979	1	643	2	2	2039	53	509389	-54	0												4				52												
WM080112	133982_fnca	1	1	1	-202656962	1	75.031	75.031	2.0.10.147	2.0.10.242	2.0.10.242	1.0.0.439	7	234	2	3	Verdana	1	80	0	0	0	WM Stimuli\	0.5	961.8	0.8	1039.5	0.8	878.75	0.9	983.555555555556	0.9	941.333333333333	1	692.9	0.9	893.888888888889	1	579.5	13	639988	2	639976	27	40	640015	-999999	639991	0	13	TrialsPROC	PL_004_92023.png	1	2	53	SessionSelectionList														nonlure	3	Place	0-Back	46	80	43	0	0	88	1	39	511947	3	14	72	509908	-1	510464	1	556	3	3	2039	53	511961	-54	0												5				53												
WM080112	133982_fnca	1	1	1	-202656962	1	75.031	75.031	2.0.10.147	2.0.10.242	2.0.10.242	1.0.0.439	7	234	2	3	Verdana	1	80	0	0	0	WM Stimuli\	0.5	961.8	0.8	1039.5	0.8	878.75	0.9	983.555555555556	0.9	941.333333333333	1	692.9	0.9	893.888888888889	1	579.5	13	639988	2	639976	27	40	640015	-999999	639991	0	13	TrialsPROC	PL_005_92024.png	1	2	54	SessionSelectionList														nonlure	3	Place	0-Back	47	80	44	0	0	88	2	40	514520	2	13	72	512480	-1	513050	1	570	3	3	2040	53	514533	-54	0												6				54												
WM080112	133982_fnca	1	1	1	-202656962	1	75.031	75.031	2.0.10.147	2.0.10.242	2.0.10.242	1.0.0.439	7	234	2	3	Verdana	1	80	0	0	0	WM Stimuli\	0.5	961.8	0.8	1039.5	0.8	878.75	0.9	983.555555555556	0.9	941.333333333333	1	692.9	0.9	893.888888888889	1	579.5	13	639988	2	639976	27	40	640015	-999999	639991	0	13	TrialsPROC	PL_001_92012.png	1	2	55	SessionSelectionList														target	2	Place	0-Back	48	80	45	0	0	89	1	39	517092	2	13	73	515053	-1	515620	1	567	2	2	2039	52	517105	-53	0												7				55												
WM080112	133982_fnca	1	1	1	-202656962	1	75.031	75.031	2.0.10.147	2.0.10.242	2.0.10.242	1.0.0.439	7	234	2	3	Verdana	1	80	0	0	0	WM Stimuli\	0.5	961.8	0.8	1039.5	0.8	878.75	0.9	983.555555555556	0.9	941.333333333333	1	692.9	0.9	893.888888888889	1	579.5	13	639988	2	639976	27	40	640015	-999999	639991	0	13	TrialsPROC	PL_002_92014.png	1	2	56	SessionSelectionList														nonlure	3	Place	0-Back	49	80	46	0	0	89	1	39	519664	3	14	72	517625	-1	518318	1	693	3	3	2039	53	519678	-54	0												8				56												
WM080112	133982_fnca	1	1	1	-202656962	1	75.031	75.031	2.0.10.147	2.0.10.242	2.0.10.242	1.0.0.439	7	234	2	3	Verdana	1	80	0	0	0	WM Stimuli\	0.5	961.8	0.8	1039.5	0.8	878.75	0.9	983.555555555556	0.9	941.333333333333	1	692.9	0.9	893.888888888889	1	579.5	13	639988	2	639976	27	40	640015	-999999	639991	0	13	TrialsPROC	PL_004_92023.png	1	2	57	SessionSelectionList														lure	3	Place	0-Back	50	80	47	0	0	90	2	39	522236	3	14	72	520197	-1	520825	1	628	3	3	2039	53	522250	-54	0												9				57												
WM080112	133982_fnca	1	1	1	-202656962	1	75.031	75.031	2.0.10.147	2.0.10.242	2.0.10.242	1.0.0.439	7	234	2	3	Verdana	1	80	0	0	0	WM Stimuli\	0.5	961.8	0.8	1039.5	0.8	878.75	0.9	983.555555555556	0.9	941.333333333333	1	692.9	0.9	893.888888888889	1	579.5	13	639988	2	639976	27	40	640015	-999999	639991	0	13	TrialsPROC	PL_006_92025.png	1	2	58	SessionSelectionList														lure	3	Place	0-Back	51	80	48	0	0	90	3	39	524809	1	13	73	522770	-1	523398	1	628	3	3	2039	52	524822	-53	0												10				58												
WM080112	133982_fnca	1	1	1	-202656962	1	75.031	75.031	2.0.10.147	2.0.10.242	2.0.10.242	1.0.0.439	7	234	2	3	Verdana	1	80	0	0	0	WM Stimuli\	0.5	961.8	0.8	1039.5	0.8	878.75	0.9	983.555555555556	0.9	941.333333333333	1	692.9	0.9	893.888888888889	1	579.5	13	639988	2	639976	27	40	640015	-999999	639991	0	14	Cue2BackPROC	""	1	2	59	SessionSelectionList									5	525275	-6	0																																													59												
WM080112	133982_fnca	1	1	1	-202656962	1	75.031	75.031	2.0.10.147	2.0.10.242	2.0.10.242	1.0.0.439	7	234	2	3	Verdana	1	80	0	0	0	WM Stimuli\	0.5	961.8	0.8	1039.5	0.8	878.75	0.9	983.555555555556	0.9	941.333333333333	1	692.9	0.9	893.888888888889	1	579.5	13	639988	2	639976	27	40	640015	-999999	639991	0	15	TrialsPROC	FC_010_F5.png	1	2	60	SessionSelectionList														nonlure	3	Face	2-Back	52	80	49	0	0	90	4	39	529873	2	14	64	527834	-1	529416	1	1582	3	3	2039	53	529887	-54	0													1			60												
WM080112	133982_fnca	1	1	1	-202656962	1	75.031	75.031	2.0.10.147	2.0.10.242	2.0.10.242	1.0.0.439	7	234	2	3	Verdana	1	80	0	0	0	WM Stimuli\	0.5	961.8	0.8	1039.5	0.8	878.75	0.9	983.555555555556	0.9	941.333333333333	1	692.9	0.9	893.888888888889	1	579.5	13	639988	2	639976	27	40	640015	-999999	639991	0	15	TrialsPROC	FC_012_F6.png	1	2	61	SessionSelectionList														nonlure	3	Face	2-Back	53	80	50	0	0	90	5	40	532446	1	13	72	530406	-1	530898	1	492	3	3	2040	53	532459	-54	0													2			61												
WM080112	133982_fnca	1	1	1	-202656962	1	75.031	75.031	2.0.10.147	2.0.10.242	2.0.10.242	1.0.0.439	7	234	2	3	Verdana	1	80	0	0	0	WM Stimuli\	0.5	961.8	0.8	1039.5	0.8	878.75	0.9	983.555555555556	0.9	941.333333333333	1	692.9	0.9	893.888888888889	1	579.5	13	639988	2	639976	27	40	640015	-999999	639991	0	15	TrialsPROC	FC_010_F5.png	1	2	62	SessionSelectionList														target	2	Face	2-Back	54	80	51	0	0	90	1	39	535018	2	13	73	532979	-1	533578	1	599	2	2	2039	52	535031	-53	0													3			62												
WM080112	133982_fnca	1	1	1	-202656962	1	75.031	75.031	2.0.10.147	2.0.10.242	2.0.10.242	1.0.0.439	7	234	2	3	Verdana	1	80	0	0	0	WM Stimuli\	0.5	961.8	0.8	1039.5	0.8	878.75	0.9	983.555555555556	0.9	941.333333333333	1	692.9	0.9	893.888888888889	1	579.5	13	639988	2	639976	27	40	640015	-999999	639991	0	15	TrialsPROC	FC_008_F4.png	1	2	63	SessionSelectionList														nonlure	3	Face	2-Back	55	80	52	0	0	90	1	39	537590	3	14	72	535551	-1	536391	1	840	3	3	2039	53	537604	-54	0													4			63												
WM080112	133982_fnca	1	1	1	-202656962	1	75.031	75.031	2.0.10.147	2.0.10.242	2.0.10.242	1.0.0.439	7	234	2	3	Verdana	1	80	0	0	0	WM Stimuli\	0.5	961.8	0.8	1039.5	0.8	878.75	0.9	983.555555555556	0.9	941.333333333333	1	692.9	0.9	893.888888888889	1	579.5	13	639988	2	639976	27	40	640015	-999999	639991	0	15	TrialsPROC	FC_012_F6.png	1	2	64	SessionSelectionList														lure	3	Face	2-Back	56	80	53	0	0	90	1	39	540162	2	14	72	538123	-1	538705	0	582	2	3	2039	53	540176	-54	0													5			64												
WM080112	133982_fnca	1	1	1	-202656962	1	75.031	75.031	2.0.10.147	2.0.10.242	2.0.10.242	1.0.0.439	7	234	2	3	Verdana	1	80	0	0	0	WM Stimuli\	0.5	961.8	0.8	1039.5	0.8	878.75	0.9	983.555555555556	0.9	941.333333333333	1	692.9	0.9	893.888888888889	1	579.5	13	639988	2	639976	27	40	640015	-999999	639991	0	15	TrialsPROC	FC_008_F4.png	1	2	65	SessionSelectionList														target	2	Face	2-Back	57	80	54	0	0	90	1	39	542735	2	13	73	540696	-1	541286	0	590	3	2	2039	52	542748	-53	0													6			65												
WM080112	133982_fnca	1	1	1	-202656962	1	75.031	75.031	2.0.10.147	2.0.10.242	2.0.10.242	1.0.0.439	7	234	2	3	Verdana	1	80	0	0	0	WM Stimuli\	0.5	961.8	0.8	1039.5	0.8	878.75	0.9	983.555555555556	0.9	941.333333333333	1	692.9	0.9	893.888888888889	1	579.5	13	639988	2	639976	27	40	640015	-999999	639991	0	15	TrialsPROC	FC_007_M4.png	1	2	66	SessionSelectionList														nonlure	3	Face	2-Back	58	80	55	0	0	90	2	39	545320	2	14	85	543281	-1	544168	1	887	3	3	2039	53	545334	-54	0													7			66												
WM080112	133982_fnca	1	1	1	-202656962	1	75.031	75.031	2.0.10.147	2.0.10.242	2.0.10.242	1.0.0.439	7	234	2	3	Verdana	1	80	0	0	0	WM Stimuli\	0.5	961.8	0.8	1039.5	0.8	878.75	0.9	983.555555555556	0.9	941.333333333333	1	692.9	0.9	893.888888888889	1	579.5	13	639988	2	639976	27	40	640015	-999999	639991	0	15	TrialsPROC	FC_007_M4.png	1	2	67	SessionSelectionList														lure	3	Face	2-Back	59	80	56	0	0	90	3	40	547893	2	13	72	545853	-1	546729	1	876	3	3	2040	53	547906	-54	0													8			67												
WM080112	133982_fnca	1	1	1	-202656962	1	75.031	75.031	2.0.10.147	2.0.10.242	2.0.10.242	1.0.0.439	7	234	2	3	Verdana	1	80	0	0	0	WM Stimuli\	0.5	961.8	0.8	1039.5	0.8	878.75	0.9	983.555555555556	0.9	941.333333333333	1	692.9	0.9	893.888888888889	1	579.5	13	639988	2	639976	27	40	640015	-999999	639991	0	15	TrialsPROC	FC_009_M5.png	1	2	68	SessionSelectionList														nonlure	3	Face	2-Back	60	80	57	0	0	90	4	39	550478	3	14	86	548439	-1	549214	1	775	3	3	2039	53	550492	-54	0													9			68												
WM080112	133982_fnca	1	1	1	-202656962	1	75.031	75.031	2.0.10.147	2.0.10.242	2.0.10.242	1.0.0.439	7	234	2	3	Verdana	1	80	0	0	0	WM Stimuli\	0.5	961.8	0.8	1039.5	0.8	878.75	0.9	983.555555555556	0.9	941.333333333333	1	692.9	0.9	893.888888888889	1	579.5	13	639988	2	639976	27	40	640015	-999999	639991	0	15	TrialsPROC	FC_011_M6.png	1	2	69	SessionSelectionList														nonlure	3	Face	2-Back	61	80	58	0	0	90	5	39	553064	1	13	86	551025	-1	552004	1	979	3	3	2039	52	553077	-53	0													10			69												
WM080112	133982_fnca	1	1	1	-202656962	1	75.031	75.031	2.0.10.147	2.0.10.242	2.0.10.242	1.0.0.439	7	234	2	3	Verdana	1	80	0	0	0	WM Stimuli\	0.5	961.8	0.8	1039.5	0.8	878.75	0.9	983.555555555556	0.9	941.333333333333	1	692.9	0.9	893.888888888889	1	579.5	13	639988	2	639976	27	40	640015	-999999	639991	0	16	Fix15secPROC	""	1	2	70	SessionSelectionList																																															5	553530	-6	0							70												
WM080112	133982_fnca	1	1	1	-202656962	1	75.031	75.031	2.0.10.147	2.0.10.242	2.0.10.242	1.0.0.439	7	234	2	3	Verdana	1	80	0	0	0	WM Stimuli\	0.5	961.8	0.8	1039.5	0.8	878.75	0.9	983.555555555556	0.9	941.333333333333	1	692.9	0.9	893.888888888889	1	579.5	13	639988	2	639976	27	40	640015	-999999	639991	0	17	Cue0BackPROC	TO_007_TOOL7_BA.png	1	2	71	SessionSelectionList																																										26	568551	-27	0												71												
WM080112	133982_fnca	1	1	1	-202656962	1	75.031	75.031	2.0.10.147	2.0.10.242	2.0.10.242	1.0.0.439	7	234	2	3	Verdana	1	80	0	0	0	WM Stimuli\	0.5	961.8	0.8	1039.5	0.8	878.75	0.9	983.555555555556	0.9	941.333333333333	1	692.9	0.9	893.888888888889	1	579.5	13	639988	2	639976	27	40	640015	-999999	639991	0	18	TrialsPROC	TO_010_TOOL10_BA.png	1	2	72	SessionSelectionList														nonlure	3	Tools	0-Back	62	80	59	0	0	90	6	40	573136	1	13	71	571096	-1	571965	1	869	3	3	2040	53	573149	-54	0														1		72												
WM080112	133982_fnca	1	1	1	-202656962	1	75.031	75.031	2.0.10.147	2.0.10.242	2.0.10.242	1.0.0.439	7	234	2	3	Verdana	1	80	0	0	0	WM Stimuli\	0.5	961.8	0.8	1039.5	0.8	878.75	0.9	983.555555555556	0.9	941.333333333333	1	692.9	0.9	893.888888888889	1	579.5	13	639988	2	639976	27	40	640015	-999999	639991	0	18	TrialsPROC	TO_009_TOOL9_BA.png	1	2	73	SessionSelectionList														nonlure	3	Tools	0-Back	63	80	60	0	0	91	7	39	575708	2	13	73	573669	-1	574149	1	480	3	3	2039	52	575721	-53	0														2		73												
WM080112	133982_fnca	1	1	1	-202656962	1	75.031	75.031	2.0.10.147	2.0.10.242	2.0.10.242	1.0.0.439	7	234	2	3	Verdana	1	80	0	0	0	WM Stimuli\	0.5	961.8	0.8	1039.5	0.8	878.75	0.9	983.555555555556	0.9	941.333333333333	1	692.9	0.9	893.888888888889	1	579.5	13	639988	2	639976	27	40	640015	-999999	639991	0	18	TrialsPROC	TO_009_TOOL9_BA.png	1	2	74	SessionSelectionList														lure	3	Tools	0-Back	64	80	61	0	0	91	8	39	578267	2	13	59	576228	-1	576699	1	471	3	3	2039	52	578280	-53	0														3		74												
WM080112	133982_fnca	1	1	1	-202656962	1	75.031	75.031	2.0.10.147	2.0.10.242	2.0.10.242	1.0.0.439	7	234	2	3	Verdana	1	80	0	0	0	WM Stimuli\	0.5	961.8	0.8	1039.5	0.8	878.75	0.9	983.555555555556	0.9	941.333333333333	1	692.9	0.9	893.888888888889	1	579.5	13	639988	2	639976	27	40	640015	-999999	639991	0	18	TrialsPROC	TO_008_TOOL8_BA.png	1	2	75	SessionSelectionList														nonlure	3	Tools	0-Back	65	80	62	0	0	91	9	39	580839	2	14	72	578800	-1	579480	1	680	3	3	2039	53	580853	-54	0														4		75												
WM080112	133982_fnca	1	1	1	-202656962	1	75.031	75.031	2.0.10.147	2.0.10.242	2.0.10.242	1.0.0.439	7	234	2	3	Verdana	1	80	0	0	0	WM Stimuli\	0.5	961.8	0.8	1039.5	0.8	878.75	0.9	983.555555555556	0.9	941.333333333333	1	692.9	0.9	893.888888888889	1	579.5	13	639988	2	639976	27	40	640015	-999999	639991	0	18	TrialsPROC	TO_011_TOOL11_BA.png	1	2	76	SessionSelectionList														nonlure	3	Tools	0-Back	66	80	63	0	0	91	10	39	583411	2	14	72	581372	-1	581854	1	482	3	3	2039	53	583425	-54	0														5		76												
WM080112	133982_fnca	1	1	1	-202656962	1	75.031	75.031	2.0.10.147	2.0.10.242	2.0.10.242	1.0.0.439	7	234	2	3	Verdana	1	80	0	0	0	WM Stimuli\	0.5	961.8	0.8	1039.5	0.8	878.75	0.9	983.555555555556	0.9	941.333333333333	1	692.9	0.9	893.888888888889	1	579.5	13	639988	2	639976	27	40	640015	-999999	639991	0	18	TrialsPROC	TO_012_TOOL12_BA.png	1	2	77	SessionSelectionList														nonlure	3	Tools	0-Back	67	80	64	0	0	92	11	40	585984	2	13	72	583944	-1	584533	1	589	3	3	2040	53	585997	-54	0														6		77												
WM080112	133982_fnca	1	1	1	-202656962	1	75.031	75.031	2.0.10.147	2.0.10.242	2.0.10.242	1.0.0.439	7	234	2	3	Verdana	1	80	0	0	0	WM Stimuli\	0.5	961.8	0.8	1039.5	0.8	878.75	0.9	983.555555555556	0.9	941.333333333333	1	692.9	0.9	893.888888888889	1	579.5	13	639988	2	639976	27	40	640015	-999999	639991	0	18	TrialsPROC	TO_010_TOOL10_BA.png	1	2	78	SessionSelectionList														lure	3	Tools	0-Back	68	80	65	0	0	92	12	40	588543	1	13	59	586503	-1	587149	1	646	3	3	2040	53	588556	-54	0														7		78												
WM080112	133982_fnca	1	1	1	-202656962	1	75.031	75.031	2.0.10.147	2.0.10.242	2.0.10.242	1.0.0.439	7	234	2	3	Verdana	1	80	0	0	0	WM Stimuli\	0.5	961.8	0.8	1039.5	0.8	878.75	0.9	983.555555555556	0.9	941.333333333333	1	692.9	0.9	893.888888888889	1	579.5	13	639988	2	639976	27	40	640015	-999999	639991	0	18	TrialsPROC	TO_007_TOOL7_BA.png	1	2	79	SessionSelectionList														target	2	Tools	0-Back	69	80	66	0	0	92	1	40	591102	2	13	59	589062	-1	589639	1	577	2	2	2040	53	591115	-54	0														8		79												
WM080112	133982_fnca	1	1	1	-202656962	1	75.031	75.031	2.0.10.147	2.0.10.242	2.0.10.242	1.0.0.439	7	234	2	3	Verdana	1	80	0	0	0	WM Stimuli\	0.5	961.8	0.8	1039.5	0.8	878.75	0.9	983.555555555556	0.9	941.333333333333	1	692.9	0.9	893.888888888889	1	579.5	13	639988	2	639976	27	40	640015	-999999	639991	0	18	TrialsPROC	TO_008_TOOL8_BA.png	1	2	80	SessionSelectionList														lure	3	Tools	0-Back	70	80	67	0	0	92	1	39	593660	2	14	59	591621	-1	592088	1	467	3	3	2039	53	593674	-54	0														9		80												
WM080112	133982_fnca	1	1	1	-202656962	1	75.031	75.031	2.0.10.147	2.0.10.242	2.0.10.242	1.0.0.439	7	234	2	3	Verdana	1	80	0	0	0	WM Stimuli\	0.5	961.8	0.8	1039.5	0.8	878.75	0.9	983.555555555556	0.9	941.333333333333	1	692.9	0.9	893.888888888889	1	579.5	13	639988	2	639976	27	40	640015	-999999	639991	0	18	TrialsPROC	TO_007_TOOL7_BA.png	1	2	81	SessionSelectionList														target	2	Tools	0-Back	71	80	68	0	0	92	1	39	596219	3	14	59	594180	-1	594714	1	534	2	2	2039	53	596233	-54	0														10		81												
WM080112	133982_fnca	1	1	1	-202656962	1	75.031	75.031	2.0.10.147	2.0.10.242	2.0.10.242	1.0.0.439	7	234	2	3	Verdana	1	80	0	0	0	WM Stimuli\	0.5	961.8	0.8	1039.5	0.8	878.75	0.9	983.555555555556	0.9	941.333333333333	1	692.9	0.9	893.888888888889	1	579.5	13	639988	2	639976	27	40	640015	-999999	639991	0	19	Cue2BackPROC	""	1	2	82	SessionSelectionList									6	596686	-7	0																																													82												
WM080112	133982_fnca	1	1	1	-202656962	1	75.031	75.031	2.0.10.147	2.0.10.242	2.0.10.242	1.0.0.439	7	234	2	3	Verdana	1	80	0	0	0	WM Stimuli\	0.5	961.8	0.8	1039.5	0.8	878.75	0.9	983.555555555556	0.9	941.333333333333	1	692.9	0.9	893.888888888889	1	579.5	13	639988	2	639976	27	40	640015	-999999	639991	0	20	TrialsPROC	PL_007_92026.png	1	2	83	SessionSelectionList														nonlure	3	Place	2-Back	72	80	69	0	0	92	1	39	601297	3	14	78	599258	-1	600887	1	1629	3	3	2039	53	601311	-54	0															1	83												
WM080112	133982_fnca	1	1	1	-202656962	1	75.031	75.031	2.0.10.147	2.0.10.242	2.0.10.242	1.0.0.439	7	234	2	3	Verdana	1	80	0	0	0	WM Stimuli\	0.5	961.8	0.8	1039.5	0.8	878.75	0.9	983.555555555556	0.9	941.333333333333	1	692.9	0.9	893.888888888889	1	579.5	13	639988	2	639976	27	40	640015	-999999	639991	0	20	TrialsPROC	PL_007_92026.png	1	2	84	SessionSelectionList														lure	3	Place	2-Back	73	80	70	0	0	92	2	40	603870	1	13	72	601830	-1	602571	1	741	3	3	2040	53	603883	-54	0															2	84												
WM080112	133982_fnca	1	1	1	-202656962	1	75.031	75.031	2.0.10.147	2.0.10.242	2.0.10.242	1.0.0.439	7	234	2	3	Verdana	1	80	0	0	0	WM Stimuli\	0.5	961.8	0.8	1039.5	0.8	878.75	0.9	983.555555555556	0.9	941.333333333333	1	692.9	0.9	893.888888888889	1	579.5	13	639988	2	639976	27	40	640015	-999999	639991	0	20	TrialsPROC	PL_010_92038.png	1	2	85	SessionSelectionList														nonlure	3	Place	2-Back	74	80	71	0	0	92	3	39	606455	2	14	86	604416	-1	605207	1	791	3	3	2039	53	606469	-54	0															3	85												
WM080112	133982_fnca	1	1	1	-202656962	1	75.031	75.031	2.0.10.147	2.0.10.242	2.0.10.242	1.0.0.439	7	234	2	3	Verdana	1	80	0	0	0	WM Stimuli\	0.5	961.8	0.8	1039.5	0.8	878.75	0.9	983.555555555556	0.9	941.333333333333	1	692.9	0.9	893.888888888889	1	579.5	13	639988	2	639976	27	40	640015	-999999	639991	0	20	TrialsPROC	PL_009_92037.png	1	2	86	SessionSelectionList														nonlure	3	Place	2-Back	75	80	72	0	0	92	4	39	609041	1	13	86	607002	-1	607689	1	687	3	3	2039	52	609054	-53	0															4	86												
WM080112	133982_fnca	1	1	1	-202656962	1	75.031	75.031	2.0.10.147	2.0.10.242	2.0.10.242	1.0.0.439	7	234	2	3	Verdana	1	80	0	0	0	WM Stimuli\	0.5	961.8	0.8	1039.5	0.8	878.75	0.9	983.555555555556	0.9	941.333333333333	1	692.9	0.9	893.888888888889	1	579.5	13	639988	2	639976	27	40	640015	-999999	639991	0	20	TrialsPROC	PL_010_92038.png	1	2	87	SessionSelectionList														target	2	Place	2-Back	76	80	73	0	0	92	1	39	611613	3	14	72	609574	-1	610371	1	797	2	2	2039	53	611627	-54	0															5	87												
WM080112	133982_fnca	1	1	1	-202656962	1	75.031	75.031	2.0.10.147	2.0.10.242	2.0.10.242	1.0.0.439	7	234	2	3	Verdana	1	80	0	0	0	WM Stimuli\	0.5	961.8	0.8	1039.5	0.8	878.75	0.9	983.555555555556	0.9	941.333333333333	1	692.9	0.9	893.888888888889	1	579.5	13	639988	2	639976	27	40	640015	-999999	639991	0	20	TrialsPROC	PL_009_92037.png	1	2	88	SessionSelectionList														target	2	Place	2-Back	77	80	74	0	0	92	1	39	614185	3	14	72	612146	-1	612998	0	852	3	2	2039	53	614199	-54	0															6	88												
WM080112	133982_fnca	1	1	1	-202656962	1	75.031	75.031	2.0.10.147	2.0.10.242	2.0.10.242	1.0.0.439	7	234	2	3	Verdana	1	80	0	0	0	WM Stimuli\	0.5	961.8	0.8	1039.5	0.8	878.75	0.9	983.555555555556	0.9	941.333333333333	1	692.9	0.9	893.888888888889	1	579.5	13	639988	2	639976	27	40	640015	-999999	639991	0	20	TrialsPROC	PL_008_92033.png	1	2	89	SessionSelectionList														nonlure	3	Place	2-Back	78	80	75	0	0	92	2	39	616771	1	13	86	614732	-1	615540	1	808	3	3	2039	52	616784	-53	0															7	89												
WM080112	133982_fnca	1	1	1	-202656962	1	75.031	75.031	2.0.10.147	2.0.10.242	2.0.10.242	1.0.0.439	7	234	2	3	Verdana	1	80	0	0	0	WM Stimuli\	0.5	961.8	0.8	1039.5	0.8	878.75	0.9	983.555555555556	0.9	941.333333333333	1	692.9	0.9	893.888888888889	1	579.5	13	639988	2	639976	27	40	640015	-999999	639991	0	20	TrialsPROC	PL_012_92047.png	1	2	90	SessionSelectionList														nonlure	3	Place	2-Back	79	80	76	0	0	92	3	40	619357	2	13	85	617317	-1	618054	1	737	3	3	2040	53	619370	-54	0															8	90												
WM080112	133982_fnca	1	1	1	-202656962	1	75.031	75.031	2.0.10.147	2.0.10.242	2.0.10.242	1.0.0.439	7	234	2	3	Verdana	1	80	0	0	0	WM Stimuli\	0.5	961.8	0.8	1039.5	0.8	878.75	0.9	983.555555555556	0.9	941.333333333333	1	692.9	0.9	893.888888888889	1	579.5	13	639988	2	639976	27	40	640015	-999999	639991	0	20	TrialsPROC	PL_012_92047.png	1	2	91	SessionSelectionList														lure	3	Place	2-Back	80	80	77	0	0	92	4	39	621929	1	13	73	619890	-1	621005	1	1115	3	3	2039	52	621942	-53	0															9	91												
WM080112	133982_fnca	1	1	1	-202656962	1	75.031	75.031	2.0.10.147	2.0.10.242	2.0.10.242	1.0.0.439	7	234	2	3	Verdana	1	80	0	0	0	WM Stimuli\	0.5	961.8	0.8	1039.5	0.8	878.75	0.9	983.555555555556	0.9	941.333333333333	1	692.9	0.9	893.888888888889	1	579.5	13	639988	2	639976	27	40	640015	-999999	639991	0	20	TrialsPROC	PL_011_92044.png	1	2	92	SessionSelectionList														nonlure	3	Place	2-Back	80	80	78	0	0	92	5	39	624514	3	14	85	622475	-1	623642	1	1167	3	3	2039	53	624528	-54	0															10	92												
WM080112	133982_fnca	1	1	1	-202656962	1	75.031	75.031	2.0.10.147	2.0.10.242	2.0.10.242	1.0.0.439	7	234	2	3	Verdana	1	80	0	0	0	WM Stimuli\	0.5	961.8	0.8	1039.5	0.8	878.75	0.9	983.555555555556	0.9	941.333333333333	1	692.9	0.9	893.888888888889	1	579.5	13	639988	2	639976	27	40	640015	-999999	639991	0	21	Fix15secPROC	""	1	2	93	SessionSelectionList																																															6	624981	-7	0							93												
