ExperimentName	HCPID	RunNumber	Subject	Session	RandomSeed	Group	Laptop.RefreshRate	ScannerD2.RefreshRate	StudioVersion	RuntimeVersion	RuntimeVersionExpected	ExperimentVersion	triggercode	Allowed	Target	Nontarget	FontStyle	RunTrialNumber[Session]	TrialsPerRun[Session]	TotalRespGreater200[Session]	ConsecRTLess200[Session]	ConsecNonResp[Session]	StimuliDir	ACC_2_Back_Body	Avg_RT_For_Correct_Trials_2_Back_Body	ACC_0_Back_Body	Avg_RT_For_Correct_Trials_0_Back_Body	ACC_2_Back_Face	Avg_RT_For_Correct_Trials_2_Back_Face	ACC_0_Back_Face	Avg_RT_For_Correct_Trials_0_Back_Face	ACC_2_Back_Place	Avg_RT_For_Correct_Trials_2_Back_Place	ACC_0_Back_Place	Avg_RT_For_Correct_Trials_0_Back_Place	ACC_2_Back_Tools	Avg_RT_For_Correct_Trials_2_Back_Tools	ACC_0_Back_Tools	Avg_RT_For_Correct_Trials_0_Back_Tools	ExpInstrucFeelFreeToRest.OnsetDelay	ExpInstrucFeelFreeToRest.OnsetTime	ExpInstrucFeelFreeToRest.DurationError	ExpInstrucFeelFreeToRest.StartTime	ExpInstrucFeelFreeToRest.OnsetToOnsetTime	FeelFreeToRest.OnsetDelay	FeelFreeToRest.OnsetTime	FeelFreeToRest.DurationError	FeelFreeToRest.StartTime	FeelFreeToRest.OnsetToOnsetTime	SessionSelectionList	Procedure[Block]	Stimulus[Block]	RunNumberFilterValue	SessionSelectionList.Cycle	SessionSelectionList.Sample	Running[Block]	IntroButtonMap.OnsetDelay	IntroButtonMap.OnsetTime	IntroButtonMap.DurationError	IntroButtonMap.OnsetToOnsetTime	GetReady.OnsetDelay	GetReady.OnsetTime	GetReady.DurationError	GetReady.OnsetToOnsetTime	Cue2Back.OnsetDelay	Cue2Back.OnsetTime	Cue2Back.DurationError	Cue2Back.OnsetToOnsetTime	Run1Block1	TargetType	CorrectResponse	StimType	BlockType	RunTrialNumber[Block]	TrialsPerRun[Block]	TotalRespGreater200[Block]	ConsecRTLess200[Block]	ConsecNonResp[Block]	ControlAcc	ConsecSameResp	ExperimenterWindow.OnsetDelay	ExperimenterWindow.OnsetTime	ExperimenterWindow.DurationError	ExperimenterWindow.OnsetToOnsetTime	Stim.OnsetDelay	Stim.OnsetTime	Stim.DurationError	Stim.RTTime	Stim.ACC	Stim.RT	Stim.RESP	Stim.CRESP	Stim.OnsetToOnsetTime	Fix.OnsetDelay	Fix.OnsetTime	Fix.DurationError	Fix.OnsetToOnsetTime	CueTarget.OnsetDelay	CueTarget.OnsetTime	CueTarget.DurationError	CueTarget.OnsetToOnsetTime	Run1Block2	Fix15sec.OnsetDelay	Fix15sec.OnsetTime	Fix15sec.DurationError	Fix15sec.OnsetToOnsetTime	Run1Block3	Run1Block4	Run1Block5	Run1Block6	Run1Block7	Run1Block8	Block	Procedure[Trial]	Stimulus[Trial]	ReadyList	Running[Trial]	ReadyList.Cycle	ReadyList.Sample	SyncSlide.OnsetDelay	SyncSlide.OnsetTime	SyncSlide.DurationError	SyncSlide.FinishTime	SyncSlide.OnsetToOnsetTime	Trial
WM080112	160123_fnca	1	1	1	-1795422403	1	75.031	75.030	2.0.10.147	2.0.10.242	2.0.10.242	1.0.0.439	7	234	2	3	Verdana	1	80	0	0	0	WM Stimuli\	0.7	1059.28571428571	0.6	906.666666666667	1	1189.5	0.8	929.75	1	1223.8	0.6	1428.83333333333	0.9	767.555555555556	0.6	941.666666666667	13	566435	3	566423	27	40	566462	-999999	566438	0	1	TRSyncPROC	""	1	2	1	SessionSelectionList	115	213271	-999999	0	40	257240	-999999	0																																																	1	InitialTR	4	1	ReadyList	1	1	17	272993	-18	274975	0	1
WM080112	160123_fnca	1	1	1	-1795422403	1	75.031	75.030	2.0.10.147	2.0.10.242	2.0.10.242	1.0.0.439	7	234	2	3	Verdana	1	80	0	0	0	WM Stimuli\	0.7	1059.28571428571	0.6	906.666666666667	1	1189.5	0.8	929.75	1	1223.8	0.6	1428.83333333333	0.9	767.555555555556	0.6	941.666666666667	13	566435	3	566423	27	40	566462	-999999	566438	0	1	TRSyncPROC	""	1	2	1	SessionSelectionList	115	213271	-999999	0	40	257240	-999999	0																																																	1	InitialTR	3	2	ReadyList	1	2	17	274993	-18	276975	0	2
WM080112	160123_fnca	1	1	1	-1795422403	1	75.031	75.030	2.0.10.147	2.0.10.242	2.0.10.242	1.0.0.439	7	234	2	3	Verdana	1	80	0	0	0	WM Stimuli\	0.7	1059.28571428571	0.6	906.666666666667	1	1189.5	0.8	929.75	1	1223.8	0.6	1428.83333333333	0.9	767.555555555556	0.6	941.666666666667	13	566435	3	566423	27	40	566462	-999999	566438	0	1	TRSyncPROC	""	1	2	1	SessionSelectionList	115	213271	-999999	0	40	257240	-999999	0																																																	1	InitialTR	2	3	ReadyList	1	3	16	276992	-17	278975	0	3
WM080112	160123_fnca	1	1	1	-1795422403	1	75.031	75.030	2.0.10.147	2.0.10.242	2.0.10.242	1.0.0.439	7	234	2	3	Verdana	1	80	0	0	0	WM Stimuli\	0.7	1059.28571428571	0.6	906.666666666667	1	1189.5	0.8	929.75	1	1223.8	0.6	1428.83333333333	0.9	767.555555555556	0.6	941.666666666667	13	566435	3	566423	27	40	566462	-999999	566438	0	1	TRSyncPROC	""	1	2	1	SessionSelectionList	115	213271	-999999	0	40	257240	-999999	0																																																	1	InitialTR	1	4	ReadyList	1	4	15	278991	-16	280975	0	4
WM080112	160123_fnca	1	1	1	-1795422403	1	75.031	75.030	2.0.10.147	2.0.10.242	2.0.10.242	1.0.0.439	7	234	2	3	Verdana	1	80	0	0	0	WM Stimuli\	0.7	1059.28571428571	0.6	906.666666666667	1	1189.5	0.8	929.75	1	1223.8	0.6	1428.83333333333	0.9	767.555555555556	0.6	941.666666666667	13	566435	3	566423	27	40	566462	-999999	566438	0	2	Cue2BackPROC	""	1	2	2	SessionSelectionList									14	280990	-15	0																																													2												
WM080112	160123_fnca	1	1	1	-1795422403	1	75.031	75.030	2.0.10.147	2.0.10.242	2.0.10.242	1.0.0.439	7	234	2	3	Verdana	1	80	0	0	0	WM Stimuli\	0.7	1059.28571428571	0.6	906.666666666667	1	1189.5	0.8	929.75	1	1223.8	0.6	1428.83333333333	0.9	767.555555555556	0.6	941.666666666667	13	566435	3	566423	27	40	566462	-999999	566438	0	3	TrialsPROC	BP_002_BP10_BA.png	1	2	3	SessionSelectionList													1	nonlure	3	Body	2-Back	2	80	1	0	0	0	1	53	285615	3	14	86	283562	-1	284533	1	971	3	3	2053	67	285629	-68	0																3												
WM080112	160123_fnca	1	1	1	-1795422403	1	75.031	75.030	2.0.10.147	2.0.10.242	2.0.10.242	1.0.0.439	7	234	2	3	Verdana	1	80	0	0	0	WM Stimuli\	0.7	1059.28571428571	0.6	906.666666666667	1	1189.5	0.8	929.75	1	1223.8	0.6	1428.83333333333	0.9	767.555555555556	0.6	941.666666666667	13	566435	3	566423	27	40	566462	-999999	566438	0	3	TrialsPROC	BP_001_BP1_BA.png	1	2	4	SessionSelectionList													2	nonlure	3	Body	2-Back	3	80	2	0	0	0	2	39	288174	2	14	73	286135	-1	286725	1	590	3	3	2039	53	288188	-54	0																4												
WM080112	160123_fnca	1	1	1	-1795422403	1	75.031	75.030	2.0.10.147	2.0.10.242	2.0.10.242	1.0.0.439	7	234	2	3	Verdana	1	80	0	0	0	WM Stimuli\	0.7	1059.28571428571	0.6	906.666666666667	1	1189.5	0.8	929.75	1	1223.8	0.6	1428.83333333333	0.9	767.555555555556	0.6	941.666666666667	13	566435	3	566423	27	40	566462	-999999	566438	0	3	TrialsPROC	BP_006_BP2_BA.png	1	2	5	SessionSelectionList													3	nonlure	3	Body	2-Back	4	80	3	0	0	0	1	39	290733	1	14	59	288694	-1	289575	0	881	2	3	2039	53	290747	-54	0																5												
WM080112	160123_fnca	1	1	1	-1795422403	1	75.031	75.030	2.0.10.147	2.0.10.242	2.0.10.242	1.0.0.439	7	234	2	3	Verdana	1	80	0	0	0	WM Stimuli\	0.7	1059.28571428571	0.6	906.666666666667	1	1189.5	0.8	929.75	1	1223.8	0.6	1428.83333333333	0.9	767.555555555556	0.6	941.666666666667	13	566435	3	566423	27	40	566462	-999999	566438	0	3	TrialsPROC	BP_001_BP1_BA.png	1	2	6	SessionSelectionList													4	target	2	Body	2-Back	5	80	4	0	0	0	2	39	293305	2	14	72	291266	-1	292481	1	1215	2	2	2039	53	293319	-54	0																6												
WM080112	160123_fnca	1	1	1	-1795422403	1	75.031	75.030	2.0.10.147	2.0.10.242	2.0.10.242	1.0.0.439	7	234	2	3	Verdana	1	80	0	0	0	WM Stimuli\	0.7	1059.28571428571	0.6	906.666666666667	1	1189.5	0.8	929.75	1	1223.8	0.6	1428.83333333333	0.9	767.555555555556	0.6	941.666666666667	13	566435	3	566423	27	40	566462	-999999	566438	0	3	TrialsPROC	BP_005_BP19_BA.png	1	2	7	SessionSelectionList													5	nonlure	3	Body	2-Back	6	80	5	0	0	0	1	39	295877	2	14	72	293838	-1	294822	1	984	3	3	2039	53	295891	-54	0																7												
WM080112	160123_fnca	1	1	1	-1795422403	1	75.031	75.030	2.0.10.147	2.0.10.242	2.0.10.242	1.0.0.439	7	234	2	3	Verdana	1	80	0	0	0	WM Stimuli\	0.7	1059.28571428571	0.6	906.666666666667	1	1189.5	0.8	929.75	1	1223.8	0.6	1428.83333333333	0.9	767.555555555556	0.6	941.666666666667	13	566435	3	566423	27	40	566462	-999999	566438	0	3	TrialsPROC	BP_003_BP16_BA.png	1	2	8	SessionSelectionList													6	nonlure	3	Body	2-Back	7	80	6	0	0	0	2	39	298436	2	14	59	296397	-1	297057	1	660	3	3	2039	53	298450	-54	0																8												
WM080112	160123_fnca	1	1	1	-1795422403	1	75.031	75.030	2.0.10.147	2.0.10.242	2.0.10.242	1.0.0.439	7	234	2	3	Verdana	1	80	0	0	0	WM Stimuli\	0.7	1059.28571428571	0.6	906.666666666667	1	1189.5	0.8	929.75	1	1223.8	0.6	1428.83333333333	0.9	767.555555555556	0.6	941.666666666667	13	566435	3	566423	27	40	566462	-999999	566438	0	3	TrialsPROC	BP_006_BP2_BA.png	1	2	9	SessionSelectionList													7	lure	3	Body	2-Back	8	80	7	0	0	0	3	39	300995	2	14	59	298956	-1	300633	1	1677	3	3	2039	53	301009	-54	0																9												
WM080112	160123_fnca	1	1	1	-1795422403	1	75.031	75.030	2.0.10.147	2.0.10.242	2.0.10.242	1.0.0.439	7	234	2	3	Verdana	1	80	0	0	0	WM Stimuli\	0.7	1059.28571428571	0.6	906.666666666667	1	1189.5	0.8	929.75	1	1223.8	0.6	1428.83333333333	0.9	767.555555555556	0.6	941.666666666667	13	566435	3	566423	27	40	566462	-999999	566438	0	3	TrialsPROC	BP_004_BP18_BA.png	1	2	10	SessionSelectionList													8	nonlure	3	Body	2-Back	9	80	7	0	1	0	3	39	303554	2	14	59	301515	-1	0	0	0	""	3	2039	53	303568	-54	0																10												
WM080112	160123_fnca	1	1	1	-1795422403	1	75.031	75.030	2.0.10.147	2.0.10.242	2.0.10.242	1.0.0.439	7	234	2	3	Verdana	1	80	0	0	0	WM Stimuli\	0.7	1059.28571428571	0.6	906.666666666667	1	1189.5	0.8	929.75	1	1223.8	0.6	1428.83333333333	0.9	767.555555555556	0.6	941.666666666667	13	566435	3	566423	27	40	566462	-999999	566438	0	3	TrialsPROC	BP_005_BP19_BA.png	1	2	11	SessionSelectionList													9	lure	3	Body	2-Back	10	80	8	0	0	0	1	39	306113	2	14	59	304074	-1	305392	1	1318	3	3	2039	53	306127	-54	0																11												
WM080112	160123_fnca	1	1	1	-1795422403	1	75.031	75.030	2.0.10.147	2.0.10.242	2.0.10.242	1.0.0.439	7	234	2	3	Verdana	1	80	0	0	0	WM Stimuli\	0.7	1059.28571428571	0.6	906.666666666667	1	1189.5	0.8	929.75	1	1223.8	0.6	1428.83333333333	0.9	767.555555555556	0.6	941.666666666667	13	566435	3	566423	27	40	566462	-999999	566438	0	3	TrialsPROC	BP_004_BP18_BA.png	1	2	12	SessionSelectionList													10	target	2	Body	2-Back	11	80	9	0	0	0	2	39	308672	2	14	59	306633	-1	307925	0	1292	3	2	2039	53	308686	-54	0																12												
WM080112	160123_fnca	1	1	1	-1795422403	1	75.031	75.030	2.0.10.147	2.0.10.242	2.0.10.242	1.0.0.439	7	234	2	3	Verdana	1	80	0	0	0	WM Stimuli\	0.7	1059.28571428571	0.6	906.666666666667	1	1189.5	0.8	929.75	1	1223.8	0.6	1428.83333333333	0.9	767.555555555556	0.6	941.666666666667	13	566435	3	566423	27	40	566462	-999999	566438	0	4	Cue0BackPROC	FC_001_M1.png	1	2	13	SessionSelectionList																																										19	309152	-20	0												13												
WM080112	160123_fnca	1	1	1	-1795422403	1	75.031	75.030	2.0.10.147	2.0.10.242	2.0.10.242	1.0.0.439	7	234	2	3	Verdana	1	80	0	0	0	WM Stimuli\	0.7	1059.28571428571	0.6	906.666666666667	1	1189.5	0.8	929.75	1	1223.8	0.6	1428.83333333333	0.9	767.555555555556	0.6	941.666666666667	13	566435	3	566423	27	40	566462	-999999	566438	0	5	TrialsPROC	FC_005_M3.png	1	2	14	SessionSelectionList														nonlure	3	Face	0-Back	12	80	10	0	0	100	3	39	313737	1	14	65	311698	-1	312713	1	1015	3	3	2039	53	313751	-54	0					1											14												
WM080112	160123_fnca	1	1	1	-1795422403	1	75.031	75.030	2.0.10.147	2.0.10.242	2.0.10.242	1.0.0.439	7	234	2	3	Verdana	1	80	0	0	0	WM Stimuli\	0.7	1059.28571428571	0.6	906.666666666667	1	1189.5	0.8	929.75	1	1223.8	0.6	1428.83333333333	0.9	767.555555555556	0.6	941.666666666667	13	566435	3	566423	27	40	566462	-999999	566438	0	5	TrialsPROC	FC_001_M1.png	1	2	15	SessionSelectionList														target	2	Face	0-Back	13	80	11	0	0	100	1	39	316309	2	14	72	314270	-1	314812	1	542	2	2	2039	53	316323	-54	0					2											15												
WM080112	160123_fnca	1	1	1	-1795422403	1	75.031	75.030	2.0.10.147	2.0.10.242	2.0.10.242	1.0.0.439	7	234	2	3	Verdana	1	80	0	0	0	WM Stimuli\	0.7	1059.28571428571	0.6	906.666666666667	1	1189.5	0.8	929.75	1	1223.8	0.6	1428.83333333333	0.9	767.555555555556	0.6	941.666666666667	13	566435	3	566423	27	40	566462	-999999	566438	0	5	TrialsPROC	FC_003_M2.png	1	2	16	SessionSelectionList														nonlure	3	Face	0-Back	14	80	12	0	0	100	1	40	318882	1	13	72	316842	-1	317555	1	713	3	3	2040	53	318895	-54	0					3											16												
WM080112	160123_fnca	1	1	1	-1795422403	1	75.031	75.030	2.0.10.147	2.0.10.242	2.0.10.242	1.0.0.439	7	234	2	3	Verdana	1	80	0	0	0	WM Stimuli\	0.7	1059.28571428571	0.6	906.666666666667	1	1189.5	0.8	929.75	1	1223.8	0.6	1428.83333333333	0.9	767.555555555556	0.6	941.666666666667	13	566435	3	566423	27	40	566462	-999999	566438	0	5	TrialsPROC	FC_004_F2.png	1	2	17	SessionSelectionList														nonlure	3	Face	0-Back	15	80	13	0	0	100	2	39	321454	1	14	73	319415	-1	320269	1	854	3	3	2039	53	321468	-54	0					4											17												
WM080112	160123_fnca	1	1	1	-1795422403	1	75.031	75.030	2.0.10.147	2.0.10.242	2.0.10.242	1.0.0.439	7	234	2	3	Verdana	1	80	0	0	0	WM Stimuli\	0.7	1059.28571428571	0.6	906.666666666667	1	1189.5	0.8	929.75	1	1223.8	0.6	1428.83333333333	0.9	767.555555555556	0.6	941.666666666667	13	566435	3	566423	27	40	566462	-999999	566438	0	5	TrialsPROC	FC_004_F2.png	1	2	18	SessionSelectionList														lure	3	Face	0-Back	16	80	14	0	0	80	1	39	324026	2	14	72	321987	-1	322633	0	646	2	3	2039	53	324040	-54	0					5											18												
WM080112	160123_fnca	1	1	1	-1795422403	1	75.031	75.030	2.0.10.147	2.0.10.242	2.0.10.242	1.0.0.439	7	234	2	3	Verdana	1	80	0	0	0	WM Stimuli\	0.7	1059.28571428571	0.6	906.666666666667	1	1189.5	0.8	929.75	1	1223.8	0.6	1428.83333333333	0.9	767.555555555556	0.6	941.666666666667	13	566435	3	566423	27	40	566462	-999999	566438	0	5	TrialsPROC	FC_001_M1.png	1	2	19	SessionSelectionList														target	2	Face	0-Back	17	80	15	0	0	83	2	39	326598	2	14	72	324559	-1	325966	1	1407	2	2	2039	53	326612	-54	0					6											19												
WM080112	160123_fnca	1	1	1	-1795422403	1	75.031	75.030	2.0.10.147	2.0.10.242	2.0.10.242	1.0.0.439	7	234	2	3	Verdana	1	80	0	0	0	WM Stimuli\	0.7	1059.28571428571	0.6	906.666666666667	1	1189.5	0.8	929.75	1	1223.8	0.6	1428.83333333333	0.9	767.555555555556	0.6	941.666666666667	13	566435	3	566423	27	40	566462	-999999	566438	0	5	TrialsPROC	FC_006_F3.png	1	2	20	SessionSelectionList														nonlure	3	Face	0-Back	18	80	16	0	0	86	1	39	329171	1	13	73	327132	-1	328476	1	1344	3	3	2039	52	329184	-53	0					7											20												
WM080112	160123_fnca	1	1	1	-1795422403	1	75.031	75.030	2.0.10.147	2.0.10.242	2.0.10.242	1.0.0.439	7	234	2	3	Verdana	1	80	0	0	0	WM Stimuli\	0.7	1059.28571428571	0.6	906.666666666667	1	1189.5	0.8	929.75	1	1223.8	0.6	1428.83333333333	0.9	767.555555555556	0.6	941.666666666667	13	566435	3	566423	27	40	566462	-999999	566438	0	5	TrialsPROC	FC_006_F3.png	1	2	21	SessionSelectionList														lure	3	Face	0-Back	19	80	16	0	1	75	1	39	331743	1	14	72	329704	-1	0	0	0	""	3	2039	53	331757	-54	0					8											21												
WM080112	160123_fnca	1	1	1	-1795422403	1	75.031	75.030	2.0.10.147	2.0.10.242	2.0.10.242	1.0.0.439	7	234	2	3	Verdana	1	80	0	0	0	WM Stimuli\	0.7	1059.28571428571	0.6	906.666666666667	1	1189.5	0.8	929.75	1	1223.8	0.6	1428.83333333333	0.9	767.555555555556	0.6	941.666666666667	13	566435	3	566423	27	40	566462	-999999	566438	0	5	TrialsPROC	FC_003_M2.png	1	2	22	SessionSelectionList														lure	3	Face	0-Back	20	80	17	0	0	78	1	39	334315	2	14	72	332276	-1	333215	1	939	3	3	2039	53	334329	-54	0					9											22												
WM080112	160123_fnca	1	1	1	-1795422403	1	75.031	75.030	2.0.10.147	2.0.10.242	2.0.10.242	1.0.0.439	7	234	2	3	Verdana	1	80	0	0	0	WM Stimuli\	0.7	1059.28571428571	0.6	906.666666666667	1	1189.5	0.8	929.75	1	1223.8	0.6	1428.83333333333	0.9	767.555555555556	0.6	941.666666666667	13	566435	3	566423	27	40	566462	-999999	566438	0	5	TrialsPROC	FC_002_F1.png	1	2	23	SessionSelectionList														nonlure	3	Face	0-Back	21	80	18	0	0	80	2	40	336888	1	13	72	334848	-1	335472	1	624	3	3	2040	53	336901	-54	0					10											23												
WM080112	160123_fnca	1	1	1	-1795422403	1	75.031	75.030	2.0.10.147	2.0.10.242	2.0.10.242	1.0.0.439	7	234	2	3	Verdana	1	80	0	0	0	WM Stimuli\	0.7	1059.28571428571	0.6	906.666666666667	1	1189.5	0.8	929.75	1	1223.8	0.6	1428.83333333333	0.9	767.555555555556	0.6	941.666666666667	13	566435	3	566423	27	40	566462	-999999	566438	0	6	Fix15secPROC	""	1	2	24	SessionSelectionList																																															7	337355	-8	0							24												
WM080112	160123_fnca	1	1	1	-1795422403	1	75.031	75.030	2.0.10.147	2.0.10.242	2.0.10.242	1.0.0.439	7	234	2	3	Verdana	1	80	0	0	0	WM Stimuli\	0.7	1059.28571428571	0.6	906.666666666667	1	1189.5	0.8	929.75	1	1223.8	0.6	1428.83333333333	0.9	767.555555555556	0.6	941.666666666667	13	566435	3	566423	27	40	566462	-999999	566438	0	7	Cue2BackPROC	""	1	2	25	SessionSelectionList									13	352361	-14	0																																													25												
WM080112	160123_fnca	1	1	1	-1795422403	1	75.031	75.030	2.0.10.147	2.0.10.242	2.0.10.242	1.0.0.439	7	234	2	3	Verdana	1	80	0	0	0	WM Stimuli\	0.7	1059.28571428571	0.6	906.666666666667	1	1189.5	0.8	929.75	1	1223.8	0.6	1428.83333333333	0.9	767.555555555556	0.6	941.666666666667	13	566435	3	566423	27	40	566462	-999999	566438	0	8	TrialsPROC	TO_001_TOOL1_BA.png	1	2	26	SessionSelectionList														nonlure	3	Tools	2-Back	22	80	19	0	0	80	3	39	356946	2	14	59	354907	-1	356245	1	1338	3	3	2039	53	356960	-54	0										1						26												
WM080112	160123_fnca	1	1	1	-1795422403	1	75.031	75.030	2.0.10.147	2.0.10.242	2.0.10.242	1.0.0.439	7	234	2	3	Verdana	1	80	0	0	0	WM Stimuli\	0.7	1059.28571428571	0.6	906.666666666667	1	1189.5	0.8	929.75	1	1223.8	0.6	1428.83333333333	0.9	767.555555555556	0.6	941.666666666667	13	566435	3	566423	27	40	566462	-999999	566438	0	8	TrialsPROC	TO_002_TOOL2_BA.png	1	2	27	SessionSelectionList														nonlure	3	Tools	2-Back	23	80	20	0	0	80	4	39	359505	2	14	59	357466	-1	358248	1	782	3	3	2039	53	359519	-54	0										2						27												
WM080112	160123_fnca	1	1	1	-1795422403	1	75.031	75.030	2.0.10.147	2.0.10.242	2.0.10.242	1.0.0.439	7	234	2	3	Verdana	1	80	0	0	0	WM Stimuli\	0.7	1059.28571428571	0.6	906.666666666667	1	1189.5	0.8	929.75	1	1223.8	0.6	1428.83333333333	0.9	767.555555555556	0.6	941.666666666667	13	566435	3	566423	27	40	566462	-999999	566438	0	8	TrialsPROC	TO_004_TOOL4_BA.png	1	2	28	SessionSelectionList														nonlure	3	Tools	2-Back	24	80	21	0	0	80	5	39	362064	2	14	59	360025	-1	360884	1	859	3	3	2039	53	362078	-54	0										3						28												
WM080112	160123_fnca	1	1	1	-1795422403	1	75.031	75.030	2.0.10.147	2.0.10.242	2.0.10.242	1.0.0.439	7	234	2	3	Verdana	1	80	0	0	0	WM Stimuli\	0.7	1059.28571428571	0.6	906.666666666667	1	1189.5	0.8	929.75	1	1223.8	0.6	1428.83333333333	0.9	767.555555555556	0.6	941.666666666667	13	566435	3	566423	27	40	566462	-999999	566438	0	8	TrialsPROC	TO_002_TOOL2_BA.png	1	2	29	SessionSelectionList														target	2	Tools	2-Back	25	80	22	0	0	80	1	39	364623	2	14	59	362584	-1	363151	1	567	2	2	2039	53	364637	-54	0										4						29												
WM080112	160123_fnca	1	1	1	-1795422403	1	75.031	75.030	2.0.10.147	2.0.10.242	2.0.10.242	1.0.0.439	7	234	2	3	Verdana	1	80	0	0	0	WM Stimuli\	0.7	1059.28571428571	0.6	906.666666666667	1	1189.5	0.8	929.75	1	1223.8	0.6	1428.83333333333	0.9	767.555555555556	0.6	941.666666666667	13	566435	3	566423	27	40	566462	-999999	566438	0	8	TrialsPROC	TO_001_TOOL1_BA.png	1	2	30	SessionSelectionList														lure	3	Tools	2-Back	26	80	23	0	0	80	1	39	367182	2	14	59	365143	-1	365824	1	681	3	3	2039	53	367196	-54	0										5						30												
WM080112	160123_fnca	1	1	1	-1795422403	1	75.031	75.030	2.0.10.147	2.0.10.242	2.0.10.242	1.0.0.439	7	234	2	3	Verdana	1	80	0	0	0	WM Stimuli\	0.7	1059.28571428571	0.6	906.666666666667	1	1189.5	0.8	929.75	1	1223.8	0.6	1428.83333333333	0.9	767.555555555556	0.6	941.666666666667	13	566435	3	566423	27	40	566462	-999999	566438	0	8	TrialsPROC	TO_004_TOOL4_BA.png	1	2	31	SessionSelectionList														lure	3	Tools	2-Back	27	80	24	0	0	80	1	39	369741	2	14	59	367702	-1	368305	0	603	2	3	2039	53	369755	-54	0										6						31												
WM080112	160123_fnca	1	1	1	-1795422403	1	75.031	75.030	2.0.10.147	2.0.10.242	2.0.10.242	1.0.0.439	7	234	2	3	Verdana	1	80	0	0	0	WM Stimuli\	0.7	1059.28571428571	0.6	906.666666666667	1	1189.5	0.8	929.75	1	1223.8	0.6	1428.83333333333	0.9	767.555555555556	0.6	941.666666666667	13	566435	3	566423	27	40	566462	-999999	566438	0	8	TrialsPROC	TO_006_TOOL6_BA.png	1	2	32	SessionSelectionList														nonlure	3	Tools	2-Back	28	80	25	0	0	80	1	39	372300	1	14	59	370261	-1	370937	1	676	3	3	2039	53	372314	-54	0										7						32												
WM080112	160123_fnca	1	1	1	-1795422403	1	75.031	75.030	2.0.10.147	2.0.10.242	2.0.10.242	1.0.0.439	7	234	2	3	Verdana	1	80	0	0	0	WM Stimuli\	0.7	1059.28571428571	0.6	906.666666666667	1	1189.5	0.8	929.75	1	1223.8	0.6	1428.83333333333	0.9	767.555555555556	0.6	941.666666666667	13	566435	3	566423	27	40	566462	-999999	566438	0	8	TrialsPROC	TO_005_TOOL5_BA.png	1	2	33	SessionSelectionList														nonlure	3	Tools	2-Back	29	80	26	0	0	80	2	39	374859	1	14	59	372820	-1	373464	1	644	3	3	2039	53	374873	-54	0										8						33												
WM080112	160123_fnca	1	1	1	-1795422403	1	75.031	75.030	2.0.10.147	2.0.10.242	2.0.10.242	1.0.0.439	7	234	2	3	Verdana	1	80	0	0	0	WM Stimuli\	0.7	1059.28571428571	0.6	906.666666666667	1	1189.5	0.8	929.75	1	1223.8	0.6	1428.83333333333	0.9	767.555555555556	0.6	941.666666666667	13	566435	3	566423	27	40	566462	-999999	566438	0	8	TrialsPROC	TO_006_TOOL6_BA.png	1	2	34	SessionSelectionList														target	2	Tools	2-Back	30	80	27	0	0	80	1	39	377418	1	14	59	375379	-1	376061	1	682	2	2	2039	53	377432	-54	0										9						34												
WM080112	160123_fnca	1	1	1	-1795422403	1	75.031	75.030	2.0.10.147	2.0.10.242	2.0.10.242	1.0.0.439	7	234	2	3	Verdana	1	80	0	0	0	WM Stimuli\	0.7	1059.28571428571	0.6	906.666666666667	1	1189.5	0.8	929.75	1	1223.8	0.6	1428.83333333333	0.9	767.555555555556	0.6	941.666666666667	13	566435	3	566423	27	40	566462	-999999	566438	0	8	TrialsPROC	TO_003_TOOL3_BA.png	1	2	35	SessionSelectionList														nonlure	3	Tools	2-Back	31	80	28	0	0	80	1	39	379977	1	14	59	377938	-1	378617	1	679	3	3	2039	53	379991	-54	0										10						35												
WM080112	160123_fnca	1	1	1	-1795422403	1	75.031	75.030	2.0.10.147	2.0.10.242	2.0.10.242	1.0.0.439	7	234	2	3	Verdana	1	80	0	0	0	WM Stimuli\	0.7	1059.28571428571	0.6	906.666666666667	1	1189.5	0.8	929.75	1	1223.8	0.6	1428.83333333333	0.9	767.555555555556	0.6	941.666666666667	13	566435	3	566423	27	40	566462	-999999	566438	0	9	Cue0BackPROC	BP_007_BP20_BA.png	1	2	36	SessionSelectionList																																										19	380457	-20	0												36												
WM080112	160123_fnca	1	1	1	-1795422403	1	75.031	75.030	2.0.10.147	2.0.10.242	2.0.10.242	1.0.0.439	7	234	2	3	Verdana	1	80	0	0	0	WM Stimuli\	0.7	1059.28571428571	0.6	906.666666666667	1	1189.5	0.8	929.75	1	1223.8	0.6	1428.83333333333	0.9	767.555555555556	0.6	941.666666666667	13	566435	3	566423	27	40	566462	-999999	566438	0	10	TrialsPROC	BP_007_BP20_BA.png	1	2	37	SessionSelectionList														target	2	Body	0-Back	32	80	29	0	0	73	2	39	385028	2	14	51	382989	-1	384362	0	1373	3	2	2039	53	385042	-54	0											1					37												
WM080112	160123_fnca	1	1	1	-1795422403	1	75.031	75.030	2.0.10.147	2.0.10.242	2.0.10.242	1.0.0.439	7	234	2	3	Verdana	1	80	0	0	0	WM Stimuli\	0.7	1059.28571428571	0.6	906.666666666667	1	1189.5	0.8	929.75	1	1223.8	0.6	1428.83333333333	0.9	767.555555555556	0.6	941.666666666667	13	566435	3	566423	27	40	566462	-999999	566438	0	10	TrialsPROC	BP_011_BP4_BA.png	1	2	38	SessionSelectionList														nonlure	3	Body	0-Back	33	80	30	0	0	75	3	40	387601	1	13	72	385561	-1	386302	1	741	3	3	2040	53	387614	-54	0											2					38												
WM080112	160123_fnca	1	1	1	-1795422403	1	75.031	75.030	2.0.10.147	2.0.10.242	2.0.10.242	1.0.0.439	7	234	2	3	Verdana	1	80	0	0	0	WM Stimuli\	0.7	1059.28571428571	0.6	906.666666666667	1	1189.5	0.8	929.75	1	1223.8	0.6	1428.83333333333	0.9	767.555555555556	0.6	941.666666666667	13	566435	3	566423	27	40	566462	-999999	566438	0	10	TrialsPROC	BP_010_BP3_BA.png	1	2	39	SessionSelectionList														nonlure	3	Body	0-Back	34	80	31	0	0	77	4	39	390160	1	13	60	388121	-1	388886	1	765	3	3	2039	52	390173	-53	0											3					39												
WM080112	160123_fnca	1	1	1	-1795422403	1	75.031	75.030	2.0.10.147	2.0.10.242	2.0.10.242	1.0.0.439	7	234	2	3	Verdana	1	80	0	0	0	WM Stimuli\	0.7	1059.28571428571	0.6	906.666666666667	1	1189.5	0.8	929.75	1	1223.8	0.6	1428.83333333333	0.9	767.555555555556	0.6	941.666666666667	13	566435	3	566423	27	40	566462	-999999	566438	0	10	TrialsPROC	BP_008_BP21_BA.png	1	2	40	SessionSelectionList														nonlure	3	Body	0-Back	35	80	32	0	0	79	5	39	392718	2	14	58	390679	-1	391362	1	683	3	3	2039	53	392732	-54	0											4					40												
WM080112	160123_fnca	1	1	1	-1795422403	1	75.031	75.030	2.0.10.147	2.0.10.242	2.0.10.242	1.0.0.439	7	234	2	3	Verdana	1	80	0	0	0	WM Stimuli\	0.7	1059.28571428571	0.6	906.666666666667	1	1189.5	0.8	929.75	1	1223.8	0.6	1428.83333333333	0.9	767.555555555556	0.6	941.666666666667	13	566435	3	566423	27	40	566462	-999999	566438	0	10	TrialsPROC	BP_011_BP4_BA.png	1	2	41	SessionSelectionList														lure	3	Body	0-Back	36	80	33	0	0	73	1	39	395277	2	14	59	393238	-1	394642	0	1404	2	3	2039	53	395291	-54	0											5					41												
WM080112	160123_fnca	1	1	1	-1795422403	1	75.031	75.030	2.0.10.147	2.0.10.242	2.0.10.242	1.0.0.439	7	234	2	3	Verdana	1	80	0	0	0	WM Stimuli\	0.7	1059.28571428571	0.6	906.666666666667	1	1189.5	0.8	929.75	1	1223.8	0.6	1428.83333333333	0.9	767.555555555556	0.6	941.666666666667	13	566435	3	566423	27	40	566462	-999999	566438	0	10	TrialsPROC	BP_009_BP22_BA.png	1	2	42	SessionSelectionList														nonlure	3	Body	0-Back	37	80	34	0	0	75	1	39	397836	2	14	59	395797	-1	396411	1	614	3	3	2039	53	397850	-54	0											6					42												
WM080112	160123_fnca	1	1	1	-1795422403	1	75.031	75.030	2.0.10.147	2.0.10.242	2.0.10.242	1.0.0.439	7	234	2	3	Verdana	1	80	0	0	0	WM Stimuli\	0.7	1059.28571428571	0.6	906.666666666667	1	1189.5	0.8	929.75	1	1223.8	0.6	1428.83333333333	0.9	767.555555555556	0.6	941.666666666667	13	566435	3	566423	27	40	566462	-999999	566438	0	10	TrialsPROC	BP_009_BP22_BA.png	1	2	43	SessionSelectionList														lure	3	Body	0-Back	38	80	35	0	0	76	2	39	400395	2	14	59	398356	-1	400110	1	1754	3	3	2039	53	400409	-54	0											7					43												
WM080112	160123_fnca	1	1	1	-1795422403	1	75.031	75.030	2.0.10.147	2.0.10.242	2.0.10.242	1.0.0.439	7	234	2	3	Verdana	1	80	0	0	0	WM Stimuli\	0.7	1059.28571428571	0.6	906.666666666667	1	1189.5	0.8	929.75	1	1223.8	0.6	1428.83333333333	0.9	767.555555555556	0.6	941.666666666667	13	566435	3	566423	27	40	566462	-999999	566438	0	10	TrialsPROC	BP_008_BP21_BA.png	1	2	44	SessionSelectionList														lure	3	Body	0-Back	39	80	36	0	0	72	1	39	402954	2	14	59	400915	-1	402222	0	1307	2	3	2039	53	402968	-54	0											8					44												
WM080112	160123_fnca	1	1	1	-1795422403	1	75.031	75.030	2.0.10.147	2.0.10.242	2.0.10.242	1.0.0.439	7	234	2	3	Verdana	1	80	0	0	0	WM Stimuli\	0.7	1059.28571428571	0.6	906.666666666667	1	1189.5	0.8	929.75	1	1223.8	0.6	1428.83333333333	0.9	767.555555555556	0.6	941.666666666667	13	566435	3	566423	27	40	566462	-999999	566438	0	10	TrialsPROC	BP_007_BP20_BA.png	1	2	45	SessionSelectionList														target	2	Body	0-Back	40	80	37	0	0	68	1	39	405513	2	14	59	403474	-1	404468	0	994	3	2	2039	53	405527	-54	0											9					45												
WM080112	160123_fnca	1	1	1	-1795422403	1	75.031	75.030	2.0.10.147	2.0.10.242	2.0.10.242	1.0.0.439	7	234	2	3	Verdana	1	80	0	0	0	WM Stimuli\	0.7	1059.28571428571	0.6	906.666666666667	1	1189.5	0.8	929.75	1	1223.8	0.6	1428.83333333333	0.9	767.555555555556	0.6	941.666666666667	13	566435	3	566423	27	40	566462	-999999	566438	0	10	TrialsPROC	BP_012_BP5_BA.png	1	2	46	SessionSelectionList														nonlure	3	Body	0-Back	41	80	38	0	0	70	2	40	408086	1	13	72	406046	-1	406929	1	883	3	3	2040	53	408099	-54	0											10					46												
WM080112	160123_fnca	1	1	1	-1795422403	1	75.031	75.030	2.0.10.147	2.0.10.242	2.0.10.242	1.0.0.439	7	234	2	3	Verdana	1	80	0	0	0	WM Stimuli\	0.7	1059.28571428571	0.6	906.666666666667	1	1189.5	0.8	929.75	1	1223.8	0.6	1428.83333333333	0.9	767.555555555556	0.6	941.666666666667	13	566435	3	566423	27	40	566462	-999999	566438	0	11	Fix15secPROC	""	1	2	47	SessionSelectionList																																															7	408553	-8	0							47												
WM080112	160123_fnca	1	1	1	-1795422403	1	75.031	75.030	2.0.10.147	2.0.10.242	2.0.10.242	1.0.0.439	7	234	2	3	Verdana	1	80	0	0	0	WM Stimuli\	0.7	1059.28571428571	0.6	906.666666666667	1	1189.5	0.8	929.75	1	1223.8	0.6	1428.83333333333	0.9	767.555555555556	0.6	941.666666666667	13	566435	3	566423	27	40	566462	-999999	566438	0	12	Cue0BackPROC	PL_001_92012.png	1	2	48	SessionSelectionList																																										13	423559	-14	0												48												
WM080112	160123_fnca	1	1	1	-1795422403	1	75.031	75.030	2.0.10.147	2.0.10.242	2.0.10.242	1.0.0.439	7	234	2	3	Verdana	1	80	0	0	0	WM Stimuli\	0.7	1059.28571428571	0.6	906.666666666667	1	1189.5	0.8	929.75	1	1223.8	0.6	1428.83333333333	0.9	767.555555555556	0.6	941.666666666667	13	566435	3	566423	27	40	566462	-999999	566438	0	13	TrialsPROC	PL_003_92016.png	1	2	49	SessionSelectionList														nonlure	3	Place	0-Back	42	80	39	0	0	71	3	39	428144	2	14	59	426105	-1	427196	1	1091	3	3	2039	53	428158	-54	0												1				49												
WM080112	160123_fnca	1	1	1	-1795422403	1	75.031	75.030	2.0.10.147	2.0.10.242	2.0.10.242	1.0.0.439	7	234	2	3	Verdana	1	80	0	0	0	WM Stimuli\	0.7	1059.28571428571	0.6	906.666666666667	1	1189.5	0.8	929.75	1	1223.8	0.6	1428.83333333333	0.9	767.555555555556	0.6	941.666666666667	13	566435	3	566423	27	40	566462	-999999	566438	0	13	TrialsPROC	PL_003_92016.png	1	2	50	SessionSelectionList														lure	3	Place	0-Back	43	80	39	0	1	68	3	40	430717	1	13	72	428677	-1	0	0	0	""	3	2040	53	430730	-54	0												2				50												
WM080112	160123_fnca	1	1	1	-1795422403	1	75.031	75.030	2.0.10.147	2.0.10.242	2.0.10.242	1.0.0.439	7	234	2	3	Verdana	1	80	0	0	0	WM Stimuli\	0.7	1059.28571428571	0.6	906.666666666667	1	1189.5	0.8	929.75	1	1223.8	0.6	1428.83333333333	0.9	767.555555555556	0.6	941.666666666667	13	566435	3	566423	27	40	566462	-999999	566438	0	13	TrialsPROC	PL_006_92025.png	1	2	51	SessionSelectionList														nonlure	3	Place	0-Back	44	80	40	0	0	70	1	39	433289	1	14	73	431250	-1	432201	1	951	3	3	2039	53	433303	-54	0												3				51												
WM080112	160123_fnca	1	1	1	-1795422403	1	75.031	75.030	2.0.10.147	2.0.10.242	2.0.10.242	1.0.0.439	7	234	2	3	Verdana	1	80	0	0	0	WM Stimuli\	0.7	1059.28571428571	0.6	906.666666666667	1	1189.5	0.8	929.75	1	1223.8	0.6	1428.83333333333	0.9	767.555555555556	0.6	941.666666666667	13	566435	3	566423	27	40	566462	-999999	566438	0	13	TrialsPROC	PL_001_92012.png	1	2	52	SessionSelectionList														target	2	Place	0-Back	45	80	41	0	0	67	2	39	435861	2	14	72	433822	-1	435115	0	1293	3	2	2039	53	435875	-54	0												4				52												
WM080112	160123_fnca	1	1	1	-1795422403	1	75.031	75.030	2.0.10.147	2.0.10.242	2.0.10.242	1.0.0.439	7	234	2	3	Verdana	1	80	0	0	0	WM Stimuli\	0.7	1059.28571428571	0.6	906.666666666667	1	1189.5	0.8	929.75	1	1223.8	0.6	1428.83333333333	0.9	767.555555555556	0.6	941.666666666667	13	566435	3	566423	27	40	566462	-999999	566438	0	13	TrialsPROC	PL_004_92023.png	1	2	53	SessionSelectionList														nonlure	3	Place	0-Back	46	80	42	0	0	68	3	39	438420	2	14	59	436381	-1	437701	1	1320	3	3	2039	53	438434	-54	0												5				53												
WM080112	160123_fnca	1	1	1	-1795422403	1	75.031	75.030	2.0.10.147	2.0.10.242	2.0.10.242	1.0.0.439	7	234	2	3	Verdana	1	80	0	0	0	WM Stimuli\	0.7	1059.28571428571	0.6	906.666666666667	1	1189.5	0.8	929.75	1	1223.8	0.6	1428.83333333333	0.9	767.555555555556	0.6	941.666666666667	13	566435	3	566423	27	40	566462	-999999	566438	0	13	TrialsPROC	PL_005_92024.png	1	2	54	SessionSelectionList														nonlure	3	Place	0-Back	47	80	43	0	0	69	4	39	440992	2	14	72	438953	-1	440776	1	1823	3	3	2039	53	441006	-54	0												6				54												
WM080112	160123_fnca	1	1	1	-1795422403	1	75.031	75.030	2.0.10.147	2.0.10.242	2.0.10.242	1.0.0.439	7	234	2	3	Verdana	1	80	0	0	0	WM Stimuli\	0.7	1059.28571428571	0.6	906.666666666667	1	1189.5	0.8	929.75	1	1223.8	0.6	1428.83333333333	0.9	767.555555555556	0.6	941.666666666667	13	566435	3	566423	27	40	566462	-999999	566438	0	13	TrialsPROC	PL_001_92012.png	1	2	55	SessionSelectionList														target	2	Place	0-Back	48	80	44	0	0	67	5	40	443565	1	13	72	441525	-1	443485	0	1960	3	2	2040	53	443578	-54	0												7				55												
WM080112	160123_fnca	1	1	1	-1795422403	1	75.031	75.030	2.0.10.147	2.0.10.242	2.0.10.242	1.0.0.439	7	234	2	3	Verdana	1	80	0	0	0	WM Stimuli\	0.7	1059.28571428571	0.6	906.666666666667	1	1189.5	0.8	929.75	1	1223.8	0.6	1428.83333333333	0.9	767.555555555556	0.6	941.666666666667	13	566435	3	566423	27	40	566462	-999999	566438	0	13	TrialsPROC	PL_002_92014.png	1	2	56	SessionSelectionList														nonlure	3	Place	0-Back	49	80	45	0	0	68	6	39	446137	1	14	73	444098	-1	445836	1	1738	3	3	2039	53	446151	-54	0												8				56												
WM080112	160123_fnca	1	1	1	-1795422403	1	75.031	75.030	2.0.10.147	2.0.10.242	2.0.10.242	1.0.0.439	7	234	2	3	Verdana	1	80	0	0	0	WM Stimuli\	0.7	1059.28571428571	0.6	906.666666666667	1	1189.5	0.8	929.75	1	1223.8	0.6	1428.83333333333	0.9	767.555555555556	0.6	941.666666666667	13	566435	3	566423	27	40	566462	-999999	566438	0	13	TrialsPROC	PL_004_92023.png	1	2	57	SessionSelectionList														lure	3	Place	0-Back	50	80	46	0	0	66	1	39	448696	1	14	59	446657	-1	447604	0	947	2	3	2039	53	448710	-54	0												9				57												
WM080112	160123_fnca	1	1	1	-1795422403	1	75.031	75.030	2.0.10.147	2.0.10.242	2.0.10.242	1.0.0.439	7	234	2	3	Verdana	1	80	0	0	0	WM Stimuli\	0.7	1059.28571428571	0.6	906.666666666667	1	1189.5	0.8	929.75	1	1223.8	0.6	1428.83333333333	0.9	767.555555555556	0.6	941.666666666667	13	566435	3	566423	27	40	566462	-999999	566438	0	13	TrialsPROC	PL_006_92025.png	1	2	58	SessionSelectionList														lure	3	Place	0-Back	51	80	47	0	0	67	1	39	451255	1	14	59	449216	-1	450866	1	1650	3	3	2039	53	451269	-54	0												10				58												
WM080112	160123_fnca	1	1	1	-1795422403	1	75.031	75.030	2.0.10.147	2.0.10.242	2.0.10.242	1.0.0.439	7	234	2	3	Verdana	1	80	0	0	0	WM Stimuli\	0.7	1059.28571428571	0.6	906.666666666667	1	1189.5	0.8	929.75	1	1223.8	0.6	1428.83333333333	0.9	767.555555555556	0.6	941.666666666667	13	566435	3	566423	27	40	566462	-999999	566438	0	14	Cue2BackPROC	""	1	2	59	SessionSelectionList									5	451721	-6	0																																													59												
WM080112	160123_fnca	1	1	1	-1795422403	1	75.031	75.030	2.0.10.147	2.0.10.242	2.0.10.242	1.0.0.439	7	234	2	3	Verdana	1	80	0	0	0	WM Stimuli\	0.7	1059.28571428571	0.6	906.666666666667	1	1189.5	0.8	929.75	1	1223.8	0.6	1428.83333333333	0.9	767.555555555556	0.6	941.666666666667	13	566435	3	566423	27	40	566462	-999999	566438	0	15	TrialsPROC	FC_010_F5.png	1	2	60	SessionSelectionList														nonlure	3	Face	2-Back	52	80	48	0	0	67	2	40	456320	1	13	64	454280	-1	456191	1	1911	3	3	2040	53	456333	-54	0													1			60												
WM080112	160123_fnca	1	1	1	-1795422403	1	75.031	75.030	2.0.10.147	2.0.10.242	2.0.10.242	1.0.0.439	7	234	2	3	Verdana	1	80	0	0	0	WM Stimuli\	0.7	1059.28571428571	0.6	906.666666666667	1	1189.5	0.8	929.75	1	1223.8	0.6	1428.83333333333	0.9	767.555555555556	0.6	941.666666666667	13	566435	3	566423	27	40	566462	-999999	566438	0	15	TrialsPROC	FC_012_F6.png	1	2	61	SessionSelectionList														nonlure	3	Face	2-Back	53	80	49	0	0	67	3	39	458892	1	14	73	456853	-1	457995	1	1142	3	3	2039	53	458906	-54	0													2			61												
WM080112	160123_fnca	1	1	1	-1795422403	1	75.031	75.030	2.0.10.147	2.0.10.242	2.0.10.242	1.0.0.439	7	234	2	3	Verdana	1	80	0	0	0	WM Stimuli\	0.7	1059.28571428571	0.6	906.666666666667	1	1189.5	0.8	929.75	1	1223.8	0.6	1428.83333333333	0.9	767.555555555556	0.6	941.666666666667	13	566435	3	566423	27	40	566462	-999999	566438	0	15	TrialsPROC	FC_010_F5.png	1	2	62	SessionSelectionList														target	2	Face	2-Back	54	80	50	0	0	67	1	39	461464	2	14	72	459425	-1	460009	1	584	2	2	2039	53	461478	-54	0													3			62												
WM080112	160123_fnca	1	1	1	-1795422403	1	75.031	75.030	2.0.10.147	2.0.10.242	2.0.10.242	1.0.0.439	7	234	2	3	Verdana	1	80	0	0	0	WM Stimuli\	0.7	1059.28571428571	0.6	906.666666666667	1	1189.5	0.8	929.75	1	1223.8	0.6	1428.83333333333	0.9	767.555555555556	0.6	941.666666666667	13	566435	3	566423	27	40	566462	-999999	566438	0	15	TrialsPROC	FC_008_F4.png	1	2	63	SessionSelectionList														nonlure	3	Face	2-Back	55	80	51	0	0	67	1	39	464036	2	14	72	461997	-1	462656	1	659	3	3	2039	53	464050	-54	0													4			63												
WM080112	160123_fnca	1	1	1	-1795422403	1	75.031	75.030	2.0.10.147	2.0.10.242	2.0.10.242	1.0.0.439	7	234	2	3	Verdana	1	80	0	0	0	WM Stimuli\	0.7	1059.28571428571	0.6	906.666666666667	1	1189.5	0.8	929.75	1	1223.8	0.6	1428.83333333333	0.9	767.555555555556	0.6	941.666666666667	13	566435	3	566423	27	40	566462	-999999	566438	0	15	TrialsPROC	FC_012_F6.png	1	2	64	SessionSelectionList														lure	3	Face	2-Back	56	80	52	0	0	67	2	39	466609	1	13	73	464570	-1	466487	1	1917	3	3	2039	52	466622	-53	0													5			64												
WM080112	160123_fnca	1	1	1	-1795422403	1	75.031	75.030	2.0.10.147	2.0.10.242	2.0.10.242	1.0.0.439	7	234	2	3	Verdana	1	80	0	0	0	WM Stimuli\	0.7	1059.28571428571	0.6	906.666666666667	1	1189.5	0.8	929.75	1	1223.8	0.6	1428.83333333333	0.9	767.555555555556	0.6	941.666666666667	13	566435	3	566423	27	40	566462	-999999	566438	0	15	TrialsPROC	FC_008_F4.png	1	2	65	SessionSelectionList														target	2	Face	2-Back	57	80	53	0	0	67	1	39	469181	1	14	72	467142	-1	468479	1	1337	2	2	2039	53	469195	-54	0													6			65												
WM080112	160123_fnca	1	1	1	-1795422403	1	75.031	75.030	2.0.10.147	2.0.10.242	2.0.10.242	1.0.0.439	7	234	2	3	Verdana	1	80	0	0	0	WM Stimuli\	0.7	1059.28571428571	0.6	906.666666666667	1	1189.5	0.8	929.75	1	1223.8	0.6	1428.83333333333	0.9	767.555555555556	0.6	941.666666666667	13	566435	3	566423	27	40	566462	-999999	566438	0	15	TrialsPROC	FC_007_M4.png	1	2	66	SessionSelectionList														nonlure	3	Face	2-Back	58	80	54	0	0	67	1	39	471753	2	14	72	469714	-1	470574	1	860	3	3	2039	53	471767	-54	0													7			66												
WM080112	160123_fnca	1	1	1	-1795422403	1	75.031	75.030	2.0.10.147	2.0.10.242	2.0.10.242	1.0.0.439	7	234	2	3	Verdana	1	80	0	0	0	WM Stimuli\	0.7	1059.28571428571	0.6	906.666666666667	1	1189.5	0.8	929.75	1	1223.8	0.6	1428.83333333333	0.9	767.555555555556	0.6	941.666666666667	13	566435	3	566423	27	40	566462	-999999	566438	0	15	TrialsPROC	FC_007_M4.png	1	2	67	SessionSelectionList														lure	3	Face	2-Back	59	80	55	0	0	67	2	40	474326	1	13	72	472286	-1	473355	1	1069	3	3	2040	53	474339	-54	0													8			67												
WM080112	160123_fnca	1	1	1	-1795422403	1	75.031	75.030	2.0.10.147	2.0.10.242	2.0.10.242	1.0.0.439	7	234	2	3	Verdana	1	80	0	0	0	WM Stimuli\	0.7	1059.28571428571	0.6	906.666666666667	1	1189.5	0.8	929.75	1	1223.8	0.6	1428.83333333333	0.9	767.555555555556	0.6	941.666666666667	13	566435	3	566423	27	40	566462	-999999	566438	0	15	TrialsPROC	FC_009_M5.png	1	2	68	SessionSelectionList														nonlure	3	Face	2-Back	60	80	56	0	0	67	3	39	476898	1	14	73	474859	-1	475759	1	900	3	3	2039	53	476912	-54	0													9			68												
WM080112	160123_fnca	1	1	1	-1795422403	1	75.031	75.030	2.0.10.147	2.0.10.242	2.0.10.242	1.0.0.439	7	234	2	3	Verdana	1	80	0	0	0	WM Stimuli\	0.7	1059.28571428571	0.6	906.666666666667	1	1189.5	0.8	929.75	1	1223.8	0.6	1428.83333333333	0.9	767.555555555556	0.6	941.666666666667	13	566435	3	566423	27	40	566462	-999999	566438	0	15	TrialsPROC	FC_011_M6.png	1	2	69	SessionSelectionList														nonlure	3	Face	2-Back	61	80	57	0	0	67	4	39	479470	2	14	72	477431	-1	478947	1	1516	3	3	2039	53	479484	-54	0													10			69												
WM080112	160123_fnca	1	1	1	-1795422403	1	75.031	75.030	2.0.10.147	2.0.10.242	2.0.10.242	1.0.0.439	7	234	2	3	Verdana	1	80	0	0	0	WM Stimuli\	0.7	1059.28571428571	0.6	906.666666666667	1	1189.5	0.8	929.75	1	1223.8	0.6	1428.83333333333	0.9	767.555555555556	0.6	941.666666666667	13	566435	3	566423	27	40	566462	-999999	566438	0	16	Fix15secPROC	""	1	2	70	SessionSelectionList																																															6	479937	-7	0							70												
WM080112	160123_fnca	1	1	1	-1795422403	1	75.031	75.030	2.0.10.147	2.0.10.242	2.0.10.242	1.0.0.439	7	234	2	3	Verdana	1	80	0	0	0	WM Stimuli\	0.7	1059.28571428571	0.6	906.666666666667	1	1189.5	0.8	929.75	1	1223.8	0.6	1428.83333333333	0.9	767.555555555556	0.6	941.666666666667	13	566435	3	566423	27	40	566462	-999999	566438	0	17	Cue0BackPROC	TO_007_TOOL7_BA.png	1	2	71	SessionSelectionList																																										40	494971	-41	0												71												
WM080112	160123_fnca	1	1	1	-1795422403	1	75.031	75.030	2.0.10.147	2.0.10.242	2.0.10.242	1.0.0.439	7	234	2	3	Verdana	1	80	0	0	0	WM Stimuli\	0.7	1059.28571428571	0.6	906.666666666667	1	1189.5	0.8	929.75	1	1223.8	0.6	1428.83333333333	0.9	767.555555555556	0.6	941.666666666667	13	566435	3	566423	27	40	566462	-999999	566438	0	18	TrialsPROC	TO_010_TOOL10_BA.png	1	2	72	SessionSelectionList														nonlure	3	Tools	0-Back	62	80	58	0	0	68	5	39	499555	2	14	85	497516	-1	498516	1	1000	3	3	2039	53	499569	-54	0														1		72												
WM080112	160123_fnca	1	1	1	-1795422403	1	75.031	75.030	2.0.10.147	2.0.10.242	2.0.10.242	1.0.0.439	7	234	2	3	Verdana	1	80	0	0	0	WM Stimuli\	0.7	1059.28571428571	0.6	906.666666666667	1	1189.5	0.8	929.75	1	1223.8	0.6	1428.83333333333	0.9	767.555555555556	0.6	941.666666666667	13	566435	3	566423	27	40	566462	-999999	566438	0	18	TrialsPROC	TO_009_TOOL9_BA.png	1	2	73	SessionSelectionList														nonlure	3	Tools	0-Back	63	80	59	0	0	69	6	39	502141	2	14	86	500102	-1	501054	1	952	3	3	2039	53	502155	-54	0														2		73												
WM080112	160123_fnca	1	1	1	-1795422403	1	75.031	75.030	2.0.10.147	2.0.10.242	2.0.10.242	1.0.0.439	7	234	2	3	Verdana	1	80	0	0	0	WM Stimuli\	0.7	1059.28571428571	0.6	906.666666666667	1	1189.5	0.8	929.75	1	1223.8	0.6	1428.83333333333	0.9	767.555555555556	0.6	941.666666666667	13	566435	3	566423	27	40	566462	-999999	566438	0	18	TrialsPROC	TO_009_TOOL9_BA.png	1	2	74	SessionSelectionList														lure	3	Tools	0-Back	64	80	60	0	0	67	1	39	504700	1	14	59	502661	-1	503779	0	1118	2	3	2039	53	504714	-54	0														3		74												
WM080112	160123_fnca	1	1	1	-1795422403	1	75.031	75.030	2.0.10.147	2.0.10.242	2.0.10.242	1.0.0.439	7	234	2	3	Verdana	1	80	0	0	0	WM Stimuli\	0.7	1059.28571428571	0.6	906.666666666667	1	1189.5	0.8	929.75	1	1223.8	0.6	1428.83333333333	0.9	767.555555555556	0.6	941.666666666667	13	566435	3	566423	27	40	566462	-999999	566438	0	18	TrialsPROC	TO_008_TOOL8_BA.png	1	2	75	SessionSelectionList														nonlure	3	Tools	0-Back	65	80	61	0	0	68	1	40	507286	1	13	85	505246	-1	506067	1	821	3	3	2040	53	507299	-54	0														4		75												
WM080112	160123_fnca	1	1	1	-1795422403	1	75.031	75.030	2.0.10.147	2.0.10.242	2.0.10.242	1.0.0.439	7	234	2	3	Verdana	1	80	0	0	0	WM Stimuli\	0.7	1059.28571428571	0.6	906.666666666667	1	1189.5	0.8	929.75	1	1223.8	0.6	1428.83333333333	0.9	767.555555555556	0.6	941.666666666667	13	566435	3	566423	27	40	566462	-999999	566438	0	18	TrialsPROC	TO_011_TOOL11_BA.png	1	2	76	SessionSelectionList														nonlure	3	Tools	0-Back	66	80	62	0	0	69	2	39	509871	2	14	86	507832	-1	508511	1	679	3	3	2039	53	509885	-54	0														5		76												
WM080112	160123_fnca	1	1	1	-1795422403	1	75.031	75.030	2.0.10.147	2.0.10.242	2.0.10.242	1.0.0.439	7	234	2	3	Verdana	1	80	0	0	0	WM Stimuli\	0.7	1059.28571428571	0.6	906.666666666667	1	1189.5	0.8	929.75	1	1223.8	0.6	1428.83333333333	0.9	767.555555555556	0.6	941.666666666667	13	566435	3	566423	27	40	566462	-999999	566438	0	18	TrialsPROC	TO_012_TOOL12_BA.png	1	2	77	SessionSelectionList														nonlure	3	Tools	0-Back	67	80	63	0	0	69	3	39	512457	1	14	86	510418	-1	511187	1	769	3	3	2039	53	512471	-54	0														6		77												
WM080112	160123_fnca	1	1	1	-1795422403	1	75.031	75.030	2.0.10.147	2.0.10.242	2.0.10.242	1.0.0.439	7	234	2	3	Verdana	1	80	0	0	0	WM Stimuli\	0.7	1059.28571428571	0.6	906.666666666667	1	1189.5	0.8	929.75	1	1223.8	0.6	1428.83333333333	0.9	767.555555555556	0.6	941.666666666667	13	566435	3	566423	27	40	566462	-999999	566438	0	18	TrialsPROC	TO_010_TOOL10_BA.png	1	2	78	SessionSelectionList														lure	3	Tools	0-Back	68	80	63	0	1	68	3	39	515016	1	14	59	512977	-1	0	0	0	""	3	2039	53	515030	-54	0														7		78												
WM080112	160123_fnca	1	1	1	-1795422403	1	75.031	75.030	2.0.10.147	2.0.10.242	2.0.10.242	1.0.0.439	7	234	2	3	Verdana	1	80	0	0	0	WM Stimuli\	0.7	1059.28571428571	0.6	906.666666666667	1	1189.5	0.8	929.75	1	1223.8	0.6	1428.83333333333	0.9	767.555555555556	0.6	941.666666666667	13	566435	3	566423	27	40	566462	-999999	566438	0	18	TrialsPROC	TO_007_TOOL7_BA.png	1	2	79	SessionSelectionList														target	2	Tools	0-Back	69	80	64	0	0	66	1	39	517575	1	14	59	515536	-1	516674	0	1138	3	2	2039	53	517589	-54	0														8		79												
WM080112	160123_fnca	1	1	1	-1795422403	1	75.031	75.030	2.0.10.147	2.0.10.242	2.0.10.242	1.0.0.439	7	234	2	3	Verdana	1	80	0	0	0	WM Stimuli\	0.7	1059.28571428571	0.6	906.666666666667	1	1189.5	0.8	929.75	1	1223.8	0.6	1428.83333333333	0.9	767.555555555556	0.6	941.666666666667	13	566435	3	566423	27	40	566462	-999999	566438	0	18	TrialsPROC	TO_008_TOOL8_BA.png	1	2	80	SessionSelectionList														lure	3	Tools	0-Back	70	80	65	0	0	64	1	39	520134	1	14	59	518095	-1	519178	0	1083	2	3	2039	53	520148	-54	0														9		80												
WM080112	160123_fnca	1	1	1	-1795422403	1	75.031	75.030	2.0.10.147	2.0.10.242	2.0.10.242	1.0.0.439	7	234	2	3	Verdana	1	80	0	0	0	WM Stimuli\	0.7	1059.28571428571	0.6	906.666666666667	1	1189.5	0.8	929.75	1	1223.8	0.6	1428.83333333333	0.9	767.555555555556	0.6	941.666666666667	13	566435	3	566423	27	40	566462	-999999	566438	0	18	TrialsPROC	TO_007_TOOL7_BA.png	1	2	81	SessionSelectionList														target	2	Tools	0-Back	71	80	66	0	0	65	2	39	522693	1	14	59	520654	-1	522083	1	1429	2	2	2039	53	522707	-54	0														10		81												
WM080112	160123_fnca	1	1	1	-1795422403	1	75.031	75.030	2.0.10.147	2.0.10.242	2.0.10.242	1.0.0.439	7	234	2	3	Verdana	1	80	0	0	0	WM Stimuli\	0.7	1059.28571428571	0.6	906.666666666667	1	1189.5	0.8	929.75	1	1223.8	0.6	1428.83333333333	0.9	767.555555555556	0.6	941.666666666667	13	566435	3	566423	27	40	566462	-999999	566438	0	19	Cue2BackPROC	""	1	2	82	SessionSelectionList									5	523159	-6	0																																													82												
WM080112	160123_fnca	1	1	1	-1795422403	1	75.031	75.030	2.0.10.147	2.0.10.242	2.0.10.242	1.0.0.439	7	234	2	3	Verdana	1	80	0	0	0	WM Stimuli\	0.7	1059.28571428571	0.6	906.666666666667	1	1189.5	0.8	929.75	1	1223.8	0.6	1428.83333333333	0.9	767.555555555556	0.6	941.666666666667	13	566435	3	566423	27	40	566462	-999999	566438	0	20	TrialsPROC	PL_007_92026.png	1	2	83	SessionSelectionList														nonlure	3	Place	2-Back	72	80	67	0	0	65	1	39	527771	1	13	78	525732	-1	527293	1	1561	3	3	2039	52	527784	-53	0															1	83												
WM080112	160123_fnca	1	1	1	-1795422403	1	75.031	75.030	2.0.10.147	2.0.10.242	2.0.10.242	1.0.0.439	7	234	2	3	Verdana	1	80	0	0	0	WM Stimuli\	0.7	1059.28571428571	0.6	906.666666666667	1	1189.5	0.8	929.75	1	1223.8	0.6	1428.83333333333	0.9	767.555555555556	0.6	941.666666666667	13	566435	3	566423	27	40	566462	-999999	566438	0	20	TrialsPROC	PL_007_92026.png	1	2	84	SessionSelectionList														lure	3	Place	2-Back	73	80	68	0	0	65	2	39	530343	1	14	72	528304	-1	529723	1	1419	3	3	2039	53	530357	-54	0															2	84												
WM080112	160123_fnca	1	1	1	-1795422403	1	75.031	75.030	2.0.10.147	2.0.10.242	2.0.10.242	1.0.0.439	7	234	2	3	Verdana	1	80	0	0	0	WM Stimuli\	0.7	1059.28571428571	0.6	906.666666666667	1	1189.5	0.8	929.75	1	1223.8	0.6	1428.83333333333	0.9	767.555555555556	0.6	941.666666666667	13	566435	3	566423	27	40	566462	-999999	566438	0	20	TrialsPROC	PL_010_92038.png	1	2	85	SessionSelectionList														nonlure	3	Place	2-Back	74	80	69	0	0	65	3	40	532929	1	13	85	530889	-1	531949	1	1060	3	3	2040	53	532942	-54	0															3	85												
WM080112	160123_fnca	1	1	1	-1795422403	1	75.031	75.030	2.0.10.147	2.0.10.242	2.0.10.242	1.0.0.439	7	234	2	3	Verdana	1	80	0	0	0	WM Stimuli\	0.7	1059.28571428571	0.6	906.666666666667	1	1189.5	0.8	929.75	1	1223.8	0.6	1428.83333333333	0.9	767.555555555556	0.6	941.666666666667	13	566435	3	566423	27	40	566462	-999999	566438	0	20	TrialsPROC	PL_009_92037.png	1	2	86	SessionSelectionList														nonlure	3	Place	2-Back	75	80	70	0	0	65	4	39	535514	2	14	86	533475	-1	534789	1	1314	3	3	2039	53	535528	-54	0															4	86												
WM080112	160123_fnca	1	1	1	-1795422403	1	75.031	75.030	2.0.10.147	2.0.10.242	2.0.10.242	1.0.0.439	7	234	2	3	Verdana	1	80	0	0	0	WM Stimuli\	0.7	1059.28571428571	0.6	906.666666666667	1	1189.5	0.8	929.75	1	1223.8	0.6	1428.83333333333	0.9	767.555555555556	0.6	941.666666666667	13	566435	3	566423	27	40	566462	-999999	566438	0	20	TrialsPROC	PL_010_92038.png	1	2	87	SessionSelectionList														target	2	Place	2-Back	76	80	71	0	0	65	1	38	538073	2	14	60	536035	-1	536774	1	739	2	2	2038	52	538087	-53	0															5	87												
WM080112	160123_fnca	1	1	1	-1795422403	1	75.031	75.030	2.0.10.147	2.0.10.242	2.0.10.242	1.0.0.439	7	234	2	3	Verdana	1	80	0	0	0	WM Stimuli\	0.7	1059.28571428571	0.6	906.666666666667	1	1189.5	0.8	929.75	1	1223.8	0.6	1428.83333333333	0.9	767.555555555556	0.6	941.666666666667	13	566435	3	566423	27	40	566462	-999999	566438	0	20	TrialsPROC	PL_009_92037.png	1	2	88	SessionSelectionList														target	2	Place	2-Back	77	80	72	0	0	65	2	38	540632	2	14	59	538594	-1	539942	1	1348	2	2	2038	52	540646	-53	0															6	88												
WM080112	160123_fnca	1	1	1	-1795422403	1	75.031	75.030	2.0.10.147	2.0.10.242	2.0.10.242	1.0.0.439	7	234	2	3	Verdana	1	80	0	0	0	WM Stimuli\	0.7	1059.28571428571	0.6	906.666666666667	1	1189.5	0.8	929.75	1	1223.8	0.6	1428.83333333333	0.9	767.555555555556	0.6	941.666666666667	13	566435	3	566423	27	40	566462	-999999	566438	0	20	TrialsPROC	PL_008_92033.png	1	2	89	SessionSelectionList														nonlure	3	Place	2-Back	78	80	73	0	0	65	1	39	543218	1	14	85	541179	-1	541975	1	796	3	3	2039	53	543232	-54	0															7	89												
WM080112	160123_fnca	1	1	1	-1795422403	1	75.031	75.030	2.0.10.147	2.0.10.242	2.0.10.242	1.0.0.439	7	234	2	3	Verdana	1	80	0	0	0	WM Stimuli\	0.7	1059.28571428571	0.6	906.666666666667	1	1189.5	0.8	929.75	1	1223.8	0.6	1428.83333333333	0.9	767.555555555556	0.6	941.666666666667	13	566435	3	566423	27	40	566462	-999999	566438	0	20	TrialsPROC	PL_012_92047.png	1	2	90	SessionSelectionList														nonlure	3	Place	2-Back	79	80	74	0	0	65	2	39	545803	2	14	85	543764	-1	544838	1	1074	3	3	2039	53	545817	-54	0															8	90												
WM080112	160123_fnca	1	1	1	-1795422403	1	75.031	75.030	2.0.10.147	2.0.10.242	2.0.10.242	1.0.0.439	7	234	2	3	Verdana	1	80	0	0	0	WM Stimuli\	0.7	1059.28571428571	0.6	906.666666666667	1	1189.5	0.8	929.75	1	1223.8	0.6	1428.83333333333	0.9	767.555555555556	0.6	941.666666666667	13	566435	3	566423	27	40	566462	-999999	566438	0	20	TrialsPROC	PL_012_92047.png	1	2	91	SessionSelectionList														lure	3	Place	2-Back	80	80	75	0	0	65	3	39	548376	1	14	73	546337	-1	548126	1	1789	3	3	2039	53	548390	-54	0															9	91												
WM080112	160123_fnca	1	1	1	-1795422403	1	75.031	75.030	2.0.10.147	2.0.10.242	2.0.10.242	1.0.0.439	7	234	2	3	Verdana	1	80	0	0	0	WM Stimuli\	0.7	1059.28571428571	0.6	906.666666666667	1	1189.5	0.8	929.75	1	1223.8	0.6	1428.83333333333	0.9	767.555555555556	0.6	941.666666666667	13	566435	3	566423	27	40	566462	-999999	566438	0	20	TrialsPROC	PL_011_92044.png	1	2	92	SessionSelectionList														nonlure	3	Place	2-Back	80	80	76	0	0	65	4	39	550961	2	14	85	548922	-1	550060	1	1138	3	3	2039	53	550975	-54	0															10	92												
WM080112	160123_fnca	1	1	1	-1795422403	1	75.031	75.030	2.0.10.147	2.0.10.242	2.0.10.242	1.0.0.439	7	234	2	3	Verdana	1	80	0	0	0	WM Stimuli\	0.7	1059.28571428571	0.6	906.666666666667	1	1189.5	0.8	929.75	1	1223.8	0.6	1428.83333333333	0.9	767.555555555556	0.6	941.666666666667	13	566435	3	566423	27	40	566462	-999999	566438	0	21	Fix15secPROC	""	1	2	93	SessionSelectionList																																															6	551428	-7	0							93												
