ExperimentName	HCPID	RunNumber	Subject	Session	RandomSeed	Group	Laptop.RefreshRate	ScannerD2.RefreshRate	StudioVersion	RuntimeVersion	RuntimeVersionExpected	ExperimentVersion	triggercode	Allowed	Target	Nontarget	FontStyle	RunTrialNumber[Session]	TrialsPerRun[Session]	TotalRespGreater200[Session]	ConsecRTLess200[Session]	ConsecNonResp[Session]	StimuliDir	ACC_2_Back_Body	Avg_RT_For_Correct_Trials_2_Back_Body	ACC_0_Back_Body	Avg_RT_For_Correct_Trials_0_Back_Body	ACC_2_Back_Face	Avg_RT_For_Correct_Trials_2_Back_Face	ACC_0_Back_Face	Avg_RT_For_Correct_Trials_0_Back_Face	ACC_2_Back_Place	Avg_RT_For_Correct_Trials_2_Back_Place	ACC_0_Back_Place	Avg_RT_For_Correct_Trials_0_Back_Place	ACC_2_Back_Tools	Avg_RT_For_Correct_Trials_2_Back_Tools	ACC_0_Back_Tools	Avg_RT_For_Correct_Trials_0_Back_Tools	ExpInstrucFeelFreeToRest.OnsetDelay	ExpInstrucFeelFreeToRest.OnsetTime	ExpInstrucFeelFreeToRest.DurationError	ExpInstrucFeelFreeToRest.StartTime	ExpInstrucFeelFreeToRest.OnsetToOnsetTime	FeelFreeToRest.OnsetDelay	FeelFreeToRest.OnsetTime	FeelFreeToRest.DurationError	FeelFreeToRest.StartTime	FeelFreeToRest.OnsetToOnsetTime	SessionSelectionList	Procedure[Block]	Stimulus[Block]	RunNumberFilterValue	SessionSelectionList.Cycle	SessionSelectionList.Sample	Running[Block]	IntroButtonMap.OnsetDelay	IntroButtonMap.OnsetTime	IntroButtonMap.DurationError	IntroButtonMap.OnsetToOnsetTime	GetReady.OnsetDelay	GetReady.OnsetTime	GetReady.DurationError	GetReady.OnsetToOnsetTime	Cue2Back.OnsetDelay	Cue2Back.OnsetTime	Cue2Back.DurationError	Cue2Back.OnsetToOnsetTime	Run1Block1	TargetType	CorrectResponse	StimType	BlockType	RunTrialNumber[Block]	TrialsPerRun[Block]	TotalRespGreater200[Block]	ConsecRTLess200[Block]	ConsecNonResp[Block]	ControlAcc	ConsecSameResp	ExperimenterWindow.OnsetDelay	ExperimenterWindow.OnsetTime	ExperimenterWindow.DurationError	ExperimenterWindow.OnsetToOnsetTime	Stim.OnsetDelay	Stim.OnsetTime	Stim.DurationError	Stim.RTTime	Stim.ACC	Stim.RT	Stim.RESP	Stim.CRESP	Stim.OnsetToOnsetTime	Fix.OnsetDelay	Fix.OnsetTime	Fix.DurationError	Fix.OnsetToOnsetTime	CueTarget.OnsetDelay	CueTarget.OnsetTime	CueTarget.DurationError	CueTarget.OnsetToOnsetTime	Run1Block2	Fix15sec.OnsetDelay	Fix15sec.OnsetTime	Fix15sec.DurationError	Fix15sec.OnsetToOnsetTime	Run1Block3	Run1Block4	Run1Block5	Run1Block6	Run1Block7	Run1Block8	Block	Procedure[Trial]	Stimulus[Trial]	ReadyList	Running[Trial]	ReadyList.Cycle	ReadyList.Sample	SyncSlide.OnsetDelay	SyncSlide.OnsetTime	SyncSlide.DurationError	SyncSlide.FinishTime	SyncSlide.OnsetToOnsetTime	Trial
WM080112	149337_fnca	1	1	1	779248500	1	75.031	75.030	2.0.10.147	2.0.10.242	2.0.10.242	1.0.0.439	7	234	2	3	Verdana	1	80	0	0	0	WM Stimuli\	0.6	795.333333333333	0.9	802	1	655.2	1	693.4	1	780.6	1	553.7	0.7	801.285714285714	1	542.4	13	374410	2	374398	26	39	374436	-999999	374413	0	1	TRSyncPROC	""	1	2	1	SessionSelectionList	105	27350	-999999	0	36	69853	-999999	0																																																	1	InitialTR	4	1	ReadyList	1	1	13	80995	-14	82981	0	1
WM080112	149337_fnca	1	1	1	779248500	1	75.031	75.030	2.0.10.147	2.0.10.242	2.0.10.242	1.0.0.439	7	234	2	3	Verdana	1	80	0	0	0	WM Stimuli\	0.6	795.333333333333	0.9	802	1	655.2	1	693.4	1	780.6	1	553.7	0.7	801.285714285714	1	542.4	13	374410	2	374398	26	39	374436	-999999	374413	0	1	TRSyncPROC	""	1	2	1	SessionSelectionList	105	27350	-999999	0	36	69853	-999999	0																																																	1	InitialTR	3	2	ReadyList	1	2	12	82994	-13	84981	0	2
WM080112	149337_fnca	1	1	1	779248500	1	75.031	75.030	2.0.10.147	2.0.10.242	2.0.10.242	1.0.0.439	7	234	2	3	Verdana	1	80	0	0	0	WM Stimuli\	0.6	795.333333333333	0.9	802	1	655.2	1	693.4	1	780.6	1	553.7	0.7	801.285714285714	1	542.4	13	374410	2	374398	26	39	374436	-999999	374413	0	1	TRSyncPROC	""	1	2	1	SessionSelectionList	105	27350	-999999	0	36	69853	-999999	0																																																	1	InitialTR	2	3	ReadyList	1	3	11	84993	-12	86981	0	3
WM080112	149337_fnca	1	1	1	779248500	1	75.031	75.030	2.0.10.147	2.0.10.242	2.0.10.242	1.0.0.439	7	234	2	3	Verdana	1	80	0	0	0	WM Stimuli\	0.6	795.333333333333	0.9	802	1	655.2	1	693.4	1	780.6	1	553.7	0.7	801.285714285714	1	542.4	13	374410	2	374398	26	39	374436	-999999	374413	0	1	TRSyncPROC	""	1	2	1	SessionSelectionList	105	27350	-999999	0	36	69853	-999999	0																																																	1	InitialTR	1	4	ReadyList	1	4	10	86992	-11	88981	0	4
WM080112	149337_fnca	1	1	1	779248500	1	75.031	75.030	2.0.10.147	2.0.10.242	2.0.10.242	1.0.0.439	7	234	2	3	Verdana	1	80	0	0	0	WM Stimuli\	0.6	795.333333333333	0.9	802	1	655.2	1	693.4	1	780.6	1	553.7	0.7	801.285714285714	1	542.4	13	374410	2	374398	26	39	374436	-999999	374413	0	2	Cue2BackPROC	""	1	2	2	SessionSelectionList									9	88991	-10	0																																													2												
WM080112	149337_fnca	1	1	1	779248500	1	75.031	75.030	2.0.10.147	2.0.10.242	2.0.10.242	1.0.0.439	7	234	2	3	Verdana	1	80	0	0	0	WM Stimuli\	0.6	795.333333333333	0.9	802	1	655.2	1	693.4	1	780.6	1	553.7	0.7	801.285714285714	1	542.4	13	374410	2	374398	26	39	374436	-999999	374413	0	3	TrialsPROC	BP_002_BP10_BA.png	1	2	3	SessionSelectionList													1	nonlure	3	Body	2-Back	2	80	1	0	0	0	1	52	93616	3	14	82	91564	-1	92090	1	526	3	3	2052	66	93630	-67	0																3												
WM080112	149337_fnca	1	1	1	779248500	1	75.031	75.030	2.0.10.147	2.0.10.242	2.0.10.242	1.0.0.439	7	234	2	3	Verdana	1	80	0	0	0	WM Stimuli\	0.6	795.333333333333	0.9	802	1	655.2	1	693.4	1	780.6	1	553.7	0.7	801.285714285714	1	542.4	13	374410	2	374398	26	39	374436	-999999	374413	0	3	TrialsPROC	BP_001_BP1_BA.png	1	2	4	SessionSelectionList													2	nonlure	3	Body	2-Back	3	80	2	0	0	0	2	39	96175	2	14	72	94136	-1	94901	1	765	3	3	2039	53	96189	-54	0																4												
WM080112	149337_fnca	1	1	1	779248500	1	75.031	75.030	2.0.10.147	2.0.10.242	2.0.10.242	1.0.0.439	7	234	2	3	Verdana	1	80	0	0	0	WM Stimuli\	0.6	795.333333333333	0.9	802	1	655.2	1	693.4	1	780.6	1	553.7	0.7	801.285714285714	1	542.4	13	374410	2	374398	26	39	374436	-999999	374413	0	3	TrialsPROC	BP_006_BP2_BA.png	1	2	5	SessionSelectionList													3	nonlure	3	Body	2-Back	4	80	3	0	0	0	1	39	98734	2	14	59	96695	-1	98108	0	1413	2	3	2039	53	98748	-54	0																5												
WM080112	149337_fnca	1	1	1	779248500	1	75.031	75.030	2.0.10.147	2.0.10.242	2.0.10.242	1.0.0.439	7	234	2	3	Verdana	1	80	0	0	0	WM Stimuli\	0.6	795.333333333333	0.9	802	1	655.2	1	693.4	1	780.6	1	553.7	0.7	801.285714285714	1	542.4	13	374410	2	374398	26	39	374436	-999999	374413	0	3	TrialsPROC	BP_001_BP1_BA.png	1	2	6	SessionSelectionList													4	target	2	Body	2-Back	5	80	4	0	0	0	1	39	101306	2	14	72	99267	-1	100504	0	1237	3	2	2039	53	101320	-54	0																6												
WM080112	149337_fnca	1	1	1	779248500	1	75.031	75.030	2.0.10.147	2.0.10.242	2.0.10.242	1.0.0.439	7	234	2	3	Verdana	1	80	0	0	0	WM Stimuli\	0.6	795.333333333333	0.9	802	1	655.2	1	693.4	1	780.6	1	553.7	0.7	801.285714285714	1	542.4	13	374410	2	374398	26	39	374436	-999999	374413	0	3	TrialsPROC	BP_005_BP19_BA.png	1	2	7	SessionSelectionList													5	nonlure	3	Body	2-Back	6	80	5	0	0	0	2	39	103879	1	13	73	101840	-1	102839	1	999	3	3	2039	52	103892	-53	0																7												
WM080112	149337_fnca	1	1	1	779248500	1	75.031	75.030	2.0.10.147	2.0.10.242	2.0.10.242	1.0.0.439	7	234	2	3	Verdana	1	80	0	0	0	WM Stimuli\	0.6	795.333333333333	0.9	802	1	655.2	1	693.4	1	780.6	1	553.7	0.7	801.285714285714	1	542.4	13	374410	2	374398	26	39	374436	-999999	374413	0	3	TrialsPROC	BP_003_BP16_BA.png	1	2	8	SessionSelectionList													6	nonlure	3	Body	2-Back	7	80	6	0	0	0	3	39	106438	1	13	59	104399	-1	105176	1	777	3	3	2039	52	106451	-53	0																8												
WM080112	149337_fnca	1	1	1	779248500	1	75.031	75.030	2.0.10.147	2.0.10.242	2.0.10.242	1.0.0.439	7	234	2	3	Verdana	1	80	0	0	0	WM Stimuli\	0.6	795.333333333333	0.9	802	1	655.2	1	693.4	1	780.6	1	553.7	0.7	801.285714285714	1	542.4	13	374410	2	374398	26	39	374436	-999999	374413	0	3	TrialsPROC	BP_006_BP2_BA.png	1	2	9	SessionSelectionList													7	lure	3	Body	2-Back	8	80	7	0	0	0	1	39	108997	1	13	59	106958	-1	108177	0	1219	2	3	2039	52	109010	-53	0																9												
WM080112	149337_fnca	1	1	1	779248500	1	75.031	75.030	2.0.10.147	2.0.10.242	2.0.10.242	1.0.0.439	7	234	2	3	Verdana	1	80	0	0	0	WM Stimuli\	0.6	795.333333333333	0.9	802	1	655.2	1	693.4	1	780.6	1	553.7	0.7	801.285714285714	1	542.4	13	374410	2	374398	26	39	374436	-999999	374413	0	3	TrialsPROC	BP_004_BP18_BA.png	1	2	10	SessionSelectionList													8	nonlure	3	Body	2-Back	9	80	8	0	0	0	1	39	111556	1	13	59	109517	-1	110196	1	679	3	3	2039	52	111569	-53	0																10												
WM080112	149337_fnca	1	1	1	779248500	1	75.031	75.030	2.0.10.147	2.0.10.242	2.0.10.242	1.0.0.439	7	234	2	3	Verdana	1	80	0	0	0	WM Stimuli\	0.6	795.333333333333	0.9	802	1	655.2	1	693.4	1	780.6	1	553.7	0.7	801.285714285714	1	542.4	13	374410	2	374398	26	39	374436	-999999	374413	0	3	TrialsPROC	BP_005_BP19_BA.png	1	2	11	SessionSelectionList													9	lure	3	Body	2-Back	10	80	9	0	0	0	1	39	114115	1	13	59	112076	-1	112914	0	838	2	3	2039	52	114128	-53	0																11												
WM080112	149337_fnca	1	1	1	779248500	1	75.031	75.030	2.0.10.147	2.0.10.242	2.0.10.242	1.0.0.439	7	234	2	3	Verdana	1	80	0	0	0	WM Stimuli\	0.6	795.333333333333	0.9	802	1	655.2	1	693.4	1	780.6	1	553.7	0.7	801.285714285714	1	542.4	13	374410	2	374398	26	39	374436	-999999	374413	0	3	TrialsPROC	BP_004_BP18_BA.png	1	2	12	SessionSelectionList													10	target	2	Body	2-Back	11	80	10	0	0	0	2	40	116674	1	13	58	114634	-1	115660	1	1026	2	2	2040	53	116687	-54	0																12												
WM080112	149337_fnca	1	1	1	779248500	1	75.031	75.030	2.0.10.147	2.0.10.242	2.0.10.242	1.0.0.439	7	234	2	3	Verdana	1	80	0	0	0	WM Stimuli\	0.6	795.333333333333	0.9	802	1	655.2	1	693.4	1	780.6	1	553.7	0.7	801.285714285714	1	542.4	13	374410	2	374398	26	39	374436	-999999	374413	0	4	Cue0BackPROC	FC_001_M1.png	1	2	13	SessionSelectionList																																										19	117153	-20	0												13												
WM080112	149337_fnca	1	1	1	779248500	1	75.031	75.030	2.0.10.147	2.0.10.242	2.0.10.242	1.0.0.439	7	234	2	3	Verdana	1	80	0	0	0	WM Stimuli\	0.6	795.333333333333	0.9	802	1	655.2	1	693.4	1	780.6	1	553.7	0.7	801.285714285714	1	542.4	13	374410	2	374398	26	39	374436	-999999	374413	0	5	TrialsPROC	FC_005_M3.png	1	2	14	SessionSelectionList														nonlure	3	Face	0-Back	12	80	11	0	0	100	1	39	121738	2	14	65	119699	-1	121161	1	1462	3	3	2039	53	121752	-54	0					1											14												
WM080112	149337_fnca	1	1	1	779248500	1	75.031	75.030	2.0.10.147	2.0.10.242	2.0.10.242	1.0.0.439	7	234	2	3	Verdana	1	80	0	0	0	WM Stimuli\	0.6	795.333333333333	0.9	802	1	655.2	1	693.4	1	780.6	1	553.7	0.7	801.285714285714	1	542.4	13	374410	2	374398	26	39	374436	-999999	374413	0	5	TrialsPROC	FC_001_M1.png	1	2	15	SessionSelectionList														target	2	Face	0-Back	13	80	12	0	0	100	1	40	124311	1	13	72	122271	-1	122892	1	621	2	2	2040	53	124324	-54	0					2											15												
WM080112	149337_fnca	1	1	1	779248500	1	75.031	75.030	2.0.10.147	2.0.10.242	2.0.10.242	1.0.0.439	7	234	2	3	Verdana	1	80	0	0	0	WM Stimuli\	0.6	795.333333333333	0.9	802	1	655.2	1	693.4	1	780.6	1	553.7	0.7	801.285714285714	1	542.4	13	374410	2	374398	26	39	374436	-999999	374413	0	5	TrialsPROC	FC_003_M2.png	1	2	16	SessionSelectionList														nonlure	3	Face	0-Back	14	80	13	0	0	100	1	39	126883	1	13	73	124844	-1	125383	1	539	3	3	2039	52	126896	-53	0					3											16												
WM080112	149337_fnca	1	1	1	779248500	1	75.031	75.030	2.0.10.147	2.0.10.242	2.0.10.242	1.0.0.439	7	234	2	3	Verdana	1	80	0	0	0	WM Stimuli\	0.6	795.333333333333	0.9	802	1	655.2	1	693.4	1	780.6	1	553.7	0.7	801.285714285714	1	542.4	13	374410	2	374398	26	39	374436	-999999	374413	0	5	TrialsPROC	FC_004_F2.png	1	2	17	SessionSelectionList														nonlure	3	Face	0-Back	15	80	14	0	0	100	2	39	129455	2	14	72	127416	-1	127975	1	559	3	3	2039	53	129469	-54	0					4											17												
WM080112	149337_fnca	1	1	1	779248500	1	75.031	75.030	2.0.10.147	2.0.10.242	2.0.10.242	1.0.0.439	7	234	2	3	Verdana	1	80	0	0	0	WM Stimuli\	0.6	795.333333333333	0.9	802	1	655.2	1	693.4	1	780.6	1	553.7	0.7	801.285714285714	1	542.4	13	374410	2	374398	26	39	374436	-999999	374413	0	5	TrialsPROC	FC_004_F2.png	1	2	18	SessionSelectionList														lure	3	Face	0-Back	16	80	15	0	0	100	3	39	132027	2	14	72	129988	-1	130558	1	570	3	3	2039	53	132041	-54	0					5											18												
WM080112	149337_fnca	1	1	1	779248500	1	75.031	75.030	2.0.10.147	2.0.10.242	2.0.10.242	1.0.0.439	7	234	2	3	Verdana	1	80	0	0	0	WM Stimuli\	0.6	795.333333333333	0.9	802	1	655.2	1	693.4	1	780.6	1	553.7	0.7	801.285714285714	1	542.4	13	374410	2	374398	26	39	374436	-999999	374413	0	5	TrialsPROC	FC_001_M1.png	1	2	19	SessionSelectionList														target	2	Face	0-Back	17	80	16	0	0	100	1	39	134600	1	13	73	132561	-1	132989	1	428	2	2	2039	52	134613	-53	0					6											19												
WM080112	149337_fnca	1	1	1	779248500	1	75.031	75.030	2.0.10.147	2.0.10.242	2.0.10.242	1.0.0.439	7	234	2	3	Verdana	1	80	0	0	0	WM Stimuli\	0.6	795.333333333333	0.9	802	1	655.2	1	693.4	1	780.6	1	553.7	0.7	801.285714285714	1	542.4	13	374410	2	374398	26	39	374436	-999999	374413	0	5	TrialsPROC	FC_006_F3.png	1	2	20	SessionSelectionList														nonlure	3	Face	0-Back	18	80	17	0	0	100	1	39	137172	1	13	72	135133	-1	135751	1	618	3	3	2039	52	137185	-53	0					7											20												
WM080112	149337_fnca	1	1	1	779248500	1	75.031	75.030	2.0.10.147	2.0.10.242	2.0.10.242	1.0.0.439	7	234	2	3	Verdana	1	80	0	0	0	WM Stimuli\	0.6	795.333333333333	0.9	802	1	655.2	1	693.4	1	780.6	1	553.7	0.7	801.285714285714	1	542.4	13	374410	2	374398	26	39	374436	-999999	374413	0	5	TrialsPROC	FC_006_F3.png	1	2	21	SessionSelectionList														lure	3	Face	0-Back	19	80	18	0	0	100	2	39	139744	2	14	72	137705	-1	138476	1	771	3	3	2039	53	139758	-54	0					8											21												
WM080112	149337_fnca	1	1	1	779248500	1	75.031	75.030	2.0.10.147	2.0.10.242	2.0.10.242	1.0.0.439	7	234	2	3	Verdana	1	80	0	0	0	WM Stimuli\	0.6	795.333333333333	0.9	802	1	655.2	1	693.4	1	780.6	1	553.7	0.7	801.285714285714	1	542.4	13	374410	2	374398	26	39	374436	-999999	374413	0	5	TrialsPROC	FC_003_M2.png	1	2	22	SessionSelectionList														lure	3	Face	0-Back	20	80	19	0	0	100	3	40	142317	1	13	72	140277	-1	140994	1	717	3	3	2040	53	142330	-54	0					9											22												
WM080112	149337_fnca	1	1	1	779248500	1	75.031	75.030	2.0.10.147	2.0.10.242	2.0.10.242	1.0.0.439	7	234	2	3	Verdana	1	80	0	0	0	WM Stimuli\	0.6	795.333333333333	0.9	802	1	655.2	1	693.4	1	780.6	1	553.7	0.7	801.285714285714	1	542.4	13	374410	2	374398	26	39	374436	-999999	374413	0	5	TrialsPROC	FC_002_F1.png	1	2	23	SessionSelectionList														nonlure	3	Face	0-Back	21	80	20	0	0	100	4	39	144889	1	13	73	142850	-1	143499	1	649	3	3	2039	52	144902	-53	0					10											23												
WM080112	149337_fnca	1	1	1	779248500	1	75.031	75.030	2.0.10.147	2.0.10.242	2.0.10.242	1.0.0.439	7	234	2	3	Verdana	1	80	0	0	0	WM Stimuli\	0.6	795.333333333333	0.9	802	1	655.2	1	693.4	1	780.6	1	553.7	0.7	801.285714285714	1	542.4	13	374410	2	374398	26	39	374436	-999999	374413	0	6	Fix15secPROC	""	1	2	24	SessionSelectionList																																															6	145356	-7	0							24												
WM080112	149337_fnca	1	1	1	779248500	1	75.031	75.030	2.0.10.147	2.0.10.242	2.0.10.242	1.0.0.439	7	234	2	3	Verdana	1	80	0	0	0	WM Stimuli\	0.6	795.333333333333	0.9	802	1	655.2	1	693.4	1	780.6	1	553.7	0.7	801.285714285714	1	542.4	13	374410	2	374398	26	39	374436	-999999	374413	0	7	Cue2BackPROC	""	1	2	25	SessionSelectionList									13	160363	-14	0																																													25												
WM080112	149337_fnca	1	1	1	779248500	1	75.031	75.030	2.0.10.147	2.0.10.242	2.0.10.242	1.0.0.439	7	234	2	3	Verdana	1	80	0	0	0	WM Stimuli\	0.6	795.333333333333	0.9	802	1	655.2	1	693.4	1	780.6	1	553.7	0.7	801.285714285714	1	542.4	13	374410	2	374398	26	39	374436	-999999	374413	0	8	TrialsPROC	TO_001_TOOL1_BA.png	1	2	26	SessionSelectionList														nonlure	3	Tools	2-Back	22	80	21	0	0	100	5	39	164947	2	14	58	162908	-1	163885	1	977	3	3	2039	53	164961	-54	0										1						26												
WM080112	149337_fnca	1	1	1	779248500	1	75.031	75.030	2.0.10.147	2.0.10.242	2.0.10.242	1.0.0.439	7	234	2	3	Verdana	1	80	0	0	0	WM Stimuli\	0.6	795.333333333333	0.9	802	1	655.2	1	693.4	1	780.6	1	553.7	0.7	801.285714285714	1	542.4	13	374410	2	374398	26	39	374436	-999999	374413	0	8	TrialsPROC	TO_002_TOOL2_BA.png	1	2	27	SessionSelectionList														nonlure	3	Tools	2-Back	23	80	22	0	0	100	6	39	167506	2	14	59	165467	-1	166006	1	539	3	3	2039	53	167520	-54	0										2						27												
WM080112	149337_fnca	1	1	1	779248500	1	75.031	75.030	2.0.10.147	2.0.10.242	2.0.10.242	1.0.0.439	7	234	2	3	Verdana	1	80	0	0	0	WM Stimuli\	0.6	795.333333333333	0.9	802	1	655.2	1	693.4	1	780.6	1	553.7	0.7	801.285714285714	1	542.4	13	374410	2	374398	26	39	374436	-999999	374413	0	8	TrialsPROC	TO_004_TOOL4_BA.png	1	2	28	SessionSelectionList														nonlure	3	Tools	2-Back	24	80	23	0	0	100	7	38	170065	2	14	60	168027	-1	168814	1	787	3	3	2038	52	170079	-53	0										3						28												
WM080112	149337_fnca	1	1	1	779248500	1	75.031	75.030	2.0.10.147	2.0.10.242	2.0.10.242	1.0.0.439	7	234	2	3	Verdana	1	80	0	0	0	WM Stimuli\	0.6	795.333333333333	0.9	802	1	655.2	1	693.4	1	780.6	1	553.7	0.7	801.285714285714	1	542.4	13	374410	2	374398	26	39	374436	-999999	374413	0	8	TrialsPROC	TO_002_TOOL2_BA.png	1	2	29	SessionSelectionList														target	2	Tools	2-Back	25	80	24	0	0	100	8	39	172624	2	14	58	170585	-1	171400	0	815	3	2	2039	53	172638	-54	0										4						29												
WM080112	149337_fnca	1	1	1	779248500	1	75.031	75.030	2.0.10.147	2.0.10.242	2.0.10.242	1.0.0.439	7	234	2	3	Verdana	1	80	0	0	0	WM Stimuli\	0.6	795.333333333333	0.9	802	1	655.2	1	693.4	1	780.6	1	553.7	0.7	801.285714285714	1	542.4	13	374410	2	374398	26	39	374436	-999999	374413	0	8	TrialsPROC	TO_001_TOOL1_BA.png	1	2	30	SessionSelectionList														lure	3	Tools	2-Back	26	80	25	0	0	100	9	39	175183	2	14	59	173144	-1	174155	1	1011	3	3	2039	53	175197	-54	0										5						30												
WM080112	149337_fnca	1	1	1	779248500	1	75.031	75.030	2.0.10.147	2.0.10.242	2.0.10.242	1.0.0.439	7	234	2	3	Verdana	1	80	0	0	0	WM Stimuli\	0.6	795.333333333333	0.9	802	1	655.2	1	693.4	1	780.6	1	553.7	0.7	801.285714285714	1	542.4	13	374410	2	374398	26	39	374436	-999999	374413	0	8	TrialsPROC	TO_004_TOOL4_BA.png	1	2	31	SessionSelectionList														lure	3	Tools	2-Back	27	80	26	0	0	100	1	39	177742	2	14	59	175703	-1	176264	0	561	2	3	2039	53	177756	-54	0										6						31												
WM080112	149337_fnca	1	1	1	779248500	1	75.031	75.030	2.0.10.147	2.0.10.242	2.0.10.242	1.0.0.439	7	234	2	3	Verdana	1	80	0	0	0	WM Stimuli\	0.6	795.333333333333	0.9	802	1	655.2	1	693.4	1	780.6	1	553.7	0.7	801.285714285714	1	542.4	13	374410	2	374398	26	39	374436	-999999	374413	0	8	TrialsPROC	TO_006_TOOL6_BA.png	1	2	32	SessionSelectionList														nonlure	3	Tools	2-Back	28	80	27	0	0	100	2	39	180301	2	14	59	178262	-1	178896	0	634	2	3	2039	53	180315	-54	0										7						32												
WM080112	149337_fnca	1	1	1	779248500	1	75.031	75.030	2.0.10.147	2.0.10.242	2.0.10.242	1.0.0.439	7	234	2	3	Verdana	1	80	0	0	0	WM Stimuli\	0.6	795.333333333333	0.9	802	1	655.2	1	693.4	1	780.6	1	553.7	0.7	801.285714285714	1	542.4	13	374410	2	374398	26	39	374436	-999999	374413	0	8	TrialsPROC	TO_005_TOOL5_BA.png	1	2	33	SessionSelectionList														nonlure	3	Tools	2-Back	29	80	28	0	0	100	1	39	182860	2	14	59	180821	-1	181758	1	937	3	3	2039	53	182874	-54	0										8						33												
WM080112	149337_fnca	1	1	1	779248500	1	75.031	75.030	2.0.10.147	2.0.10.242	2.0.10.242	1.0.0.439	7	234	2	3	Verdana	1	80	0	0	0	WM Stimuli\	0.6	795.333333333333	0.9	802	1	655.2	1	693.4	1	780.6	1	553.7	0.7	801.285714285714	1	542.4	13	374410	2	374398	26	39	374436	-999999	374413	0	8	TrialsPROC	TO_006_TOOL6_BA.png	1	2	34	SessionSelectionList														target	2	Tools	2-Back	30	80	29	0	0	100	1	39	185419	2	14	59	183380	-1	184013	1	633	2	2	2039	53	185433	-54	0										9						34												
WM080112	149337_fnca	1	1	1	779248500	1	75.031	75.030	2.0.10.147	2.0.10.242	2.0.10.242	1.0.0.439	7	234	2	3	Verdana	1	80	0	0	0	WM Stimuli\	0.6	795.333333333333	0.9	802	1	655.2	1	693.4	1	780.6	1	553.7	0.7	801.285714285714	1	542.4	13	374410	2	374398	26	39	374436	-999999	374413	0	8	TrialsPROC	TO_003_TOOL3_BA.png	1	2	35	SessionSelectionList														nonlure	3	Tools	2-Back	31	80	30	0	0	100	1	39	187978	2	14	59	185939	-1	186664	1	725	3	3	2039	53	187992	-54	0										10						35												
WM080112	149337_fnca	1	1	1	779248500	1	75.031	75.030	2.0.10.147	2.0.10.242	2.0.10.242	1.0.0.439	7	234	2	3	Verdana	1	80	0	0	0	WM Stimuli\	0.6	795.333333333333	0.9	802	1	655.2	1	693.4	1	780.6	1	553.7	0.7	801.285714285714	1	542.4	13	374410	2	374398	26	39	374436	-999999	374413	0	9	Cue0BackPROC	BP_007_BP20_BA.png	1	2	36	SessionSelectionList																																										19	188458	-20	0												36												
WM080112	149337_fnca	1	1	1	779248500	1	75.031	75.030	2.0.10.147	2.0.10.242	2.0.10.242	1.0.0.439	7	234	2	3	Verdana	1	80	0	0	0	WM Stimuli\	0.6	795.333333333333	0.9	802	1	655.2	1	693.4	1	780.6	1	553.7	0.7	801.285714285714	1	542.4	13	374410	2	374398	26	39	374436	-999999	374413	0	10	TrialsPROC	BP_007_BP20_BA.png	1	2	37	SessionSelectionList														target	2	Body	0-Back	32	80	31	0	0	100	1	39	193029	2	14	51	190990	-1	192366	1	1376	2	2	2039	53	193043	-54	0											1					37												
WM080112	149337_fnca	1	1	1	779248500	1	75.031	75.030	2.0.10.147	2.0.10.242	2.0.10.242	1.0.0.439	7	234	2	3	Verdana	1	80	0	0	0	WM Stimuli\	0.6	795.333333333333	0.9	802	1	655.2	1	693.4	1	780.6	1	553.7	0.7	801.285714285714	1	542.4	13	374410	2	374398	26	39	374436	-999999	374413	0	10	TrialsPROC	BP_011_BP4_BA.png	1	2	38	SessionSelectionList														nonlure	3	Body	0-Back	33	80	32	0	0	100	1	39	195588	2	14	59	193549	-1	194412	1	863	3	3	2039	53	195602	-54	0											2					38												
WM080112	149337_fnca	1	1	1	779248500	1	75.031	75.030	2.0.10.147	2.0.10.242	2.0.10.242	1.0.0.439	7	234	2	3	Verdana	1	80	0	0	0	WM Stimuli\	0.6	795.333333333333	0.9	802	1	655.2	1	693.4	1	780.6	1	553.7	0.7	801.285714285714	1	542.4	13	374410	2	374398	26	39	374436	-999999	374413	0	10	TrialsPROC	BP_010_BP3_BA.png	1	2	39	SessionSelectionList														nonlure	3	Body	0-Back	34	80	33	0	0	100	2	38	198147	2	14	60	196109	-1	196675	1	566	3	3	2038	52	198161	-53	0											3					39												
WM080112	149337_fnca	1	1	1	779248500	1	75.031	75.030	2.0.10.147	2.0.10.242	2.0.10.242	1.0.0.439	7	234	2	3	Verdana	1	80	0	0	0	WM Stimuli\	0.6	795.333333333333	0.9	802	1	655.2	1	693.4	1	780.6	1	553.7	0.7	801.285714285714	1	542.4	13	374410	2	374398	26	39	374436	-999999	374413	0	10	TrialsPROC	BP_008_BP21_BA.png	1	2	40	SessionSelectionList														nonlure	3	Body	0-Back	35	80	34	0	0	100	3	39	200706	2	14	58	198667	-1	199268	1	601	3	3	2039	53	200720	-54	0											4					40												
WM080112	149337_fnca	1	1	1	779248500	1	75.031	75.030	2.0.10.147	2.0.10.242	2.0.10.242	1.0.0.439	7	234	2	3	Verdana	1	80	0	0	0	WM Stimuli\	0.6	795.333333333333	0.9	802	1	655.2	1	693.4	1	780.6	1	553.7	0.7	801.285714285714	1	542.4	13	374410	2	374398	26	39	374436	-999999	374413	0	10	TrialsPROC	BP_011_BP4_BA.png	1	2	41	SessionSelectionList														lure	3	Body	0-Back	36	80	35	0	0	93	1	39	203265	2	14	59	201226	-1	201832	0	606	2	3	2039	53	203279	-54	0											5					41												
WM080112	149337_fnca	1	1	1	779248500	1	75.031	75.030	2.0.10.147	2.0.10.242	2.0.10.242	1.0.0.439	7	234	2	3	Verdana	1	80	0	0	0	WM Stimuli\	0.6	795.333333333333	0.9	802	1	655.2	1	693.4	1	780.6	1	553.7	0.7	801.285714285714	1	542.4	13	374410	2	374398	26	39	374436	-999999	374413	0	10	TrialsPROC	BP_009_BP22_BA.png	1	2	42	SessionSelectionList														nonlure	3	Body	0-Back	37	80	36	0	0	94	1	39	205824	2	14	59	203785	-1	204813	1	1028	3	3	2039	53	205838	-54	0											6					42												
WM080112	149337_fnca	1	1	1	779248500	1	75.031	75.030	2.0.10.147	2.0.10.242	2.0.10.242	1.0.0.439	7	234	2	3	Verdana	1	80	0	0	0	WM Stimuli\	0.6	795.333333333333	0.9	802	1	655.2	1	693.4	1	780.6	1	553.7	0.7	801.285714285714	1	542.4	13	374410	2	374398	26	39	374436	-999999	374413	0	10	TrialsPROC	BP_009_BP22_BA.png	1	2	43	SessionSelectionList														lure	3	Body	0-Back	38	80	37	0	0	94	2	39	208383	2	14	59	206344	-1	207009	1	665	3	3	2039	53	208397	-54	0											7					43												
WM080112	149337_fnca	1	1	1	779248500	1	75.031	75.030	2.0.10.147	2.0.10.242	2.0.10.242	1.0.0.439	7	234	2	3	Verdana	1	80	0	0	0	WM Stimuli\	0.6	795.333333333333	0.9	802	1	655.2	1	693.4	1	780.6	1	553.7	0.7	801.285714285714	1	542.4	13	374410	2	374398	26	39	374436	-999999	374413	0	10	TrialsPROC	BP_008_BP21_BA.png	1	2	44	SessionSelectionList														lure	3	Body	0-Back	39	80	38	0	0	94	3	39	210942	2	14	59	208903	-1	209483	1	580	3	3	2039	53	210956	-54	0											8					44												
WM080112	149337_fnca	1	1	1	779248500	1	75.031	75.030	2.0.10.147	2.0.10.242	2.0.10.242	1.0.0.439	7	234	2	3	Verdana	1	80	0	0	0	WM Stimuli\	0.6	795.333333333333	0.9	802	1	655.2	1	693.4	1	780.6	1	553.7	0.7	801.285714285714	1	542.4	13	374410	2	374398	26	39	374436	-999999	374413	0	10	TrialsPROC	BP_007_BP20_BA.png	1	2	45	SessionSelectionList														target	2	Body	0-Back	40	80	39	0	0	95	1	39	213501	2	14	59	211462	-1	212421	1	959	2	2	2039	53	213515	-54	0											9					45												
WM080112	149337_fnca	1	1	1	779248500	1	75.031	75.030	2.0.10.147	2.0.10.242	2.0.10.242	1.0.0.439	7	234	2	3	Verdana	1	80	0	0	0	WM Stimuli\	0.6	795.333333333333	0.9	802	1	655.2	1	693.4	1	780.6	1	553.7	0.7	801.285714285714	1	542.4	13	374410	2	374398	26	39	374436	-999999	374413	0	10	TrialsPROC	BP_012_BP5_BA.png	1	2	46	SessionSelectionList														nonlure	3	Body	0-Back	41	80	40	0	0	95	1	39	216073	2	14	72	214034	-1	214614	1	580	3	3	2039	53	216087	-54	0											10					46												
WM080112	149337_fnca	1	1	1	779248500	1	75.031	75.030	2.0.10.147	2.0.10.242	2.0.10.242	1.0.0.439	7	234	2	3	Verdana	1	80	0	0	0	WM Stimuli\	0.6	795.333333333333	0.9	802	1	655.2	1	693.4	1	780.6	1	553.7	0.7	801.285714285714	1	542.4	13	374410	2	374398	26	39	374436	-999999	374413	0	11	Fix15secPROC	""	1	2	47	SessionSelectionList																																															6	216540	-7	0							47												
WM080112	149337_fnca	1	1	1	779248500	1	75.031	75.030	2.0.10.147	2.0.10.242	2.0.10.242	1.0.0.439	7	234	2	3	Verdana	1	80	0	0	0	WM Stimuli\	0.6	795.333333333333	0.9	802	1	655.2	1	693.4	1	780.6	1	553.7	0.7	801.285714285714	1	542.4	13	374410	2	374398	26	39	374436	-999999	374413	0	12	Cue0BackPROC	PL_001_92012.png	1	2	48	SessionSelectionList																																										13	231547	-14	0												48												
WM080112	149337_fnca	1	1	1	779248500	1	75.031	75.030	2.0.10.147	2.0.10.242	2.0.10.242	1.0.0.439	7	234	2	3	Verdana	1	80	0	0	0	WM Stimuli\	0.6	795.333333333333	0.9	802	1	655.2	1	693.4	1	780.6	1	553.7	0.7	801.285714285714	1	542.4	13	374410	2	374398	26	39	374436	-999999	374413	0	13	TrialsPROC	PL_003_92016.png	1	2	49	SessionSelectionList														nonlure	3	Place	0-Back	42	80	41	0	0	95	2	39	236145	2	14	72	234106	-1	234936	1	830	3	3	2039	53	236159	-54	0												1				49												
WM080112	149337_fnca	1	1	1	779248500	1	75.031	75.030	2.0.10.147	2.0.10.242	2.0.10.242	1.0.0.439	7	234	2	3	Verdana	1	80	0	0	0	WM Stimuli\	0.6	795.333333333333	0.9	802	1	655.2	1	693.4	1	780.6	1	553.7	0.7	801.285714285714	1	542.4	13	374410	2	374398	26	39	374436	-999999	374413	0	13	TrialsPROC	PL_003_92016.png	1	2	50	SessionSelectionList														lure	3	Place	0-Back	43	80	42	0	0	95	3	39	238704	2	14	59	236665	-1	237266	1	601	3	3	2039	53	238718	-54	0												2				50												
WM080112	149337_fnca	1	1	1	779248500	1	75.031	75.030	2.0.10.147	2.0.10.242	2.0.10.242	1.0.0.439	7	234	2	3	Verdana	1	80	0	0	0	WM Stimuli\	0.6	795.333333333333	0.9	802	1	655.2	1	693.4	1	780.6	1	553.7	0.7	801.285714285714	1	542.4	13	374410	2	374398	26	39	374436	-999999	374413	0	13	TrialsPROC	PL_006_92025.png	1	2	51	SessionSelectionList														nonlure	3	Place	0-Back	44	80	43	0	0	96	4	40	241277	1	13	72	239237	-1	239798	1	561	3	3	2040	53	241290	-54	0												3				51												
WM080112	149337_fnca	1	1	1	779248500	1	75.031	75.030	2.0.10.147	2.0.10.242	2.0.10.242	1.0.0.439	7	234	2	3	Verdana	1	80	0	0	0	WM Stimuli\	0.6	795.333333333333	0.9	802	1	655.2	1	693.4	1	780.6	1	553.7	0.7	801.285714285714	1	542.4	13	374410	2	374398	26	39	374436	-999999	374413	0	13	TrialsPROC	PL_001_92012.png	1	2	52	SessionSelectionList														target	2	Place	0-Back	45	80	44	0	0	96	1	39	243849	1	13	73	241810	-1	242304	1	494	2	2	2039	52	243862	-53	0												4				52												
WM080112	149337_fnca	1	1	1	779248500	1	75.031	75.030	2.0.10.147	2.0.10.242	2.0.10.242	1.0.0.439	7	234	2	3	Verdana	1	80	0	0	0	WM Stimuli\	0.6	795.333333333333	0.9	802	1	655.2	1	693.4	1	780.6	1	553.7	0.7	801.285714285714	1	542.4	13	374410	2	374398	26	39	374436	-999999	374413	0	13	TrialsPROC	PL_004_92023.png	1	2	53	SessionSelectionList														nonlure	3	Place	0-Back	46	80	45	0	0	96	1	39	246408	1	13	59	244369	-1	244805	1	436	3	3	2039	52	246421	-53	0												5				53												
WM080112	149337_fnca	1	1	1	779248500	1	75.031	75.030	2.0.10.147	2.0.10.242	2.0.10.242	1.0.0.439	7	234	2	3	Verdana	1	80	0	0	0	WM Stimuli\	0.6	795.333333333333	0.9	802	1	655.2	1	693.4	1	780.6	1	553.7	0.7	801.285714285714	1	542.4	13	374410	2	374398	26	39	374436	-999999	374413	0	13	TrialsPROC	PL_005_92024.png	1	2	54	SessionSelectionList														nonlure	3	Place	0-Back	47	80	46	0	0	96	2	39	248980	2	14	72	246941	-1	247401	1	460	3	3	2039	53	248994	-54	0												6				54												
WM080112	149337_fnca	1	1	1	779248500	1	75.031	75.030	2.0.10.147	2.0.10.242	2.0.10.242	1.0.0.439	7	234	2	3	Verdana	1	80	0	0	0	WM Stimuli\	0.6	795.333333333333	0.9	802	1	655.2	1	693.4	1	780.6	1	553.7	0.7	801.285714285714	1	542.4	13	374410	2	374398	26	39	374436	-999999	374413	0	13	TrialsPROC	PL_001_92012.png	1	2	55	SessionSelectionList														target	2	Place	0-Back	48	80	47	0	0	96	1	39	251552	2	14	72	249513	-1	250068	1	555	2	2	2039	53	251566	-54	0												7				55												
WM080112	149337_fnca	1	1	1	779248500	1	75.031	75.030	2.0.10.147	2.0.10.242	2.0.10.242	1.0.0.439	7	234	2	3	Verdana	1	80	0	0	0	WM Stimuli\	0.6	795.333333333333	0.9	802	1	655.2	1	693.4	1	780.6	1	553.7	0.7	801.285714285714	1	542.4	13	374410	2	374398	26	39	374436	-999999	374413	0	13	TrialsPROC	PL_002_92014.png	1	2	56	SessionSelectionList														nonlure	3	Place	0-Back	49	80	48	0	0	96	1	39	254125	1	13	73	252086	-1	252739	1	653	3	3	2039	52	254138	-53	0												8				56												
WM080112	149337_fnca	1	1	1	779248500	1	75.031	75.030	2.0.10.147	2.0.10.242	2.0.10.242	1.0.0.439	7	234	2	3	Verdana	1	80	0	0	0	WM Stimuli\	0.6	795.333333333333	0.9	802	1	655.2	1	693.4	1	780.6	1	553.7	0.7	801.285714285714	1	542.4	13	374410	2	374398	26	39	374436	-999999	374413	0	13	TrialsPROC	PL_004_92023.png	1	2	57	SessionSelectionList														lure	3	Place	0-Back	50	80	49	0	0	97	2	39	256697	2	14	72	254658	-1	255150	1	492	3	3	2039	53	256711	-54	0												9				57												
WM080112	149337_fnca	1	1	1	779248500	1	75.031	75.030	2.0.10.147	2.0.10.242	2.0.10.242	1.0.0.439	7	234	2	3	Verdana	1	80	0	0	0	WM Stimuli\	0.6	795.333333333333	0.9	802	1	655.2	1	693.4	1	780.6	1	553.7	0.7	801.285714285714	1	542.4	13	374410	2	374398	26	39	374436	-999999	374413	0	13	TrialsPROC	PL_006_92025.png	1	2	58	SessionSelectionList														lure	3	Place	0-Back	51	80	50	0	0	97	3	39	259256	2	14	59	257217	-1	257672	1	455	3	3	2039	53	259270	-54	0												10				58												
WM080112	149337_fnca	1	1	1	779248500	1	75.031	75.030	2.0.10.147	2.0.10.242	2.0.10.242	1.0.0.439	7	234	2	3	Verdana	1	80	0	0	0	WM Stimuli\	0.6	795.333333333333	0.9	802	1	655.2	1	693.4	1	780.6	1	553.7	0.7	801.285714285714	1	542.4	13	374410	2	374398	26	39	374436	-999999	374413	0	14	Cue2BackPROC	""	1	2	59	SessionSelectionList									6	259723	-7	0																																													59												
WM080112	149337_fnca	1	1	1	779248500	1	75.031	75.030	2.0.10.147	2.0.10.242	2.0.10.242	1.0.0.439	7	234	2	3	Verdana	1	80	0	0	0	WM Stimuli\	0.6	795.333333333333	0.9	802	1	655.2	1	693.4	1	780.6	1	553.7	0.7	801.285714285714	1	542.4	13	374410	2	374398	26	39	374436	-999999	374413	0	15	TrialsPROC	FC_010_F5.png	1	2	60	SessionSelectionList														nonlure	3	Face	2-Back	52	80	51	0	0	97	4	39	264321	1	13	65	262282	-1	262934	1	652	3	3	2039	52	264334	-53	0													1			60												
WM080112	149337_fnca	1	1	1	779248500	1	75.031	75.030	2.0.10.147	2.0.10.242	2.0.10.242	1.0.0.439	7	234	2	3	Verdana	1	80	0	0	0	WM Stimuli\	0.6	795.333333333333	0.9	802	1	655.2	1	693.4	1	780.6	1	553.7	0.7	801.285714285714	1	542.4	13	374410	2	374398	26	39	374436	-999999	374413	0	15	TrialsPROC	FC_012_F6.png	1	2	61	SessionSelectionList														nonlure	3	Face	2-Back	53	80	52	0	0	97	5	39	266893	1	13	72	264854	-1	265366	1	512	3	3	2039	52	266906	-53	0													2			61												
WM080112	149337_fnca	1	1	1	779248500	1	75.031	75.030	2.0.10.147	2.0.10.242	2.0.10.242	1.0.0.439	7	234	2	3	Verdana	1	80	0	0	0	WM Stimuli\	0.6	795.333333333333	0.9	802	1	655.2	1	693.4	1	780.6	1	553.7	0.7	801.285714285714	1	542.4	13	374410	2	374398	26	39	374436	-999999	374413	0	15	TrialsPROC	FC_010_F5.png	1	2	62	SessionSelectionList														target	2	Face	2-Back	54	80	53	0	0	97	1	39	269465	2	14	72	267426	-1	267960	1	534	2	2	2039	53	269479	-54	0													3			62												
WM080112	149337_fnca	1	1	1	779248500	1	75.031	75.030	2.0.10.147	2.0.10.242	2.0.10.242	1.0.0.439	7	234	2	3	Verdana	1	80	0	0	0	WM Stimuli\	0.6	795.333333333333	0.9	802	1	655.2	1	693.4	1	780.6	1	553.7	0.7	801.285714285714	1	542.4	13	374410	2	374398	26	39	374436	-999999	374413	0	15	TrialsPROC	FC_008_F4.png	1	2	63	SessionSelectionList														nonlure	3	Face	2-Back	55	80	54	0	0	97	1	40	272038	1	13	72	269998	-1	270648	1	650	3	3	2040	53	272051	-54	0													4			63												
WM080112	149337_fnca	1	1	1	779248500	1	75.031	75.030	2.0.10.147	2.0.10.242	2.0.10.242	1.0.0.439	7	234	2	3	Verdana	1	80	0	0	0	WM Stimuli\	0.6	795.333333333333	0.9	802	1	655.2	1	693.4	1	780.6	1	553.7	0.7	801.285714285714	1	542.4	13	374410	2	374398	26	39	374436	-999999	374413	0	15	TrialsPROC	FC_012_F6.png	1	2	64	SessionSelectionList														lure	3	Face	2-Back	56	80	55	0	0	97	2	39	274610	1	13	73	272571	-1	273556	1	985	3	3	2039	52	274623	-53	0													5			64												
WM080112	149337_fnca	1	1	1	779248500	1	75.031	75.030	2.0.10.147	2.0.10.242	2.0.10.242	1.0.0.439	7	234	2	3	Verdana	1	80	0	0	0	WM Stimuli\	0.6	795.333333333333	0.9	802	1	655.2	1	693.4	1	780.6	1	553.7	0.7	801.285714285714	1	542.4	13	374410	2	374398	26	39	374436	-999999	374413	0	15	TrialsPROC	FC_008_F4.png	1	2	65	SessionSelectionList														target	2	Face	2-Back	57	80	56	0	0	97	1	39	277182	2	14	72	275143	-1	275546	1	403	2	2	2039	53	277196	-54	0													6			65												
WM080112	149337_fnca	1	1	1	779248500	1	75.031	75.030	2.0.10.147	2.0.10.242	2.0.10.242	1.0.0.439	7	234	2	3	Verdana	1	80	0	0	0	WM Stimuli\	0.6	795.333333333333	0.9	802	1	655.2	1	693.4	1	780.6	1	553.7	0.7	801.285714285714	1	542.4	13	374410	2	374398	26	39	374436	-999999	374413	0	15	TrialsPROC	FC_007_M4.png	1	2	66	SessionSelectionList														nonlure	3	Face	2-Back	58	80	57	0	0	97	1	39	279768	1	13	86	277729	-1	278179	1	450	3	3	2039	52	279781	-53	0													7			66												
WM080112	149337_fnca	1	1	1	779248500	1	75.031	75.030	2.0.10.147	2.0.10.242	2.0.10.242	1.0.0.439	7	234	2	3	Verdana	1	80	0	0	0	WM Stimuli\	0.6	795.333333333333	0.9	802	1	655.2	1	693.4	1	780.6	1	553.7	0.7	801.285714285714	1	542.4	13	374410	2	374398	26	39	374436	-999999	374413	0	15	TrialsPROC	FC_007_M4.png	1	2	67	SessionSelectionList														lure	3	Face	2-Back	59	80	58	0	0	97	2	39	282340	2	14	72	280301	-1	280951	1	650	3	3	2039	53	282354	-54	0													8			67												
WM080112	149337_fnca	1	1	1	779248500	1	75.031	75.030	2.0.10.147	2.0.10.242	2.0.10.242	1.0.0.439	7	234	2	3	Verdana	1	80	0	0	0	WM Stimuli\	0.6	795.333333333333	0.9	802	1	655.2	1	693.4	1	780.6	1	553.7	0.7	801.285714285714	1	542.4	13	374410	2	374398	26	39	374436	-999999	374413	0	15	TrialsPROC	FC_009_M5.png	1	2	68	SessionSelectionList														nonlure	3	Face	2-Back	60	80	59	0	0	97	3	39	284912	2	14	72	282873	-1	283942	1	1069	3	3	2039	53	284926	-54	0													9			68												
WM080112	149337_fnca	1	1	1	779248500	1	75.031	75.030	2.0.10.147	2.0.10.242	2.0.10.242	1.0.0.439	7	234	2	3	Verdana	1	80	0	0	0	WM Stimuli\	0.6	795.333333333333	0.9	802	1	655.2	1	693.4	1	780.6	1	553.7	0.7	801.285714285714	1	542.4	13	374410	2	374398	26	39	374436	-999999	374413	0	15	TrialsPROC	FC_011_M6.png	1	2	69	SessionSelectionList														nonlure	3	Face	2-Back	61	80	60	0	0	97	4	39	287498	1	13	86	285459	-1	286106	1	647	3	3	2039	52	287511	-53	0													10			69												
WM080112	149337_fnca	1	1	1	779248500	1	75.031	75.030	2.0.10.147	2.0.10.242	2.0.10.242	1.0.0.439	7	234	2	3	Verdana	1	80	0	0	0	WM Stimuli\	0.6	795.333333333333	0.9	802	1	655.2	1	693.4	1	780.6	1	553.7	0.7	801.285714285714	1	542.4	13	374410	2	374398	26	39	374436	-999999	374413	0	16	Fix15secPROC	""	1	2	70	SessionSelectionList																																															6	287965	-7	0							70												
WM080112	149337_fnca	1	1	1	779248500	1	75.031	75.030	2.0.10.147	2.0.10.242	2.0.10.242	1.0.0.439	7	234	2	3	Verdana	1	80	0	0	0	WM Stimuli\	0.6	795.333333333333	0.9	802	1	655.2	1	693.4	1	780.6	1	553.7	0.7	801.285714285714	1	542.4	13	374410	2	374398	26	39	374436	-999999	374413	0	17	Cue0BackPROC	TO_007_TOOL7_BA.png	1	2	71	SessionSelectionList																																										39	302998	-40	0												71												
WM080112	149337_fnca	1	1	1	779248500	1	75.031	75.030	2.0.10.147	2.0.10.242	2.0.10.242	1.0.0.439	7	234	2	3	Verdana	1	80	0	0	0	WM Stimuli\	0.6	795.333333333333	0.9	802	1	655.2	1	693.4	1	780.6	1	553.7	0.7	801.285714285714	1	542.4	13	374410	2	374398	26	39	374436	-999999	374413	0	18	TrialsPROC	TO_010_TOOL10_BA.png	1	2	72	SessionSelectionList														nonlure	3	Tools	0-Back	62	80	61	0	0	97	5	39	307583	2	14	85	305544	-1	306841	1	1297	3	3	2039	53	307597	-54	0														1		72												
WM080112	149337_fnca	1	1	1	779248500	1	75.031	75.030	2.0.10.147	2.0.10.242	2.0.10.242	1.0.0.439	7	234	2	3	Verdana	1	80	0	0	0	WM Stimuli\	0.6	795.333333333333	0.9	802	1	655.2	1	693.4	1	780.6	1	553.7	0.7	801.285714285714	1	542.4	13	374410	2	374398	26	39	374436	-999999	374413	0	18	TrialsPROC	TO_009_TOOL9_BA.png	1	2	73	SessionSelectionList														nonlure	3	Tools	0-Back	63	80	62	0	0	97	6	39	310169	1	13	86	308130	-1	308598	1	468	3	3	2039	52	310182	-53	0														2		73												
WM080112	149337_fnca	1	1	1	779248500	1	75.031	75.030	2.0.10.147	2.0.10.242	2.0.10.242	1.0.0.439	7	234	2	3	Verdana	1	80	0	0	0	WM Stimuli\	0.6	795.333333333333	0.9	802	1	655.2	1	693.4	1	780.6	1	553.7	0.7	801.285714285714	1	542.4	13	374410	2	374398	26	39	374436	-999999	374413	0	18	TrialsPROC	TO_009_TOOL9_BA.png	1	2	74	SessionSelectionList														lure	3	Tools	0-Back	64	80	63	0	0	97	7	39	312728	1	13	59	310689	-1	311181	1	492	3	3	2039	52	312741	-53	0														3		74												
WM080112	149337_fnca	1	1	1	779248500	1	75.031	75.030	2.0.10.147	2.0.10.242	2.0.10.242	1.0.0.439	7	234	2	3	Verdana	1	80	0	0	0	WM Stimuli\	0.6	795.333333333333	0.9	802	1	655.2	1	693.4	1	780.6	1	553.7	0.7	801.285714285714	1	542.4	13	374410	2	374398	26	39	374436	-999999	374413	0	18	TrialsPROC	TO_008_TOOL8_BA.png	1	2	75	SessionSelectionList														nonlure	3	Tools	0-Back	65	80	64	0	0	97	8	39	315313	2	14	85	313274	-1	313746	1	472	3	3	2039	53	315327	-54	0														4		75												
WM080112	149337_fnca	1	1	1	779248500	1	75.031	75.030	2.0.10.147	2.0.10.242	2.0.10.242	1.0.0.439	7	234	2	3	Verdana	1	80	0	0	0	WM Stimuli\	0.6	795.333333333333	0.9	802	1	655.2	1	693.4	1	780.6	1	553.7	0.7	801.285714285714	1	542.4	13	374410	2	374398	26	39	374436	-999999	374413	0	18	TrialsPROC	TO_011_TOOL11_BA.png	1	2	76	SessionSelectionList														nonlure	3	Tools	0-Back	66	80	65	0	0	97	9	39	317899	1	14	86	315860	-1	316315	1	455	3	3	2039	53	317913	-54	0														5		76												
WM080112	149337_fnca	1	1	1	779248500	1	75.031	75.030	2.0.10.147	2.0.10.242	2.0.10.242	1.0.0.439	7	234	2	3	Verdana	1	80	0	0	0	WM Stimuli\	0.6	795.333333333333	0.9	802	1	655.2	1	693.4	1	780.6	1	553.7	0.7	801.285714285714	1	542.4	13	374410	2	374398	26	39	374436	-999999	374413	0	18	TrialsPROC	TO_012_TOOL12_BA.png	1	2	77	SessionSelectionList														nonlure	3	Tools	0-Back	67	80	66	0	0	97	10	39	320485	1	13	86	318446	-1	318898	1	452	3	3	2039	52	320498	-53	0														6		77												
WM080112	149337_fnca	1	1	1	779248500	1	75.031	75.030	2.0.10.147	2.0.10.242	2.0.10.242	1.0.0.439	7	234	2	3	Verdana	1	80	0	0	0	WM Stimuli\	0.6	795.333333333333	0.9	802	1	655.2	1	693.4	1	780.6	1	553.7	0.7	801.285714285714	1	542.4	13	374410	2	374398	26	39	374436	-999999	374413	0	18	TrialsPROC	TO_010_TOOL10_BA.png	1	2	78	SessionSelectionList														lure	3	Tools	0-Back	68	80	67	0	0	97	11	40	323044	1	13	58	321004	-1	321468	1	464	3	3	2040	53	323057	-54	0														7		78												
WM080112	149337_fnca	1	1	1	779248500	1	75.031	75.030	2.0.10.147	2.0.10.242	2.0.10.242	1.0.0.439	7	234	2	3	Verdana	1	80	0	0	0	WM Stimuli\	0.6	795.333333333333	0.9	802	1	655.2	1	693.4	1	780.6	1	553.7	0.7	801.285714285714	1	542.4	13	374410	2	374398	26	39	374436	-999999	374413	0	18	TrialsPROC	TO_007_TOOL7_BA.png	1	2	79	SessionSelectionList														target	2	Tools	0-Back	69	80	68	0	0	97	1	40	325603	1	13	59	323563	-1	324058	1	495	2	2	2040	53	325616	-54	0														8		79												
WM080112	149337_fnca	1	1	1	779248500	1	75.031	75.030	2.0.10.147	2.0.10.242	2.0.10.242	1.0.0.439	7	234	2	3	Verdana	1	80	0	0	0	WM Stimuli\	0.6	795.333333333333	0.9	802	1	655.2	1	693.4	1	780.6	1	553.7	0.7	801.285714285714	1	542.4	13	374410	2	374398	26	39	374436	-999999	374413	0	18	TrialsPROC	TO_008_TOOL8_BA.png	1	2	80	SessionSelectionList														lure	3	Tools	0-Back	70	80	69	0	0	97	1	40	328162	1	13	59	326122	-1	326545	1	423	3	3	2040	53	328175	-54	0														9		80												
WM080112	149337_fnca	1	1	1	779248500	1	75.031	75.030	2.0.10.147	2.0.10.242	2.0.10.242	1.0.0.439	7	234	2	3	Verdana	1	80	0	0	0	WM Stimuli\	0.6	795.333333333333	0.9	802	1	655.2	1	693.4	1	780.6	1	553.7	0.7	801.285714285714	1	542.4	13	374410	2	374398	26	39	374436	-999999	374413	0	18	TrialsPROC	TO_007_TOOL7_BA.png	1	2	81	SessionSelectionList														target	2	Tools	0-Back	71	80	70	0	0	98	1	40	330721	1	13	59	328681	-1	329087	1	406	2	2	2040	53	330734	-54	0														10		81												
WM080112	149337_fnca	1	1	1	779248500	1	75.031	75.030	2.0.10.147	2.0.10.242	2.0.10.242	1.0.0.439	7	234	2	3	Verdana	1	80	0	0	0	WM Stimuli\	0.6	795.333333333333	0.9	802	1	655.2	1	693.4	1	780.6	1	553.7	0.7	801.285714285714	1	542.4	13	374410	2	374398	26	39	374436	-999999	374413	0	19	Cue2BackPROC	""	1	2	82	SessionSelectionList									6	331187	-7	0																																													82												
WM080112	149337_fnca	1	1	1	779248500	1	75.031	75.030	2.0.10.147	2.0.10.242	2.0.10.242	1.0.0.439	7	234	2	3	Verdana	1	80	0	0	0	WM Stimuli\	0.6	795.333333333333	0.9	802	1	655.2	1	693.4	1	780.6	1	553.7	0.7	801.285714285714	1	542.4	13	374410	2	374398	26	39	374436	-999999	374413	0	20	TrialsPROC	PL_007_92026.png	1	2	83	SessionSelectionList														nonlure	3	Place	2-Back	72	80	71	0	0	98	1	39	335785	2	14	65	333746	-1	335294	1	1548	3	3	2039	53	335799	-54	0															1	83												
WM080112	149337_fnca	1	1	1	779248500	1	75.031	75.030	2.0.10.147	2.0.10.242	2.0.10.242	1.0.0.439	7	234	2	3	Verdana	1	80	0	0	0	WM Stimuli\	0.6	795.333333333333	0.9	802	1	655.2	1	693.4	1	780.6	1	553.7	0.7	801.285714285714	1	542.4	13	374410	2	374398	26	39	374436	-999999	374413	0	20	TrialsPROC	PL_007_92026.png	1	2	84	SessionSelectionList														lure	3	Place	2-Back	73	80	72	0	0	98	2	39	338344	2	14	59	336305	-1	337203	1	898	3	3	2039	53	338358	-54	0															2	84												
WM080112	149337_fnca	1	1	1	779248500	1	75.031	75.030	2.0.10.147	2.0.10.242	2.0.10.242	1.0.0.439	7	234	2	3	Verdana	1	80	0	0	0	WM Stimuli\	0.6	795.333333333333	0.9	802	1	655.2	1	693.4	1	780.6	1	553.7	0.7	801.285714285714	1	542.4	13	374410	2	374398	26	39	374436	-999999	374413	0	20	TrialsPROC	PL_010_92038.png	1	2	85	SessionSelectionList														nonlure	3	Place	2-Back	74	80	73	0	0	98	3	39	340916	2	14	72	338877	-1	339633	1	756	3	3	2039	53	340930	-54	0															3	85												
WM080112	149337_fnca	1	1	1	779248500	1	75.031	75.030	2.0.10.147	2.0.10.242	2.0.10.242	1.0.0.439	7	234	2	3	Verdana	1	80	0	0	0	WM Stimuli\	0.6	795.333333333333	0.9	802	1	655.2	1	693.4	1	780.6	1	553.7	0.7	801.285714285714	1	542.4	13	374410	2	374398	26	39	374436	-999999	374413	0	20	TrialsPROC	PL_009_92037.png	1	2	86	SessionSelectionList														nonlure	3	Place	2-Back	75	80	74	0	0	98	4	39	343502	1	13	86	341463	-1	342017	1	554	3	3	2039	52	343515	-53	0															4	86												
WM080112	149337_fnca	1	1	1	779248500	1	75.031	75.030	2.0.10.147	2.0.10.242	2.0.10.242	1.0.0.439	7	234	2	3	Verdana	1	80	0	0	0	WM Stimuli\	0.6	795.333333333333	0.9	802	1	655.2	1	693.4	1	780.6	1	553.7	0.7	801.285714285714	1	542.4	13	374410	2	374398	26	39	374436	-999999	374413	0	20	TrialsPROC	PL_010_92038.png	1	2	87	SessionSelectionList														target	2	Place	2-Back	76	80	75	0	0	98	1	39	346074	2	14	72	344035	-1	344692	1	657	2	2	2039	53	346088	-54	0															5	87												
WM080112	149337_fnca	1	1	1	779248500	1	75.031	75.030	2.0.10.147	2.0.10.242	2.0.10.242	1.0.0.439	7	234	2	3	Verdana	1	80	0	0	0	WM Stimuli\	0.6	795.333333333333	0.9	802	1	655.2	1	693.4	1	780.6	1	553.7	0.7	801.285714285714	1	542.4	13	374410	2	374398	26	39	374436	-999999	374413	0	20	TrialsPROC	PL_009_92037.png	1	2	88	SessionSelectionList														target	2	Place	2-Back	77	80	76	0	0	98	2	40	348647	1	13	72	346607	-1	347364	1	757	2	2	2040	53	348660	-54	0															6	88												
WM080112	149337_fnca	1	1	1	779248500	1	75.031	75.030	2.0.10.147	2.0.10.242	2.0.10.242	1.0.0.439	7	234	2	3	Verdana	1	80	0	0	0	WM Stimuli\	0.6	795.333333333333	0.9	802	1	655.2	1	693.4	1	780.6	1	553.7	0.7	801.285714285714	1	542.4	13	374410	2	374398	26	39	374436	-999999	374413	0	20	TrialsPROC	PL_008_92033.png	1	2	89	SessionSelectionList														nonlure	3	Place	2-Back	78	80	77	0	0	98	1	39	351219	1	13	73	349180	-1	349746	1	566	3	3	2039	52	351232	-53	0															7	89												
WM080112	149337_fnca	1	1	1	779248500	1	75.031	75.030	2.0.10.147	2.0.10.242	2.0.10.242	1.0.0.439	7	234	2	3	Verdana	1	80	0	0	0	WM Stimuli\	0.6	795.333333333333	0.9	802	1	655.2	1	693.4	1	780.6	1	553.7	0.7	801.285714285714	1	542.4	13	374410	2	374398	26	39	374436	-999999	374413	0	20	TrialsPROC	PL_012_92047.png	1	2	90	SessionSelectionList														nonlure	3	Place	2-Back	79	80	78	0	0	98	2	40	353805	1	13	85	351765	-1	352304	1	539	3	3	2040	53	353818	-54	0															8	90												
WM080112	149337_fnca	1	1	1	779248500	1	75.031	75.030	2.0.10.147	2.0.10.242	2.0.10.242	1.0.0.439	7	234	2	3	Verdana	1	80	0	0	0	WM Stimuli\	0.6	795.333333333333	0.9	802	1	655.2	1	693.4	1	780.6	1	553.7	0.7	801.285714285714	1	542.4	13	374410	2	374398	26	39	374436	-999999	374413	0	20	TrialsPROC	PL_012_92047.png	1	2	91	SessionSelectionList														lure	3	Place	2-Back	80	80	79	0	0	98	3	40	356364	1	13	59	354324	-1	354986	1	662	3	3	2040	53	356377	-54	0															9	91												
WM080112	149337_fnca	1	1	1	779248500	1	75.031	75.030	2.0.10.147	2.0.10.242	2.0.10.242	1.0.0.439	7	234	2	3	Verdana	1	80	0	0	0	WM Stimuli\	0.6	795.333333333333	0.9	802	1	655.2	1	693.4	1	780.6	1	553.7	0.7	801.285714285714	1	542.4	13	374410	2	374398	26	39	374436	-999999	374413	0	20	TrialsPROC	PL_011_92044.png	1	2	92	SessionSelectionList														nonlure	3	Place	2-Back	80	80	80	0	0	98	4	39	358936	1	13	73	356897	-1	357766	1	869	3	3	2039	52	358949	-53	0															10	92												
WM080112	149337_fnca	1	1	1	779248500	1	75.031	75.030	2.0.10.147	2.0.10.242	2.0.10.242	1.0.0.439	7	234	2	3	Verdana	1	80	0	0	0	WM Stimuli\	0.6	795.333333333333	0.9	802	1	655.2	1	693.4	1	780.6	1	553.7	0.7	801.285714285714	1	542.4	13	374410	2	374398	26	39	374436	-999999	374413	0	21	Fix15secPROC	""	1	2	93	SessionSelectionList																																															5	359402	-6	0							93												
