ExperimentName	HCPID	RunNumber	Subject	Session	RandomSeed	Group	Laptop.RefreshRate	ScannerD2.RefreshRate	StudioVersion	RuntimeVersion	RuntimeVersionExpected	ExperimentVersion	triggercode	Allowed	Target	Nontarget	FontStyle	RunTrialNumber[Session]	TrialsPerRun[Session]	TotalRespGreater200[Session]	ConsecRTLess200[Session]	ConsecNonResp[Session]	StimuliDir	ACC_2_Back_Body	Avg_RT_For_Correct_Trials_2_Back_Body	ACC_0_Back_Body	Avg_RT_For_Correct_Trials_0_Back_Body	ACC_2_Back_Face	Avg_RT_For_Correct_Trials_2_Back_Face	ACC_0_Back_Face	Avg_RT_For_Correct_Trials_0_Back_Face	ACC_2_Back_Place	Avg_RT_For_Correct_Trials_2_Back_Place	ACC_0_Back_Place	Avg_RT_For_Correct_Trials_0_Back_Place	ACC_2_Back_Tools	Avg_RT_For_Correct_Trials_2_Back_Tools	ACC_0_Back_Tools	Avg_RT_For_Correct_Trials_0_Back_Tools	ExpInstrucFeelFreeToRest.OnsetDelay	ExpInstrucFeelFreeToRest.OnsetTime	ExpInstrucFeelFreeToRest.DurationError	ExpInstrucFeelFreeToRest.StartTime	ExpInstrucFeelFreeToRest.OnsetToOnsetTime	FeelFreeToRest.OnsetDelay	FeelFreeToRest.OnsetTime	FeelFreeToRest.DurationError	FeelFreeToRest.StartTime	FeelFreeToRest.OnsetToOnsetTime	SessionSelectionList	Procedure[Block]	Stimulus[Block]	RunNumberFilterValue	SessionSelectionList.Cycle	SessionSelectionList.Sample	Running[Block]	IntroButtonMap.OnsetDelay	IntroButtonMap.OnsetTime	IntroButtonMap.DurationError	IntroButtonMap.OnsetToOnsetTime	GetReady.OnsetDelay	GetReady.OnsetTime	GetReady.DurationError	GetReady.OnsetToOnsetTime	Cue2Back.OnsetDelay	Cue2Back.OnsetTime	Cue2Back.DurationError	Cue2Back.OnsetToOnsetTime	Run1Block1	TargetType	CorrectResponse	StimType	BlockType	RunTrialNumber[Block]	TrialsPerRun[Block]	TotalRespGreater200[Block]	ConsecRTLess200[Block]	ConsecNonResp[Block]	ControlAcc	ConsecSameResp	ExperimenterWindow.OnsetDelay	ExperimenterWindow.OnsetTime	ExperimenterWindow.DurationError	ExperimenterWindow.OnsetToOnsetTime	Stim.OnsetDelay	Stim.OnsetTime	Stim.DurationError	Stim.RTTime	Stim.ACC	Stim.RT	Stim.RESP	Stim.CRESP	Stim.OnsetToOnsetTime	Fix.OnsetDelay	Fix.OnsetTime	Fix.DurationError	Fix.OnsetToOnsetTime	CueTarget.OnsetDelay	CueTarget.OnsetTime	CueTarget.DurationError	CueTarget.OnsetToOnsetTime	Run1Block2	Fix15sec.OnsetDelay	Fix15sec.OnsetTime	Fix15sec.DurationError	Fix15sec.OnsetToOnsetTime	Run1Block3	Run1Block4	Run1Block5	Run1Block6	Run1Block7	Run1Block8	Block	Procedure[Trial]	Stimulus[Trial]	ReadyList	Running[Trial]	ReadyList.Cycle	ReadyList.Sample	SyncSlide.OnsetDelay	SyncSlide.OnsetTime	SyncSlide.DurationError	SyncSlide.FinishTime	SyncSlide.OnsetToOnsetTime	Trial
WM080112	130316_fnca	2	1	1	-20449920	1	75.032	75.032	2.0.10.147	2.0.10.242	2.0.10.242	1.0.0.439	7	234	2	3	Verdana	1	80	0	0	0	WM Stimuli\	0.8	997.75	1	584.9	1	1083.5	1	473.2	1	860.2	1	554.3	0.8	761.75	0.9	572.222222222222	13	315791	2	315779	27	40	315818	-999999	315794	0	22	TRSyncPROC	""	2	2	1	SessionSelectionList	97	8199	-999999	0	33	9159	-999999	0																																																	1	InitialTR	4	1	ReadyList	1	1	12	22526	-13	24513	0	1
WM080112	130316_fnca	2	1	1	-20449920	1	75.032	75.032	2.0.10.147	2.0.10.242	2.0.10.242	1.0.0.439	7	234	2	3	Verdana	1	80	0	0	0	WM Stimuli\	0.8	997.75	1	584.9	1	1083.5	1	473.2	1	860.2	1	554.3	0.8	761.75	0.9	572.222222222222	13	315791	2	315779	27	40	315818	-999999	315794	0	22	TRSyncPROC	""	2	2	1	SessionSelectionList	97	8199	-999999	0	33	9159	-999999	0																																																	1	InitialTR	3	2	ReadyList	1	2	11	24525	-12	26513	0	2
WM080112	130316_fnca	2	1	1	-20449920	1	75.032	75.032	2.0.10.147	2.0.10.242	2.0.10.242	1.0.0.439	7	234	2	3	Verdana	1	80	0	0	0	WM Stimuli\	0.8	997.75	1	584.9	1	1083.5	1	473.2	1	860.2	1	554.3	0.8	761.75	0.9	572.222222222222	13	315791	2	315779	27	40	315818	-999999	315794	0	22	TRSyncPROC	""	2	2	1	SessionSelectionList	97	8199	-999999	0	33	9159	-999999	0																																																	1	InitialTR	2	3	ReadyList	1	3	10	26524	-11	28513	0	3
WM080112	130316_fnca	2	1	1	-20449920	1	75.032	75.032	2.0.10.147	2.0.10.242	2.0.10.242	1.0.0.439	7	234	2	3	Verdana	1	80	0	0	0	WM Stimuli\	0.8	997.75	1	584.9	1	1083.5	1	473.2	1	860.2	1	554.3	0.8	761.75	0.9	572.222222222222	13	315791	2	315779	27	40	315818	-999999	315794	0	22	TRSyncPROC	""	2	2	1	SessionSelectionList	97	8199	-999999	0	33	9159	-999999	0																																																	1	InitialTR	1	4	ReadyList	1	4	9	28523	-10	30513	0	4
WM080112	130316_fnca	2	1	1	-20449920	1	75.032	75.032	2.0.10.147	2.0.10.242	2.0.10.242	1.0.0.439	7	234	2	3	Verdana	1	80	0	0	0	WM Stimuli\	0.8	997.75	1	584.9	1	1083.5	1	473.2	1	860.2	1	554.3	0.8	761.75	0.9	572.222222222222	13	315791	2	315779	27	40	315818	-999999	315794	0	23	Cue2BackPROC	""	2	2	2	SessionSelectionList									9	30523	-10	0																																													2												
WM080112	130316_fnca	2	1	1	-20449920	1	75.032	75.032	2.0.10.147	2.0.10.242	2.0.10.242	1.0.0.439	7	234	2	3	Verdana	1	80	0	0	0	WM Stimuli\	0.8	997.75	1	584.9	1	1083.5	1	473.2	1	860.2	1	554.3	0.8	761.75	0.9	572.222222222222	13	315791	2	315779	27	40	315818	-999999	315794	0	24	TrialsPROC	TO_014_TOOL14_BA.png	2	2	3	SessionSelectionList														nonlure	3	Tools	2-Back	2	80	1	0	0	0	1	52	35147	3	14	81	33095	-1	33544	1	449	3	3	2052	66	35161	-67	0																3												
WM080112	130316_fnca	2	1	1	-20449920	1	75.032	75.032	2.0.10.147	2.0.10.242	2.0.10.242	1.0.0.439	7	234	2	3	Verdana	1	80	0	0	0	WM Stimuli\	0.8	997.75	1	584.9	1	1083.5	1	473.2	1	860.2	1	554.3	0.8	761.75	0.9	572.222222222222	13	315791	2	315779	27	40	315818	-999999	315794	0	24	TrialsPROC	TO_013_TOOL13_BA.png	2	2	4	SessionSelectionList														nonlure	3	Tools	2-Back	3	80	2	0	0	0	2	39	37693	2	14	59	35654	-1	36178	1	524	3	3	2039	53	37707	-54	0																4												
WM080112	130316_fnca	2	1	1	-20449920	1	75.032	75.032	2.0.10.147	2.0.10.242	2.0.10.242	1.0.0.439	7	234	2	3	Verdana	1	80	0	0	0	WM Stimuli\	0.8	997.75	1	584.9	1	1083.5	1	473.2	1	860.2	1	554.3	0.8	761.75	0.9	572.222222222222	13	315791	2	315779	27	40	315818	-999999	315794	0	24	TrialsPROC	TO_016_TOOL16_BA.png	2	2	5	SessionSelectionList														nonlure	3	Tools	2-Back	4	80	3	0	0	0	3	39	40252	1	14	59	38213	-1	38723	1	510	3	3	2039	53	40266	-54	0																5												
WM080112	130316_fnca	2	1	1	-20449920	1	75.032	75.032	2.0.10.147	2.0.10.242	2.0.10.242	1.0.0.439	7	234	2	3	Verdana	1	80	0	0	0	WM Stimuli\	0.8	997.75	1	584.9	1	1083.5	1	473.2	1	860.2	1	554.3	0.8	761.75	0.9	572.222222222222	13	315791	2	315779	27	40	315818	-999999	315794	0	24	TrialsPROC	TO_014_TOOL14_BA.png	2	2	6	SessionSelectionList														lure	3	Tools	2-Back	5	80	4	0	0	0	4	39	42824	2	14	72	40785	-1	41673	1	888	3	3	2039	53	42838	-54	0																6												
WM080112	130316_fnca	2	1	1	-20449920	1	75.032	75.032	2.0.10.147	2.0.10.242	2.0.10.242	1.0.0.439	7	234	2	3	Verdana	1	80	0	0	0	WM Stimuli\	0.8	997.75	1	584.9	1	1083.5	1	473.2	1	860.2	1	554.3	0.8	761.75	0.9	572.222222222222	13	315791	2	315779	27	40	315818	-999999	315794	0	24	TrialsPROC	TO_016_TOOL16_BA.png	2	2	7	SessionSelectionList														target	2	Tools	2-Back	6	80	5	0	0	0	5	39	45383	2	14	59	43344	-1	44618	0	1274	3	2	2039	53	45397	-54	0																7												
WM080112	130316_fnca	2	1	1	-20449920	1	75.032	75.032	2.0.10.147	2.0.10.242	2.0.10.242	1.0.0.439	7	234	2	3	Verdana	1	80	0	0	0	WM Stimuli\	0.8	997.75	1	584.9	1	1083.5	1	473.2	1	860.2	1	554.3	0.8	761.75	0.9	572.222222222222	13	315791	2	315779	27	40	315818	-999999	315794	0	24	TrialsPROC	TO_018_TOOL18_BA.png	2	2	8	SessionSelectionList														nonlure	3	Tools	2-Back	7	80	6	0	0	0	6	39	47942	1	14	59	45903	-1	46616	1	713	3	3	2039	53	47956	-54	0																8												
WM080112	130316_fnca	2	1	1	-20449920	1	75.032	75.032	2.0.10.147	2.0.10.242	2.0.10.242	1.0.0.439	7	234	2	3	Verdana	1	80	0	0	0	WM Stimuli\	0.8	997.75	1	584.9	1	1083.5	1	473.2	1	860.2	1	554.3	0.8	761.75	0.9	572.222222222222	13	315791	2	315779	27	40	315818	-999999	315794	0	24	TrialsPROC	TO_017_TOOL17_BA.png	2	2	9	SessionSelectionList														nonlure	3	Tools	2-Back	8	80	7	0	0	0	7	39	50501	1	14	59	48462	-1	49883	1	1421	3	3	2039	53	50515	-54	0																9												
WM080112	130316_fnca	2	1	1	-20449920	1	75.032	75.032	2.0.10.147	2.0.10.242	2.0.10.242	1.0.0.439	7	234	2	3	Verdana	1	80	0	0	0	WM Stimuli\	0.8	997.75	1	584.9	1	1083.5	1	473.2	1	860.2	1	554.3	0.8	761.75	0.9	572.222222222222	13	315791	2	315779	27	40	315818	-999999	315794	0	24	TrialsPROC	TO_018_TOOL18_BA.png	2	2	10	SessionSelectionList														target	2	Tools	2-Back	9	80	8	0	0	0	1	39	53060	1	14	59	51021	-1	51881	1	860	2	2	2039	53	53074	-54	0																10												
WM080112	130316_fnca	2	1	1	-20449920	1	75.032	75.032	2.0.10.147	2.0.10.242	2.0.10.242	1.0.0.439	7	234	2	3	Verdana	1	80	0	0	0	WM Stimuli\	0.8	997.75	1	584.9	1	1083.5	1	473.2	1	860.2	1	554.3	0.8	761.75	0.9	572.222222222222	13	315791	2	315779	27	40	315818	-999999	315794	0	24	TrialsPROC	TO_015_TOOL15_BA.png	2	2	11	SessionSelectionList														nonlure	3	Tools	2-Back	10	80	9	0	0	0	1	39	55619	1	14	59	53580	-1	54309	1	729	3	3	2039	53	55633	-54	0																11												
WM080112	130316_fnca	2	1	1	-20449920	1	75.032	75.032	2.0.10.147	2.0.10.242	2.0.10.242	1.0.0.439	7	234	2	3	Verdana	1	80	0	0	0	WM Stimuli\	0.8	997.75	1	584.9	1	1083.5	1	473.2	1	860.2	1	554.3	0.8	761.75	0.9	572.222222222222	13	315791	2	315779	27	40	315818	-999999	315794	0	24	TrialsPROC	TO_017_TOOL17_BA.png	2	2	12	SessionSelectionList														lure	3	Tools	2-Back	11	80	10	0	0	0	1	39	58178	1	14	59	56139	-1	57085	0	946	2	3	2039	53	58192	-54	0																12												
WM080112	130316_fnca	2	1	1	-20449920	1	75.032	75.032	2.0.10.147	2.0.10.242	2.0.10.242	1.0.0.439	7	234	2	3	Verdana	1	80	0	0	0	WM Stimuli\	0.8	997.75	1	584.9	1	1083.5	1	473.2	1	860.2	1	554.3	0.8	761.75	0.9	572.222222222222	13	315791	2	315779	27	40	315818	-999999	315794	0	25	Cue0BackPROC	BP_013_BP7_BA.png	2	2	13	SessionSelectionList																																										19	58658	-20	0												13												
WM080112	130316_fnca	2	1	1	-20449920	1	75.032	75.032	2.0.10.147	2.0.10.242	2.0.10.242	1.0.0.439	7	234	2	3	Verdana	1	80	0	0	0	WM Stimuli\	0.8	997.75	1	584.9	1	1083.5	1	473.2	1	860.2	1	554.3	0.8	761.75	0.9	572.222222222222	13	315791	2	315779	27	40	315818	-999999	315794	0	26	TrialsPROC	BP_015_H10-T_BA.png	2	2	14	SessionSelectionList														nonlure	3	Body	0-Back	12	80	11	0	0	100	1	39	63229	2	14	51	61190	-1	62309	1	1119	3	3	2039	53	63243	-54	0																14												
WM080112	130316_fnca	2	1	1	-20449920	1	75.032	75.032	2.0.10.147	2.0.10.242	2.0.10.242	1.0.0.439	7	234	2	3	Verdana	1	80	0	0	0	WM Stimuli\	0.8	997.75	1	584.9	1	1083.5	1	473.2	1	860.2	1	554.3	0.8	761.75	0.9	572.222222222222	13	315791	2	315779	27	40	315818	-999999	315794	0	26	TrialsPROC	BP_018_H13-T_BA.png	2	2	15	SessionSelectionList														nonlure	3	Body	0-Back	13	80	12	0	0	100	2	39	65788	1	14	59	63749	-1	64197	1	448	3	3	2039	53	65802	-54	0																15												
WM080112	130316_fnca	2	1	1	-20449920	1	75.032	75.032	2.0.10.147	2.0.10.242	2.0.10.242	1.0.0.439	7	234	2	3	Verdana	1	80	0	0	0	WM Stimuli\	0.8	997.75	1	584.9	1	1083.5	1	473.2	1	860.2	1	554.3	0.8	761.75	0.9	572.222222222222	13	315791	2	315779	27	40	315818	-999999	315794	0	26	TrialsPROC	BP_014_BP9_BA.png	2	2	16	SessionSelectionList														nonlure	3	Body	0-Back	14	80	13	0	0	100	3	39	68347	1	14	59	66308	-1	67036	1	728	3	3	2039	53	68361	-54	0																16												
WM080112	130316_fnca	2	1	1	-20449920	1	75.032	75.032	2.0.10.147	2.0.10.242	2.0.10.242	1.0.0.439	7	234	2	3	Verdana	1	80	0	0	0	WM Stimuli\	0.8	997.75	1	584.9	1	1083.5	1	473.2	1	860.2	1	554.3	0.8	761.75	0.9	572.222222222222	13	315791	2	315779	27	40	315818	-999999	315794	0	26	TrialsPROC	BP_018_H13-T_BA.png	2	2	17	SessionSelectionList														lure	3	Body	0-Back	15	80	14	0	0	100	4	39	70906	1	14	59	68867	-1	69287	1	420	3	3	2039	53	70920	-54	0																17												
WM080112	130316_fnca	2	1	1	-20449920	1	75.032	75.032	2.0.10.147	2.0.10.242	2.0.10.242	1.0.0.439	7	234	2	3	Verdana	1	80	0	0	0	WM Stimuli\	0.8	997.75	1	584.9	1	1083.5	1	473.2	1	860.2	1	554.3	0.8	761.75	0.9	572.222222222222	13	315791	2	315779	27	40	315818	-999999	315794	0	26	TrialsPROC	BP_013_BP7_BA.png	2	2	18	SessionSelectionList														target	2	Body	0-Back	16	80	15	0	0	100	1	39	73465	1	14	59	71426	-1	71843	1	417	2	2	2039	53	73479	-54	0																18												
WM080112	130316_fnca	2	1	1	-20449920	1	75.032	75.032	2.0.10.147	2.0.10.242	2.0.10.242	1.0.0.439	7	234	2	3	Verdana	1	80	0	0	0	WM Stimuli\	0.8	997.75	1	584.9	1	1083.5	1	473.2	1	860.2	1	554.3	0.8	761.75	0.9	572.222222222222	13	315791	2	315779	27	40	315818	-999999	315794	0	26	TrialsPROC	BP_015_H10-T_BA.png	2	2	19	SessionSelectionList														lure	3	Body	0-Back	17	80	16	0	0	100	1	39	76024	1	14	59	73985	-1	74432	1	447	3	3	2039	53	76038	-54	0																19												
WM080112	130316_fnca	2	1	1	-20449920	1	75.032	75.032	2.0.10.147	2.0.10.242	2.0.10.242	1.0.0.439	7	234	2	3	Verdana	1	80	0	0	0	WM Stimuli\	0.8	997.75	1	584.9	1	1083.5	1	473.2	1	860.2	1	554.3	0.8	761.75	0.9	572.222222222222	13	315791	2	315779	27	40	315818	-999999	315794	0	26	TrialsPROC	BP_016_H11-T_BA.png	2	2	20	SessionSelectionList														nonlure	3	Body	0-Back	18	80	17	0	0	100	2	39	78583	1	14	59	76544	-1	77096	1	552	3	3	2039	53	78597	-54	0																20												
WM080112	130316_fnca	2	1	1	-20449920	1	75.032	75.032	2.0.10.147	2.0.10.242	2.0.10.242	1.0.0.439	7	234	2	3	Verdana	1	80	0	0	0	WM Stimuli\	0.8	997.75	1	584.9	1	1083.5	1	473.2	1	860.2	1	554.3	0.8	761.75	0.9	572.222222222222	13	315791	2	315779	27	40	315818	-999999	315794	0	26	TrialsPROC	BP_013_BP7_BA.png	2	2	21	SessionSelectionList														target	2	Body	0-Back	19	80	18	0	0	100	1	39	81142	1	13	59	79103	-1	79588	1	485	2	2	2039	52	81155	-53	0																21												
WM080112	130316_fnca	2	1	1	-20449920	1	75.032	75.032	2.0.10.147	2.0.10.242	2.0.10.242	1.0.0.439	7	234	2	3	Verdana	1	80	0	0	0	WM Stimuli\	0.8	997.75	1	584.9	1	1083.5	1	473.2	1	860.2	1	554.3	0.8	761.75	0.9	572.222222222222	13	315791	2	315779	27	40	315818	-999999	315794	0	26	TrialsPROC	BP_017_H12-T_BA.png	2	2	22	SessionSelectionList														nonlure	3	Body	0-Back	20	80	19	0	0	100	1	40	83701	1	13	58	81661	-1	82082	1	421	3	3	2040	53	83714	-54	0																22												
WM080112	130316_fnca	2	1	1	-20449920	1	75.032	75.032	2.0.10.147	2.0.10.242	2.0.10.242	1.0.0.439	7	234	2	3	Verdana	1	80	0	0	0	WM Stimuli\	0.8	997.75	1	584.9	1	1083.5	1	473.2	1	860.2	1	554.3	0.8	761.75	0.9	572.222222222222	13	315791	2	315779	27	40	315818	-999999	315794	0	26	TrialsPROC	BP_014_BP9_BA.png	2	2	23	SessionSelectionList														lure	3	Body	0-Back	21	80	20	0	0	100	2	40	86260	1	13	59	84220	-1	85032	1	812	3	3	2040	53	86273	-54	0																23												
WM080112	130316_fnca	2	1	1	-20449920	1	75.032	75.032	2.0.10.147	2.0.10.242	2.0.10.242	1.0.0.439	7	234	2	3	Verdana	1	80	0	0	0	WM Stimuli\	0.8	997.75	1	584.9	1	1083.5	1	473.2	1	860.2	1	554.3	0.8	761.75	0.9	572.222222222222	13	315791	2	315779	27	40	315818	-999999	315794	0	27	Fix15secPROC	""	2	2	24	SessionSelectionList																																															6	86726	-7	0							24												
WM080112	130316_fnca	2	1	1	-20449920	1	75.032	75.032	2.0.10.147	2.0.10.242	2.0.10.242	1.0.0.439	7	234	2	3	Verdana	1	80	0	0	0	WM Stimuli\	0.8	997.75	1	584.9	1	1083.5	1	473.2	1	860.2	1	554.3	0.8	761.75	0.9	572.222222222222	13	315791	2	315779	27	40	315818	-999999	315794	0	28	Cue2BackPROC	""	2	2	25	SessionSelectionList									13	101733	-14	0																																													25												
WM080112	130316_fnca	2	1	1	-20449920	1	75.032	75.032	2.0.10.147	2.0.10.242	2.0.10.242	1.0.0.439	7	234	2	3	Verdana	1	80	0	0	0	WM Stimuli\	0.8	997.75	1	584.9	1	1083.5	1	473.2	1	860.2	1	554.3	0.8	761.75	0.9	572.222222222222	13	315791	2	315779	27	40	315818	-999999	315794	0	29	TrialsPROC	FC_015_M8.png	2	2	26	SessionSelectionList														nonlure	3	Face	2-Back	22	80	21	0	0	100	3	39	106331	2	14	72	104292	-1	105185	1	893	3	3	2039	53	106345	-54	0																26												
WM080112	130316_fnca	2	1	1	-20449920	1	75.032	75.032	2.0.10.147	2.0.10.242	2.0.10.242	1.0.0.439	7	234	2	3	Verdana	1	80	0	0	0	WM Stimuli\	0.8	997.75	1	584.9	1	1083.5	1	473.2	1	860.2	1	554.3	0.8	761.75	0.9	572.222222222222	13	315791	2	315779	27	40	315818	-999999	315794	0	29	TrialsPROC	FC_018_F9.png	2	2	27	SessionSelectionList														nonlure	3	Face	2-Back	23	80	22	0	0	100	4	39	108903	2	14	72	106864	-1	107921	1	1057	3	3	2039	53	108917	-54	0																27												
WM080112	130316_fnca	2	1	1	-20449920	1	75.032	75.032	2.0.10.147	2.0.10.242	2.0.10.242	1.0.0.439	7	234	2	3	Verdana	1	80	0	0	0	WM Stimuli\	0.8	997.75	1	584.9	1	1083.5	1	473.2	1	860.2	1	554.3	0.8	761.75	0.9	572.222222222222	13	315791	2	315779	27	40	315818	-999999	315794	0	29	TrialsPROC	FC_018_F9.png	2	2	28	SessionSelectionList														lure	3	Face	2-Back	24	80	23	0	0	100	5	39	111476	1	14	73	109437	-1	110413	1	976	3	3	2039	53	111490	-54	0																28												
WM080112	130316_fnca	2	1	1	-20449920	1	75.032	75.032	2.0.10.147	2.0.10.242	2.0.10.242	1.0.0.439	7	234	2	3	Verdana	1	80	0	0	0	WM Stimuli\	0.8	997.75	1	584.9	1	1083.5	1	473.2	1	860.2	1	554.3	0.8	761.75	0.9	572.222222222222	13	315791	2	315779	27	40	315818	-999999	315794	0	29	TrialsPROC	FC_017_M9.png	2	2	29	SessionSelectionList														nonlure	3	Face	2-Back	25	80	24	0	0	100	6	39	114048	1	14	72	112009	-1	112881	1	872	3	3	2039	53	114062	-54	0																29												
WM080112	130316_fnca	2	1	1	-20449920	1	75.032	75.032	2.0.10.147	2.0.10.242	2.0.10.242	1.0.0.439	7	234	2	3	Verdana	1	80	0	0	0	WM Stimuli\	0.8	997.75	1	584.9	1	1083.5	1	473.2	1	860.2	1	554.3	0.8	761.75	0.9	572.222222222222	13	315791	2	315779	27	40	315818	-999999	315794	0	29	TrialsPROC	FC_017_M9.png	2	2	30	SessionSelectionList														lure	3	Face	2-Back	26	80	25	0	0	100	7	39	116620	2	14	72	114581	-1	115343	1	762	3	3	2039	53	116634	-54	0																30												
WM080112	130316_fnca	2	1	1	-20449920	1	75.032	75.032	2.0.10.147	2.0.10.242	2.0.10.242	1.0.0.439	7	234	2	3	Verdana	1	80	0	0	0	WM Stimuli\	0.8	997.75	1	584.9	1	1083.5	1	473.2	1	860.2	1	554.3	0.8	761.75	0.9	572.222222222222	13	315791	2	315779	27	40	315818	-999999	315794	0	29	TrialsPROC	FC_016_F8.png	2	2	31	SessionSelectionList														nonlure	3	Face	2-Back	27	80	26	0	0	100	8	40	119193	1	13	72	117153	-1	118072	1	919	3	3	2040	53	119206	-54	0																31												
WM080112	130316_fnca	2	1	1	-20449920	1	75.032	75.032	2.0.10.147	2.0.10.242	2.0.10.242	1.0.0.439	7	234	2	3	Verdana	1	80	0	0	0	WM Stimuli\	0.8	997.75	1	584.9	1	1083.5	1	473.2	1	860.2	1	554.3	0.8	761.75	0.9	572.222222222222	13	315791	2	315779	27	40	315818	-999999	315794	0	29	TrialsPROC	FC_013_M7.png	2	2	32	SessionSelectionList														nonlure	3	Face	2-Back	28	80	27	0	0	100	9	39	121765	1	14	73	119726	-1	120926	1	1200	3	3	2039	53	121779	-54	0																32												
WM080112	130316_fnca	2	1	1	-20449920	1	75.032	75.032	2.0.10.147	2.0.10.242	2.0.10.242	1.0.0.439	7	234	2	3	Verdana	1	80	0	0	0	WM Stimuli\	0.8	997.75	1	584.9	1	1083.5	1	473.2	1	860.2	1	554.3	0.8	761.75	0.9	572.222222222222	13	315791	2	315779	27	40	315818	-999999	315794	0	29	TrialsPROC	FC_014_F7.png	2	2	33	SessionSelectionList														nonlure	3	Face	2-Back	29	80	28	0	0	100	10	39	124337	1	14	72	122298	-1	123858	1	1560	3	3	2039	53	124351	-54	0																33												
WM080112	130316_fnca	2	1	1	-20449920	1	75.032	75.032	2.0.10.147	2.0.10.242	2.0.10.242	1.0.0.439	7	234	2	3	Verdana	1	80	0	0	0	WM Stimuli\	0.8	997.75	1	584.9	1	1083.5	1	473.2	1	860.2	1	554.3	0.8	761.75	0.9	572.222222222222	13	315791	2	315779	27	40	315818	-999999	315794	0	29	TrialsPROC	FC_013_M7.png	2	2	34	SessionSelectionList														target	2	Face	2-Back	30	80	29	0	0	100	1	39	126909	2	14	72	124870	-1	125810	1	940	2	2	2039	53	126923	-54	0																34												
WM080112	130316_fnca	2	1	1	-20449920	1	75.032	75.032	2.0.10.147	2.0.10.242	2.0.10.242	1.0.0.439	7	234	2	3	Verdana	1	80	0	0	0	WM Stimuli\	0.8	997.75	1	584.9	1	1083.5	1	473.2	1	860.2	1	554.3	0.8	761.75	0.9	572.222222222222	13	315791	2	315779	27	40	315818	-999999	315794	0	29	TrialsPROC	FC_014_F7.png	2	2	35	SessionSelectionList														target	2	Face	2-Back	31	80	30	0	0	100	2	40	129482	1	13	72	127442	-1	129098	1	1656	2	2	2040	53	129495	-54	0																35												
WM080112	130316_fnca	2	1	1	-20449920	1	75.032	75.032	2.0.10.147	2.0.10.242	2.0.10.242	1.0.0.439	7	234	2	3	Verdana	1	80	0	0	0	WM Stimuli\	0.8	997.75	1	584.9	1	1083.5	1	473.2	1	860.2	1	554.3	0.8	761.75	0.9	572.222222222222	13	315791	2	315779	27	40	315818	-999999	315794	0	30	Cue0BackPROC	TO_019_TOOL19_BA.png	2	2	36	SessionSelectionList																																										19	129961	-20	0												36												
WM080112	130316_fnca	2	1	1	-20449920	1	75.032	75.032	2.0.10.147	2.0.10.242	2.0.10.242	1.0.0.439	7	234	2	3	Verdana	1	80	0	0	0	WM Stimuli\	0.8	997.75	1	584.9	1	1083.5	1	473.2	1	860.2	1	554.3	0.8	761.75	0.9	572.222222222222	13	315791	2	315779	27	40	315818	-999999	315794	0	31	TrialsPROC	TO_019_TOOL19_BA.png	2	2	37	SessionSelectionList														target	2	Tools	0-Back	32	80	31	0	0	91	1	39	134533	1	14	52	132494	-1	133310	0	816	3	2	2039	53	134547	-54	0																37												
WM080112	130316_fnca	2	1	1	-20449920	1	75.032	75.032	2.0.10.147	2.0.10.242	2.0.10.242	1.0.0.439	7	234	2	3	Verdana	1	80	0	0	0	WM Stimuli\	0.8	997.75	1	584.9	1	1083.5	1	473.2	1	860.2	1	554.3	0.8	761.75	0.9	572.222222222222	13	315791	2	315779	27	40	315818	-999999	315794	0	31	TrialsPROC	TO_024_TOOL24_BA.png	2	2	38	SessionSelectionList														nonlure	3	Tools	0-Back	33	80	32	0	0	92	2	39	137092	1	14	59	135053	-1	135934	1	881	3	3	2039	53	137106	-54	0																38												
WM080112	130316_fnca	2	1	1	-20449920	1	75.032	75.032	2.0.10.147	2.0.10.242	2.0.10.242	1.0.0.439	7	234	2	3	Verdana	1	80	0	0	0	WM Stimuli\	0.8	997.75	1	584.9	1	1083.5	1	473.2	1	860.2	1	554.3	0.8	761.75	0.9	572.222222222222	13	315791	2	315779	27	40	315818	-999999	315794	0	31	TrialsPROC	TO_019_TOOL19_BA.png	2	2	39	SessionSelectionList														target	2	Tools	0-Back	34	80	33	0	0	92	1	39	139651	1	13	59	137612	-1	138230	1	618	2	2	2039	52	139664	-53	0																39												
WM080112	130316_fnca	2	1	1	-20449920	1	75.032	75.032	2.0.10.147	2.0.10.242	2.0.10.242	1.0.0.439	7	234	2	3	Verdana	1	80	0	0	0	WM Stimuli\	0.8	997.75	1	584.9	1	1083.5	1	473.2	1	860.2	1	554.3	0.8	761.75	0.9	572.222222222222	13	315791	2	315779	27	40	315818	-999999	315794	0	31	TrialsPROC	TO_023_TOOL23_BA.png	2	2	40	SessionSelectionList														nonlure	3	Tools	0-Back	35	80	34	0	0	93	1	39	142210	1	13	59	140171	-1	140715	1	544	3	3	2039	52	142223	-53	0																40												
WM080112	130316_fnca	2	1	1	-20449920	1	75.032	75.032	2.0.10.147	2.0.10.242	2.0.10.242	1.0.0.439	7	234	2	3	Verdana	1	80	0	0	0	WM Stimuli\	0.8	997.75	1	584.9	1	1083.5	1	473.2	1	860.2	1	554.3	0.8	761.75	0.9	572.222222222222	13	315791	2	315779	27	40	315818	-999999	315794	0	31	TrialsPROC	TO_020_TOOL20_BA.png	2	2	41	SessionSelectionList														nonlure	3	Tools	0-Back	36	80	35	0	0	93	2	40	144769	1	13	58	142729	-1	143157	1	428	3	3	2040	53	144782	-54	0																41												
WM080112	130316_fnca	2	1	1	-20449920	1	75.032	75.032	2.0.10.147	2.0.10.242	2.0.10.242	1.0.0.439	7	234	2	3	Verdana	1	80	0	0	0	WM Stimuli\	0.8	997.75	1	584.9	1	1083.5	1	473.2	1	860.2	1	554.3	0.8	761.75	0.9	572.222222222222	13	315791	2	315779	27	40	315818	-999999	315794	0	31	TrialsPROC	TO_020_TOOL20_BA.png	2	2	42	SessionSelectionList														lure	3	Tools	0-Back	37	80	36	0	0	94	3	39	147327	2	14	59	145288	-1	145672	1	384	3	3	2039	53	147341	-54	0																42												
WM080112	130316_fnca	2	1	1	-20449920	1	75.032	75.032	2.0.10.147	2.0.10.242	2.0.10.242	1.0.0.439	7	234	2	3	Verdana	1	80	0	0	0	WM Stimuli\	0.8	997.75	1	584.9	1	1083.5	1	473.2	1	860.2	1	554.3	0.8	761.75	0.9	572.222222222222	13	315791	2	315779	27	40	315818	-999999	315794	0	31	TrialsPROC	TO_022_TOOL22_BA.png	2	2	43	SessionSelectionList														nonlure	3	Tools	0-Back	38	80	37	0	0	94	4	39	149886	2	14	59	147847	-1	148627	1	780	3	3	2039	53	149900	-54	0																43												
WM080112	130316_fnca	2	1	1	-20449920	1	75.032	75.032	2.0.10.147	2.0.10.242	2.0.10.242	1.0.0.439	7	234	2	3	Verdana	1	80	0	0	0	WM Stimuli\	0.8	997.75	1	584.9	1	1083.5	1	473.2	1	860.2	1	554.3	0.8	761.75	0.9	572.222222222222	13	315791	2	315779	27	40	315818	-999999	315794	0	31	TrialsPROC	TO_022_TOOL22_BA.png	2	2	44	SessionSelectionList														lure	3	Tools	0-Back	39	80	38	0	0	94	5	39	152445	2	14	59	150406	-1	150896	1	490	3	3	2039	53	152459	-54	0																44												
WM080112	130316_fnca	2	1	1	-20449920	1	75.032	75.032	2.0.10.147	2.0.10.242	2.0.10.242	1.0.0.439	7	234	2	3	Verdana	1	80	0	0	0	WM Stimuli\	0.8	997.75	1	584.9	1	1083.5	1	473.2	1	860.2	1	554.3	0.8	761.75	0.9	572.222222222222	13	315791	2	315779	27	40	315818	-999999	315794	0	31	TrialsPROC	TO_021_TOOL21_BA.png	2	2	45	SessionSelectionList														nonlure	3	Tools	0-Back	40	80	39	0	0	95	6	39	155004	2	14	59	152965	-1	153546	1	581	3	3	2039	53	155018	-54	0																45												
WM080112	130316_fnca	2	1	1	-20449920	1	75.032	75.032	2.0.10.147	2.0.10.242	2.0.10.242	1.0.0.439	7	234	2	3	Verdana	1	80	0	0	0	WM Stimuli\	0.8	997.75	1	584.9	1	1083.5	1	473.2	1	860.2	1	554.3	0.8	761.75	0.9	572.222222222222	13	315791	2	315779	27	40	315818	-999999	315794	0	31	TrialsPROC	TO_021_TOOL21_BA.png	2	2	46	SessionSelectionList														lure	3	Tools	0-Back	41	80	40	0	0	95	7	39	157563	2	14	59	155524	-1	155968	1	444	3	3	2039	53	157577	-54	0																46												
WM080112	130316_fnca	2	1	1	-20449920	1	75.032	75.032	2.0.10.147	2.0.10.242	2.0.10.242	1.0.0.439	7	234	2	3	Verdana	1	80	0	0	0	WM Stimuli\	0.8	997.75	1	584.9	1	1083.5	1	473.2	1	860.2	1	554.3	0.8	761.75	0.9	572.222222222222	13	315791	2	315779	27	40	315818	-999999	315794	0	32	Fix15secPROC	""	2	2	47	SessionSelectionList																																															6	158030	-7	0							47												
WM080112	130316_fnca	2	1	1	-20449920	1	75.032	75.032	2.0.10.147	2.0.10.242	2.0.10.242	1.0.0.439	7	234	2	3	Verdana	1	80	0	0	0	WM Stimuli\	0.8	997.75	1	584.9	1	1083.5	1	473.2	1	860.2	1	554.3	0.8	761.75	0.9	572.222222222222	13	315791	2	315779	27	40	315818	-999999	315794	0	33	Cue2BackPROC	""	2	2	48	SessionSelectionList									13	173037	-14	0																																													48												
WM080112	130316_fnca	2	1	1	-20449920	1	75.032	75.032	2.0.10.147	2.0.10.242	2.0.10.242	1.0.0.439	7	234	2	3	Verdana	1	80	0	0	0	WM Stimuli\	0.8	997.75	1	584.9	1	1083.5	1	473.2	1	860.2	1	554.3	0.8	761.75	0.9	572.222222222222	13	315791	2	315779	27	40	315818	-999999	315794	0	34	TrialsPROC	BP_020_H17-T_BA.png	2	2	49	SessionSelectionList														nonlure	3	Body	2-Back	42	80	41	0	0	95	8	39	177622	1	13	59	175583	-1	176542	1	959	3	3	2039	52	177635	-53	0																49												
WM080112	130316_fnca	2	1	1	-20449920	1	75.032	75.032	2.0.10.147	2.0.10.242	2.0.10.242	1.0.0.439	7	234	2	3	Verdana	1	80	0	0	0	WM Stimuli\	0.8	997.75	1	584.9	1	1083.5	1	473.2	1	860.2	1	554.3	0.8	761.75	0.9	572.222222222222	13	315791	2	315779	27	40	315818	-999999	315794	0	34	TrialsPROC	BP_019_H14-T_BA.png	2	2	50	SessionSelectionList														nonlure	3	Body	2-Back	43	80	42	0	0	95	9	40	180181	1	13	58	178141	-1	179009	1	868	3	3	2040	53	180194	-54	0																50												
WM080112	130316_fnca	2	1	1	-20449920	1	75.032	75.032	2.0.10.147	2.0.10.242	2.0.10.242	1.0.0.439	7	234	2	3	Verdana	1	80	0	0	0	WM Stimuli\	0.8	997.75	1	584.9	1	1083.5	1	473.2	1	860.2	1	554.3	0.8	761.75	0.9	572.222222222222	13	315791	2	315779	27	40	315818	-999999	315794	0	34	TrialsPROC	BP_020_H17-T_BA.png	2	2	51	SessionSelectionList														target	2	Body	2-Back	44	80	43	0	0	95	1	38	182739	2	14	60	180701	-1	181264	1	563	2	2	2038	52	182753	-53	0																51												
WM080112	130316_fnca	2	1	1	-20449920	1	75.032	75.032	2.0.10.147	2.0.10.242	2.0.10.242	1.0.0.439	7	234	2	3	Verdana	1	80	0	0	0	WM Stimuli\	0.8	997.75	1	584.9	1	1083.5	1	473.2	1	860.2	1	554.3	0.8	761.75	0.9	572.222222222222	13	315791	2	315779	27	40	315818	-999999	315794	0	34	TrialsPROC	BP_019_H14-T_BA.png	2	2	52	SessionSelectionList														target	2	Body	2-Back	45	80	44	0	0	95	2	39	185312	1	14	72	183273	-1	184486	1	1213	2	2	2039	53	185326	-54	0																52												
WM080112	130316_fnca	2	1	1	-20449920	1	75.032	75.032	2.0.10.147	2.0.10.242	2.0.10.242	1.0.0.439	7	234	2	3	Verdana	1	80	0	0	0	WM Stimuli\	0.8	997.75	1	584.9	1	1083.5	1	473.2	1	860.2	1	554.3	0.8	761.75	0.9	572.222222222222	13	315791	2	315779	27	40	315818	-999999	315794	0	34	TrialsPROC	BP_024_H3-T_BA.png	2	2	53	SessionSelectionList														nonlure	3	Body	2-Back	46	80	44	0	1	95	2	39	187871	1	13	59	185832	-1	0	0	0	""	3	2039	52	187884	-53	0																53												
WM080112	130316_fnca	2	1	1	-20449920	1	75.032	75.032	2.0.10.147	2.0.10.242	2.0.10.242	1.0.0.439	7	234	2	3	Verdana	1	80	0	0	0	WM Stimuli\	0.8	997.75	1	584.9	1	1083.5	1	473.2	1	860.2	1	554.3	0.8	761.75	0.9	572.222222222222	13	315791	2	315779	27	40	315818	-999999	315794	0	34	TrialsPROC	BP_024_H3-T_BA.png	2	2	54	SessionSelectionList														lure	3	Body	2-Back	47	80	45	0	0	95	1	39	190430	1	13	59	188391	-1	188934	0	543	2	3	2039	52	190443	-53	0																54												
WM080112	130316_fnca	2	1	1	-20449920	1	75.032	75.032	2.0.10.147	2.0.10.242	2.0.10.242	1.0.0.439	7	234	2	3	Verdana	1	80	0	0	0	WM Stimuli\	0.8	997.75	1	584.9	1	1083.5	1	473.2	1	860.2	1	554.3	0.8	761.75	0.9	572.222222222222	13	315791	2	315779	27	40	315818	-999999	315794	0	34	TrialsPROC	BP_025_H5-T_BA.png	2	2	55	SessionSelectionList														nonlure	3	Body	2-Back	48	80	46	0	0	95	1	40	192989	1	13	58	190949	-1	192135	1	1186	3	3	2040	53	193002	-54	0																55												
WM080112	130316_fnca	2	1	1	-20449920	1	75.032	75.032	2.0.10.147	2.0.10.242	2.0.10.242	1.0.0.439	7	234	2	3	Verdana	1	80	0	0	0	WM Stimuli\	0.8	997.75	1	584.9	1	1083.5	1	473.2	1	860.2	1	554.3	0.8	761.75	0.9	572.222222222222	13	315791	2	315779	27	40	315818	-999999	315794	0	34	TrialsPROC	BP_023_H25-T_BA.png	2	2	56	SessionSelectionList														nonlure	3	Body	2-Back	49	80	47	0	0	95	2	39	195547	2	14	59	193508	-1	194925	1	1417	3	3	2039	53	195561	-54	0																56												
WM080112	130316_fnca	2	1	1	-20449920	1	75.032	75.032	2.0.10.147	2.0.10.242	2.0.10.242	1.0.0.439	7	234	2	3	Verdana	1	80	0	0	0	WM Stimuli\	0.8	997.75	1	584.9	1	1083.5	1	473.2	1	860.2	1	554.3	0.8	761.75	0.9	572.222222222222	13	315791	2	315779	27	40	315818	-999999	315794	0	34	TrialsPROC	BP_022_H24-T_BA.png	2	2	57	SessionSelectionList														nonlure	3	Body	2-Back	50	80	48	0	0	95	3	39	198106	2	14	59	196067	-1	196902	1	835	3	3	2039	53	198120	-54	0																57												
WM080112	130316_fnca	2	1	1	-20449920	1	75.032	75.032	2.0.10.147	2.0.10.242	2.0.10.242	1.0.0.439	7	234	2	3	Verdana	1	80	0	0	0	WM Stimuli\	0.8	997.75	1	584.9	1	1083.5	1	473.2	1	860.2	1	554.3	0.8	761.75	0.9	572.222222222222	13	315791	2	315779	27	40	315818	-999999	315794	0	34	TrialsPROC	BP_022_H24-T_BA.png	2	2	58	SessionSelectionList														lure	3	Body	2-Back	51	80	49	0	0	95	4	39	200665	2	14	59	198626	-1	199567	1	941	3	3	2039	53	200679	-54	0																58												
WM080112	130316_fnca	2	1	1	-20449920	1	75.032	75.032	2.0.10.147	2.0.10.242	2.0.10.242	1.0.0.439	7	234	2	3	Verdana	1	80	0	0	0	WM Stimuli\	0.8	997.75	1	584.9	1	1083.5	1	473.2	1	860.2	1	554.3	0.8	761.75	0.9	572.222222222222	13	315791	2	315779	27	40	315818	-999999	315794	0	35	Cue2BackPROC	""	2	2	59	SessionSelectionList									6	201132	-7	0																																													59												
WM080112	130316_fnca	2	1	1	-20449920	1	75.032	75.032	2.0.10.147	2.0.10.242	2.0.10.242	1.0.0.439	7	234	2	3	Verdana	1	80	0	0	0	WM Stimuli\	0.8	997.75	1	584.9	1	1083.5	1	473.2	1	860.2	1	554.3	0.8	761.75	0.9	572.222222222222	13	315791	2	315779	27	40	315818	-999999	315794	0	36	TrialsPROC	PL_019_SCENE_05.png	2	2	60	SessionSelectionList														nonlure	3	Place	2-Back	52	80	50	0	0	95	5	39	205730	1	14	65	203691	-1	204789	1	1098	3	3	2039	53	205744	-54	0																60												
WM080112	130316_fnca	2	1	1	-20449920	1	75.032	75.032	2.0.10.147	2.0.10.242	2.0.10.242	1.0.0.439	7	234	2	3	Verdana	1	80	0	0	0	WM Stimuli\	0.8	997.75	1	584.9	1	1083.5	1	473.2	1	860.2	1	554.3	0.8	761.75	0.9	572.222222222222	13	315791	2	315779	27	40	315818	-999999	315794	0	36	TrialsPROC	PL_017_SCENE_03.png	2	2	61	SessionSelectionList														nonlure	3	Place	2-Back	53	80	51	0	0	95	6	39	208302	2	14	72	206263	-1	207129	1	866	3	3	2039	53	208316	-54	0																61												
WM080112	130316_fnca	2	1	1	-20449920	1	75.032	75.032	2.0.10.147	2.0.10.242	2.0.10.242	1.0.0.439	7	234	2	3	Verdana	1	80	0	0	0	WM Stimuli\	0.8	997.75	1	584.9	1	1083.5	1	473.2	1	860.2	1	554.3	0.8	761.75	0.9	572.222222222222	13	315791	2	315779	27	40	315818	-999999	315794	0	36	TrialsPROC	PL_017_SCENE_03.png	2	2	62	SessionSelectionList														lure	3	Place	2-Back	54	80	52	0	0	95	7	39	210874	2	14	72	208835	-1	209650	1	815	3	3	2039	53	210888	-54	0																62												
WM080112	130316_fnca	2	1	1	-20449920	1	75.032	75.032	2.0.10.147	2.0.10.242	2.0.10.242	1.0.0.439	7	234	2	3	Verdana	1	80	0	0	0	WM Stimuli\	0.8	997.75	1	584.9	1	1083.5	1	473.2	1	860.2	1	554.3	0.8	761.75	0.9	572.222222222222	13	315791	2	315779	27	40	315818	-999999	315794	0	36	TrialsPROC	PL_016_SCENE_02.png	2	2	63	SessionSelectionList														nonlure	3	Place	2-Back	55	80	53	0	0	95	8	39	213447	1	14	73	211408	-1	212135	1	727	3	3	2039	53	213461	-54	0																63												
WM080112	130316_fnca	2	1	1	-20449920	1	75.032	75.032	2.0.10.147	2.0.10.242	2.0.10.242	1.0.0.439	7	234	2	3	Verdana	1	80	0	0	0	WM Stimuli\	0.8	997.75	1	584.9	1	1083.5	1	473.2	1	860.2	1	554.3	0.8	761.75	0.9	572.222222222222	13	315791	2	315779	27	40	315818	-999999	315794	0	36	TrialsPROC	PL_015_SCENE_01.png	2	2	64	SessionSelectionList														nonlure	3	Place	2-Back	56	80	54	0	0	95	9	39	216019	1	14	72	213980	-1	214637	1	657	3	3	2039	53	216033	-54	0																64												
WM080112	130316_fnca	2	1	1	-20449920	1	75.032	75.032	2.0.10.147	2.0.10.242	2.0.10.242	1.0.0.439	7	234	2	3	Verdana	1	80	0	0	0	WM Stimuli\	0.8	997.75	1	584.9	1	1083.5	1	473.2	1	860.2	1	554.3	0.8	761.75	0.9	572.222222222222	13	315791	2	315779	27	40	315818	-999999	315794	0	36	TrialsPROC	PL_016_SCENE_02.png	2	2	65	SessionSelectionList														target	2	Place	2-Back	57	80	55	0	0	95	1	39	218591	2	14	72	216552	-1	217375	1	823	2	2	2039	53	218605	-54	0																65												
WM080112	130316_fnca	2	1	1	-20449920	1	75.032	75.032	2.0.10.147	2.0.10.242	2.0.10.242	1.0.0.439	7	234	2	3	Verdana	1	80	0	0	0	WM Stimuli\	0.8	997.75	1	584.9	1	1083.5	1	473.2	1	860.2	1	554.3	0.8	761.75	0.9	572.222222222222	13	315791	2	315779	27	40	315818	-999999	315794	0	36	TrialsPROC	PL_015_SCENE_01.png	2	2	66	SessionSelectionList														target	2	Place	2-Back	58	80	56	0	0	95	2	40	221164	1	13	72	219124	-1	220233	1	1109	2	2	2040	53	221177	-54	0																66												
WM080112	130316_fnca	2	1	1	-20449920	1	75.032	75.032	2.0.10.147	2.0.10.242	2.0.10.242	1.0.0.439	7	234	2	3	Verdana	1	80	0	0	0	WM Stimuli\	0.8	997.75	1	584.9	1	1083.5	1	473.2	1	860.2	1	554.3	0.8	761.75	0.9	572.222222222222	13	315791	2	315779	27	40	315818	-999999	315794	0	36	TrialsPROC	PL_020_SCENE_06.png	2	2	67	SessionSelectionList														nonlure	3	Place	2-Back	59	80	57	0	0	95	1	39	223736	1	14	73	221697	-1	222296	1	599	3	3	2039	53	223750	-54	0																67												
WM080112	130316_fnca	2	1	1	-20449920	1	75.032	75.032	2.0.10.147	2.0.10.242	2.0.10.242	1.0.0.439	7	234	2	3	Verdana	1	80	0	0	0	WM Stimuli\	0.8	997.75	1	584.9	1	1083.5	1	473.2	1	860.2	1	554.3	0.8	761.75	0.9	572.222222222222	13	315791	2	315779	27	40	315818	-999999	315794	0	36	TrialsPROC	PL_020_SCENE_06.png	2	2	68	SessionSelectionList														lure	3	Place	2-Back	60	80	58	0	0	95	2	39	226308	1	14	72	224269	-1	224938	1	669	3	3	2039	53	226322	-54	0																68												
WM080112	130316_fnca	2	1	1	-20449920	1	75.032	75.032	2.0.10.147	2.0.10.242	2.0.10.242	1.0.0.439	7	234	2	3	Verdana	1	80	0	0	0	WM Stimuli\	0.8	997.75	1	584.9	1	1083.5	1	473.2	1	860.2	1	554.3	0.8	761.75	0.9	572.222222222222	13	315791	2	315779	27	40	315818	-999999	315794	0	36	TrialsPROC	PL_018_SCENE_04.png	2	2	69	SessionSelectionList														nonlure	3	Place	2-Back	61	80	59	0	0	95	3	39	228880	2	14	72	226841	-1	228080	1	1239	3	3	2039	53	228894	-54	0																69												
WM080112	130316_fnca	2	1	1	-20449920	1	75.032	75.032	2.0.10.147	2.0.10.242	2.0.10.242	1.0.0.439	7	234	2	3	Verdana	1	80	0	0	0	WM Stimuli\	0.8	997.75	1	584.9	1	1083.5	1	473.2	1	860.2	1	554.3	0.8	761.75	0.9	572.222222222222	13	315791	2	315779	27	40	315818	-999999	315794	0	37	Fix15secPROC	""	2	2	70	SessionSelectionList																																															6	229347	-7	0							70												
WM080112	130316_fnca	2	1	1	-20449920	1	75.032	75.032	2.0.10.147	2.0.10.242	2.0.10.242	1.0.0.439	7	234	2	3	Verdana	1	80	0	0	0	WM Stimuli\	0.8	997.75	1	584.9	1	1083.5	1	473.2	1	860.2	1	554.3	0.8	761.75	0.9	572.222222222222	13	315791	2	315779	27	40	315818	-999999	315794	0	38	Cue0BackPROC	FC_020_F10.png	2	2	71	SessionSelectionList																																										26	244367	-27	0												71												
WM080112	130316_fnca	2	1	1	-20449920	1	75.032	75.032	2.0.10.147	2.0.10.242	2.0.10.242	1.0.0.439	7	234	2	3	Verdana	1	80	0	0	0	WM Stimuli\	0.8	997.75	1	584.9	1	1083.5	1	473.2	1	860.2	1	554.3	0.8	761.75	0.9	572.222222222222	13	315791	2	315779	27	40	315818	-999999	315794	0	39	TrialsPROC	FC_024_F12.png	2	2	72	SessionSelectionList														nonlure	3	Face	0-Back	62	80	60	0	0	95	4	39	248952	1	14	72	246913	-1	247893	1	980	3	3	2039	53	248966	-54	0																72												
WM080112	130316_fnca	2	1	1	-20449920	1	75.032	75.032	2.0.10.147	2.0.10.242	2.0.10.242	1.0.0.439	7	234	2	3	Verdana	1	80	0	0	0	WM Stimuli\	0.8	997.75	1	584.9	1	1083.5	1	473.2	1	860.2	1	554.3	0.8	761.75	0.9	572.222222222222	13	315791	2	315779	27	40	315818	-999999	315794	0	39	TrialsPROC	FC_023_M12.png	2	2	73	SessionSelectionList														nonlure	3	Face	0-Back	63	80	61	0	0	95	5	39	251524	2	14	72	249485	-1	249940	1	455	3	3	2039	53	251538	-54	0																73												
WM080112	130316_fnca	2	1	1	-20449920	1	75.032	75.032	2.0.10.147	2.0.10.242	2.0.10.242	1.0.0.439	7	234	2	3	Verdana	1	80	0	0	0	WM Stimuli\	0.8	997.75	1	584.9	1	1083.5	1	473.2	1	860.2	1	554.3	0.8	761.75	0.9	572.222222222222	13	315791	2	315779	27	40	315818	-999999	315794	0	39	TrialsPROC	FC_020_F10.png	2	2	74	SessionSelectionList														target	2	Face	0-Back	64	80	62	0	0	96	1	40	254097	1	13	72	252057	-1	252490	1	433	2	2	2040	53	254110	-54	0																74												
WM080112	130316_fnca	2	1	1	-20449920	1	75.032	75.032	2.0.10.147	2.0.10.242	2.0.10.242	1.0.0.439	7	234	2	3	Verdana	1	80	0	0	0	WM Stimuli\	0.8	997.75	1	584.9	1	1083.5	1	473.2	1	860.2	1	554.3	0.8	761.75	0.9	572.222222222222	13	315791	2	315779	27	40	315818	-999999	315794	0	39	TrialsPROC	FC_024_F12.png	2	2	75	SessionSelectionList														lure	3	Face	0-Back	65	80	63	0	0	96	1	39	256669	1	14	73	254630	-1	255088	1	458	3	3	2039	53	256683	-54	0																75												
WM080112	130316_fnca	2	1	1	-20449920	1	75.032	75.032	2.0.10.147	2.0.10.242	2.0.10.242	1.0.0.439	7	234	2	3	Verdana	1	80	0	0	0	WM Stimuli\	0.8	997.75	1	584.9	1	1083.5	1	473.2	1	860.2	1	554.3	0.8	761.75	0.9	572.222222222222	13	315791	2	315779	27	40	315818	-999999	315794	0	39	TrialsPROC	FC_020_F10.png	2	2	76	SessionSelectionList														target	2	Face	0-Back	66	80	64	0	0	96	1	39	259241	1	14	72	257202	-1	257579	1	377	2	2	2039	53	259255	-54	0																76												
WM080112	130316_fnca	2	1	1	-20449920	1	75.032	75.032	2.0.10.147	2.0.10.242	2.0.10.242	1.0.0.439	7	234	2	3	Verdana	1	80	0	0	0	WM Stimuli\	0.8	997.75	1	584.9	1	1083.5	1	473.2	1	860.2	1	554.3	0.8	761.75	0.9	572.222222222222	13	315791	2	315779	27	40	315818	-999999	315794	0	39	TrialsPROC	FC_022_F11.png	2	2	77	SessionSelectionList														nonlure	3	Face	0-Back	67	80	65	0	0	96	1	39	261813	2	14	72	259774	-1	260158	1	384	3	3	2039	53	261827	-54	0																77												
WM080112	130316_fnca	2	1	1	-20449920	1	75.032	75.032	2.0.10.147	2.0.10.242	2.0.10.242	1.0.0.439	7	234	2	3	Verdana	1	80	0	0	0	WM Stimuli\	0.8	997.75	1	584.9	1	1083.5	1	473.2	1	860.2	1	554.3	0.8	761.75	0.9	572.222222222222	13	315791	2	315779	27	40	315818	-999999	315794	0	39	TrialsPROC	FC_023_M12.png	2	2	78	SessionSelectionList														lure	3	Face	0-Back	68	80	66	0	0	96	2	40	264386	1	13	72	262346	-1	262809	1	463	3	3	2040	53	264399	-54	0																78												
WM080112	130316_fnca	2	1	1	-20449920	1	75.032	75.032	2.0.10.147	2.0.10.242	2.0.10.242	1.0.0.439	7	234	2	3	Verdana	1	80	0	0	0	WM Stimuli\	0.8	997.75	1	584.9	1	1083.5	1	473.2	1	860.2	1	554.3	0.8	761.75	0.9	572.222222222222	13	315791	2	315779	27	40	315818	-999999	315794	0	39	TrialsPROC	FC_021_M11.png	2	2	79	SessionSelectionList														nonlure	3	Face	0-Back	69	80	67	0	0	96	3	39	266958	1	14	73	264919	-1	265316	1	397	3	3	2039	53	266972	-54	0																79												
WM080112	130316_fnca	2	1	1	-20449920	1	75.032	75.032	2.0.10.147	2.0.10.242	2.0.10.242	1.0.0.439	7	234	2	3	Verdana	1	80	0	0	0	WM Stimuli\	0.8	997.75	1	584.9	1	1083.5	1	473.2	1	860.2	1	554.3	0.8	761.75	0.9	572.222222222222	13	315791	2	315779	27	40	315818	-999999	315794	0	39	TrialsPROC	FC_021_M11.png	2	2	80	SessionSelectionList														lure	3	Face	0-Back	70	80	68	0	0	97	4	39	269530	1	14	72	267491	-1	267899	1	408	3	3	2039	53	269544	-54	0																80												
WM080112	130316_fnca	2	1	1	-20449920	1	75.032	75.032	2.0.10.147	2.0.10.242	2.0.10.242	1.0.0.439	7	234	2	3	Verdana	1	80	0	0	0	WM Stimuli\	0.8	997.75	1	584.9	1	1083.5	1	473.2	1	860.2	1	554.3	0.8	761.75	0.9	572.222222222222	13	315791	2	315779	27	40	315818	-999999	315794	0	39	TrialsPROC	FC_019_M10.png	2	2	81	SessionSelectionList														nonlure	3	Face	0-Back	71	80	69	0	0	97	5	39	272102	2	14	72	270063	-1	270440	1	377	3	3	2039	53	272116	-54	0																81												
WM080112	130316_fnca	2	1	1	-20449920	1	75.032	75.032	2.0.10.147	2.0.10.242	2.0.10.242	1.0.0.439	7	234	2	3	Verdana	1	80	0	0	0	WM Stimuli\	0.8	997.75	1	584.9	1	1083.5	1	473.2	1	860.2	1	554.3	0.8	761.75	0.9	572.222222222222	13	315791	2	315779	27	40	315818	-999999	315794	0	40	Cue0BackPROC	PL_021_SCENE_07.png	2	2	82	SessionSelectionList																																										19	272582	-20	0												82												
WM080112	130316_fnca	2	1	1	-20449920	1	75.032	75.032	2.0.10.147	2.0.10.242	2.0.10.242	1.0.0.439	7	234	2	3	Verdana	1	80	0	0	0	WM Stimuli\	0.8	997.75	1	584.9	1	1083.5	1	473.2	1	860.2	1	554.3	0.8	761.75	0.9	572.222222222222	13	315791	2	315779	27	40	315818	-999999	315794	0	41	TrialsPROC	PL_025_SCENE_18.png	2	2	83	SessionSelectionList														nonlure	3	Place	0-Back	72	80	70	0	0	97	6	39	277167	1	14	65	275128	-1	275778	1	650	3	3	2039	53	277181	-54	0																83												
WM080112	130316_fnca	2	1	1	-20449920	1	75.032	75.032	2.0.10.147	2.0.10.242	2.0.10.242	1.0.0.439	7	234	2	3	Verdana	1	80	0	0	0	WM Stimuli\	0.8	997.75	1	584.9	1	1083.5	1	473.2	1	860.2	1	554.3	0.8	761.75	0.9	572.222222222222	13	315791	2	315779	27	40	315818	-999999	315794	0	41	TrialsPROC	PL_026_SCENE_24.png	2	2	84	SessionSelectionList														nonlure	3	Place	0-Back	73	80	71	0	0	97	7	39	279739	2	14	72	277700	-1	278072	1	372	3	3	2039	53	279753	-54	0																84												
WM080112	130316_fnca	2	1	1	-20449920	1	75.032	75.032	2.0.10.147	2.0.10.242	2.0.10.242	1.0.0.439	7	234	2	3	Verdana	1	80	0	0	0	WM Stimuli\	0.8	997.75	1	584.9	1	1083.5	1	473.2	1	860.2	1	554.3	0.8	761.75	0.9	572.222222222222	13	315791	2	315779	27	40	315818	-999999	315794	0	41	TrialsPROC	PL_025_SCENE_18.png	2	2	85	SessionSelectionList														lure	3	Place	0-Back	74	80	72	0	0	97	8	39	282311	2	14	72	280272	-1	280711	1	439	3	3	2039	53	282325	-54	0																85												
WM080112	130316_fnca	2	1	1	-20449920	1	75.032	75.032	2.0.10.147	2.0.10.242	2.0.10.242	1.0.0.439	7	234	2	3	Verdana	1	80	0	0	0	WM Stimuli\	0.8	997.75	1	584.9	1	1083.5	1	473.2	1	860.2	1	554.3	0.8	761.75	0.9	572.222222222222	13	315791	2	315779	27	40	315818	-999999	315794	0	41	TrialsPROC	PL_022_SCENE_08.png	2	2	86	SessionSelectionList														nonlure	3	Place	0-Back	75	80	73	0	0	97	9	39	284884	1	13	73	282845	-1	283439	1	594	3	3	2039	52	284897	-53	0																86												
WM080112	130316_fnca	2	1	1	-20449920	1	75.032	75.032	2.0.10.147	2.0.10.242	2.0.10.242	1.0.0.439	7	234	2	3	Verdana	1	80	0	0	0	WM Stimuli\	0.8	997.75	1	584.9	1	1083.5	1	473.2	1	860.2	1	554.3	0.8	761.75	0.9	572.222222222222	13	315791	2	315779	27	40	315818	-999999	315794	0	41	TrialsPROC	PL_026_SCENE_24.png	2	2	87	SessionSelectionList														lure	3	Place	0-Back	76	80	74	0	0	97	10	39	287456	1	14	72	285417	-1	285912	1	495	3	3	2039	53	287470	-54	0																87												
WM080112	130316_fnca	2	1	1	-20449920	1	75.032	75.032	2.0.10.147	2.0.10.242	2.0.10.242	1.0.0.439	7	234	2	3	Verdana	1	80	0	0	0	WM Stimuli\	0.8	997.75	1	584.9	1	1083.5	1	473.2	1	860.2	1	554.3	0.8	761.75	0.9	572.222222222222	13	315791	2	315779	27	40	315818	-999999	315794	0	41	TrialsPROC	PL_021_SCENE_07.png	2	2	88	SessionSelectionList														target	2	Place	0-Back	77	80	75	0	0	97	1	39	290028	2	14	72	287989	-1	288590	1	601	2	2	2039	53	290042	-54	0																88												
WM080112	130316_fnca	2	1	1	-20449920	1	75.032	75.032	2.0.10.147	2.0.10.242	2.0.10.242	1.0.0.439	7	234	2	3	Verdana	1	80	0	0	0	WM Stimuli\	0.8	997.75	1	584.9	1	1083.5	1	473.2	1	860.2	1	554.3	0.8	761.75	0.9	572.222222222222	13	315791	2	315779	27	40	315818	-999999	315794	0	41	TrialsPROC	PL_021_SCENE_07.png	2	2	89	SessionSelectionList														target	2	Place	0-Back	78	80	76	0	0	97	2	39	292600	2	14	72	290561	-1	291038	1	477	2	2	2039	53	292614	-54	0																89												
WM080112	130316_fnca	2	1	1	-20449920	1	75.032	75.032	2.0.10.147	2.0.10.242	2.0.10.242	1.0.0.439	7	234	2	3	Verdana	1	80	0	0	0	WM Stimuli\	0.8	997.75	1	584.9	1	1083.5	1	473.2	1	860.2	1	554.3	0.8	761.75	0.9	572.222222222222	13	315791	2	315779	27	40	315818	-999999	315794	0	41	TrialsPROC	PL_023_SCENE_09.png	2	2	90	SessionSelectionList														nonlure	3	Place	0-Back	79	80	77	0	0	97	1	39	295173	1	14	73	293134	-1	293786	1	652	3	3	2039	53	295187	-54	0																90												
WM080112	130316_fnca	2	1	1	-20449920	1	75.032	75.032	2.0.10.147	2.0.10.242	2.0.10.242	1.0.0.439	7	234	2	3	Verdana	1	80	0	0	0	WM Stimuli\	0.8	997.75	1	584.9	1	1083.5	1	473.2	1	860.2	1	554.3	0.8	761.75	0.9	572.222222222222	13	315791	2	315779	27	40	315818	-999999	315794	0	41	TrialsPROC	PL_024_SCENE_10.png	2	2	91	SessionSelectionList														nonlure	3	Place	0-Back	80	80	78	0	0	97	2	39	297745	1	14	72	295706	-1	296392	1	686	3	3	2039	53	297759	-54	0																91												
WM080112	130316_fnca	2	1	1	-20449920	1	75.032	75.032	2.0.10.147	2.0.10.242	2.0.10.242	1.0.0.439	7	234	2	3	Verdana	1	80	0	0	0	WM Stimuli\	0.8	997.75	1	584.9	1	1083.5	1	473.2	1	860.2	1	554.3	0.8	761.75	0.9	572.222222222222	13	315791	2	315779	27	40	315818	-999999	315794	0	41	TrialsPROC	PL_022_SCENE_08.png	2	2	92	SessionSelectionList														lure	3	Place	0-Back	80	80	79	0	0	98	3	39	300317	2	14	72	298278	-1	298855	1	577	3	3	2039	53	300331	-54	0																92												
WM080112	130316_fnca	2	1	1	-20449920	1	75.032	75.032	2.0.10.147	2.0.10.242	2.0.10.242	1.0.0.439	7	234	2	3	Verdana	1	80	0	0	0	WM Stimuli\	0.8	997.75	1	584.9	1	1083.5	1	473.2	1	860.2	1	554.3	0.8	761.75	0.9	572.222222222222	13	315791	2	315779	27	40	315818	-999999	315794	0	42	Fix15secPROC	""	2	2	93	SessionSelectionList																																															6	300784	-7	0							93												
