ExperimentName	HCPID	RunNumber	Subject	Session	RandomSeed	Group	Laptop.RefreshRate	ScannerD2.RefreshRate	StudioVersion	RuntimeVersion	RuntimeVersionExpected	ExperimentVersion	triggercode	Allowed	Target	Nontarget	FontStyle	RunTrialNumber[Session]	TrialsPerRun[Session]	TotalRespGreater200[Session]	ConsecRTLess200[Session]	ConsecNonResp[Session]	StimuliDir	ACC_2_Back_Body	Avg_RT_For_Correct_Trials_2_Back_Body	ACC_0_Back_Body	Avg_RT_For_Correct_Trials_0_Back_Body	ACC_2_Back_Face	Avg_RT_For_Correct_Trials_2_Back_Face	ACC_0_Back_Face	Avg_RT_For_Correct_Trials_0_Back_Face	ACC_2_Back_Place	Avg_RT_For_Correct_Trials_2_Back_Place	ACC_0_Back_Place	Avg_RT_For_Correct_Trials_0_Back_Place	ACC_2_Back_Tools	Avg_RT_For_Correct_Trials_2_Back_Tools	ACC_0_Back_Tools	Avg_RT_For_Correct_Trials_0_Back_Tools	ExpInstrucFeelFreeToRest.OnsetDelay	ExpInstrucFeelFreeToRest.OnsetTime	ExpInstrucFeelFreeToRest.DurationError	ExpInstrucFeelFreeToRest.StartTime	ExpInstrucFeelFreeToRest.OnsetToOnsetTime	FeelFreeToRest.OnsetDelay	FeelFreeToRest.OnsetTime	FeelFreeToRest.DurationError	FeelFreeToRest.StartTime	FeelFreeToRest.OnsetToOnsetTime	SessionSelectionList	Procedure[Block]	Stimulus[Block]	RunNumberFilterValue	SessionSelectionList.Cycle	SessionSelectionList.Sample	Running[Block]	IntroButtonMap.OnsetDelay	IntroButtonMap.OnsetTime	IntroButtonMap.DurationError	IntroButtonMap.OnsetToOnsetTime	GetReady.OnsetDelay	GetReady.OnsetTime	GetReady.DurationError	GetReady.OnsetToOnsetTime	Cue2Back.OnsetDelay	Cue2Back.OnsetTime	Cue2Back.DurationError	Cue2Back.OnsetToOnsetTime	Run1Block1	TargetType	CorrectResponse	StimType	BlockType	RunTrialNumber[Block]	TrialsPerRun[Block]	TotalRespGreater200[Block]	ConsecRTLess200[Block]	ConsecNonResp[Block]	ControlAcc	ConsecSameResp	ExperimenterWindow.OnsetDelay	ExperimenterWindow.OnsetTime	ExperimenterWindow.DurationError	ExperimenterWindow.OnsetToOnsetTime	Stim.OnsetDelay	Stim.OnsetTime	Stim.DurationError	Stim.RTTime	Stim.ACC	Stim.RT	Stim.RESP	Stim.CRESP	Stim.OnsetToOnsetTime	Fix.OnsetDelay	Fix.OnsetTime	Fix.DurationError	Fix.OnsetToOnsetTime	CueTarget.OnsetDelay	CueTarget.OnsetTime	CueTarget.DurationError	CueTarget.OnsetToOnsetTime	Run1Block2	Fix15sec.OnsetDelay	Fix15sec.OnsetTime	Fix15sec.DurationError	Fix15sec.OnsetToOnsetTime	Run1Block3	Run1Block4	Run1Block5	Run1Block6	Run1Block7	Run1Block8	Block	Procedure[Trial]	Stimulus[Trial]	ReadyList	Running[Trial]	ReadyList.Cycle	ReadyList.Sample	SyncSlide.OnsetDelay	SyncSlide.OnsetTime	SyncSlide.DurationError	SyncSlide.FinishTime	SyncSlide.OnsetToOnsetTime	Trial
WM080112	146432_fnca	2	1	1	-1443157317	1	75.031	75.031	2.0.10.147	2.0.10.242	2.0.10.242	1.0.0.439	7	234	2	3	Verdana	1	80	0	0	0	WM Stimuli\	1	993.7	1	629.8	0.7	1042.57142857143	1	527	0.9	991.444444444444	1	640.8	0.7	886	0.9	590.666666666667	13	321778	2	321766	27	40	321805	-999999	321781	0	22	TRSyncPROC	""	2	2	1	SessionSelectionList	102	8693	-999999	0	35	15357	-999999	0																																																	1	InitialTR	4	1	ReadyList	1	1	20	28338	-21	30317	0	1
WM080112	146432_fnca	2	1	1	-1443157317	1	75.031	75.031	2.0.10.147	2.0.10.242	2.0.10.242	1.0.0.439	7	234	2	3	Verdana	1	80	0	0	0	WM Stimuli\	1	993.7	1	629.8	0.7	1042.57142857143	1	527	0.9	991.444444444444	1	640.8	0.7	886	0.9	590.666666666667	13	321778	2	321766	27	40	321805	-999999	321781	0	22	TRSyncPROC	""	2	2	1	SessionSelectionList	102	8693	-999999	0	35	15357	-999999	0																																																	1	InitialTR	3	2	ReadyList	1	2	19	30337	-20	32317	0	2
WM080112	146432_fnca	2	1	1	-1443157317	1	75.031	75.031	2.0.10.147	2.0.10.242	2.0.10.242	1.0.0.439	7	234	2	3	Verdana	1	80	0	0	0	WM Stimuli\	1	993.7	1	629.8	0.7	1042.57142857143	1	527	0.9	991.444444444444	1	640.8	0.7	886	0.9	590.666666666667	13	321778	2	321766	27	40	321805	-999999	321781	0	22	TRSyncPROC	""	2	2	1	SessionSelectionList	102	8693	-999999	0	35	15357	-999999	0																																																	1	InitialTR	2	3	ReadyList	1	3	5	32323	-6	34317	0	3
WM080112	146432_fnca	2	1	1	-1443157317	1	75.031	75.031	2.0.10.147	2.0.10.242	2.0.10.242	1.0.0.439	7	234	2	3	Verdana	1	80	0	0	0	WM Stimuli\	1	993.7	1	629.8	0.7	1042.57142857143	1	527	0.9	991.444444444444	1	640.8	0.7	886	0.9	590.666666666667	13	321778	2	321766	27	40	321805	-999999	321781	0	22	TRSyncPROC	""	2	2	1	SessionSelectionList	102	8693	-999999	0	35	15357	-999999	0																																																	1	InitialTR	1	4	ReadyList	1	4	4	34322	-5	36317	0	4
WM080112	146432_fnca	2	1	1	-1443157317	1	75.031	75.031	2.0.10.147	2.0.10.242	2.0.10.242	1.0.0.439	7	234	2	3	Verdana	1	80	0	0	0	WM Stimuli\	1	993.7	1	629.8	0.7	1042.57142857143	1	527	0.9	991.444444444444	1	640.8	0.7	886	0.9	590.666666666667	13	321778	2	321766	27	40	321805	-999999	321781	0	23	Cue2BackPROC	""	2	2	2	SessionSelectionList									17	36335	-18	0																																													2												
WM080112	146432_fnca	2	1	1	-1443157317	1	75.031	75.031	2.0.10.147	2.0.10.242	2.0.10.242	1.0.0.439	7	234	2	3	Verdana	1	80	0	0	0	WM Stimuli\	1	993.7	1	629.8	0.7	1042.57142857143	1	527	0.9	991.444444444444	1	640.8	0.7	886	0.9	590.666666666667	13	321778	2	321766	27	40	321805	-999999	321781	0	24	TrialsPROC	TO_014_TOOL14_BA.png	2	2	3	SessionSelectionList														nonlure	3	Tools	2-Back	2	80	1	0	0	0	1	52	40946	3	14	76	38894	-1	40380	1	1486	3	3	2052	66	40960	-67	0																3												
WM080112	146432_fnca	2	1	1	-1443157317	1	75.031	75.031	2.0.10.147	2.0.10.242	2.0.10.242	1.0.0.439	7	234	2	3	Verdana	1	80	0	0	0	WM Stimuli\	1	993.7	1	629.8	0.7	1042.57142857143	1	527	0.9	991.444444444444	1	640.8	0.7	886	0.9	590.666666666667	13	321778	2	321766	27	40	321805	-999999	321781	0	24	TrialsPROC	TO_013_TOOL13_BA.png	2	2	4	SessionSelectionList														nonlure	3	Tools	2-Back	3	80	2	0	0	0	2	39	43492	2	14	59	41453	-1	42335	1	882	3	3	2039	53	43506	-54	0																4												
WM080112	146432_fnca	2	1	1	-1443157317	1	75.031	75.031	2.0.10.147	2.0.10.242	2.0.10.242	1.0.0.439	7	234	2	3	Verdana	1	80	0	0	0	WM Stimuli\	1	993.7	1	629.8	0.7	1042.57142857143	1	527	0.9	991.444444444444	1	640.8	0.7	886	0.9	590.666666666667	13	321778	2	321766	27	40	321805	-999999	321781	0	24	TrialsPROC	TO_016_TOOL16_BA.png	2	2	5	SessionSelectionList														nonlure	3	Tools	2-Back	4	80	3	0	0	0	3	39	46051	1	14	59	44012	-1	44598	1	586	3	3	2039	53	46065	-54	0																5												
WM080112	146432_fnca	2	1	1	-1443157317	1	75.031	75.031	2.0.10.147	2.0.10.242	2.0.10.242	1.0.0.439	7	234	2	3	Verdana	1	80	0	0	0	WM Stimuli\	1	993.7	1	629.8	0.7	1042.57142857143	1	527	0.9	991.444444444444	1	640.8	0.7	886	0.9	590.666666666667	13	321778	2	321766	27	40	321805	-999999	321781	0	24	TrialsPROC	TO_014_TOOL14_BA.png	2	2	6	SessionSelectionList														lure	3	Tools	2-Back	5	80	4	0	0	0	1	39	48623	2	14	72	46584	-1	48070	0	1486	2	3	2039	53	48637	-54	0																6												
WM080112	146432_fnca	2	1	1	-1443157317	1	75.031	75.031	2.0.10.147	2.0.10.242	2.0.10.242	1.0.0.439	7	234	2	3	Verdana	1	80	0	0	0	WM Stimuli\	1	993.7	1	629.8	0.7	1042.57142857143	1	527	0.9	991.444444444444	1	640.8	0.7	886	0.9	590.666666666667	13	321778	2	321766	27	40	321805	-999999	321781	0	24	TrialsPROC	TO_016_TOOL16_BA.png	2	2	7	SessionSelectionList														target	2	Tools	2-Back	6	80	5	0	0	0	1	39	51182	2	14	59	49143	-1	49928	0	785	3	2	2039	53	51196	-54	0																7												
WM080112	146432_fnca	2	1	1	-1443157317	1	75.031	75.031	2.0.10.147	2.0.10.242	2.0.10.242	1.0.0.439	7	234	2	3	Verdana	1	80	0	0	0	WM Stimuli\	1	993.7	1	629.8	0.7	1042.57142857143	1	527	0.9	991.444444444444	1	640.8	0.7	886	0.9	590.666666666667	13	321778	2	321766	27	40	321805	-999999	321781	0	24	TrialsPROC	TO_018_TOOL18_BA.png	2	2	8	SessionSelectionList														nonlure	3	Tools	2-Back	7	80	6	0	0	0	2	38	53741	2	14	60	51703	-1	52527	1	824	3	3	2038	52	53755	-53	0																8												
WM080112	146432_fnca	2	1	1	-1443157317	1	75.031	75.031	2.0.10.147	2.0.10.242	2.0.10.242	1.0.0.439	7	234	2	3	Verdana	1	80	0	0	0	WM Stimuli\	1	993.7	1	629.8	0.7	1042.57142857143	1	527	0.9	991.444444444444	1	640.8	0.7	886	0.9	590.666666666667	13	321778	2	321766	27	40	321805	-999999	321781	0	24	TrialsPROC	TO_017_TOOL17_BA.png	2	2	9	SessionSelectionList														nonlure	3	Tools	2-Back	8	80	7	0	0	0	3	39	56300	2	14	58	54261	-1	55052	1	791	3	3	2039	53	56314	-54	0																9												
WM080112	146432_fnca	2	1	1	-1443157317	1	75.031	75.031	2.0.10.147	2.0.10.242	2.0.10.242	1.0.0.439	7	234	2	3	Verdana	1	80	0	0	0	WM Stimuli\	1	993.7	1	629.8	0.7	1042.57142857143	1	527	0.9	991.444444444444	1	640.8	0.7	886	0.9	590.666666666667	13	321778	2	321766	27	40	321805	-999999	321781	0	24	TrialsPROC	TO_018_TOOL18_BA.png	2	2	10	SessionSelectionList														target	2	Tools	2-Back	9	80	8	0	0	0	1	39	58859	1	14	59	56820	-1	57680	1	860	2	2	2039	53	58873	-54	0																10												
WM080112	146432_fnca	2	1	1	-1443157317	1	75.031	75.031	2.0.10.147	2.0.10.242	2.0.10.242	1.0.0.439	7	234	2	3	Verdana	1	80	0	0	0	WM Stimuli\	1	993.7	1	629.8	0.7	1042.57142857143	1	527	0.9	991.444444444444	1	640.8	0.7	886	0.9	590.666666666667	13	321778	2	321766	27	40	321805	-999999	321781	0	24	TrialsPROC	TO_015_TOOL15_BA.png	2	2	11	SessionSelectionList														nonlure	3	Tools	2-Back	10	80	9	0	0	0	1	39	61418	1	14	59	59379	-1	60152	1	773	3	3	2039	53	61432	-54	0																11												
WM080112	146432_fnca	2	1	1	-1443157317	1	75.031	75.031	2.0.10.147	2.0.10.242	2.0.10.242	1.0.0.439	7	234	2	3	Verdana	1	80	0	0	0	WM Stimuli\	1	993.7	1	629.8	0.7	1042.57142857143	1	527	0.9	991.444444444444	1	640.8	0.7	886	0.9	590.666666666667	13	321778	2	321766	27	40	321805	-999999	321781	0	24	TrialsPROC	TO_017_TOOL17_BA.png	2	2	12	SessionSelectionList														lure	3	Tools	2-Back	11	80	10	0	0	0	1	39	63977	1	14	59	61938	-1	62611	0	673	2	3	2039	53	63991	-54	0																12												
WM080112	146432_fnca	2	1	1	-1443157317	1	75.031	75.031	2.0.10.147	2.0.10.242	2.0.10.242	1.0.0.439	7	234	2	3	Verdana	1	80	0	0	0	WM Stimuli\	1	993.7	1	629.8	0.7	1042.57142857143	1	527	0.9	991.444444444444	1	640.8	0.7	886	0.9	590.666666666667	13	321778	2	321766	27	40	321805	-999999	321781	0	25	Cue0BackPROC	BP_013_BP7_BA.png	2	2	13	SessionSelectionList																																										19	64457	-20	0												13												
WM080112	146432_fnca	2	1	1	-1443157317	1	75.031	75.031	2.0.10.147	2.0.10.242	2.0.10.242	1.0.0.439	7	234	2	3	Verdana	1	80	0	0	0	WM Stimuli\	1	993.7	1	629.8	0.7	1042.57142857143	1	527	0.9	991.444444444444	1	640.8	0.7	886	0.9	590.666666666667	13	321778	2	321766	27	40	321805	-999999	321781	0	26	TrialsPROC	BP_015_H10-T_BA.png	2	2	14	SessionSelectionList														nonlure	3	Body	0-Back	12	80	11	0	0	100	1	40	69042	1	13	64	67002	-1	67670	1	668	3	3	2040	53	69055	-54	0																14												
WM080112	146432_fnca	2	1	1	-1443157317	1	75.031	75.031	2.0.10.147	2.0.10.242	2.0.10.242	1.0.0.439	7	234	2	3	Verdana	1	80	0	0	0	WM Stimuli\	1	993.7	1	629.8	0.7	1042.57142857143	1	527	0.9	991.444444444444	1	640.8	0.7	886	0.9	590.666666666667	13	321778	2	321766	27	40	321805	-999999	321781	0	26	TrialsPROC	BP_018_H13-T_BA.png	2	2	15	SessionSelectionList														nonlure	3	Body	0-Back	13	80	12	0	0	100	2	39	71601	1	13	60	69562	-1	70095	1	533	3	3	2039	52	71614	-53	0																15												
WM080112	146432_fnca	2	1	1	-1443157317	1	75.031	75.031	2.0.10.147	2.0.10.242	2.0.10.242	1.0.0.439	7	234	2	3	Verdana	1	80	0	0	0	WM Stimuli\	1	993.7	1	629.8	0.7	1042.57142857143	1	527	0.9	991.444444444444	1	640.8	0.7	886	0.9	590.666666666667	13	321778	2	321766	27	40	321805	-999999	321781	0	26	TrialsPROC	BP_014_BP9_BA.png	2	2	16	SessionSelectionList														nonlure	3	Body	0-Back	14	80	13	0	0	100	3	38	74159	2	14	59	72121	-1	72973	1	852	3	3	2038	52	74173	-53	0																16												
WM080112	146432_fnca	2	1	1	-1443157317	1	75.031	75.031	2.0.10.147	2.0.10.242	2.0.10.242	1.0.0.439	7	234	2	3	Verdana	1	80	0	0	0	WM Stimuli\	1	993.7	1	629.8	0.7	1042.57142857143	1	527	0.9	991.444444444444	1	640.8	0.7	886	0.9	590.666666666667	13	321778	2	321766	27	40	321805	-999999	321781	0	26	TrialsPROC	BP_018_H13-T_BA.png	2	2	17	SessionSelectionList														lure	3	Body	0-Back	15	80	14	0	0	100	4	39	76718	2	14	58	74679	-1	75252	1	573	3	3	2039	53	76732	-54	0																17												
WM080112	146432_fnca	2	1	1	-1443157317	1	75.031	75.031	2.0.10.147	2.0.10.242	2.0.10.242	1.0.0.439	7	234	2	3	Verdana	1	80	0	0	0	WM Stimuli\	1	993.7	1	629.8	0.7	1042.57142857143	1	527	0.9	991.444444444444	1	640.8	0.7	886	0.9	590.666666666667	13	321778	2	321766	27	40	321805	-999999	321781	0	26	TrialsPROC	BP_013_BP7_BA.png	2	2	18	SessionSelectionList														target	2	Body	0-Back	16	80	15	0	0	100	1	38	79277	2	14	60	77239	-1	77762	1	523	2	2	2038	52	79291	-53	0																18												
WM080112	146432_fnca	2	1	1	-1443157317	1	75.031	75.031	2.0.10.147	2.0.10.242	2.0.10.242	1.0.0.439	7	234	2	3	Verdana	1	80	0	0	0	WM Stimuli\	1	993.7	1	629.8	0.7	1042.57142857143	1	527	0.9	991.444444444444	1	640.8	0.7	886	0.9	590.666666666667	13	321778	2	321766	27	40	321805	-999999	321781	0	26	TrialsPROC	BP_015_H10-T_BA.png	2	2	19	SessionSelectionList														lure	3	Body	0-Back	17	80	16	0	0	100	1	39	81836	2	14	58	79797	-1	80296	1	499	3	3	2039	53	81850	-54	0																19												
WM080112	146432_fnca	2	1	1	-1443157317	1	75.031	75.031	2.0.10.147	2.0.10.242	2.0.10.242	1.0.0.439	7	234	2	3	Verdana	1	80	0	0	0	WM Stimuli\	1	993.7	1	629.8	0.7	1042.57142857143	1	527	0.9	991.444444444444	1	640.8	0.7	886	0.9	590.666666666667	13	321778	2	321766	27	40	321805	-999999	321781	0	26	TrialsPROC	BP_016_H11-T_BA.png	2	2	20	SessionSelectionList														nonlure	3	Body	0-Back	18	80	17	0	0	100	2	40	84409	1	13	72	82369	-1	83147	1	778	3	3	2040	53	84422	-54	0																20												
WM080112	146432_fnca	2	1	1	-1443157317	1	75.031	75.031	2.0.10.147	2.0.10.242	2.0.10.242	1.0.0.439	7	234	2	3	Verdana	1	80	0	0	0	WM Stimuli\	1	993.7	1	629.8	0.7	1042.57142857143	1	527	0.9	991.444444444444	1	640.8	0.7	886	0.9	590.666666666667	13	321778	2	321766	27	40	321805	-999999	321781	0	26	TrialsPROC	BP_013_BP7_BA.png	2	2	21	SessionSelectionList														target	2	Body	0-Back	19	80	18	0	0	100	1	39	86968	1	13	60	84929	-1	85453	1	524	2	2	2039	52	86981	-53	0																21												
WM080112	146432_fnca	2	1	1	-1443157317	1	75.031	75.031	2.0.10.147	2.0.10.242	2.0.10.242	1.0.0.439	7	234	2	3	Verdana	1	80	0	0	0	WM Stimuli\	1	993.7	1	629.8	0.7	1042.57142857143	1	527	0.9	991.444444444444	1	640.8	0.7	886	0.9	590.666666666667	13	321778	2	321766	27	40	321805	-999999	321781	0	26	TrialsPROC	BP_017_H12-T_BA.png	2	2	22	SessionSelectionList														nonlure	3	Body	0-Back	20	80	19	0	0	100	1	39	89527	1	13	59	87488	-1	88058	1	570	3	3	2039	52	89540	-53	0																22												
WM080112	146432_fnca	2	1	1	-1443157317	1	75.031	75.031	2.0.10.147	2.0.10.242	2.0.10.242	1.0.0.439	7	234	2	3	Verdana	1	80	0	0	0	WM Stimuli\	1	993.7	1	629.8	0.7	1042.57142857143	1	527	0.9	991.444444444444	1	640.8	0.7	886	0.9	590.666666666667	13	321778	2	321766	27	40	321805	-999999	321781	0	26	TrialsPROC	BP_014_BP9_BA.png	2	2	23	SessionSelectionList														lure	3	Body	0-Back	21	80	20	0	0	100	2	39	92085	2	14	58	90046	-1	90824	1	778	3	3	2039	53	92099	-54	0																23												
WM080112	146432_fnca	2	1	1	-1443157317	1	75.031	75.031	2.0.10.147	2.0.10.242	2.0.10.242	1.0.0.439	7	234	2	3	Verdana	1	80	0	0	0	WM Stimuli\	1	993.7	1	629.8	0.7	1042.57142857143	1	527	0.9	991.444444444444	1	640.8	0.7	886	0.9	590.666666666667	13	321778	2	321766	27	40	321805	-999999	321781	0	27	Fix15secPROC	""	2	2	24	SessionSelectionList																																															6	92552	-7	0							24												
WM080112	146432_fnca	2	1	1	-1443157317	1	75.031	75.031	2.0.10.147	2.0.10.242	2.0.10.242	1.0.0.439	7	234	2	3	Verdana	1	80	0	0	0	WM Stimuli\	1	993.7	1	629.8	0.7	1042.57142857143	1	527	0.9	991.444444444444	1	640.8	0.7	886	0.9	590.666666666667	13	321778	2	321766	27	40	321805	-999999	321781	0	28	Cue2BackPROC	""	2	2	25	SessionSelectionList									13	107559	-14	0																																													25												
WM080112	146432_fnca	2	1	1	-1443157317	1	75.031	75.031	2.0.10.147	2.0.10.242	2.0.10.242	1.0.0.439	7	234	2	3	Verdana	1	80	0	0	0	WM Stimuli\	1	993.7	1	629.8	0.7	1042.57142857143	1	527	0.9	991.444444444444	1	640.8	0.7	886	0.9	590.666666666667	13	321778	2	321766	27	40	321805	-999999	321781	0	29	TrialsPROC	FC_015_M8.png	2	2	26	SessionSelectionList														nonlure	3	Face	2-Back	22	80	20	0	1	100	2	39	112157	2	14	72	110118	-1	0	0	0	""	3	2039	53	112171	-54	0																26												
WM080112	146432_fnca	2	1	1	-1443157317	1	75.031	75.031	2.0.10.147	2.0.10.242	2.0.10.242	1.0.0.439	7	234	2	3	Verdana	1	80	0	0	0	WM Stimuli\	1	993.7	1	629.8	0.7	1042.57142857143	1	527	0.9	991.444444444444	1	640.8	0.7	886	0.9	590.666666666667	13	321778	2	321766	27	40	321805	-999999	321781	0	29	TrialsPROC	FC_018_F9.png	2	2	27	SessionSelectionList														nonlure	3	Face	2-Back	23	80	21	0	0	100	1	39	114729	2	14	72	112690	-1	113591	1	901	3	3	2039	53	114743	-54	0																27												
WM080112	146432_fnca	2	1	1	-1443157317	1	75.031	75.031	2.0.10.147	2.0.10.242	2.0.10.242	1.0.0.439	7	234	2	3	Verdana	1	80	0	0	0	WM Stimuli\	1	993.7	1	629.8	0.7	1042.57142857143	1	527	0.9	991.444444444444	1	640.8	0.7	886	0.9	590.666666666667	13	321778	2	321766	27	40	321805	-999999	321781	0	29	TrialsPROC	FC_018_F9.png	2	2	28	SessionSelectionList														lure	3	Face	2-Back	24	80	22	0	0	100	2	39	117302	1	13	73	115263	-1	116164	1	901	3	3	2039	52	117315	-53	0																28												
WM080112	146432_fnca	2	1	1	-1443157317	1	75.031	75.031	2.0.10.147	2.0.10.242	2.0.10.242	1.0.0.439	7	234	2	3	Verdana	1	80	0	0	0	WM Stimuli\	1	993.7	1	629.8	0.7	1042.57142857143	1	527	0.9	991.444444444444	1	640.8	0.7	886	0.9	590.666666666667	13	321778	2	321766	27	40	321805	-999999	321781	0	29	TrialsPROC	FC_017_M9.png	2	2	29	SessionSelectionList														nonlure	3	Face	2-Back	25	80	23	0	0	100	3	39	119874	1	14	72	117835	-1	118912	1	1077	3	3	2039	53	119888	-54	0																29												
WM080112	146432_fnca	2	1	1	-1443157317	1	75.031	75.031	2.0.10.147	2.0.10.242	2.0.10.242	1.0.0.439	7	234	2	3	Verdana	1	80	0	0	0	WM Stimuli\	1	993.7	1	629.8	0.7	1042.57142857143	1	527	0.9	991.444444444444	1	640.8	0.7	886	0.9	590.666666666667	13	321778	2	321766	27	40	321805	-999999	321781	0	29	TrialsPROC	FC_017_M9.png	2	2	30	SessionSelectionList														lure	3	Face	2-Back	26	80	24	0	0	100	1	39	122446	2	14	72	120407	-1	122002	0	1595	2	3	2039	53	122460	-54	0																30												
WM080112	146432_fnca	2	1	1	-1443157317	1	75.031	75.031	2.0.10.147	2.0.10.242	2.0.10.242	1.0.0.439	7	234	2	3	Verdana	1	80	0	0	0	WM Stimuli\	1	993.7	1	629.8	0.7	1042.57142857143	1	527	0.9	991.444444444444	1	640.8	0.7	886	0.9	590.666666666667	13	321778	2	321766	27	40	321805	-999999	321781	0	29	TrialsPROC	FC_016_F8.png	2	2	31	SessionSelectionList														nonlure	3	Face	2-Back	27	80	25	0	0	100	1	40	125019	1	13	72	122979	-1	123793	1	814	3	3	2040	53	125032	-54	0																31												
WM080112	146432_fnca	2	1	1	-1443157317	1	75.031	75.031	2.0.10.147	2.0.10.242	2.0.10.242	1.0.0.439	7	234	2	3	Verdana	1	80	0	0	0	WM Stimuli\	1	993.7	1	629.8	0.7	1042.57142857143	1	527	0.9	991.444444444444	1	640.8	0.7	886	0.9	590.666666666667	13	321778	2	321766	27	40	321805	-999999	321781	0	29	TrialsPROC	FC_013_M7.png	2	2	32	SessionSelectionList														nonlure	3	Face	2-Back	28	80	26	0	0	100	2	39	127591	1	13	73	125552	-1	126507	1	955	3	3	2039	52	127604	-53	0																32												
WM080112	146432_fnca	2	1	1	-1443157317	1	75.031	75.031	2.0.10.147	2.0.10.242	2.0.10.242	1.0.0.439	7	234	2	3	Verdana	1	80	0	0	0	WM Stimuli\	1	993.7	1	629.8	0.7	1042.57142857143	1	527	0.9	991.444444444444	1	640.8	0.7	886	0.9	590.666666666667	13	321778	2	321766	27	40	321805	-999999	321781	0	29	TrialsPROC	FC_014_F7.png	2	2	33	SessionSelectionList														nonlure	3	Face	2-Back	29	80	27	0	0	100	1	39	130163	1	14	72	128124	-1	129596	0	1472	2	3	2039	53	130177	-54	0																33												
WM080112	146432_fnca	2	1	1	-1443157317	1	75.031	75.031	2.0.10.147	2.0.10.242	2.0.10.242	1.0.0.439	7	234	2	3	Verdana	1	80	0	0	0	WM Stimuli\	1	993.7	1	629.8	0.7	1042.57142857143	1	527	0.9	991.444444444444	1	640.8	0.7	886	0.9	590.666666666667	13	321778	2	321766	27	40	321805	-999999	321781	0	29	TrialsPROC	FC_013_M7.png	2	2	34	SessionSelectionList														target	2	Face	2-Back	30	80	28	0	0	100	2	39	132735	2	14	72	130696	-1	131984	1	1288	2	2	2039	53	132749	-54	0																34												
WM080112	146432_fnca	2	1	1	-1443157317	1	75.031	75.031	2.0.10.147	2.0.10.242	2.0.10.242	1.0.0.439	7	234	2	3	Verdana	1	80	0	0	0	WM Stimuli\	1	993.7	1	629.8	0.7	1042.57142857143	1	527	0.9	991.444444444444	1	640.8	0.7	886	0.9	590.666666666667	13	321778	2	321766	27	40	321805	-999999	321781	0	29	TrialsPROC	FC_014_F7.png	2	2	35	SessionSelectionList														target	2	Face	2-Back	31	80	29	0	0	100	3	39	135308	1	13	73	133269	-1	134631	1	1362	2	2	2039	52	135321	-53	0																35												
WM080112	146432_fnca	2	1	1	-1443157317	1	75.031	75.031	2.0.10.147	2.0.10.242	2.0.10.242	1.0.0.439	7	234	2	3	Verdana	1	80	0	0	0	WM Stimuli\	1	993.7	1	629.8	0.7	1042.57142857143	1	527	0.9	991.444444444444	1	640.8	0.7	886	0.9	590.666666666667	13	321778	2	321766	27	40	321805	-999999	321781	0	30	Cue0BackPROC	TO_019_TOOL19_BA.png	2	2	36	SessionSelectionList																																										18	135787	-19	0												36												
WM080112	146432_fnca	2	1	1	-1443157317	1	75.031	75.031	2.0.10.147	2.0.10.242	2.0.10.242	1.0.0.439	7	234	2	3	Verdana	1	80	0	0	0	WM Stimuli\	1	993.7	1	629.8	0.7	1042.57142857143	1	527	0.9	991.444444444444	1	640.8	0.7	886	0.9	590.666666666667	13	321778	2	321766	27	40	321805	-999999	321781	0	31	TrialsPROC	TO_019_TOOL19_BA.png	2	2	37	SessionSelectionList														target	2	Tools	0-Back	32	80	29	0	1	91	3	39	140359	1	14	51	138320	-1	0	0	0	""	2	2039	53	140373	-54	0																37												
WM080112	146432_fnca	2	1	1	-1443157317	1	75.031	75.031	2.0.10.147	2.0.10.242	2.0.10.242	1.0.0.439	7	234	2	3	Verdana	1	80	0	0	0	WM Stimuli\	1	993.7	1	629.8	0.7	1042.57142857143	1	527	0.9	991.444444444444	1	640.8	0.7	886	0.9	590.666666666667	13	321778	2	321766	27	40	321805	-999999	321781	0	31	TrialsPROC	TO_024_TOOL24_BA.png	2	2	38	SessionSelectionList														nonlure	3	Tools	0-Back	33	80	30	0	0	92	1	39	142918	1	14	59	140879	-1	141513	1	634	3	3	2039	53	142932	-54	0																38												
WM080112	146432_fnca	2	1	1	-1443157317	1	75.031	75.031	2.0.10.147	2.0.10.242	2.0.10.242	1.0.0.439	7	234	2	3	Verdana	1	80	0	0	0	WM Stimuli\	1	993.7	1	629.8	0.7	1042.57142857143	1	527	0.9	991.444444444444	1	640.8	0.7	886	0.9	590.666666666667	13	321778	2	321766	27	40	321805	-999999	321781	0	31	TrialsPROC	TO_019_TOOL19_BA.png	2	2	39	SessionSelectionList														target	2	Tools	0-Back	34	80	31	0	0	92	1	39	145477	1	13	59	143438	-1	144011	1	573	2	2	2039	52	145490	-53	0																39												
WM080112	146432_fnca	2	1	1	-1443157317	1	75.031	75.031	2.0.10.147	2.0.10.242	2.0.10.242	1.0.0.439	7	234	2	3	Verdana	1	80	0	0	0	WM Stimuli\	1	993.7	1	629.8	0.7	1042.57142857143	1	527	0.9	991.444444444444	1	640.8	0.7	886	0.9	590.666666666667	13	321778	2	321766	27	40	321805	-999999	321781	0	31	TrialsPROC	TO_023_TOOL23_BA.png	2	2	40	SessionSelectionList														nonlure	3	Tools	0-Back	35	80	32	0	0	93	1	39	148036	1	13	59	145997	-1	146860	1	863	3	3	2039	52	148049	-53	0																40												
WM080112	146432_fnca	2	1	1	-1443157317	1	75.031	75.031	2.0.10.147	2.0.10.242	2.0.10.242	1.0.0.439	7	234	2	3	Verdana	1	80	0	0	0	WM Stimuli\	1	993.7	1	629.8	0.7	1042.57142857143	1	527	0.9	991.444444444444	1	640.8	0.7	886	0.9	590.666666666667	13	321778	2	321766	27	40	321805	-999999	321781	0	31	TrialsPROC	TO_020_TOOL20_BA.png	2	2	41	SessionSelectionList														nonlure	3	Tools	0-Back	36	80	33	0	0	93	2	39	150595	1	13	59	148556	-1	149238	1	682	3	3	2039	52	150608	-53	0																41												
WM080112	146432_fnca	2	1	1	-1443157317	1	75.031	75.031	2.0.10.147	2.0.10.242	2.0.10.242	1.0.0.439	7	234	2	3	Verdana	1	80	0	0	0	WM Stimuli\	1	993.7	1	629.8	0.7	1042.57142857143	1	527	0.9	991.444444444444	1	640.8	0.7	886	0.9	590.666666666667	13	321778	2	321766	27	40	321805	-999999	321781	0	31	TrialsPROC	TO_020_TOOL20_BA.png	2	2	42	SessionSelectionList														lure	3	Tools	0-Back	37	80	34	0	0	94	3	39	153154	1	13	59	151115	-1	151632	1	517	3	3	2039	52	153167	-53	0																42												
WM080112	146432_fnca	2	1	1	-1443157317	1	75.031	75.031	2.0.10.147	2.0.10.242	2.0.10.242	1.0.0.439	7	234	2	3	Verdana	1	80	0	0	0	WM Stimuli\	1	993.7	1	629.8	0.7	1042.57142857143	1	527	0.9	991.444444444444	1	640.8	0.7	886	0.9	590.666666666667	13	321778	2	321766	27	40	321805	-999999	321781	0	31	TrialsPROC	TO_022_TOOL22_BA.png	2	2	43	SessionSelectionList														nonlure	3	Tools	0-Back	38	80	35	0	0	94	4	40	155713	1	13	58	153673	-1	154284	1	611	3	3	2040	53	155726	-54	0																43												
WM080112	146432_fnca	2	1	1	-1443157317	1	75.031	75.031	2.0.10.147	2.0.10.242	2.0.10.242	1.0.0.439	7	234	2	3	Verdana	1	80	0	0	0	WM Stimuli\	1	993.7	1	629.8	0.7	1042.57142857143	1	527	0.9	991.444444444444	1	640.8	0.7	886	0.9	590.666666666667	13	321778	2	321766	27	40	321805	-999999	321781	0	31	TrialsPROC	TO_022_TOOL22_BA.png	2	2	44	SessionSelectionList														lure	3	Tools	0-Back	39	80	36	0	0	94	5	40	158272	1	13	59	156232	-1	156619	1	387	3	3	2040	53	158285	-54	0																44												
WM080112	146432_fnca	2	1	1	-1443157317	1	75.031	75.031	2.0.10.147	2.0.10.242	2.0.10.242	1.0.0.439	7	234	2	3	Verdana	1	80	0	0	0	WM Stimuli\	1	993.7	1	629.8	0.7	1042.57142857143	1	527	0.9	991.444444444444	1	640.8	0.7	886	0.9	590.666666666667	13	321778	2	321766	27	40	321805	-999999	321781	0	31	TrialsPROC	TO_021_TOOL21_BA.png	2	2	45	SessionSelectionList														nonlure	3	Tools	0-Back	40	80	37	0	0	95	6	38	160830	2	14	60	158792	-1	159340	1	548	3	3	2038	52	160844	-53	0																45												
WM080112	146432_fnca	2	1	1	-1443157317	1	75.031	75.031	2.0.10.147	2.0.10.242	2.0.10.242	1.0.0.439	7	234	2	3	Verdana	1	80	0	0	0	WM Stimuli\	1	993.7	1	629.8	0.7	1042.57142857143	1	527	0.9	991.444444444444	1	640.8	0.7	886	0.9	590.666666666667	13	321778	2	321766	27	40	321805	-999999	321781	0	31	TrialsPROC	TO_021_TOOL21_BA.png	2	2	46	SessionSelectionList														lure	3	Tools	0-Back	41	80	38	0	0	95	7	39	163389	2	14	58	161350	-1	161851	1	501	3	3	2039	53	163403	-54	0																46												
WM080112	146432_fnca	2	1	1	-1443157317	1	75.031	75.031	2.0.10.147	2.0.10.242	2.0.10.242	1.0.0.439	7	234	2	3	Verdana	1	80	0	0	0	WM Stimuli\	1	993.7	1	629.8	0.7	1042.57142857143	1	527	0.9	991.444444444444	1	640.8	0.7	886	0.9	590.666666666667	13	321778	2	321766	27	40	321805	-999999	321781	0	32	Fix15secPROC	""	2	2	47	SessionSelectionList																																															6	163856	-7	0							47												
WM080112	146432_fnca	2	1	1	-1443157317	1	75.031	75.031	2.0.10.147	2.0.10.242	2.0.10.242	1.0.0.439	7	234	2	3	Verdana	1	80	0	0	0	WM Stimuli\	1	993.7	1	629.8	0.7	1042.57142857143	1	527	0.9	991.444444444444	1	640.8	0.7	886	0.9	590.666666666667	13	321778	2	321766	27	40	321805	-999999	321781	0	33	Cue2BackPROC	""	2	2	48	SessionSelectionList									13	178863	-14	0																																													48												
WM080112	146432_fnca	2	1	1	-1443157317	1	75.031	75.031	2.0.10.147	2.0.10.242	2.0.10.242	1.0.0.439	7	234	2	3	Verdana	1	80	0	0	0	WM Stimuli\	1	993.7	1	629.8	0.7	1042.57142857143	1	527	0.9	991.444444444444	1	640.8	0.7	886	0.9	590.666666666667	13	321778	2	321766	27	40	321805	-999999	321781	0	34	TrialsPROC	BP_020_H17-T_BA.png	2	2	49	SessionSelectionList														nonlure	3	Body	2-Back	42	80	39	0	0	95	8	39	183461	3	14	72	181422	-1	182370	1	948	3	3	2039	53	183475	-54	0																49												
WM080112	146432_fnca	2	1	1	-1443157317	1	75.031	75.031	2.0.10.147	2.0.10.242	2.0.10.242	1.0.0.439	7	234	2	3	Verdana	1	80	0	0	0	WM Stimuli\	1	993.7	1	629.8	0.7	1042.57142857143	1	527	0.9	991.444444444444	1	640.8	0.7	886	0.9	590.666666666667	13	321778	2	321766	27	40	321805	-999999	321781	0	34	TrialsPROC	BP_019_H14-T_BA.png	2	2	50	SessionSelectionList														nonlure	3	Body	2-Back	43	80	40	0	0	95	9	39	186033	2	14	72	183994	-1	184684	1	690	3	3	2039	53	186047	-54	0																50												
WM080112	146432_fnca	2	1	1	-1443157317	1	75.031	75.031	2.0.10.147	2.0.10.242	2.0.10.242	1.0.0.439	7	234	2	3	Verdana	1	80	0	0	0	WM Stimuli\	1	993.7	1	629.8	0.7	1042.57142857143	1	527	0.9	991.444444444444	1	640.8	0.7	886	0.9	590.666666666667	13	321778	2	321766	27	40	321805	-999999	321781	0	34	TrialsPROC	BP_020_H17-T_BA.png	2	2	51	SessionSelectionList														target	2	Body	2-Back	44	80	41	0	0	95	1	38	188592	2	14	60	186554	-1	187153	1	599	2	2	2038	52	188606	-53	0																51												
WM080112	146432_fnca	2	1	1	-1443157317	1	75.031	75.031	2.0.10.147	2.0.10.242	2.0.10.242	1.0.0.439	7	234	2	3	Verdana	1	80	0	0	0	WM Stimuli\	1	993.7	1	629.8	0.7	1042.57142857143	1	527	0.9	991.444444444444	1	640.8	0.7	886	0.9	590.666666666667	13	321778	2	321766	27	40	321805	-999999	321781	0	34	TrialsPROC	BP_019_H14-T_BA.png	2	2	52	SessionSelectionList														target	2	Body	2-Back	45	80	42	0	0	95	2	39	191151	2	14	58	189112	-1	189945	1	833	2	2	2039	53	191165	-54	0																52												
WM080112	146432_fnca	2	1	1	-1443157317	1	75.031	75.031	2.0.10.147	2.0.10.242	2.0.10.242	1.0.0.439	7	234	2	3	Verdana	1	80	0	0	0	WM Stimuli\	1	993.7	1	629.8	0.7	1042.57142857143	1	527	0.9	991.444444444444	1	640.8	0.7	886	0.9	590.666666666667	13	321778	2	321766	27	40	321805	-999999	321781	0	34	TrialsPROC	BP_024_H3-T_BA.png	2	2	53	SessionSelectionList														nonlure	3	Body	2-Back	46	80	43	0	0	95	1	40	193724	1	13	72	191684	-1	193477	1	1793	3	3	2040	53	193737	-54	0																53												
WM080112	146432_fnca	2	1	1	-1443157317	1	75.031	75.031	2.0.10.147	2.0.10.242	2.0.10.242	1.0.0.439	7	234	2	3	Verdana	1	80	0	0	0	WM Stimuli\	1	993.7	1	629.8	0.7	1042.57142857143	1	527	0.9	991.444444444444	1	640.8	0.7	886	0.9	590.666666666667	13	321778	2	321766	27	40	321805	-999999	321781	0	34	TrialsPROC	BP_024_H3-T_BA.png	2	2	54	SessionSelectionList														lure	3	Body	2-Back	47	80	44	0	0	95	2	39	196283	1	13	60	194244	-1	195249	1	1005	3	3	2039	52	196296	-53	0																54												
WM080112	146432_fnca	2	1	1	-1443157317	1	75.031	75.031	2.0.10.147	2.0.10.242	2.0.10.242	1.0.0.439	7	234	2	3	Verdana	1	80	0	0	0	WM Stimuli\	1	993.7	1	629.8	0.7	1042.57142857143	1	527	0.9	991.444444444444	1	640.8	0.7	886	0.9	590.666666666667	13	321778	2	321766	27	40	321805	-999999	321781	0	34	TrialsPROC	BP_025_H5-T_BA.png	2	2	55	SessionSelectionList														nonlure	3	Body	2-Back	48	80	45	0	0	95	3	39	198855	1	14	72	196816	-1	198100	1	1284	3	3	2039	53	198869	-54	0																55												
WM080112	146432_fnca	2	1	1	-1443157317	1	75.031	75.031	2.0.10.147	2.0.10.242	2.0.10.242	1.0.0.439	7	234	2	3	Verdana	1	80	0	0	0	WM Stimuli\	1	993.7	1	629.8	0.7	1042.57142857143	1	527	0.9	991.444444444444	1	640.8	0.7	886	0.9	590.666666666667	13	321778	2	321766	27	40	321805	-999999	321781	0	34	TrialsPROC	BP_023_H25-T_BA.png	2	2	56	SessionSelectionList														nonlure	3	Body	2-Back	49	80	46	0	0	95	4	39	201427	2	14	72	199388	-1	200179	1	791	3	3	2039	53	201441	-54	0																56												
WM080112	146432_fnca	2	1	1	-1443157317	1	75.031	75.031	2.0.10.147	2.0.10.242	2.0.10.242	1.0.0.439	7	234	2	3	Verdana	1	80	0	0	0	WM Stimuli\	1	993.7	1	629.8	0.7	1042.57142857143	1	527	0.9	991.444444444444	1	640.8	0.7	886	0.9	590.666666666667	13	321778	2	321766	27	40	321805	-999999	321781	0	34	TrialsPROC	BP_022_H24-T_BA.png	2	2	57	SessionSelectionList														nonlure	3	Body	2-Back	50	80	47	0	0	95	5	39	203986	2	14	59	201947	-1	202794	1	847	3	3	2039	53	204000	-54	0																57												
WM080112	146432_fnca	2	1	1	-1443157317	1	75.031	75.031	2.0.10.147	2.0.10.242	2.0.10.242	1.0.0.439	7	234	2	3	Verdana	1	80	0	0	0	WM Stimuli\	1	993.7	1	629.8	0.7	1042.57142857143	1	527	0.9	991.444444444444	1	640.8	0.7	886	0.9	590.666666666667	13	321778	2	321766	27	40	321805	-999999	321781	0	34	TrialsPROC	BP_022_H24-T_BA.png	2	2	58	SessionSelectionList														lure	3	Body	2-Back	51	80	48	0	0	95	6	39	206545	1	14	59	204506	-1	205653	1	1147	3	3	2039	53	206559	-54	0																58												
WM080112	146432_fnca	2	1	1	-1443157317	1	75.031	75.031	2.0.10.147	2.0.10.242	2.0.10.242	1.0.0.439	7	234	2	3	Verdana	1	80	0	0	0	WM Stimuli\	1	993.7	1	629.8	0.7	1042.57142857143	1	527	0.9	991.444444444444	1	640.8	0.7	886	0.9	590.666666666667	13	321778	2	321766	27	40	321805	-999999	321781	0	35	Cue2BackPROC	""	2	2	59	SessionSelectionList									6	207012	-7	0																																													59												
WM080112	146432_fnca	2	1	1	-1443157317	1	75.031	75.031	2.0.10.147	2.0.10.242	2.0.10.242	1.0.0.439	7	234	2	3	Verdana	1	80	0	0	0	WM Stimuli\	1	993.7	1	629.8	0.7	1042.57142857143	1	527	0.9	991.444444444444	1	640.8	0.7	886	0.9	590.666666666667	13	321778	2	321766	27	40	321805	-999999	321781	0	36	TrialsPROC	PL_019_SCENE_05.png	2	2	60	SessionSelectionList														nonlure	3	Place	2-Back	52	80	49	0	0	95	7	40	211610	1	13	64	209570	-1	210819	1	1249	3	3	2040	53	211623	-54	0																60												
WM080112	146432_fnca	2	1	1	-1443157317	1	75.031	75.031	2.0.10.147	2.0.10.242	2.0.10.242	1.0.0.439	7	234	2	3	Verdana	1	80	0	0	0	WM Stimuli\	1	993.7	1	629.8	0.7	1042.57142857143	1	527	0.9	991.444444444444	1	640.8	0.7	886	0.9	590.666666666667	13	321778	2	321766	27	40	321805	-999999	321781	0	36	TrialsPROC	PL_017_SCENE_03.png	2	2	61	SessionSelectionList														nonlure	3	Place	2-Back	53	80	50	0	0	95	8	39	214182	1	14	73	212143	-1	213357	1	1214	3	3	2039	53	214196	-54	0																61												
WM080112	146432_fnca	2	1	1	-1443157317	1	75.031	75.031	2.0.10.147	2.0.10.242	2.0.10.242	1.0.0.439	7	234	2	3	Verdana	1	80	0	0	0	WM Stimuli\	1	993.7	1	629.8	0.7	1042.57142857143	1	527	0.9	991.444444444444	1	640.8	0.7	886	0.9	590.666666666667	13	321778	2	321766	27	40	321805	-999999	321781	0	36	TrialsPROC	PL_017_SCENE_03.png	2	2	62	SessionSelectionList														lure	3	Place	2-Back	54	80	51	0	0	95	9	39	216754	2	14	72	214715	-1	215503	1	788	3	3	2039	53	216768	-54	0																62												
WM080112	146432_fnca	2	1	1	-1443157317	1	75.031	75.031	2.0.10.147	2.0.10.242	2.0.10.242	1.0.0.439	7	234	2	3	Verdana	1	80	0	0	0	WM Stimuli\	1	993.7	1	629.8	0.7	1042.57142857143	1	527	0.9	991.444444444444	1	640.8	0.7	886	0.9	590.666666666667	13	321778	2	321766	27	40	321805	-999999	321781	0	36	TrialsPROC	PL_016_SCENE_02.png	2	2	63	SessionSelectionList														nonlure	3	Place	2-Back	55	80	52	0	0	95	10	39	219326	2	14	72	217287	-1	218216	1	929	3	3	2039	53	219340	-54	0																63												
WM080112	146432_fnca	2	1	1	-1443157317	1	75.031	75.031	2.0.10.147	2.0.10.242	2.0.10.242	1.0.0.439	7	234	2	3	Verdana	1	80	0	0	0	WM Stimuli\	1	993.7	1	629.8	0.7	1042.57142857143	1	527	0.9	991.444444444444	1	640.8	0.7	886	0.9	590.666666666667	13	321778	2	321766	27	40	321805	-999999	321781	0	36	TrialsPROC	PL_015_SCENE_01.png	2	2	64	SessionSelectionList														nonlure	3	Place	2-Back	56	80	53	0	0	95	11	39	221899	1	13	73	219860	-1	221475	1	1615	3	3	2039	52	221912	-53	0																64												
WM080112	146432_fnca	2	1	1	-1443157317	1	75.031	75.031	2.0.10.147	2.0.10.242	2.0.10.242	1.0.0.439	7	234	2	3	Verdana	1	80	0	0	0	WM Stimuli\	1	993.7	1	629.8	0.7	1042.57142857143	1	527	0.9	991.444444444444	1	640.8	0.7	886	0.9	590.666666666667	13	321778	2	321766	27	40	321805	-999999	321781	0	36	TrialsPROC	PL_016_SCENE_02.png	2	2	65	SessionSelectionList														target	2	Place	2-Back	57	80	54	0	0	95	1	39	224471	1	14	72	222432	-1	222966	1	534	2	2	2039	53	224485	-54	0																65												
WM080112	146432_fnca	2	1	1	-1443157317	1	75.031	75.031	2.0.10.147	2.0.10.242	2.0.10.242	1.0.0.439	7	234	2	3	Verdana	1	80	0	0	0	WM Stimuli\	1	993.7	1	629.8	0.7	1042.57142857143	1	527	0.9	991.444444444444	1	640.8	0.7	886	0.9	590.666666666667	13	321778	2	321766	27	40	321805	-999999	321781	0	36	TrialsPROC	PL_015_SCENE_01.png	2	2	66	SessionSelectionList														target	2	Place	2-Back	58	80	55	0	0	95	1	39	227043	2	14	72	225004	-1	226090	0	1086	3	2	2039	53	227057	-54	0																66												
WM080112	146432_fnca	2	1	1	-1443157317	1	75.031	75.031	2.0.10.147	2.0.10.242	2.0.10.242	1.0.0.439	7	234	2	3	Verdana	1	80	0	0	0	WM Stimuli\	1	993.7	1	629.8	0.7	1042.57142857143	1	527	0.9	991.444444444444	1	640.8	0.7	886	0.9	590.666666666667	13	321778	2	321766	27	40	321805	-999999	321781	0	36	TrialsPROC	PL_020_SCENE_06.png	2	2	67	SessionSelectionList														nonlure	3	Place	2-Back	59	80	56	0	0	95	2	40	229616	1	13	72	227576	-1	228283	1	707	3	3	2040	53	229629	-54	0																67												
WM080112	146432_fnca	2	1	1	-1443157317	1	75.031	75.031	2.0.10.147	2.0.10.242	2.0.10.242	1.0.0.439	7	234	2	3	Verdana	1	80	0	0	0	WM Stimuli\	1	993.7	1	629.8	0.7	1042.57142857143	1	527	0.9	991.444444444444	1	640.8	0.7	886	0.9	590.666666666667	13	321778	2	321766	27	40	321805	-999999	321781	0	36	TrialsPROC	PL_020_SCENE_06.png	2	2	68	SessionSelectionList														lure	3	Place	2-Back	60	80	57	0	0	95	3	39	232188	1	14	73	230149	-1	230894	1	745	3	3	2039	53	232202	-54	0																68												
WM080112	146432_fnca	2	1	1	-1443157317	1	75.031	75.031	2.0.10.147	2.0.10.242	2.0.10.242	1.0.0.439	7	234	2	3	Verdana	1	80	0	0	0	WM Stimuli\	1	993.7	1	629.8	0.7	1042.57142857143	1	527	0.9	991.444444444444	1	640.8	0.7	886	0.9	590.666666666667	13	321778	2	321766	27	40	321805	-999999	321781	0	36	TrialsPROC	PL_018_SCENE_04.png	2	2	69	SessionSelectionList														nonlure	3	Place	2-Back	61	80	58	0	0	95	4	39	234760	2	14	72	232721	-1	233863	1	1142	3	3	2039	53	234774	-54	0																69												
WM080112	146432_fnca	2	1	1	-1443157317	1	75.031	75.031	2.0.10.147	2.0.10.242	2.0.10.242	1.0.0.439	7	234	2	3	Verdana	1	80	0	0	0	WM Stimuli\	1	993.7	1	629.8	0.7	1042.57142857143	1	527	0.9	991.444444444444	1	640.8	0.7	886	0.9	590.666666666667	13	321778	2	321766	27	40	321805	-999999	321781	0	37	Fix15secPROC	""	2	2	70	SessionSelectionList																																															6	235227	-7	0							70												
WM080112	146432_fnca	2	1	1	-1443157317	1	75.031	75.031	2.0.10.147	2.0.10.242	2.0.10.242	1.0.0.439	7	234	2	3	Verdana	1	80	0	0	0	WM Stimuli\	1	993.7	1	629.8	0.7	1042.57142857143	1	527	0.9	991.444444444444	1	640.8	0.7	886	0.9	590.666666666667	13	321778	2	321766	27	40	321805	-999999	321781	0	38	Cue0BackPROC	FC_020_F10.png	2	2	71	SessionSelectionList																																										26	250247	-27	0												71												
WM080112	146432_fnca	2	1	1	-1443157317	1	75.031	75.031	2.0.10.147	2.0.10.242	2.0.10.242	1.0.0.439	7	234	2	3	Verdana	1	80	0	0	0	WM Stimuli\	1	993.7	1	629.8	0.7	1042.57142857143	1	527	0.9	991.444444444444	1	640.8	0.7	886	0.9	590.666666666667	13	321778	2	321766	27	40	321805	-999999	321781	0	39	TrialsPROC	FC_024_F12.png	2	2	72	SessionSelectionList														nonlure	3	Face	0-Back	62	80	59	0	0	95	5	39	254832	1	14	72	252793	-1	253433	1	640	3	3	2039	53	254846	-54	0																72												
WM080112	146432_fnca	2	1	1	-1443157317	1	75.031	75.031	2.0.10.147	2.0.10.242	2.0.10.242	1.0.0.439	7	234	2	3	Verdana	1	80	0	0	0	WM Stimuli\	1	993.7	1	629.8	0.7	1042.57142857143	1	527	0.9	991.444444444444	1	640.8	0.7	886	0.9	590.666666666667	13	321778	2	321766	27	40	321805	-999999	321781	0	39	TrialsPROC	FC_023_M12.png	2	2	73	SessionSelectionList														nonlure	3	Face	0-Back	63	80	60	0	0	95	6	40	257418	1	13	85	255378	-1	255917	1	539	3	3	2040	53	257431	-54	0																73												
WM080112	146432_fnca	2	1	1	-1443157317	1	75.031	75.031	2.0.10.147	2.0.10.242	2.0.10.242	1.0.0.439	7	234	2	3	Verdana	1	80	0	0	0	WM Stimuli\	1	993.7	1	629.8	0.7	1042.57142857143	1	527	0.9	991.444444444444	1	640.8	0.7	886	0.9	590.666666666667	13	321778	2	321766	27	40	321805	-999999	321781	0	39	TrialsPROC	FC_020_F10.png	2	2	74	SessionSelectionList														target	2	Face	0-Back	64	80	61	0	0	96	1	39	259990	1	13	73	257951	-1	258475	1	524	2	2	2039	52	260003	-53	0																74												
WM080112	146432_fnca	2	1	1	-1443157317	1	75.031	75.031	2.0.10.147	2.0.10.242	2.0.10.242	1.0.0.439	7	234	2	3	Verdana	1	80	0	0	0	WM Stimuli\	1	993.7	1	629.8	0.7	1042.57142857143	1	527	0.9	991.444444444444	1	640.8	0.7	886	0.9	590.666666666667	13	321778	2	321766	27	40	321805	-999999	321781	0	39	TrialsPROC	FC_024_F12.png	2	2	75	SessionSelectionList														lure	3	Face	0-Back	65	80	62	0	0	96	1	39	262562	2	14	72	260523	-1	261003	1	480	3	3	2039	53	262576	-54	0																75												
WM080112	146432_fnca	2	1	1	-1443157317	1	75.031	75.031	2.0.10.147	2.0.10.242	2.0.10.242	1.0.0.439	7	234	2	3	Verdana	1	80	0	0	0	WM Stimuli\	1	993.7	1	629.8	0.7	1042.57142857143	1	527	0.9	991.444444444444	1	640.8	0.7	886	0.9	590.666666666667	13	321778	2	321766	27	40	321805	-999999	321781	0	39	TrialsPROC	FC_020_F10.png	2	2	76	SessionSelectionList														target	2	Face	0-Back	66	80	63	0	0	96	1	39	265134	2	14	72	263095	-1	263752	1	657	2	2	2039	53	265148	-54	0																76												
WM080112	146432_fnca	2	1	1	-1443157317	1	75.031	75.031	2.0.10.147	2.0.10.242	2.0.10.242	1.0.0.439	7	234	2	3	Verdana	1	80	0	0	0	WM Stimuli\	1	993.7	1	629.8	0.7	1042.57142857143	1	527	0.9	991.444444444444	1	640.8	0.7	886	0.9	590.666666666667	13	321778	2	321766	27	40	321805	-999999	321781	0	39	TrialsPROC	FC_022_F11.png	2	2	77	SessionSelectionList														nonlure	3	Face	0-Back	67	80	64	0	0	96	1	39	267720	1	14	86	265681	-1	266229	1	548	3	3	2039	53	267734	-54	0																77												
WM080112	146432_fnca	2	1	1	-1443157317	1	75.031	75.031	2.0.10.147	2.0.10.242	2.0.10.242	1.0.0.439	7	234	2	3	Verdana	1	80	0	0	0	WM Stimuli\	1	993.7	1	629.8	0.7	1042.57142857143	1	527	0.9	991.444444444444	1	640.8	0.7	886	0.9	590.666666666667	13	321778	2	321766	27	40	321805	-999999	321781	0	39	TrialsPROC	FC_023_M12.png	2	2	78	SessionSelectionList														lure	3	Face	0-Back	68	80	65	0	0	96	2	39	270292	2	14	72	268253	-1	268787	1	534	3	3	2039	53	270306	-54	0																78												
WM080112	146432_fnca	2	1	1	-1443157317	1	75.031	75.031	2.0.10.147	2.0.10.242	2.0.10.242	1.0.0.439	7	234	2	3	Verdana	1	80	0	0	0	WM Stimuli\	1	993.7	1	629.8	0.7	1042.57142857143	1	527	0.9	991.444444444444	1	640.8	0.7	886	0.9	590.666666666667	13	321778	2	321766	27	40	321805	-999999	321781	0	39	TrialsPROC	FC_021_M11.png	2	2	79	SessionSelectionList														nonlure	3	Face	0-Back	69	80	66	0	0	96	3	39	272878	1	13	86	270839	-1	271297	1	458	3	3	2039	52	272891	-53	0																79												
WM080112	146432_fnca	2	1	1	-1443157317	1	75.031	75.031	2.0.10.147	2.0.10.242	2.0.10.242	1.0.0.439	7	234	2	3	Verdana	1	80	0	0	0	WM Stimuli\	1	993.7	1	629.8	0.7	1042.57142857143	1	527	0.9	991.444444444444	1	640.8	0.7	886	0.9	590.666666666667	13	321778	2	321766	27	40	321805	-999999	321781	0	39	TrialsPROC	FC_021_M11.png	2	2	80	SessionSelectionList														lure	3	Face	0-Back	70	80	67	0	0	97	4	39	275450	1	14	72	273411	-1	273851	1	440	3	3	2039	53	275464	-54	0																80												
WM080112	146432_fnca	2	1	1	-1443157317	1	75.031	75.031	2.0.10.147	2.0.10.242	2.0.10.242	1.0.0.439	7	234	2	3	Verdana	1	80	0	0	0	WM Stimuli\	1	993.7	1	629.8	0.7	1042.57142857143	1	527	0.9	991.444444444444	1	640.8	0.7	886	0.9	590.666666666667	13	321778	2	321766	27	40	321805	-999999	321781	0	39	TrialsPROC	FC_019_M10.png	2	2	81	SessionSelectionList														nonlure	3	Face	0-Back	71	80	68	0	0	97	5	39	278049	1	14	99	276010	-1	276460	1	450	3	3	2039	53	278063	-54	0																81												
WM080112	146432_fnca	2	1	1	-1443157317	1	75.031	75.031	2.0.10.147	2.0.10.242	2.0.10.242	1.0.0.439	7	234	2	3	Verdana	1	80	0	0	0	WM Stimuli\	1	993.7	1	629.8	0.7	1042.57142857143	1	527	0.9	991.444444444444	1	640.8	0.7	886	0.9	590.666666666667	13	321778	2	321766	27	40	321805	-999999	321781	0	40	Cue0BackPROC	PL_021_SCENE_07.png	2	2	82	SessionSelectionList																																										19	278529	-20	0												82												
WM080112	146432_fnca	2	1	1	-1443157317	1	75.031	75.031	2.0.10.147	2.0.10.242	2.0.10.242	1.0.0.439	7	234	2	3	Verdana	1	80	0	0	0	WM Stimuli\	1	993.7	1	629.8	0.7	1042.57142857143	1	527	0.9	991.444444444444	1	640.8	0.7	886	0.9	590.666666666667	13	321778	2	321766	27	40	321805	-999999	321781	0	41	TrialsPROC	PL_025_SCENE_18.png	2	2	83	SessionSelectionList														nonlure	3	Place	0-Back	72	80	69	0	0	97	6	39	283140	2	14	91	281101	-1	281780	1	679	3	3	2039	53	283154	-54	0																83												
WM080112	146432_fnca	2	1	1	-1443157317	1	75.031	75.031	2.0.10.147	2.0.10.242	2.0.10.242	1.0.0.439	7	234	2	3	Verdana	1	80	0	0	0	WM Stimuli\	1	993.7	1	629.8	0.7	1042.57142857143	1	527	0.9	991.444444444444	1	640.8	0.7	886	0.9	590.666666666667	13	321778	2	321766	27	40	321805	-999999	321781	0	41	TrialsPROC	PL_026_SCENE_24.png	2	2	84	SessionSelectionList														nonlure	3	Place	0-Back	73	80	70	0	0	97	7	39	285726	1	14	86	283687	-1	284340	1	653	3	3	2039	53	285740	-54	0																84												
WM080112	146432_fnca	2	1	1	-1443157317	1	75.031	75.031	2.0.10.147	2.0.10.242	2.0.10.242	1.0.0.439	7	234	2	3	Verdana	1	80	0	0	0	WM Stimuli\	1	993.7	1	629.8	0.7	1042.57142857143	1	527	0.9	991.444444444444	1	640.8	0.7	886	0.9	590.666666666667	13	321778	2	321766	27	40	321805	-999999	321781	0	41	TrialsPROC	PL_025_SCENE_18.png	2	2	85	SessionSelectionList														lure	3	Place	0-Back	74	80	71	0	0	97	8	39	288298	2	14	72	286259	-1	287079	1	820	3	3	2039	53	288312	-54	0																85												
WM080112	146432_fnca	2	1	1	-1443157317	1	75.031	75.031	2.0.10.147	2.0.10.242	2.0.10.242	1.0.0.439	7	234	2	3	Verdana	1	80	0	0	0	WM Stimuli\	1	993.7	1	629.8	0.7	1042.57142857143	1	527	0.9	991.444444444444	1	640.8	0.7	886	0.9	590.666666666667	13	321778	2	321766	27	40	321805	-999999	321781	0	41	TrialsPROC	PL_022_SCENE_08.png	2	2	86	SessionSelectionList														nonlure	3	Place	0-Back	75	80	72	0	0	97	9	39	290870	2	14	72	288831	-1	289377	1	546	3	3	2039	53	290884	-54	0																86												
WM080112	146432_fnca	2	1	1	-1443157317	1	75.031	75.031	2.0.10.147	2.0.10.242	2.0.10.242	1.0.0.439	7	234	2	3	Verdana	1	80	0	0	0	WM Stimuli\	1	993.7	1	629.8	0.7	1042.57142857143	1	527	0.9	991.444444444444	1	640.8	0.7	886	0.9	590.666666666667	13	321778	2	321766	27	40	321805	-999999	321781	0	41	TrialsPROC	PL_026_SCENE_24.png	2	2	87	SessionSelectionList														lure	3	Place	0-Back	76	80	73	0	0	97	10	39	293443	1	13	73	291404	-1	291849	1	445	3	3	2039	52	293456	-53	0																87												
WM080112	146432_fnca	2	1	1	-1443157317	1	75.031	75.031	2.0.10.147	2.0.10.242	2.0.10.242	1.0.0.439	7	234	2	3	Verdana	1	80	0	0	0	WM Stimuli\	1	993.7	1	629.8	0.7	1042.57142857143	1	527	0.9	991.444444444444	1	640.8	0.7	886	0.9	590.666666666667	13	321778	2	321766	27	40	321805	-999999	321781	0	41	TrialsPROC	PL_021_SCENE_07.png	2	2	88	SessionSelectionList														target	2	Place	0-Back	77	80	74	0	0	97	1	39	296015	1	14	72	293976	-1	294549	1	573	2	2	2039	53	296029	-54	0																88												
WM080112	146432_fnca	2	1	1	-1443157317	1	75.031	75.031	2.0.10.147	2.0.10.242	2.0.10.242	1.0.0.439	7	234	2	3	Verdana	1	80	0	0	0	WM Stimuli\	1	993.7	1	629.8	0.7	1042.57142857143	1	527	0.9	991.444444444444	1	640.8	0.7	886	0.9	590.666666666667	13	321778	2	321766	27	40	321805	-999999	321781	0	41	TrialsPROC	PL_021_SCENE_07.png	2	2	89	SessionSelectionList														target	2	Place	0-Back	78	80	75	0	0	97	2	39	298587	2	14	72	296548	-1	297088	1	540	2	2	2039	53	298601	-54	0																89												
WM080112	146432_fnca	2	1	1	-1443157317	1	75.031	75.031	2.0.10.147	2.0.10.242	2.0.10.242	1.0.0.439	7	234	2	3	Verdana	1	80	0	0	0	WM Stimuli\	1	993.7	1	629.8	0.7	1042.57142857143	1	527	0.9	991.444444444444	1	640.8	0.7	886	0.9	590.666666666667	13	321778	2	321766	27	40	321805	-999999	321781	0	41	TrialsPROC	PL_023_SCENE_09.png	2	2	90	SessionSelectionList														nonlure	3	Place	0-Back	79	80	76	0	0	97	1	40	301160	1	13	72	299120	-1	299715	1	595	3	3	2040	53	301173	-54	0																90												
WM080112	146432_fnca	2	1	1	-1443157317	1	75.031	75.031	2.0.10.147	2.0.10.242	2.0.10.242	1.0.0.439	7	234	2	3	Verdana	1	80	0	0	0	WM Stimuli\	1	993.7	1	629.8	0.7	1042.57142857143	1	527	0.9	991.444444444444	1	640.8	0.7	886	0.9	590.666666666667	13	321778	2	321766	27	40	321805	-999999	321781	0	41	TrialsPROC	PL_024_SCENE_10.png	2	2	91	SessionSelectionList														nonlure	3	Place	0-Back	80	80	77	0	0	97	2	39	303732	1	13	73	301693	-1	302632	1	939	3	3	2039	52	303745	-53	0																91												
WM080112	146432_fnca	2	1	1	-1443157317	1	75.031	75.031	2.0.10.147	2.0.10.242	2.0.10.242	1.0.0.439	7	234	2	3	Verdana	1	80	0	0	0	WM Stimuli\	1	993.7	1	629.8	0.7	1042.57142857143	1	527	0.9	991.444444444444	1	640.8	0.7	886	0.9	590.666666666667	13	321778	2	321766	27	40	321805	-999999	321781	0	41	TrialsPROC	PL_022_SCENE_08.png	2	2	92	SessionSelectionList														lure	3	Place	0-Back	80	80	78	0	0	98	3	39	306304	2	14	72	304265	-1	304883	1	618	3	3	2039	53	306318	-54	0																92												
WM080112	146432_fnca	2	1	1	-1443157317	1	75.031	75.031	2.0.10.147	2.0.10.242	2.0.10.242	1.0.0.439	7	234	2	3	Verdana	1	80	0	0	0	WM Stimuli\	1	993.7	1	629.8	0.7	1042.57142857143	1	527	0.9	991.444444444444	1	640.8	0.7	886	0.9	590.666666666667	13	321778	2	321766	27	40	321805	-999999	321781	0	42	Fix15secPROC	""	2	2	93	SessionSelectionList																																															6	306771	-7	0							93												
