ExperimentName	HCPID	RunNumber	Subject	Session	RandomSeed	Group	Laptop.RefreshRate	ScannerD2.RefreshRate	StudioVersion	RuntimeVersion	RuntimeVersionExpected	ExperimentVersion	triggercode	Allowed	Target	Nontarget	FontStyle	RunTrialNumber[Session]	TrialsPerRun[Session]	TotalRespGreater200[Session]	ConsecRTLess200[Session]	ConsecNonResp[Session]	StimuliDir	ACC_2_Back_Body	Avg_RT_For_Correct_Trials_2_Back_Body	ACC_0_Back_Body	Avg_RT_For_Correct_Trials_0_Back_Body	ACC_2_Back_Face	Avg_RT_For_Correct_Trials_2_Back_Face	ACC_0_Back_Face	Avg_RT_For_Correct_Trials_0_Back_Face	ACC_2_Back_Place	Avg_RT_For_Correct_Trials_2_Back_Place	ACC_0_Back_Place	Avg_RT_For_Correct_Trials_0_Back_Place	ACC_2_Back_Tools	Avg_RT_For_Correct_Trials_2_Back_Tools	ACC_0_Back_Tools	Avg_RT_For_Correct_Trials_0_Back_Tools	ExpInstrucFeelFreeToRest.OnsetDelay	ExpInstrucFeelFreeToRest.OnsetTime	ExpInstrucFeelFreeToRest.DurationError	ExpInstrucFeelFreeToRest.StartTime	ExpInstrucFeelFreeToRest.OnsetToOnsetTime	FeelFreeToRest.OnsetDelay	FeelFreeToRest.OnsetTime	FeelFreeToRest.DurationError	FeelFreeToRest.StartTime	FeelFreeToRest.OnsetToOnsetTime	SessionSelectionList	Procedure[Block]	Stimulus[Block]	RunNumberFilterValue	SessionSelectionList.Cycle	SessionSelectionList.Sample	Running[Block]	IntroButtonMap.OnsetDelay	IntroButtonMap.OnsetTime	IntroButtonMap.DurationError	IntroButtonMap.OnsetToOnsetTime	GetReady.OnsetDelay	GetReady.OnsetTime	GetReady.DurationError	GetReady.OnsetToOnsetTime	Cue2Back.OnsetDelay	Cue2Back.OnsetTime	Cue2Back.DurationError	Cue2Back.OnsetToOnsetTime	Run1Block1	TargetType	CorrectResponse	StimType	BlockType	RunTrialNumber[Block]	TrialsPerRun[Block]	TotalRespGreater200[Block]	ConsecRTLess200[Block]	ConsecNonResp[Block]	ControlAcc	ConsecSameResp	ExperimenterWindow.OnsetDelay	ExperimenterWindow.OnsetTime	ExperimenterWindow.DurationError	ExperimenterWindow.OnsetToOnsetTime	Stim.OnsetDelay	Stim.OnsetTime	Stim.DurationError	Stim.RTTime	Stim.ACC	Stim.RT	Stim.RESP	Stim.CRESP	Stim.OnsetToOnsetTime	Fix.OnsetDelay	Fix.OnsetTime	Fix.DurationError	Fix.OnsetToOnsetTime	CueTarget.OnsetDelay	CueTarget.OnsetTime	CueTarget.DurationError	CueTarget.OnsetToOnsetTime	Run1Block2	Fix15sec.OnsetDelay	Fix15sec.OnsetTime	Fix15sec.DurationError	Fix15sec.OnsetToOnsetTime	Run1Block3	Run1Block4	Run1Block5	Run1Block6	Run1Block7	Run1Block8	Block	Procedure[Trial]	Stimulus[Trial]	ReadyList	Running[Trial]	ReadyList.Cycle	ReadyList.Sample	SyncSlide.OnsetDelay	SyncSlide.OnsetTime	SyncSlide.DurationError	SyncSlide.FinishTime	SyncSlide.OnsetToOnsetTime	Trial
WM080112	156637_fnca	1	1	1	1907145144	1	75.035	75.032	2.0.10.147	2.0.10.242	2.0.10.242	1.0.0.439	7	234	2	3	Verdana	1	80	0	0	0	WM Stimuli\	0.7	1055.28571428571	0.9	857.888888888889	0.9	1060.33333333333	0.9	725	1	927.5	1	765.5	0.8	966.875	1	601	13	368481	1	368469	27	40	368508	-999999	368483	0	1	TRSyncPROC	""	1	2	1	SessionSelectionList	118	24571	-999999	0	40	57185	-999999	0																																																	1	InitialTR	4	1	ReadyList	1	1	12	74937	-13	76924	0	1
WM080112	156637_fnca	1	1	1	1907145144	1	75.035	75.032	2.0.10.147	2.0.10.242	2.0.10.242	1.0.0.439	7	234	2	3	Verdana	1	80	0	0	0	WM Stimuli\	0.7	1055.28571428571	0.9	857.888888888889	0.9	1060.33333333333	0.9	725	1	927.5	1	765.5	0.8	966.875	1	601	13	368481	1	368469	27	40	368508	-999999	368483	0	1	TRSyncPROC	""	1	2	1	SessionSelectionList	118	24571	-999999	0	40	57185	-999999	0																																																	1	InitialTR	3	2	ReadyList	1	2	11	76936	-12	78924	0	2
WM080112	156637_fnca	1	1	1	1907145144	1	75.035	75.032	2.0.10.147	2.0.10.242	2.0.10.242	1.0.0.439	7	234	2	3	Verdana	1	80	0	0	0	WM Stimuli\	0.7	1055.28571428571	0.9	857.888888888889	0.9	1060.33333333333	0.9	725	1	927.5	1	765.5	0.8	966.875	1	601	13	368481	1	368469	27	40	368508	-999999	368483	0	1	TRSyncPROC	""	1	2	1	SessionSelectionList	118	24571	-999999	0	40	57185	-999999	0																																																	1	InitialTR	2	3	ReadyList	1	3	10	78935	-11	80924	0	3
WM080112	156637_fnca	1	1	1	1907145144	1	75.035	75.032	2.0.10.147	2.0.10.242	2.0.10.242	1.0.0.439	7	234	2	3	Verdana	1	80	0	0	0	WM Stimuli\	0.7	1055.28571428571	0.9	857.888888888889	0.9	1060.33333333333	0.9	725	1	927.5	1	765.5	0.8	966.875	1	601	13	368481	1	368469	27	40	368508	-999999	368483	0	1	TRSyncPROC	""	1	2	1	SessionSelectionList	118	24571	-999999	0	40	57185	-999999	0																																																	1	InitialTR	1	4	ReadyList	1	4	9	80934	-10	82924	0	4
WM080112	156637_fnca	1	1	1	1907145144	1	75.035	75.032	2.0.10.147	2.0.10.242	2.0.10.242	1.0.0.439	7	234	2	3	Verdana	1	80	0	0	0	WM Stimuli\	0.7	1055.28571428571	0.9	857.888888888889	0.9	1060.33333333333	0.9	725	1	927.5	1	765.5	0.8	966.875	1	601	13	368481	1	368469	27	40	368508	-999999	368483	0	2	Cue2BackPROC	""	1	2	2	SessionSelectionList									8	82933	-9	0																																													2												
WM080112	156637_fnca	1	1	1	1907145144	1	75.035	75.032	2.0.10.147	2.0.10.242	2.0.10.242	1.0.0.439	7	234	2	3	Verdana	1	80	0	0	0	WM Stimuli\	0.7	1055.28571428571	0.9	857.888888888889	0.9	1060.33333333333	0.9	725	1	927.5	1	765.5	0.8	966.875	1	601	13	368481	1	368469	27	40	368508	-999999	368483	0	3	TrialsPROC	BP_002_BP10_BA.png	1	2	3	SessionSelectionList													1	nonlure	3	Body	2-Back	2	80	0	0	1	0	0	52	87558	3	14	81	85506	-1	0	0	0	""	3	2052	66	87572	-67	0																3												
WM080112	156637_fnca	1	1	1	1907145144	1	75.035	75.032	2.0.10.147	2.0.10.242	2.0.10.242	1.0.0.439	7	234	2	3	Verdana	1	80	0	0	0	WM Stimuli\	0.7	1055.28571428571	0.9	857.888888888889	0.9	1060.33333333333	0.9	725	1	927.5	1	765.5	0.8	966.875	1	601	13	368481	1	368469	27	40	368508	-999999	368483	0	3	TrialsPROC	BP_001_BP1_BA.png	1	2	4	SessionSelectionList													2	nonlure	3	Body	2-Back	3	80	1	0	0	0	1	39	90117	2	14	72	88078	-1	89568	1	1490	3	3	2039	53	90131	-54	0																4												
WM080112	156637_fnca	1	1	1	1907145144	1	75.035	75.032	2.0.10.147	2.0.10.242	2.0.10.242	1.0.0.439	7	234	2	3	Verdana	1	80	0	0	0	WM Stimuli\	0.7	1055.28571428571	0.9	857.888888888889	0.9	1060.33333333333	0.9	725	1	927.5	1	765.5	0.8	966.875	1	601	13	368481	1	368469	27	40	368508	-999999	368483	0	3	TrialsPROC	BP_006_BP2_BA.png	1	2	5	SessionSelectionList													3	nonlure	3	Body	2-Back	4	80	2	0	0	0	2	39	92676	1	14	59	90637	-1	91118	1	481	3	3	2039	53	92690	-54	0																5												
WM080112	156637_fnca	1	1	1	1907145144	1	75.035	75.032	2.0.10.147	2.0.10.242	2.0.10.242	1.0.0.439	7	234	2	3	Verdana	1	80	0	0	0	WM Stimuli\	0.7	1055.28571428571	0.9	857.888888888889	0.9	1060.33333333333	0.9	725	1	927.5	1	765.5	0.8	966.875	1	601	13	368481	1	368469	27	40	368508	-999999	368483	0	3	TrialsPROC	BP_001_BP1_BA.png	1	2	6	SessionSelectionList													4	target	2	Body	2-Back	5	80	3	0	0	0	3	39	95248	2	14	72	93209	-1	93674	0	465	3	2	2039	53	95262	-54	0																6												
WM080112	156637_fnca	1	1	1	1907145144	1	75.035	75.032	2.0.10.147	2.0.10.242	2.0.10.242	1.0.0.439	7	234	2	3	Verdana	1	80	0	0	0	WM Stimuli\	0.7	1055.28571428571	0.9	857.888888888889	0.9	1060.33333333333	0.9	725	1	927.5	1	765.5	0.8	966.875	1	601	13	368481	1	368469	27	40	368508	-999999	368483	0	3	TrialsPROC	BP_005_BP19_BA.png	1	2	7	SessionSelectionList													5	nonlure	3	Body	2-Back	6	80	4	0	0	0	1	40	97821	1	13	72	95781	-1	97424	0	1643	2	3	2040	53	97834	-54	0																7												
WM080112	156637_fnca	1	1	1	1907145144	1	75.035	75.032	2.0.10.147	2.0.10.242	2.0.10.242	1.0.0.439	7	234	2	3	Verdana	1	80	0	0	0	WM Stimuli\	0.7	1055.28571428571	0.9	857.888888888889	0.9	1060.33333333333	0.9	725	1	927.5	1	765.5	0.8	966.875	1	601	13	368481	1	368469	27	40	368508	-999999	368483	0	3	TrialsPROC	BP_003_BP16_BA.png	1	2	8	SessionSelectionList													6	nonlure	3	Body	2-Back	7	80	5	0	0	0	1	39	100379	2	14	59	98340	-1	99848	1	1508	3	3	2039	53	100393	-54	0																8												
WM080112	156637_fnca	1	1	1	1907145144	1	75.035	75.032	2.0.10.147	2.0.10.242	2.0.10.242	1.0.0.439	7	234	2	3	Verdana	1	80	0	0	0	WM Stimuli\	0.7	1055.28571428571	0.9	857.888888888889	0.9	1060.33333333333	0.9	725	1	927.5	1	765.5	0.8	966.875	1	601	13	368481	1	368469	27	40	368508	-999999	368483	0	3	TrialsPROC	BP_006_BP2_BA.png	1	2	9	SessionSelectionList													7	lure	3	Body	2-Back	8	80	6	0	0	0	2	39	102938	2	14	59	100899	-1	101889	1	990	3	3	2039	53	102952	-54	0																9												
WM080112	156637_fnca	1	1	1	1907145144	1	75.035	75.032	2.0.10.147	2.0.10.242	2.0.10.242	1.0.0.439	7	234	2	3	Verdana	1	80	0	0	0	WM Stimuli\	0.7	1055.28571428571	0.9	857.888888888889	0.9	1060.33333333333	0.9	725	1	927.5	1	765.5	0.8	966.875	1	601	13	368481	1	368469	27	40	368508	-999999	368483	0	3	TrialsPROC	BP_004_BP18_BA.png	1	2	10	SessionSelectionList													8	nonlure	3	Body	2-Back	9	80	7	0	0	0	3	39	105497	2	14	59	103458	-1	104423	1	965	3	3	2039	53	105511	-54	0																10												
WM080112	156637_fnca	1	1	1	1907145144	1	75.035	75.032	2.0.10.147	2.0.10.242	2.0.10.242	1.0.0.439	7	234	2	3	Verdana	1	80	0	0	0	WM Stimuli\	0.7	1055.28571428571	0.9	857.888888888889	0.9	1060.33333333333	0.9	725	1	927.5	1	765.5	0.8	966.875	1	601	13	368481	1	368469	27	40	368508	-999999	368483	0	3	TrialsPROC	BP_005_BP19_BA.png	1	2	11	SessionSelectionList													9	lure	3	Body	2-Back	10	80	8	0	0	0	4	39	108056	2	14	59	106017	-1	107001	1	984	3	3	2039	53	108070	-54	0																11												
WM080112	156637_fnca	1	1	1	1907145144	1	75.035	75.032	2.0.10.147	2.0.10.242	2.0.10.242	1.0.0.439	7	234	2	3	Verdana	1	80	0	0	0	WM Stimuli\	0.7	1055.28571428571	0.9	857.888888888889	0.9	1060.33333333333	0.9	725	1	927.5	1	765.5	0.8	966.875	1	601	13	368481	1	368469	27	40	368508	-999999	368483	0	3	TrialsPROC	BP_004_BP18_BA.png	1	2	12	SessionSelectionList													10	target	2	Body	2-Back	11	80	9	0	0	0	1	39	110615	2	14	59	108576	-1	109545	1	969	2	2	2039	53	110629	-54	0																12												
WM080112	156637_fnca	1	1	1	1907145144	1	75.035	75.032	2.0.10.147	2.0.10.242	2.0.10.242	1.0.0.439	7	234	2	3	Verdana	1	80	0	0	0	WM Stimuli\	0.7	1055.28571428571	0.9	857.888888888889	0.9	1060.33333333333	0.9	725	1	927.5	1	765.5	0.8	966.875	1	601	13	368481	1	368469	27	40	368508	-999999	368483	0	4	Cue0BackPROC	FC_001_M1.png	1	2	13	SessionSelectionList																																										19	111095	-20	0												13												
WM080112	156637_fnca	1	1	1	1907145144	1	75.035	75.032	2.0.10.147	2.0.10.242	2.0.10.242	1.0.0.439	7	234	2	3	Verdana	1	80	0	0	0	WM Stimuli\	0.7	1055.28571428571	0.9	857.888888888889	0.9	1060.33333333333	0.9	725	1	927.5	1	765.5	0.8	966.875	1	601	13	368481	1	368469	27	40	368508	-999999	368483	0	5	TrialsPROC	FC_005_M3.png	1	2	14	SessionSelectionList														nonlure	3	Face	0-Back	12	80	10	0	0	0	2	39	115680	1	14	65	113641	-1	114995	0	1354	2	3	2039	53	115694	-54	0					1											14												
WM080112	156637_fnca	1	1	1	1907145144	1	75.035	75.032	2.0.10.147	2.0.10.242	2.0.10.242	1.0.0.439	7	234	2	3	Verdana	1	80	0	0	0	WM Stimuli\	0.7	1055.28571428571	0.9	857.888888888889	0.9	1060.33333333333	0.9	725	1	927.5	1	765.5	0.8	966.875	1	601	13	368481	1	368469	27	40	368508	-999999	368483	0	5	TrialsPROC	FC_001_M1.png	1	2	15	SessionSelectionList														target	2	Face	0-Back	13	80	11	0	0	50	3	39	118252	1	14	72	116213	-1	117038	1	825	2	2	2039	53	118266	-54	0					2											15												
WM080112	156637_fnca	1	1	1	1907145144	1	75.035	75.032	2.0.10.147	2.0.10.242	2.0.10.242	1.0.0.439	7	234	2	3	Verdana	1	80	0	0	0	WM Stimuli\	0.7	1055.28571428571	0.9	857.888888888889	0.9	1060.33333333333	0.9	725	1	927.5	1	765.5	0.8	966.875	1	601	13	368481	1	368469	27	40	368508	-999999	368483	0	5	TrialsPROC	FC_003_M2.png	1	2	16	SessionSelectionList														nonlure	3	Face	0-Back	14	80	12	0	0	67	1	39	120824	2	14	72	118785	-1	119412	1	627	3	3	2039	53	120838	-54	0					3											16												
WM080112	156637_fnca	1	1	1	1907145144	1	75.035	75.032	2.0.10.147	2.0.10.242	2.0.10.242	1.0.0.439	7	234	2	3	Verdana	1	80	0	0	0	WM Stimuli\	0.7	1055.28571428571	0.9	857.888888888889	0.9	1060.33333333333	0.9	725	1	927.5	1	765.5	0.8	966.875	1	601	13	368481	1	368469	27	40	368508	-999999	368483	0	5	TrialsPROC	FC_004_F2.png	1	2	17	SessionSelectionList														nonlure	3	Face	0-Back	15	80	13	0	0	75	2	40	123397	1	13	72	121357	-1	121973	1	616	3	3	2040	53	123410	-54	0					4											17												
WM080112	156637_fnca	1	1	1	1907145144	1	75.035	75.032	2.0.10.147	2.0.10.242	2.0.10.242	1.0.0.439	7	234	2	3	Verdana	1	80	0	0	0	WM Stimuli\	0.7	1055.28571428571	0.9	857.888888888889	0.9	1060.33333333333	0.9	725	1	927.5	1	765.5	0.8	966.875	1	601	13	368481	1	368469	27	40	368508	-999999	368483	0	5	TrialsPROC	FC_004_F2.png	1	2	18	SessionSelectionList														lure	3	Face	0-Back	16	80	14	0	0	80	3	39	125969	1	14	73	123930	-1	125009	1	1079	3	3	2039	53	125983	-54	0					5											18												
WM080112	156637_fnca	1	1	1	1907145144	1	75.035	75.032	2.0.10.147	2.0.10.242	2.0.10.242	1.0.0.439	7	234	2	3	Verdana	1	80	0	0	0	WM Stimuli\	0.7	1055.28571428571	0.9	857.888888888889	0.9	1060.33333333333	0.9	725	1	927.5	1	765.5	0.8	966.875	1	601	13	368481	1	368469	27	40	368508	-999999	368483	0	5	TrialsPROC	FC_001_M1.png	1	2	19	SessionSelectionList														target	2	Face	0-Back	17	80	15	0	0	83	1	39	128541	1	14	72	126502	-1	127087	1	585	2	2	2039	53	128555	-54	0					6											19												
WM080112	156637_fnca	1	1	1	1907145144	1	75.035	75.032	2.0.10.147	2.0.10.242	2.0.10.242	1.0.0.439	7	234	2	3	Verdana	1	80	0	0	0	WM Stimuli\	0.7	1055.28571428571	0.9	857.888888888889	0.9	1060.33333333333	0.9	725	1	927.5	1	765.5	0.8	966.875	1	601	13	368481	1	368469	27	40	368508	-999999	368483	0	5	TrialsPROC	FC_006_F3.png	1	2	20	SessionSelectionList														nonlure	3	Face	0-Back	18	80	16	0	0	86	1	39	131113	2	14	72	129074	-1	129553	1	479	3	3	2039	53	131127	-54	0					7											20												
WM080112	156637_fnca	1	1	1	1907145144	1	75.035	75.032	2.0.10.147	2.0.10.242	2.0.10.242	1.0.0.439	7	234	2	3	Verdana	1	80	0	0	0	WM Stimuli\	0.7	1055.28571428571	0.9	857.888888888889	0.9	1060.33333333333	0.9	725	1	927.5	1	765.5	0.8	966.875	1	601	13	368481	1	368469	27	40	368508	-999999	368483	0	5	TrialsPROC	FC_006_F3.png	1	2	21	SessionSelectionList														lure	3	Face	0-Back	19	80	17	0	0	88	2	40	133686	1	13	72	131646	-1	132332	1	686	3	3	2040	53	133699	-54	0					8											21												
WM080112	156637_fnca	1	1	1	1907145144	1	75.035	75.032	2.0.10.147	2.0.10.242	2.0.10.242	1.0.0.439	7	234	2	3	Verdana	1	80	0	0	0	WM Stimuli\	0.7	1055.28571428571	0.9	857.888888888889	0.9	1060.33333333333	0.9	725	1	927.5	1	765.5	0.8	966.875	1	601	13	368481	1	368469	27	40	368508	-999999	368483	0	5	TrialsPROC	FC_003_M2.png	1	2	22	SessionSelectionList														lure	3	Face	0-Back	20	80	18	0	0	89	3	39	136258	1	14	73	134219	-1	135149	1	930	3	3	2039	53	136272	-54	0					9											22												
WM080112	156637_fnca	1	1	1	1907145144	1	75.035	75.032	2.0.10.147	2.0.10.242	2.0.10.242	1.0.0.439	7	234	2	3	Verdana	1	80	0	0	0	WM Stimuli\	0.7	1055.28571428571	0.9	857.888888888889	0.9	1060.33333333333	0.9	725	1	927.5	1	765.5	0.8	966.875	1	601	13	368481	1	368469	27	40	368508	-999999	368483	0	5	TrialsPROC	FC_002_F1.png	1	2	23	SessionSelectionList														nonlure	3	Face	0-Back	21	80	19	0	0	90	4	39	138830	2	14	72	136791	-1	137489	1	698	3	3	2039	53	138844	-54	0					10											23												
WM080112	156637_fnca	1	1	1	1907145144	1	75.035	75.032	2.0.10.147	2.0.10.242	2.0.10.242	1.0.0.439	7	234	2	3	Verdana	1	80	0	0	0	WM Stimuli\	0.7	1055.28571428571	0.9	857.888888888889	0.9	1060.33333333333	0.9	725	1	927.5	1	765.5	0.8	966.875	1	601	13	368481	1	368469	27	40	368508	-999999	368483	0	6	Fix15secPROC	""	1	2	24	SessionSelectionList																																															6	139297	-7	0							24												
WM080112	156637_fnca	1	1	1	1907145144	1	75.035	75.032	2.0.10.147	2.0.10.242	2.0.10.242	1.0.0.439	7	234	2	3	Verdana	1	80	0	0	0	WM Stimuli\	0.7	1055.28571428571	0.9	857.888888888889	0.9	1060.33333333333	0.9	725	1	927.5	1	765.5	0.8	966.875	1	601	13	368481	1	368469	27	40	368508	-999999	368483	0	7	Cue2BackPROC	""	1	2	25	SessionSelectionList									13	154304	-14	0																																													25												
WM080112	156637_fnca	1	1	1	1907145144	1	75.035	75.032	2.0.10.147	2.0.10.242	2.0.10.242	1.0.0.439	7	234	2	3	Verdana	1	80	0	0	0	WM Stimuli\	0.7	1055.28571428571	0.9	857.888888888889	0.9	1060.33333333333	0.9	725	1	927.5	1	765.5	0.8	966.875	1	601	13	368481	1	368469	27	40	368508	-999999	368483	0	8	TrialsPROC	TO_001_TOOL1_BA.png	1	2	26	SessionSelectionList														nonlure	3	Tools	2-Back	22	80	20	0	0	90	5	39	158888	2	14	58	156849	-1	157900	1	1051	3	3	2039	53	158902	-54	0										1						26												
WM080112	156637_fnca	1	1	1	1907145144	1	75.035	75.032	2.0.10.147	2.0.10.242	2.0.10.242	1.0.0.439	7	234	2	3	Verdana	1	80	0	0	0	WM Stimuli\	0.7	1055.28571428571	0.9	857.888888888889	0.9	1060.33333333333	0.9	725	1	927.5	1	765.5	0.8	966.875	1	601	13	368481	1	368469	27	40	368508	-999999	368483	0	8	TrialsPROC	TO_002_TOOL2_BA.png	1	2	27	SessionSelectionList														nonlure	3	Tools	2-Back	23	80	21	0	0	90	6	39	161447	2	14	59	159408	-1	160118	1	710	3	3	2039	53	161461	-54	0										2						27												
WM080112	156637_fnca	1	1	1	1907145144	1	75.035	75.032	2.0.10.147	2.0.10.242	2.0.10.242	1.0.0.439	7	234	2	3	Verdana	1	80	0	0	0	WM Stimuli\	0.7	1055.28571428571	0.9	857.888888888889	0.9	1060.33333333333	0.9	725	1	927.5	1	765.5	0.8	966.875	1	601	13	368481	1	368469	27	40	368508	-999999	368483	0	8	TrialsPROC	TO_004_TOOL4_BA.png	1	2	28	SessionSelectionList														nonlure	3	Tools	2-Back	24	80	22	0	0	90	7	39	164006	2	14	59	161967	-1	163084	1	1117	3	3	2039	53	164020	-54	0										3						28												
WM080112	156637_fnca	1	1	1	1907145144	1	75.035	75.032	2.0.10.147	2.0.10.242	2.0.10.242	1.0.0.439	7	234	2	3	Verdana	1	80	0	0	0	WM Stimuli\	0.7	1055.28571428571	0.9	857.888888888889	0.9	1060.33333333333	0.9	725	1	927.5	1	765.5	0.8	966.875	1	601	13	368481	1	368469	27	40	368508	-999999	368483	0	8	TrialsPROC	TO_002_TOOL2_BA.png	1	2	29	SessionSelectionList														target	2	Tools	2-Back	25	80	23	0	0	90	1	39	166565	2	14	59	164526	-1	165192	1	666	2	2	2039	53	166579	-54	0										4						29												
WM080112	156637_fnca	1	1	1	1907145144	1	75.035	75.032	2.0.10.147	2.0.10.242	2.0.10.242	1.0.0.439	7	234	2	3	Verdana	1	80	0	0	0	WM Stimuli\	0.7	1055.28571428571	0.9	857.888888888889	0.9	1060.33333333333	0.9	725	1	927.5	1	765.5	0.8	966.875	1	601	13	368481	1	368469	27	40	368508	-999999	368483	0	8	TrialsPROC	TO_001_TOOL1_BA.png	1	2	30	SessionSelectionList														lure	3	Tools	2-Back	26	80	24	0	0	90	2	39	169124	2	14	59	167085	-1	168841	0	1756	2	3	2039	53	169138	-54	0										5						30												
WM080112	156637_fnca	1	1	1	1907145144	1	75.035	75.032	2.0.10.147	2.0.10.242	2.0.10.242	1.0.0.439	7	234	2	3	Verdana	1	80	0	0	0	WM Stimuli\	0.7	1055.28571428571	0.9	857.888888888889	0.9	1060.33333333333	0.9	725	1	927.5	1	765.5	0.8	966.875	1	601	13	368481	1	368469	27	40	368508	-999999	368483	0	8	TrialsPROC	TO_004_TOOL4_BA.png	1	2	31	SessionSelectionList														lure	3	Tools	2-Back	27	80	25	0	0	90	3	39	171683	1	14	59	169644	-1	171027	0	1383	2	3	2039	53	171697	-54	0										6						31												
WM080112	156637_fnca	1	1	1	1907145144	1	75.035	75.032	2.0.10.147	2.0.10.242	2.0.10.242	1.0.0.439	7	234	2	3	Verdana	1	80	0	0	0	WM Stimuli\	0.7	1055.28571428571	0.9	857.888888888889	0.9	1060.33333333333	0.9	725	1	927.5	1	765.5	0.8	966.875	1	601	13	368481	1	368469	27	40	368508	-999999	368483	0	8	TrialsPROC	TO_006_TOOL6_BA.png	1	2	32	SessionSelectionList														nonlure	3	Tools	2-Back	28	80	26	0	0	90	1	39	174242	1	14	59	172203	-1	173442	1	1239	3	3	2039	53	174256	-54	0										7						32												
WM080112	156637_fnca	1	1	1	1907145144	1	75.035	75.032	2.0.10.147	2.0.10.242	2.0.10.242	1.0.0.439	7	234	2	3	Verdana	1	80	0	0	0	WM Stimuli\	0.7	1055.28571428571	0.9	857.888888888889	0.9	1060.33333333333	0.9	725	1	927.5	1	765.5	0.8	966.875	1	601	13	368481	1	368469	27	40	368508	-999999	368483	0	8	TrialsPROC	TO_005_TOOL5_BA.png	1	2	33	SessionSelectionList														nonlure	3	Tools	2-Back	29	80	27	0	0	90	2	39	176801	1	14	59	174762	-1	175595	1	833	3	3	2039	53	176815	-54	0										8						33												
WM080112	156637_fnca	1	1	1	1907145144	1	75.035	75.032	2.0.10.147	2.0.10.242	2.0.10.242	1.0.0.439	7	234	2	3	Verdana	1	80	0	0	0	WM Stimuli\	0.7	1055.28571428571	0.9	857.888888888889	0.9	1060.33333333333	0.9	725	1	927.5	1	765.5	0.8	966.875	1	601	13	368481	1	368469	27	40	368508	-999999	368483	0	8	TrialsPROC	TO_006_TOOL6_BA.png	1	2	34	SessionSelectionList														target	2	Tools	2-Back	30	80	28	0	0	90	1	39	179360	1	14	59	177321	-1	178278	1	957	2	2	2039	53	179374	-54	0										9						34												
WM080112	156637_fnca	1	1	1	1907145144	1	75.035	75.032	2.0.10.147	2.0.10.242	2.0.10.242	1.0.0.439	7	234	2	3	Verdana	1	80	0	0	0	WM Stimuli\	0.7	1055.28571428571	0.9	857.888888888889	0.9	1060.33333333333	0.9	725	1	927.5	1	765.5	0.8	966.875	1	601	13	368481	1	368469	27	40	368508	-999999	368483	0	8	TrialsPROC	TO_003_TOOL3_BA.png	1	2	35	SessionSelectionList														nonlure	3	Tools	2-Back	31	80	29	0	0	90	1	39	181919	1	14	59	179880	-1	181042	1	1162	3	3	2039	53	181933	-54	0										10						35												
WM080112	156637_fnca	1	1	1	1907145144	1	75.035	75.032	2.0.10.147	2.0.10.242	2.0.10.242	1.0.0.439	7	234	2	3	Verdana	1	80	0	0	0	WM Stimuli\	0.7	1055.28571428571	0.9	857.888888888889	0.9	1060.33333333333	0.9	725	1	927.5	1	765.5	0.8	966.875	1	601	13	368481	1	368469	27	40	368508	-999999	368483	0	9	Cue0BackPROC	BP_007_BP20_BA.png	1	2	36	SessionSelectionList																																										19	182399	-20	0												36												
WM080112	156637_fnca	1	1	1	1907145144	1	75.035	75.032	2.0.10.147	2.0.10.242	2.0.10.242	1.0.0.439	7	234	2	3	Verdana	1	80	0	0	0	WM Stimuli\	0.7	1055.28571428571	0.9	857.888888888889	0.9	1060.33333333333	0.9	725	1	927.5	1	765.5	0.8	966.875	1	601	13	368481	1	368469	27	40	368508	-999999	368483	0	10	TrialsPROC	BP_007_BP20_BA.png	1	2	37	SessionSelectionList														target	2	Body	0-Back	32	80	30	0	0	91	1	39	186970	1	14	51	184931	-1	186143	1	1212	2	2	2039	53	186984	-54	0											1					37												
WM080112	156637_fnca	1	1	1	1907145144	1	75.035	75.032	2.0.10.147	2.0.10.242	2.0.10.242	1.0.0.439	7	234	2	3	Verdana	1	80	0	0	0	WM Stimuli\	0.7	1055.28571428571	0.9	857.888888888889	0.9	1060.33333333333	0.9	725	1	927.5	1	765.5	0.8	966.875	1	601	13	368481	1	368469	27	40	368508	-999999	368483	0	10	TrialsPROC	BP_011_BP4_BA.png	1	2	38	SessionSelectionList														nonlure	3	Body	0-Back	33	80	31	0	0	92	1	39	189542	2	14	72	187503	-1	188121	1	618	3	3	2039	53	189556	-54	0											2					38												
WM080112	156637_fnca	1	1	1	1907145144	1	75.035	75.032	2.0.10.147	2.0.10.242	2.0.10.242	1.0.0.439	7	234	2	3	Verdana	1	80	0	0	0	WM Stimuli\	0.7	1055.28571428571	0.9	857.888888888889	0.9	1060.33333333333	0.9	725	1	927.5	1	765.5	0.8	966.875	1	601	13	368481	1	368469	27	40	368508	-999999	368483	0	10	TrialsPROC	BP_010_BP3_BA.png	1	2	39	SessionSelectionList														nonlure	3	Body	0-Back	34	80	32	0	0	92	2	39	192101	2	14	59	190062	-1	190912	1	850	3	3	2039	53	192115	-54	0											3					39												
WM080112	156637_fnca	1	1	1	1907145144	1	75.035	75.032	2.0.10.147	2.0.10.242	2.0.10.242	1.0.0.439	7	234	2	3	Verdana	1	80	0	0	0	WM Stimuli\	0.7	1055.28571428571	0.9	857.888888888889	0.9	1060.33333333333	0.9	725	1	927.5	1	765.5	0.8	966.875	1	601	13	368481	1	368469	27	40	368508	-999999	368483	0	10	TrialsPROC	BP_008_BP21_BA.png	1	2	40	SessionSelectionList														nonlure	3	Body	0-Back	35	80	33	0	0	93	3	39	194660	2	14	59	192621	-1	193460	1	839	3	3	2039	53	194674	-54	0											4					40												
WM080112	156637_fnca	1	1	1	1907145144	1	75.035	75.032	2.0.10.147	2.0.10.242	2.0.10.242	1.0.0.439	7	234	2	3	Verdana	1	80	0	0	0	WM Stimuli\	0.7	1055.28571428571	0.9	857.888888888889	0.9	1060.33333333333	0.9	725	1	927.5	1	765.5	0.8	966.875	1	601	13	368481	1	368469	27	40	368508	-999999	368483	0	10	TrialsPROC	BP_011_BP4_BA.png	1	2	41	SessionSelectionList														lure	3	Body	0-Back	36	80	34	0	0	93	4	39	197219	1	14	59	195180	-1	196218	1	1038	3	3	2039	53	197233	-54	0											5					41												
WM080112	156637_fnca	1	1	1	1907145144	1	75.035	75.032	2.0.10.147	2.0.10.242	2.0.10.242	1.0.0.439	7	234	2	3	Verdana	1	80	0	0	0	WM Stimuli\	0.7	1055.28571428571	0.9	857.888888888889	0.9	1060.33333333333	0.9	725	1	927.5	1	765.5	0.8	966.875	1	601	13	368481	1	368469	27	40	368508	-999999	368483	0	10	TrialsPROC	BP_009_BP22_BA.png	1	2	42	SessionSelectionList														nonlure	3	Body	0-Back	37	80	35	0	0	94	5	39	199778	1	14	59	197739	-1	198510	1	771	3	3	2039	53	199792	-54	0											6					42												
WM080112	156637_fnca	1	1	1	1907145144	1	75.035	75.032	2.0.10.147	2.0.10.242	2.0.10.242	1.0.0.439	7	234	2	3	Verdana	1	80	0	0	0	WM Stimuli\	0.7	1055.28571428571	0.9	857.888888888889	0.9	1060.33333333333	0.9	725	1	927.5	1	765.5	0.8	966.875	1	601	13	368481	1	368469	27	40	368508	-999999	368483	0	10	TrialsPROC	BP_009_BP22_BA.png	1	2	43	SessionSelectionList														lure	3	Body	0-Back	38	80	36	0	0	94	6	39	202337	1	14	59	200298	-1	201036	1	738	3	3	2039	53	202351	-54	0											7					43												
WM080112	156637_fnca	1	1	1	1907145144	1	75.035	75.032	2.0.10.147	2.0.10.242	2.0.10.242	1.0.0.439	7	234	2	3	Verdana	1	80	0	0	0	WM Stimuli\	0.7	1055.28571428571	0.9	857.888888888889	0.9	1060.33333333333	0.9	725	1	927.5	1	765.5	0.8	966.875	1	601	13	368481	1	368469	27	40	368508	-999999	368483	0	10	TrialsPROC	BP_008_BP21_BA.png	1	2	44	SessionSelectionList														lure	3	Body	0-Back	39	80	37	0	0	94	7	39	204896	1	14	59	202857	-1	203623	1	766	3	3	2039	53	204910	-54	0											8					44												
WM080112	156637_fnca	1	1	1	1907145144	1	75.035	75.032	2.0.10.147	2.0.10.242	2.0.10.242	1.0.0.439	7	234	2	3	Verdana	1	80	0	0	0	WM Stimuli\	0.7	1055.28571428571	0.9	857.888888888889	0.9	1060.33333333333	0.9	725	1	927.5	1	765.5	0.8	966.875	1	601	13	368481	1	368469	27	40	368508	-999999	368483	0	10	TrialsPROC	BP_007_BP20_BA.png	1	2	45	SessionSelectionList														target	2	Body	0-Back	40	80	38	0	0	89	8	39	207455	1	14	59	205416	-1	206341	0	925	3	2	2039	53	207469	-54	0											9					45												
WM080112	156637_fnca	1	1	1	1907145144	1	75.035	75.032	2.0.10.147	2.0.10.242	2.0.10.242	1.0.0.439	7	234	2	3	Verdana	1	80	0	0	0	WM Stimuli\	0.7	1055.28571428571	0.9	857.888888888889	0.9	1060.33333333333	0.9	725	1	927.5	1	765.5	0.8	966.875	1	601	13	368481	1	368469	27	40	368508	-999999	368483	0	10	TrialsPROC	BP_012_BP5_BA.png	1	2	46	SessionSelectionList														nonlure	3	Body	0-Back	41	80	39	0	0	90	9	39	210027	2	14	72	207988	-1	208877	1	889	3	3	2039	53	210041	-54	0											10					46												
WM080112	156637_fnca	1	1	1	1907145144	1	75.035	75.032	2.0.10.147	2.0.10.242	2.0.10.242	1.0.0.439	7	234	2	3	Verdana	1	80	0	0	0	WM Stimuli\	0.7	1055.28571428571	0.9	857.888888888889	0.9	1060.33333333333	0.9	725	1	927.5	1	765.5	0.8	966.875	1	601	13	368481	1	368469	27	40	368508	-999999	368483	0	11	Fix15secPROC	""	1	2	47	SessionSelectionList																																															6	210494	-7	0							47												
WM080112	156637_fnca	1	1	1	1907145144	1	75.035	75.032	2.0.10.147	2.0.10.242	2.0.10.242	1.0.0.439	7	234	2	3	Verdana	1	80	0	0	0	WM Stimuli\	0.7	1055.28571428571	0.9	857.888888888889	0.9	1060.33333333333	0.9	725	1	927.5	1	765.5	0.8	966.875	1	601	13	368481	1	368469	27	40	368508	-999999	368483	0	12	Cue0BackPROC	PL_001_92012.png	1	2	48	SessionSelectionList																																										13	225501	-14	0												48												
WM080112	156637_fnca	1	1	1	1907145144	1	75.035	75.032	2.0.10.147	2.0.10.242	2.0.10.242	1.0.0.439	7	234	2	3	Verdana	1	80	0	0	0	WM Stimuli\	0.7	1055.28571428571	0.9	857.888888888889	0.9	1060.33333333333	0.9	725	1	927.5	1	765.5	0.8	966.875	1	601	13	368481	1	368469	27	40	368508	-999999	368483	0	13	TrialsPROC	PL_003_92016.png	1	2	49	SessionSelectionList														nonlure	3	Place	0-Back	42	80	40	0	0	90	10	39	230085	2	14	58	228046	-1	229215	1	1169	3	3	2039	53	230099	-54	0												1				49												
WM080112	156637_fnca	1	1	1	1907145144	1	75.035	75.032	2.0.10.147	2.0.10.242	2.0.10.242	1.0.0.439	7	234	2	3	Verdana	1	80	0	0	0	WM Stimuli\	0.7	1055.28571428571	0.9	857.888888888889	0.9	1060.33333333333	0.9	725	1	927.5	1	765.5	0.8	966.875	1	601	13	368481	1	368469	27	40	368508	-999999	368483	0	13	TrialsPROC	PL_003_92016.png	1	2	50	SessionSelectionList														lure	3	Place	0-Back	43	80	41	0	0	91	11	39	232644	2	14	59	230605	-1	231300	1	695	3	3	2039	53	232658	-54	0												2				50												
WM080112	156637_fnca	1	1	1	1907145144	1	75.035	75.032	2.0.10.147	2.0.10.242	2.0.10.242	1.0.0.439	7	234	2	3	Verdana	1	80	0	0	0	WM Stimuli\	0.7	1055.28571428571	0.9	857.888888888889	0.9	1060.33333333333	0.9	725	1	927.5	1	765.5	0.8	966.875	1	601	13	368481	1	368469	27	40	368508	-999999	368483	0	13	TrialsPROC	PL_006_92025.png	1	2	51	SessionSelectionList														nonlure	3	Place	0-Back	44	80	42	0	0	91	12	40	235217	1	13	72	233177	-1	234035	1	858	3	3	2040	53	235230	-54	0												3				51												
WM080112	156637_fnca	1	1	1	1907145144	1	75.035	75.032	2.0.10.147	2.0.10.242	2.0.10.242	1.0.0.439	7	234	2	3	Verdana	1	80	0	0	0	WM Stimuli\	0.7	1055.28571428571	0.9	857.888888888889	0.9	1060.33333333333	0.9	725	1	927.5	1	765.5	0.8	966.875	1	601	13	368481	1	368469	27	40	368508	-999999	368483	0	13	TrialsPROC	PL_001_92012.png	1	2	52	SessionSelectionList														target	2	Place	0-Back	45	80	43	0	0	92	1	39	237789	1	14	73	235750	-1	236437	1	687	2	2	2039	53	237803	-54	0												4				52												
WM080112	156637_fnca	1	1	1	1907145144	1	75.035	75.032	2.0.10.147	2.0.10.242	2.0.10.242	1.0.0.439	7	234	2	3	Verdana	1	80	0	0	0	WM Stimuli\	0.7	1055.28571428571	0.9	857.888888888889	0.9	1060.33333333333	0.9	725	1	927.5	1	765.5	0.8	966.875	1	601	13	368481	1	368469	27	40	368508	-999999	368483	0	13	TrialsPROC	PL_004_92023.png	1	2	53	SessionSelectionList														nonlure	3	Place	0-Back	46	80	44	0	0	92	1	39	240361	1	14	72	238322	-1	238953	1	631	3	3	2039	53	240375	-54	0												5				53												
WM080112	156637_fnca	1	1	1	1907145144	1	75.035	75.032	2.0.10.147	2.0.10.242	2.0.10.242	1.0.0.439	7	234	2	3	Verdana	1	80	0	0	0	WM Stimuli\	0.7	1055.28571428571	0.9	857.888888888889	0.9	1060.33333333333	0.9	725	1	927.5	1	765.5	0.8	966.875	1	601	13	368481	1	368469	27	40	368508	-999999	368483	0	13	TrialsPROC	PL_005_92024.png	1	2	54	SessionSelectionList														nonlure	3	Place	0-Back	47	80	45	0	0	92	2	39	242933	2	14	72	240894	-1	241704	1	810	3	3	2039	53	242947	-54	0												6				54												
WM080112	156637_fnca	1	1	1	1907145144	1	75.035	75.032	2.0.10.147	2.0.10.242	2.0.10.242	1.0.0.439	7	234	2	3	Verdana	1	80	0	0	0	WM Stimuli\	0.7	1055.28571428571	0.9	857.888888888889	0.9	1060.33333333333	0.9	725	1	927.5	1	765.5	0.8	966.875	1	601	13	368481	1	368469	27	40	368508	-999999	368483	0	13	TrialsPROC	PL_001_92012.png	1	2	55	SessionSelectionList														target	2	Place	0-Back	48	80	46	0	0	93	1	40	245506	1	13	72	243466	-1	244301	1	835	2	2	2040	53	245519	-54	0												7				55												
WM080112	156637_fnca	1	1	1	1907145144	1	75.035	75.032	2.0.10.147	2.0.10.242	2.0.10.242	1.0.0.439	7	234	2	3	Verdana	1	80	0	0	0	WM Stimuli\	0.7	1055.28571428571	0.9	857.888888888889	0.9	1060.33333333333	0.9	725	1	927.5	1	765.5	0.8	966.875	1	601	13	368481	1	368469	27	40	368508	-999999	368483	0	13	TrialsPROC	PL_002_92014.png	1	2	56	SessionSelectionList														nonlure	3	Place	0-Back	49	80	47	0	0	93	1	39	248078	1	14	73	246039	-1	246740	1	701	3	3	2039	53	248092	-54	0												8				56												
WM080112	156637_fnca	1	1	1	1907145144	1	75.035	75.032	2.0.10.147	2.0.10.242	2.0.10.242	1.0.0.439	7	234	2	3	Verdana	1	80	0	0	0	WM Stimuli\	0.7	1055.28571428571	0.9	857.888888888889	0.9	1060.33333333333	0.9	725	1	927.5	1	765.5	0.8	966.875	1	601	13	368481	1	368469	27	40	368508	-999999	368483	0	13	TrialsPROC	PL_004_92023.png	1	2	57	SessionSelectionList														lure	3	Place	0-Back	50	80	48	0	0	93	2	39	250650	2	14	72	248611	-1	249288	1	677	3	3	2039	53	250664	-54	0												9				57												
WM080112	156637_fnca	1	1	1	1907145144	1	75.035	75.032	2.0.10.147	2.0.10.242	2.0.10.242	1.0.0.439	7	234	2	3	Verdana	1	80	0	0	0	WM Stimuli\	0.7	1055.28571428571	0.9	857.888888888889	0.9	1060.33333333333	0.9	725	1	927.5	1	765.5	0.8	966.875	1	601	13	368481	1	368469	27	40	368508	-999999	368483	0	13	TrialsPROC	PL_006_92025.png	1	2	58	SessionSelectionList														lure	3	Place	0-Back	51	80	49	0	0	93	3	39	253222	2	14	72	251183	-1	251775	1	592	3	3	2039	53	253236	-54	0												10				58												
WM080112	156637_fnca	1	1	1	1907145144	1	75.035	75.032	2.0.10.147	2.0.10.242	2.0.10.242	1.0.0.439	7	234	2	3	Verdana	1	80	0	0	0	WM Stimuli\	0.7	1055.28571428571	0.9	857.888888888889	0.9	1060.33333333333	0.9	725	1	927.5	1	765.5	0.8	966.875	1	601	13	368481	1	368469	27	40	368508	-999999	368483	0	14	Cue2BackPROC	""	1	2	59	SessionSelectionList									6	253689	-7	0																																													59												
WM080112	156637_fnca	1	1	1	1907145144	1	75.035	75.032	2.0.10.147	2.0.10.242	2.0.10.242	1.0.0.439	7	234	2	3	Verdana	1	80	0	0	0	WM Stimuli\	0.7	1055.28571428571	0.9	857.888888888889	0.9	1060.33333333333	0.9	725	1	927.5	1	765.5	0.8	966.875	1	601	13	368481	1	368469	27	40	368508	-999999	368483	0	15	TrialsPROC	FC_010_F5.png	1	2	60	SessionSelectionList														nonlure	3	Face	2-Back	52	80	50	0	0	93	4	39	258287	1	14	65	256248	-1	256738	1	490	3	3	2039	53	258301	-54	0													1			60												
WM080112	156637_fnca	1	1	1	1907145144	1	75.035	75.032	2.0.10.147	2.0.10.242	2.0.10.242	1.0.0.439	7	234	2	3	Verdana	1	80	0	0	0	WM Stimuli\	0.7	1055.28571428571	0.9	857.888888888889	0.9	1060.33333333333	0.9	725	1	927.5	1	765.5	0.8	966.875	1	601	13	368481	1	368469	27	40	368508	-999999	368483	0	15	TrialsPROC	FC_012_F6.png	1	2	61	SessionSelectionList														nonlure	3	Face	2-Back	53	80	51	0	0	93	5	39	260859	2	14	72	258820	-1	259518	1	698	3	3	2039	53	260873	-54	0													2			61												
WM080112	156637_fnca	1	1	1	1907145144	1	75.035	75.032	2.0.10.147	2.0.10.242	2.0.10.242	1.0.0.439	7	234	2	3	Verdana	1	80	0	0	0	WM Stimuli\	0.7	1055.28571428571	0.9	857.888888888889	0.9	1060.33333333333	0.9	725	1	927.5	1	765.5	0.8	966.875	1	601	13	368481	1	368469	27	40	368508	-999999	368483	0	15	TrialsPROC	FC_010_F5.png	1	2	62	SessionSelectionList														target	2	Face	2-Back	54	80	52	0	0	93	1	39	263431	2	14	72	261392	-1	262071	1	679	2	2	2039	53	263445	-54	0													3			62												
WM080112	156637_fnca	1	1	1	1907145144	1	75.035	75.032	2.0.10.147	2.0.10.242	2.0.10.242	1.0.0.439	7	234	2	3	Verdana	1	80	0	0	0	WM Stimuli\	0.7	1055.28571428571	0.9	857.888888888889	0.9	1060.33333333333	0.9	725	1	927.5	1	765.5	0.8	966.875	1	601	13	368481	1	368469	27	40	368508	-999999	368483	0	15	TrialsPROC	FC_008_F4.png	1	2	63	SessionSelectionList														nonlure	3	Face	2-Back	55	80	53	0	0	93	1	39	266004	1	13	73	263965	-1	265290	1	1325	3	3	2039	52	266017	-53	0													4			63												
WM080112	156637_fnca	1	1	1	1907145144	1	75.035	75.032	2.0.10.147	2.0.10.242	2.0.10.242	1.0.0.439	7	234	2	3	Verdana	1	80	0	0	0	WM Stimuli\	0.7	1055.28571428571	0.9	857.888888888889	0.9	1060.33333333333	0.9	725	1	927.5	1	765.5	0.8	966.875	1	601	13	368481	1	368469	27	40	368508	-999999	368483	0	15	TrialsPROC	FC_012_F6.png	1	2	64	SessionSelectionList														lure	3	Face	2-Back	56	80	54	0	0	93	2	39	268576	1	14	72	266537	-1	267963	1	1426	3	3	2039	53	268590	-54	0													5			64												
WM080112	156637_fnca	1	1	1	1907145144	1	75.035	75.032	2.0.10.147	2.0.10.242	2.0.10.242	1.0.0.439	7	234	2	3	Verdana	1	80	0	0	0	WM Stimuli\	0.7	1055.28571428571	0.9	857.888888888889	0.9	1060.33333333333	0.9	725	1	927.5	1	765.5	0.8	966.875	1	601	13	368481	1	368469	27	40	368508	-999999	368483	0	15	TrialsPROC	FC_008_F4.png	1	2	65	SessionSelectionList														target	2	Face	2-Back	57	80	55	0	0	93	1	39	271148	2	14	72	269109	-1	270118	1	1009	2	2	2039	53	271162	-54	0													6			65												
WM080112	156637_fnca	1	1	1	1907145144	1	75.035	75.032	2.0.10.147	2.0.10.242	2.0.10.242	1.0.0.439	7	234	2	3	Verdana	1	80	0	0	0	WM Stimuli\	0.7	1055.28571428571	0.9	857.888888888889	0.9	1060.33333333333	0.9	725	1	927.5	1	765.5	0.8	966.875	1	601	13	368481	1	368469	27	40	368508	-999999	368483	0	15	TrialsPROC	FC_007_M4.png	1	2	66	SessionSelectionList														nonlure	3	Face	2-Back	58	80	56	0	0	93	1	39	273734	1	14	86	271695	-1	272757	1	1062	3	3	2039	53	273748	-54	0													7			66												
WM080112	156637_fnca	1	1	1	1907145144	1	75.035	75.032	2.0.10.147	2.0.10.242	2.0.10.242	1.0.0.439	7	234	2	3	Verdana	1	80	0	0	0	WM Stimuli\	0.7	1055.28571428571	0.9	857.888888888889	0.9	1060.33333333333	0.9	725	1	927.5	1	765.5	0.8	966.875	1	601	13	368481	1	368469	27	40	368508	-999999	368483	0	15	TrialsPROC	FC_007_M4.png	1	2	67	SessionSelectionList														lure	3	Face	2-Back	59	80	57	0	0	93	2	39	276306	2	14	72	274267	-1	275654	1	1387	3	3	2039	53	276320	-54	0													8			67												
WM080112	156637_fnca	1	1	1	1907145144	1	75.035	75.032	2.0.10.147	2.0.10.242	2.0.10.242	1.0.0.439	7	234	2	3	Verdana	1	80	0	0	0	WM Stimuli\	0.7	1055.28571428571	0.9	857.888888888889	0.9	1060.33333333333	0.9	725	1	927.5	1	765.5	0.8	966.875	1	601	13	368481	1	368469	27	40	368508	-999999	368483	0	15	TrialsPROC	FC_009_M5.png	1	2	68	SessionSelectionList														nonlure	3	Face	2-Back	60	80	58	0	0	93	3	39	278905	1	14	99	276866	-1	278333	1	1467	3	3	2039	53	278919	-54	0													9			68												
WM080112	156637_fnca	1	1	1	1907145144	1	75.035	75.032	2.0.10.147	2.0.10.242	2.0.10.242	1.0.0.439	7	234	2	3	Verdana	1	80	0	0	0	WM Stimuli\	0.7	1055.28571428571	0.9	857.888888888889	0.9	1060.33333333333	0.9	725	1	927.5	1	765.5	0.8	966.875	1	601	13	368481	1	368469	27	40	368508	-999999	368483	0	15	TrialsPROC	FC_011_M6.png	1	2	69	SessionSelectionList														nonlure	3	Face	2-Back	61	80	59	0	0	93	1	39	281504	1	14	99	279465	-1	280370	0	905	2	3	2039	53	281518	-54	0													10			69												
WM080112	156637_fnca	1	1	1	1907145144	1	75.035	75.032	2.0.10.147	2.0.10.242	2.0.10.242	1.0.0.439	7	234	2	3	Verdana	1	80	0	0	0	WM Stimuli\	0.7	1055.28571428571	0.9	857.888888888889	0.9	1060.33333333333	0.9	725	1	927.5	1	765.5	0.8	966.875	1	601	13	368481	1	368469	27	40	368508	-999999	368483	0	16	Fix15secPROC	""	1	2	70	SessionSelectionList																																															6	281971	-7	0							70												
WM080112	156637_fnca	1	1	1	1907145144	1	75.035	75.032	2.0.10.147	2.0.10.242	2.0.10.242	1.0.0.439	7	234	2	3	Verdana	1	80	0	0	0	WM Stimuli\	0.7	1055.28571428571	0.9	857.888888888889	0.9	1060.33333333333	0.9	725	1	927.5	1	765.5	0.8	966.875	1	601	13	368481	1	368469	27	40	368508	-999999	368483	0	17	Cue0BackPROC	TO_007_TOOL7_BA.png	1	2	71	SessionSelectionList																																										39	297004	-40	0												71												
WM080112	156637_fnca	1	1	1	1907145144	1	75.035	75.032	2.0.10.147	2.0.10.242	2.0.10.242	1.0.0.439	7	234	2	3	Verdana	1	80	0	0	0	WM Stimuli\	0.7	1055.28571428571	0.9	857.888888888889	0.9	1060.33333333333	0.9	725	1	927.5	1	765.5	0.8	966.875	1	601	13	368481	1	368469	27	40	368508	-999999	368483	0	18	TrialsPROC	TO_010_TOOL10_BA.png	1	2	72	SessionSelectionList														nonlure	3	Tools	0-Back	62	80	60	0	0	94	1	39	301589	1	14	85	299550	-1	300533	1	983	3	3	2039	53	301603	-54	0														1		72												
WM080112	156637_fnca	1	1	1	1907145144	1	75.035	75.032	2.0.10.147	2.0.10.242	2.0.10.242	1.0.0.439	7	234	2	3	Verdana	1	80	0	0	0	WM Stimuli\	0.7	1055.28571428571	0.9	857.888888888889	0.9	1060.33333333333	0.9	725	1	927.5	1	765.5	0.8	966.875	1	601	13	368481	1	368469	27	40	368508	-999999	368483	0	18	TrialsPROC	TO_009_TOOL9_BA.png	1	2	73	SessionSelectionList														nonlure	3	Tools	0-Back	63	80	61	0	0	94	2	38	304174	2	14	86	302136	-1	302873	1	737	3	3	2038	52	304188	-53	0														2		73												
WM080112	156637_fnca	1	1	1	1907145144	1	75.035	75.032	2.0.10.147	2.0.10.242	2.0.10.242	1.0.0.439	7	234	2	3	Verdana	1	80	0	0	0	WM Stimuli\	0.7	1055.28571428571	0.9	857.888888888889	0.9	1060.33333333333	0.9	725	1	927.5	1	765.5	0.8	966.875	1	601	13	368481	1	368469	27	40	368508	-999999	368483	0	18	TrialsPROC	TO_009_TOOL9_BA.png	1	2	74	SessionSelectionList														lure	3	Tools	0-Back	64	80	62	0	0	94	3	39	306733	2	14	58	304694	-1	305327	1	633	3	3	2039	53	306747	-54	0														3		74												
WM080112	156637_fnca	1	1	1	1907145144	1	75.035	75.032	2.0.10.147	2.0.10.242	2.0.10.242	1.0.0.439	7	234	2	3	Verdana	1	80	0	0	0	WM Stimuli\	0.7	1055.28571428571	0.9	857.888888888889	0.9	1060.33333333333	0.9	725	1	927.5	1	765.5	0.8	966.875	1	601	13	368481	1	368469	27	40	368508	-999999	368483	0	18	TrialsPROC	TO_008_TOOL8_BA.png	1	2	75	SessionSelectionList														nonlure	3	Tools	0-Back	65	80	63	0	0	94	4	39	309319	1	14	86	307280	-1	307904	1	624	3	3	2039	53	309333	-54	0														4		75												
WM080112	156637_fnca	1	1	1	1907145144	1	75.035	75.032	2.0.10.147	2.0.10.242	2.0.10.242	1.0.0.439	7	234	2	3	Verdana	1	80	0	0	0	WM Stimuli\	0.7	1055.28571428571	0.9	857.888888888889	0.9	1060.33333333333	0.9	725	1	927.5	1	765.5	0.8	966.875	1	601	13	368481	1	368469	27	40	368508	-999999	368483	0	18	TrialsPROC	TO_011_TOOL11_BA.png	1	2	76	SessionSelectionList														nonlure	3	Tools	0-Back	66	80	64	0	0	94	5	40	311905	1	13	85	309865	-1	310321	1	456	3	3	2040	53	311918	-54	0														5		76												
WM080112	156637_fnca	1	1	1	1907145144	1	75.035	75.032	2.0.10.147	2.0.10.242	2.0.10.242	1.0.0.439	7	234	2	3	Verdana	1	80	0	0	0	WM Stimuli\	0.7	1055.28571428571	0.9	857.888888888889	0.9	1060.33333333333	0.9	725	1	927.5	1	765.5	0.8	966.875	1	601	13	368481	1	368469	27	40	368508	-999999	368483	0	18	TrialsPROC	TO_012_TOOL12_BA.png	1	2	77	SessionSelectionList														nonlure	3	Tools	0-Back	67	80	65	0	0	94	6	39	314490	2	14	86	312451	-1	312854	1	403	3	3	2039	53	314504	-54	0														6		77												
WM080112	156637_fnca	1	1	1	1907145144	1	75.035	75.032	2.0.10.147	2.0.10.242	2.0.10.242	1.0.0.439	7	234	2	3	Verdana	1	80	0	0	0	WM Stimuli\	0.7	1055.28571428571	0.9	857.888888888889	0.9	1060.33333333333	0.9	725	1	927.5	1	765.5	0.8	966.875	1	601	13	368481	1	368469	27	40	368508	-999999	368483	0	18	TrialsPROC	TO_010_TOOL10_BA.png	1	2	78	SessionSelectionList														lure	3	Tools	0-Back	68	80	66	0	0	95	7	39	317049	2	14	59	315010	-1	315658	1	648	3	3	2039	53	317063	-54	0														7		78												
WM080112	156637_fnca	1	1	1	1907145144	1	75.035	75.032	2.0.10.147	2.0.10.242	2.0.10.242	1.0.0.439	7	234	2	3	Verdana	1	80	0	0	0	WM Stimuli\	0.7	1055.28571428571	0.9	857.888888888889	0.9	1060.33333333333	0.9	725	1	927.5	1	765.5	0.8	966.875	1	601	13	368481	1	368469	27	40	368508	-999999	368483	0	18	TrialsPROC	TO_007_TOOL7_BA.png	1	2	79	SessionSelectionList														target	2	Tools	0-Back	69	80	67	0	0	95	1	39	319608	1	14	59	317569	-1	318097	1	528	2	2	2039	53	319622	-54	0														8		79												
WM080112	156637_fnca	1	1	1	1907145144	1	75.035	75.032	2.0.10.147	2.0.10.242	2.0.10.242	1.0.0.439	7	234	2	3	Verdana	1	80	0	0	0	WM Stimuli\	0.7	1055.28571428571	0.9	857.888888888889	0.9	1060.33333333333	0.9	725	1	927.5	1	765.5	0.8	966.875	1	601	13	368481	1	368469	27	40	368508	-999999	368483	0	18	TrialsPROC	TO_008_TOOL8_BA.png	1	2	80	SessionSelectionList														lure	3	Tools	0-Back	70	80	68	0	0	95	1	39	322167	1	14	59	320128	-1	320617	1	489	3	3	2039	53	322181	-54	0														9		80												
WM080112	156637_fnca	1	1	1	1907145144	1	75.035	75.032	2.0.10.147	2.0.10.242	2.0.10.242	1.0.0.439	7	234	2	3	Verdana	1	80	0	0	0	WM Stimuli\	0.7	1055.28571428571	0.9	857.888888888889	0.9	1060.33333333333	0.9	725	1	927.5	1	765.5	0.8	966.875	1	601	13	368481	1	368469	27	40	368508	-999999	368483	0	18	TrialsPROC	TO_007_TOOL7_BA.png	1	2	81	SessionSelectionList														target	2	Tools	0-Back	71	80	69	0	0	95	1	39	324726	1	14	59	322687	-1	323196	1	509	2	2	2039	53	324740	-54	0														10		81												
WM080112	156637_fnca	1	1	1	1907145144	1	75.035	75.032	2.0.10.147	2.0.10.242	2.0.10.242	1.0.0.439	7	234	2	3	Verdana	1	80	0	0	0	WM Stimuli\	0.7	1055.28571428571	0.9	857.888888888889	0.9	1060.33333333333	0.9	725	1	927.5	1	765.5	0.8	966.875	1	601	13	368481	1	368469	27	40	368508	-999999	368483	0	19	Cue2BackPROC	""	1	2	82	SessionSelectionList									5	325192	-6	0																																													82												
WM080112	156637_fnca	1	1	1	1907145144	1	75.035	75.032	2.0.10.147	2.0.10.242	2.0.10.242	1.0.0.439	7	234	2	3	Verdana	1	80	0	0	0	WM Stimuli\	0.7	1055.28571428571	0.9	857.888888888889	0.9	1060.33333333333	0.9	725	1	927.5	1	765.5	0.8	966.875	1	601	13	368481	1	368469	27	40	368508	-999999	368483	0	20	TrialsPROC	PL_007_92026.png	1	2	83	SessionSelectionList														nonlure	3	Place	2-Back	72	80	70	0	0	95	1	39	329804	1	14	78	327765	-1	328574	1	809	3	3	2039	53	329818	-54	0															1	83												
WM080112	156637_fnca	1	1	1	1907145144	1	75.035	75.032	2.0.10.147	2.0.10.242	2.0.10.242	1.0.0.439	7	234	2	3	Verdana	1	80	0	0	0	WM Stimuli\	0.7	1055.28571428571	0.9	857.888888888889	0.9	1060.33333333333	0.9	725	1	927.5	1	765.5	0.8	966.875	1	601	13	368481	1	368469	27	40	368508	-999999	368483	0	20	TrialsPROC	PL_007_92026.png	1	2	84	SessionSelectionList														lure	3	Place	2-Back	73	80	71	0	0	95	2	39	332376	1	14	72	330337	-1	331591	1	1254	3	3	2039	53	332390	-54	0															2	84												
WM080112	156637_fnca	1	1	1	1907145144	1	75.035	75.032	2.0.10.147	2.0.10.242	2.0.10.242	1.0.0.439	7	234	2	3	Verdana	1	80	0	0	0	WM Stimuli\	0.7	1055.28571428571	0.9	857.888888888889	0.9	1060.33333333333	0.9	725	1	927.5	1	765.5	0.8	966.875	1	601	13	368481	1	368469	27	40	368508	-999999	368483	0	20	TrialsPROC	PL_010_92038.png	1	2	85	SessionSelectionList														nonlure	3	Place	2-Back	74	80	72	0	0	95	3	39	334962	1	13	86	332923	-1	334029	1	1106	3	3	2039	52	334975	-53	0															3	85												
WM080112	156637_fnca	1	1	1	1907145144	1	75.035	75.032	2.0.10.147	2.0.10.242	2.0.10.242	1.0.0.439	7	234	2	3	Verdana	1	80	0	0	0	WM Stimuli\	0.7	1055.28571428571	0.9	857.888888888889	0.9	1060.33333333333	0.9	725	1	927.5	1	765.5	0.8	966.875	1	601	13	368481	1	368469	27	40	368508	-999999	368483	0	20	TrialsPROC	PL_009_92037.png	1	2	86	SessionSelectionList														nonlure	3	Place	2-Back	75	80	73	0	0	95	4	39	337547	2	14	85	335508	-1	336240	1	732	3	3	2039	53	337561	-54	0															4	86												
WM080112	156637_fnca	1	1	1	1907145144	1	75.035	75.032	2.0.10.147	2.0.10.242	2.0.10.242	1.0.0.439	7	234	2	3	Verdana	1	80	0	0	0	WM Stimuli\	0.7	1055.28571428571	0.9	857.888888888889	0.9	1060.33333333333	0.9	725	1	927.5	1	765.5	0.8	966.875	1	601	13	368481	1	368469	27	40	368508	-999999	368483	0	20	TrialsPROC	PL_010_92038.png	1	2	87	SessionSelectionList														target	2	Place	2-Back	76	80	74	0	0	95	1	38	340106	2	14	60	338068	-1	338876	1	808	2	2	2038	52	340120	-53	0															5	87												
WM080112	156637_fnca	1	1	1	1907145144	1	75.035	75.032	2.0.10.147	2.0.10.242	2.0.10.242	1.0.0.439	7	234	2	3	Verdana	1	80	0	0	0	WM Stimuli\	0.7	1055.28571428571	0.9	857.888888888889	0.9	1060.33333333333	0.9	725	1	927.5	1	765.5	0.8	966.875	1	601	13	368481	1	368469	27	40	368508	-999999	368483	0	20	TrialsPROC	PL_009_92037.png	1	2	88	SessionSelectionList														target	2	Place	2-Back	77	80	75	0	0	95	2	39	342665	1	14	58	340626	-1	341948	1	1322	2	2	2039	53	342679	-54	0															6	88												
WM080112	156637_fnca	1	1	1	1907145144	1	75.035	75.032	2.0.10.147	2.0.10.242	2.0.10.242	1.0.0.439	7	234	2	3	Verdana	1	80	0	0	0	WM Stimuli\	0.7	1055.28571428571	0.9	857.888888888889	0.9	1060.33333333333	0.9	725	1	927.5	1	765.5	0.8	966.875	1	601	13	368481	1	368469	27	40	368508	-999999	368483	0	20	TrialsPROC	PL_008_92033.png	1	2	89	SessionSelectionList														nonlure	3	Place	2-Back	78	80	76	0	0	95	1	39	345251	1	13	86	343212	-1	344120	1	908	3	3	2039	52	345264	-53	0															7	89												
WM080112	156637_fnca	1	1	1	1907145144	1	75.035	75.032	2.0.10.147	2.0.10.242	2.0.10.242	1.0.0.439	7	234	2	3	Verdana	1	80	0	0	0	WM Stimuli\	0.7	1055.28571428571	0.9	857.888888888889	0.9	1060.33333333333	0.9	725	1	927.5	1	765.5	0.8	966.875	1	601	13	368481	1	368469	27	40	368508	-999999	368483	0	20	TrialsPROC	PL_012_92047.png	1	2	90	SessionSelectionList														nonlure	3	Place	2-Back	79	80	77	0	0	95	2	40	347850	1	13	98	345810	-1	346590	1	780	3	3	2040	53	347863	-54	0															8	90												
WM080112	156637_fnca	1	1	1	1907145144	1	75.035	75.032	2.0.10.147	2.0.10.242	2.0.10.242	1.0.0.439	7	234	2	3	Verdana	1	80	0	0	0	WM Stimuli\	0.7	1055.28571428571	0.9	857.888888888889	0.9	1060.33333333333	0.9	725	1	927.5	1	765.5	0.8	966.875	1	601	13	368481	1	368469	27	40	368508	-999999	368483	0	20	TrialsPROC	PL_012_92047.png	1	2	91	SessionSelectionList														lure	3	Place	2-Back	80	80	78	0	0	95	3	39	350422	1	14	73	348383	-1	349277	1	894	3	3	2039	53	350436	-54	0															9	91												
WM080112	156637_fnca	1	1	1	1907145144	1	75.035	75.032	2.0.10.147	2.0.10.242	2.0.10.242	1.0.0.439	7	234	2	3	Verdana	1	80	0	0	0	WM Stimuli\	0.7	1055.28571428571	0.9	857.888888888889	0.9	1060.33333333333	0.9	725	1	927.5	1	765.5	0.8	966.875	1	601	13	368481	1	368469	27	40	368508	-999999	368483	0	20	TrialsPROC	PL_011_92044.png	1	2	92	SessionSelectionList														nonlure	3	Place	2-Back	80	80	79	0	0	95	4	39	353007	2	14	85	350968	-1	351630	1	662	3	3	2039	53	353021	-54	0															10	92												
WM080112	156637_fnca	1	1	1	1907145144	1	75.035	75.032	2.0.10.147	2.0.10.242	2.0.10.242	1.0.0.439	7	234	2	3	Verdana	1	80	0	0	0	WM Stimuli\	0.7	1055.28571428571	0.9	857.888888888889	0.9	1060.33333333333	0.9	725	1	927.5	1	765.5	0.8	966.875	1	601	13	368481	1	368469	27	40	368508	-999999	368483	0	21	Fix15secPROC	""	1	2	93	SessionSelectionList																																															6	353474	-7	0							93												
