ExperimentName	HCPID	RunNumber	Subject	Session	RandomSeed	Group	Laptop.RefreshRate	ScannerD2.RefreshRate	StudioVersion	RuntimeVersion	RuntimeVersionExpected	ExperimentVersion	triggercode	Allowed	Target	Nontarget	FontStyle	RunTrialNumber[Session]	TrialsPerRun[Session]	TotalRespGreater200[Session]	ConsecRTLess200[Session]	ConsecNonResp[Session]	StimuliDir	ACC_2_Back_Body	Avg_RT_For_Correct_Trials_2_Back_Body	ACC_0_Back_Body	Avg_RT_For_Correct_Trials_0_Back_Body	ACC_2_Back_Face	Avg_RT_For_Correct_Trials_2_Back_Face	ACC_0_Back_Face	Avg_RT_For_Correct_Trials_0_Back_Face	ACC_2_Back_Place	Avg_RT_For_Correct_Trials_2_Back_Place	ACC_0_Back_Place	Avg_RT_For_Correct_Trials_0_Back_Place	ACC_2_Back_Tools	Avg_RT_For_Correct_Trials_2_Back_Tools	ACC_0_Back_Tools	Avg_RT_For_Correct_Trials_0_Back_Tools	ExpInstrucFeelFreeToRest.OnsetDelay	ExpInstrucFeelFreeToRest.OnsetTime	ExpInstrucFeelFreeToRest.DurationError	ExpInstrucFeelFreeToRest.StartTime	ExpInstrucFeelFreeToRest.OnsetToOnsetTime	FeelFreeToRest.OnsetDelay	FeelFreeToRest.OnsetTime	FeelFreeToRest.DurationError	FeelFreeToRest.StartTime	FeelFreeToRest.OnsetToOnsetTime	SessionSelectionList	Procedure[Block]	Stimulus[Block]	RunNumberFilterValue	SessionSelectionList.Cycle	SessionSelectionList.Sample	Running[Block]	IntroButtonMap.OnsetDelay	IntroButtonMap.OnsetTime	IntroButtonMap.DurationError	IntroButtonMap.OnsetToOnsetTime	GetReady.OnsetDelay	GetReady.OnsetTime	GetReady.DurationError	GetReady.OnsetToOnsetTime	Cue2Back.OnsetDelay	Cue2Back.OnsetTime	Cue2Back.DurationError	Cue2Back.OnsetToOnsetTime	Run1Block1	TargetType	CorrectResponse	StimType	BlockType	RunTrialNumber[Block]	TrialsPerRun[Block]	TotalRespGreater200[Block]	ConsecRTLess200[Block]	ConsecNonResp[Block]	ControlAcc	ConsecSameResp	ExperimenterWindow.OnsetDelay	ExperimenterWindow.OnsetTime	ExperimenterWindow.DurationError	ExperimenterWindow.OnsetToOnsetTime	Stim.OnsetDelay	Stim.OnsetTime	Stim.DurationError	Stim.RTTime	Stim.ACC	Stim.RT	Stim.RESP	Stim.CRESP	Stim.OnsetToOnsetTime	Fix.OnsetDelay	Fix.OnsetTime	Fix.DurationError	Fix.OnsetToOnsetTime	CueTarget.OnsetDelay	CueTarget.OnsetTime	CueTarget.DurationError	CueTarget.OnsetToOnsetTime	Run1Block2	Fix15sec.OnsetDelay	Fix15sec.OnsetTime	Fix15sec.DurationError	Fix15sec.OnsetToOnsetTime	Run1Block3	Run1Block4	Run1Block5	Run1Block6	Run1Block7	Run1Block8	Block	Procedure[Trial]	Stimulus[Trial]	ReadyList	Running[Trial]	ReadyList.Cycle	ReadyList.Sample	SyncSlide.OnsetDelay	SyncSlide.OnsetTime	SyncSlide.DurationError	SyncSlide.FinishTime	SyncSlide.OnsetToOnsetTime	Trial
WM080112	135225_fnca	2	1	1	1147450501	1	75.031	75.031	2.0.10.147	2.0.10.242	2.0.10.242	1.0.0.439	7	234	2	3	Verdana	1	80	0	0	0	WM Stimuli\	0.9	1168.88888888889	0.8	839	1	909.6	1	600.9	1	959.8	1	625.9	1	873.9	1	710.1	12	316242	3	316231	27	39	316269	-999999	316245	0	22	TRSyncPROC	""	2	2	1	SessionSelectionList	109	4597	-999999	0	34	9835	-999999	0																																																	1	InitialTR	4	1	ReadyList	1	1	20	22990	-21	24969	0	1
WM080112	135225_fnca	2	1	1	1147450501	1	75.031	75.031	2.0.10.147	2.0.10.242	2.0.10.242	1.0.0.439	7	234	2	3	Verdana	1	80	0	0	0	WM Stimuli\	0.9	1168.88888888889	0.8	839	1	909.6	1	600.9	1	959.8	1	625.9	1	873.9	1	710.1	12	316242	3	316231	27	39	316269	-999999	316245	0	22	TRSyncPROC	""	2	2	1	SessionSelectionList	109	4597	-999999	0	34	9835	-999999	0																																																	1	InitialTR	3	2	ReadyList	1	2	19	24989	-20	26969	0	2
WM080112	135225_fnca	2	1	1	1147450501	1	75.031	75.031	2.0.10.147	2.0.10.242	2.0.10.242	1.0.0.439	7	234	2	3	Verdana	1	80	0	0	0	WM Stimuli\	0.9	1168.88888888889	0.8	839	1	909.6	1	600.9	1	959.8	1	625.9	1	873.9	1	710.1	12	316242	3	316231	27	39	316269	-999999	316245	0	22	TRSyncPROC	""	2	2	1	SessionSelectionList	109	4597	-999999	0	34	9835	-999999	0																																																	1	InitialTR	2	3	ReadyList	1	3	5	26975	-6	28969	0	3
WM080112	135225_fnca	2	1	1	1147450501	1	75.031	75.031	2.0.10.147	2.0.10.242	2.0.10.242	1.0.0.439	7	234	2	3	Verdana	1	80	0	0	0	WM Stimuli\	0.9	1168.88888888889	0.8	839	1	909.6	1	600.9	1	959.8	1	625.9	1	873.9	1	710.1	12	316242	3	316231	27	39	316269	-999999	316245	0	22	TRSyncPROC	""	2	2	1	SessionSelectionList	109	4597	-999999	0	34	9835	-999999	0																																																	1	InitialTR	1	4	ReadyList	1	4	4	28974	-5	30969	0	4
WM080112	135225_fnca	2	1	1	1147450501	1	75.031	75.031	2.0.10.147	2.0.10.242	2.0.10.242	1.0.0.439	7	234	2	3	Verdana	1	80	0	0	0	WM Stimuli\	0.9	1168.88888888889	0.8	839	1	909.6	1	600.9	1	959.8	1	625.9	1	873.9	1	710.1	12	316242	3	316231	27	39	316269	-999999	316245	0	23	Cue2BackPROC	""	2	2	2	SessionSelectionList									16	30986	-17	0																																													2												
WM080112	135225_fnca	2	1	1	1147450501	1	75.031	75.031	2.0.10.147	2.0.10.242	2.0.10.242	1.0.0.439	7	234	2	3	Verdana	1	80	0	0	0	WM Stimuli\	0.9	1168.88888888889	0.8	839	1	909.6	1	600.9	1	959.8	1	625.9	1	873.9	1	710.1	12	316242	3	316231	27	39	316269	-999999	316245	0	24	TrialsPROC	TO_014_TOOL14_BA.png	2	2	3	SessionSelectionList														nonlure	3	Tools	2-Back	2	80	1	0	0	0	1	53	35598	3	13	75	33545	-1	33907	1	362	3	3	2053	66	35611	-67	0																3												
WM080112	135225_fnca	2	1	1	1147450501	1	75.031	75.031	2.0.10.147	2.0.10.242	2.0.10.242	1.0.0.439	7	234	2	3	Verdana	1	80	0	0	0	WM Stimuli\	0.9	1168.88888888889	0.8	839	1	909.6	1	600.9	1	959.8	1	625.9	1	873.9	1	710.1	12	316242	3	316231	27	39	316269	-999999	316245	0	24	TrialsPROC	TO_013_TOOL13_BA.png	2	2	4	SessionSelectionList														nonlure	3	Tools	2-Back	3	80	2	0	0	0	2	39	38143	3	14	59	36104	-1	36914	1	810	3	3	2039	53	38157	-54	0																4												
WM080112	135225_fnca	2	1	1	1147450501	1	75.031	75.031	2.0.10.147	2.0.10.242	2.0.10.242	1.0.0.439	7	234	2	3	Verdana	1	80	0	0	0	WM Stimuli\	0.9	1168.88888888889	0.8	839	1	909.6	1	600.9	1	959.8	1	625.9	1	873.9	1	710.1	12	316242	3	316231	27	39	316269	-999999	316245	0	24	TrialsPROC	TO_016_TOOL16_BA.png	2	2	5	SessionSelectionList														nonlure	3	Tools	2-Back	4	80	3	0	0	0	3	39	40702	2	14	59	38663	-1	39635	1	972	3	3	2039	53	40716	-54	0																5												
WM080112	135225_fnca	2	1	1	1147450501	1	75.031	75.031	2.0.10.147	2.0.10.242	2.0.10.242	1.0.0.439	7	234	2	3	Verdana	1	80	0	0	0	WM Stimuli\	0.9	1168.88888888889	0.8	839	1	909.6	1	600.9	1	959.8	1	625.9	1	873.9	1	710.1	12	316242	3	316231	27	39	316269	-999999	316245	0	24	TrialsPROC	TO_014_TOOL14_BA.png	2	2	6	SessionSelectionList														lure	3	Tools	2-Back	5	80	4	0	0	0	4	40	43275	1	13	72	41235	-1	42417	1	1182	3	3	2040	53	43288	-54	0																6												
WM080112	135225_fnca	2	1	1	1147450501	1	75.031	75.031	2.0.10.147	2.0.10.242	2.0.10.242	1.0.0.439	7	234	2	3	Verdana	1	80	0	0	0	WM Stimuli\	0.9	1168.88888888889	0.8	839	1	909.6	1	600.9	1	959.8	1	625.9	1	873.9	1	710.1	12	316242	3	316231	27	39	316269	-999999	316245	0	24	TrialsPROC	TO_016_TOOL16_BA.png	2	2	7	SessionSelectionList														target	2	Tools	2-Back	6	80	5	0	0	0	1	39	45834	1	13	60	43795	-1	44990	1	1195	2	2	2039	52	45847	-53	0																7												
WM080112	135225_fnca	2	1	1	1147450501	1	75.031	75.031	2.0.10.147	2.0.10.242	2.0.10.242	1.0.0.439	7	234	2	3	Verdana	1	80	0	0	0	WM Stimuli\	0.9	1168.88888888889	0.8	839	1	909.6	1	600.9	1	959.8	1	625.9	1	873.9	1	710.1	12	316242	3	316231	27	39	316269	-999999	316245	0	24	TrialsPROC	TO_018_TOOL18_BA.png	2	2	8	SessionSelectionList														nonlure	3	Tools	2-Back	7	80	6	0	0	0	1	40	48393	1	13	58	46353	-1	47606	1	1253	3	3	2040	53	48406	-54	0																8												
WM080112	135225_fnca	2	1	1	1147450501	1	75.031	75.031	2.0.10.147	2.0.10.242	2.0.10.242	1.0.0.439	7	234	2	3	Verdana	1	80	0	0	0	WM Stimuli\	0.9	1168.88888888889	0.8	839	1	909.6	1	600.9	1	959.8	1	625.9	1	873.9	1	710.1	12	316242	3	316231	27	39	316269	-999999	316245	0	24	TrialsPROC	TO_017_TOOL17_BA.png	2	2	9	SessionSelectionList														nonlure	3	Tools	2-Back	8	80	7	0	0	0	2	40	50952	1	13	59	48912	-1	49621	1	709	3	3	2040	53	50965	-54	0																9												
WM080112	135225_fnca	2	1	1	1147450501	1	75.031	75.031	2.0.10.147	2.0.10.242	2.0.10.242	1.0.0.439	7	234	2	3	Verdana	1	80	0	0	0	WM Stimuli\	0.9	1168.88888888889	0.8	839	1	909.6	1	600.9	1	959.8	1	625.9	1	873.9	1	710.1	12	316242	3	316231	27	39	316269	-999999	316245	0	24	TrialsPROC	TO_018_TOOL18_BA.png	2	2	10	SessionSelectionList														target	2	Tools	2-Back	9	80	8	0	0	0	1	39	53510	2	14	59	51471	-1	52225	1	754	2	2	2039	53	53524	-54	0																10												
WM080112	135225_fnca	2	1	1	1147450501	1	75.031	75.031	2.0.10.147	2.0.10.242	2.0.10.242	1.0.0.439	7	234	2	3	Verdana	1	80	0	0	0	WM Stimuli\	0.9	1168.88888888889	0.8	839	1	909.6	1	600.9	1	959.8	1	625.9	1	873.9	1	710.1	12	316242	3	316231	27	39	316269	-999999	316245	0	24	TrialsPROC	TO_015_TOOL15_BA.png	2	2	11	SessionSelectionList														nonlure	3	Tools	2-Back	10	80	9	0	0	0	1	39	56069	2	14	59	54030	-1	54639	1	609	3	3	2039	53	56083	-54	0																11												
WM080112	135225_fnca	2	1	1	1147450501	1	75.031	75.031	2.0.10.147	2.0.10.242	2.0.10.242	1.0.0.439	7	234	2	3	Verdana	1	80	0	0	0	WM Stimuli\	0.9	1168.88888888889	0.8	839	1	909.6	1	600.9	1	959.8	1	625.9	1	873.9	1	710.1	12	316242	3	316231	27	39	316269	-999999	316245	0	24	TrialsPROC	TO_017_TOOL17_BA.png	2	2	12	SessionSelectionList														lure	3	Tools	2-Back	11	80	10	0	0	0	2	39	58628	2	14	59	56589	-1	57482	1	893	3	3	2039	53	58642	-54	0																12												
WM080112	135225_fnca	2	1	1	1147450501	1	75.031	75.031	2.0.10.147	2.0.10.242	2.0.10.242	1.0.0.439	7	234	2	3	Verdana	1	80	0	0	0	WM Stimuli\	0.9	1168.88888888889	0.8	839	1	909.6	1	600.9	1	959.8	1	625.9	1	873.9	1	710.1	12	316242	3	316231	27	39	316269	-999999	316245	0	25	Cue0BackPROC	BP_013_BP7_BA.png	2	2	13	SessionSelectionList																																										19	59108	-20	0												13												
WM080112	135225_fnca	2	1	1	1147450501	1	75.031	75.031	2.0.10.147	2.0.10.242	2.0.10.242	1.0.0.439	7	234	2	3	Verdana	1	80	0	0	0	WM Stimuli\	0.9	1168.88888888889	0.8	839	1	909.6	1	600.9	1	959.8	1	625.9	1	873.9	1	710.1	12	316242	3	316231	27	39	316269	-999999	316245	0	26	TrialsPROC	BP_015_H10-T_BA.png	2	2	14	SessionSelectionList														nonlure	3	Body	0-Back	12	80	10	0	1	0	2	39	63680	1	13	52	61641	-1	0	0	0	""	3	2039	52	63693	-53	0																14												
WM080112	135225_fnca	2	1	1	1147450501	1	75.031	75.031	2.0.10.147	2.0.10.242	2.0.10.242	1.0.0.439	7	234	2	3	Verdana	1	80	0	0	0	WM Stimuli\	0.9	1168.88888888889	0.8	839	1	909.6	1	600.9	1	959.8	1	625.9	1	873.9	1	710.1	12	316242	3	316231	27	39	316269	-999999	316245	0	26	TrialsPROC	BP_018_H13-T_BA.png	2	2	15	SessionSelectionList														nonlure	3	Body	0-Back	13	80	11	0	0	50	1	39	66239	1	13	59	64200	-1	65129	1	929	3	3	2039	52	66252	-53	0																15												
WM080112	135225_fnca	2	1	1	1147450501	1	75.031	75.031	2.0.10.147	2.0.10.242	2.0.10.242	1.0.0.439	7	234	2	3	Verdana	1	80	0	0	0	WM Stimuli\	0.9	1168.88888888889	0.8	839	1	909.6	1	600.9	1	959.8	1	625.9	1	873.9	1	710.1	12	316242	3	316231	27	39	316269	-999999	316245	0	26	TrialsPROC	BP_014_BP9_BA.png	2	2	16	SessionSelectionList														nonlure	3	Body	0-Back	14	80	12	0	0	67	2	39	68797	2	14	58	66758	-1	68536	1	1778	3	3	2039	53	68811	-54	0																16												
WM080112	135225_fnca	2	1	1	1147450501	1	75.031	75.031	2.0.10.147	2.0.10.242	2.0.10.242	1.0.0.439	7	234	2	3	Verdana	1	80	0	0	0	WM Stimuli\	0.9	1168.88888888889	0.8	839	1	909.6	1	600.9	1	959.8	1	625.9	1	873.9	1	710.1	12	316242	3	316231	27	39	316269	-999999	316245	0	26	TrialsPROC	BP_018_H13-T_BA.png	2	2	17	SessionSelectionList														lure	3	Body	0-Back	15	80	13	0	0	50	1	39	71356	2	14	59	69317	-1	70586	0	1269	2	3	2039	53	71370	-54	0																17												
WM080112	135225_fnca	2	1	1	1147450501	1	75.031	75.031	2.0.10.147	2.0.10.242	2.0.10.242	1.0.0.439	7	234	2	3	Verdana	1	80	0	0	0	WM Stimuli\	0.9	1168.88888888889	0.8	839	1	909.6	1	600.9	1	959.8	1	625.9	1	873.9	1	710.1	12	316242	3	316231	27	39	316269	-999999	316245	0	26	TrialsPROC	BP_013_BP7_BA.png	2	2	18	SessionSelectionList														target	2	Body	0-Back	16	80	14	0	0	60	2	38	73915	2	14	60	71877	-1	73054	1	1177	2	2	2038	52	73929	-53	0																18												
WM080112	135225_fnca	2	1	1	1147450501	1	75.031	75.031	2.0.10.147	2.0.10.242	2.0.10.242	1.0.0.439	7	234	2	3	Verdana	1	80	0	0	0	WM Stimuli\	0.9	1168.88888888889	0.8	839	1	909.6	1	600.9	1	959.8	1	625.9	1	873.9	1	710.1	12	316242	3	316231	27	39	316269	-999999	316245	0	26	TrialsPROC	BP_015_H10-T_BA.png	2	2	19	SessionSelectionList														lure	3	Body	0-Back	17	80	15	0	0	67	1	39	76474	2	14	58	74435	-1	75199	1	764	3	3	2039	53	76488	-54	0																19												
WM080112	135225_fnca	2	1	1	1147450501	1	75.031	75.031	2.0.10.147	2.0.10.242	2.0.10.242	1.0.0.439	7	234	2	3	Verdana	1	80	0	0	0	WM Stimuli\	0.9	1168.88888888889	0.8	839	1	909.6	1	600.9	1	959.8	1	625.9	1	873.9	1	710.1	12	316242	3	316231	27	39	316269	-999999	316245	0	26	TrialsPROC	BP_016_H11-T_BA.png	2	2	20	SessionSelectionList														nonlure	3	Body	0-Back	18	80	16	0	0	71	2	40	79047	1	13	72	77007	-1	77629	1	622	3	3	2040	53	79060	-54	0																20												
WM080112	135225_fnca	2	1	1	1147450501	1	75.031	75.031	2.0.10.147	2.0.10.242	2.0.10.242	1.0.0.439	7	234	2	3	Verdana	1	80	0	0	0	WM Stimuli\	0.9	1168.88888888889	0.8	839	1	909.6	1	600.9	1	959.8	1	625.9	1	873.9	1	710.1	12	316242	3	316231	27	39	316269	-999999	316245	0	26	TrialsPROC	BP_013_BP7_BA.png	2	2	21	SessionSelectionList														target	2	Body	0-Back	19	80	17	0	0	75	1	39	81606	1	13	60	79567	-1	80104	1	537	2	2	2039	52	81619	-53	0																21												
WM080112	135225_fnca	2	1	1	1147450501	1	75.031	75.031	2.0.10.147	2.0.10.242	2.0.10.242	1.0.0.439	7	234	2	3	Verdana	1	80	0	0	0	WM Stimuli\	0.9	1168.88888888889	0.8	839	1	909.6	1	600.9	1	959.8	1	625.9	1	873.9	1	710.1	12	316242	3	316231	27	39	316269	-999999	316245	0	26	TrialsPROC	BP_017_H12-T_BA.png	2	2	22	SessionSelectionList														nonlure	3	Body	0-Back	20	80	18	0	0	78	1	38	84164	2	14	59	82126	-1	82616	1	490	3	3	2038	52	84178	-53	0																22												
WM080112	135225_fnca	2	1	1	1147450501	1	75.031	75.031	2.0.10.147	2.0.10.242	2.0.10.242	1.0.0.439	7	234	2	3	Verdana	1	80	0	0	0	WM Stimuli\	0.9	1168.88888888889	0.8	839	1	909.6	1	600.9	1	959.8	1	625.9	1	873.9	1	710.1	12	316242	3	316231	27	39	316269	-999999	316245	0	26	TrialsPROC	BP_014_BP9_BA.png	2	2	23	SessionSelectionList														lure	3	Body	0-Back	21	80	19	0	0	80	2	39	86723	2	14	58	84684	-1	85099	1	415	3	3	2039	53	86737	-54	0																23												
WM080112	135225_fnca	2	1	1	1147450501	1	75.031	75.031	2.0.10.147	2.0.10.242	2.0.10.242	1.0.0.439	7	234	2	3	Verdana	1	80	0	0	0	WM Stimuli\	0.9	1168.88888888889	0.8	839	1	909.6	1	600.9	1	959.8	1	625.9	1	873.9	1	710.1	12	316242	3	316231	27	39	316269	-999999	316245	0	27	Fix15secPROC	""	2	2	24	SessionSelectionList																																															6	87190	-7	0							24												
WM080112	135225_fnca	2	1	1	1147450501	1	75.031	75.031	2.0.10.147	2.0.10.242	2.0.10.242	1.0.0.439	7	234	2	3	Verdana	1	80	0	0	0	WM Stimuli\	0.9	1168.88888888889	0.8	839	1	909.6	1	600.9	1	959.8	1	625.9	1	873.9	1	710.1	12	316242	3	316231	27	39	316269	-999999	316245	0	28	Cue2BackPROC	""	2	2	25	SessionSelectionList									13	102197	-14	0																																													25												
WM080112	135225_fnca	2	1	1	1147450501	1	75.031	75.031	2.0.10.147	2.0.10.242	2.0.10.242	1.0.0.439	7	234	2	3	Verdana	1	80	0	0	0	WM Stimuli\	0.9	1168.88888888889	0.8	839	1	909.6	1	600.9	1	959.8	1	625.9	1	873.9	1	710.1	12	316242	3	316231	27	39	316269	-999999	316245	0	29	TrialsPROC	FC_015_M8.png	2	2	26	SessionSelectionList														nonlure	3	Face	2-Back	22	80	20	0	0	80	3	39	106795	2	14	72	104756	-1	106156	1	1400	3	3	2039	53	106809	-54	0																26												
WM080112	135225_fnca	2	1	1	1147450501	1	75.031	75.031	2.0.10.147	2.0.10.242	2.0.10.242	1.0.0.439	7	234	2	3	Verdana	1	80	0	0	0	WM Stimuli\	0.9	1168.88888888889	0.8	839	1	909.6	1	600.9	1	959.8	1	625.9	1	873.9	1	710.1	12	316242	3	316231	27	39	316269	-999999	316245	0	29	TrialsPROC	FC_018_F9.png	2	2	27	SessionSelectionList														nonlure	3	Face	2-Back	23	80	21	0	0	80	4	39	109367	2	14	72	107328	-1	108247	1	919	3	3	2039	53	109381	-54	0																27												
WM080112	135225_fnca	2	1	1	1147450501	1	75.031	75.031	2.0.10.147	2.0.10.242	2.0.10.242	1.0.0.439	7	234	2	3	Verdana	1	80	0	0	0	WM Stimuli\	0.9	1168.88888888889	0.8	839	1	909.6	1	600.9	1	959.8	1	625.9	1	873.9	1	710.1	12	316242	3	316231	27	39	316269	-999999	316245	0	29	TrialsPROC	FC_018_F9.png	2	2	28	SessionSelectionList														lure	3	Face	2-Back	24	80	22	0	0	80	5	39	111940	1	13	73	109901	-1	110823	1	922	3	3	2039	52	111953	-53	0																28												
WM080112	135225_fnca	2	1	1	1147450501	1	75.031	75.031	2.0.10.147	2.0.10.242	2.0.10.242	1.0.0.439	7	234	2	3	Verdana	1	80	0	0	0	WM Stimuli\	0.9	1168.88888888889	0.8	839	1	909.6	1	600.9	1	959.8	1	625.9	1	873.9	1	710.1	12	316242	3	316231	27	39	316269	-999999	316245	0	29	TrialsPROC	FC_017_M9.png	2	2	29	SessionSelectionList														nonlure	3	Face	2-Back	25	80	23	0	0	80	6	39	114512	1	14	72	112473	-1	113561	1	1088	3	3	2039	53	114526	-54	0																29												
WM080112	135225_fnca	2	1	1	1147450501	1	75.031	75.031	2.0.10.147	2.0.10.242	2.0.10.242	1.0.0.439	7	234	2	3	Verdana	1	80	0	0	0	WM Stimuli\	0.9	1168.88888888889	0.8	839	1	909.6	1	600.9	1	959.8	1	625.9	1	873.9	1	710.1	12	316242	3	316231	27	39	316269	-999999	316245	0	29	TrialsPROC	FC_017_M9.png	2	2	30	SessionSelectionList														lure	3	Face	2-Back	26	80	24	0	0	80	7	39	117084	2	14	72	115045	-1	116320	1	1275	3	3	2039	53	117098	-54	0																30												
WM080112	135225_fnca	2	1	1	1147450501	1	75.031	75.031	2.0.10.147	2.0.10.242	2.0.10.242	1.0.0.439	7	234	2	3	Verdana	1	80	0	0	0	WM Stimuli\	0.9	1168.88888888889	0.8	839	1	909.6	1	600.9	1	959.8	1	625.9	1	873.9	1	710.1	12	316242	3	316231	27	39	316269	-999999	316245	0	29	TrialsPROC	FC_016_F8.png	2	2	31	SessionSelectionList														nonlure	3	Face	2-Back	27	80	25	0	0	80	8	40	119657	1	13	72	117617	-1	118540	1	923	3	3	2040	53	119670	-54	0																31												
WM080112	135225_fnca	2	1	1	1147450501	1	75.031	75.031	2.0.10.147	2.0.10.242	2.0.10.242	1.0.0.439	7	234	2	3	Verdana	1	80	0	0	0	WM Stimuli\	0.9	1168.88888888889	0.8	839	1	909.6	1	600.9	1	959.8	1	625.9	1	873.9	1	710.1	12	316242	3	316231	27	39	316269	-999999	316245	0	29	TrialsPROC	FC_013_M7.png	2	2	32	SessionSelectionList														nonlure	3	Face	2-Back	28	80	26	0	0	80	9	39	122229	1	14	73	120190	-1	120994	1	804	3	3	2039	53	122243	-54	0																32												
WM080112	135225_fnca	2	1	1	1147450501	1	75.031	75.031	2.0.10.147	2.0.10.242	2.0.10.242	1.0.0.439	7	234	2	3	Verdana	1	80	0	0	0	WM Stimuli\	0.9	1168.88888888889	0.8	839	1	909.6	1	600.9	1	959.8	1	625.9	1	873.9	1	710.1	12	316242	3	316231	27	39	316269	-999999	316245	0	29	TrialsPROC	FC_014_F7.png	2	2	33	SessionSelectionList														nonlure	3	Face	2-Back	29	80	27	0	0	80	10	39	124801	2	14	72	122762	-1	123421	1	659	3	3	2039	53	124815	-54	0																33												
WM080112	135225_fnca	2	1	1	1147450501	1	75.031	75.031	2.0.10.147	2.0.10.242	2.0.10.242	1.0.0.439	7	234	2	3	Verdana	1	80	0	0	0	WM Stimuli\	0.9	1168.88888888889	0.8	839	1	909.6	1	600.9	1	959.8	1	625.9	1	873.9	1	710.1	12	316242	3	316231	27	39	316269	-999999	316245	0	29	TrialsPROC	FC_013_M7.png	2	2	34	SessionSelectionList														target	2	Face	2-Back	30	80	28	0	0	80	1	39	127373	2	14	72	125334	-1	125809	1	475	2	2	2039	53	127387	-54	0																34												
WM080112	135225_fnca	2	1	1	1147450501	1	75.031	75.031	2.0.10.147	2.0.10.242	2.0.10.242	1.0.0.439	7	234	2	3	Verdana	1	80	0	0	0	WM Stimuli\	0.9	1168.88888888889	0.8	839	1	909.6	1	600.9	1	959.8	1	625.9	1	873.9	1	710.1	12	316242	3	316231	27	39	316269	-999999	316245	0	29	TrialsPROC	FC_014_F7.png	2	2	35	SessionSelectionList														target	2	Face	2-Back	31	80	29	0	0	80	2	39	129946	1	13	73	127907	-1	128538	1	631	2	2	2039	52	129959	-53	0																35												
WM080112	135225_fnca	2	1	1	1147450501	1	75.031	75.031	2.0.10.147	2.0.10.242	2.0.10.242	1.0.0.439	7	234	2	3	Verdana	1	80	0	0	0	WM Stimuli\	0.9	1168.88888888889	0.8	839	1	909.6	1	600.9	1	959.8	1	625.9	1	873.9	1	710.1	12	316242	3	316231	27	39	316269	-999999	316245	0	30	Cue0BackPROC	TO_019_TOOL19_BA.png	2	2	36	SessionSelectionList																																										18	130425	-19	0												36												
WM080112	135225_fnca	2	1	1	1147450501	1	75.031	75.031	2.0.10.147	2.0.10.242	2.0.10.242	1.0.0.439	7	234	2	3	Verdana	1	80	0	0	0	WM Stimuli\	0.9	1168.88888888889	0.8	839	1	909.6	1	600.9	1	959.8	1	625.9	1	873.9	1	710.1	12	316242	3	316231	27	39	316269	-999999	316245	0	31	TrialsPROC	TO_019_TOOL19_BA.png	2	2	37	SessionSelectionList														target	2	Tools	0-Back	32	80	30	0	0	82	3	39	134997	1	14	51	132958	-1	134054	1	1096	2	2	2039	53	135011	-54	0																37												
WM080112	135225_fnca	2	1	1	1147450501	1	75.031	75.031	2.0.10.147	2.0.10.242	2.0.10.242	1.0.0.439	7	234	2	3	Verdana	1	80	0	0	0	WM Stimuli\	0.9	1168.88888888889	0.8	839	1	909.6	1	600.9	1	959.8	1	625.9	1	873.9	1	710.1	12	316242	3	316231	27	39	316269	-999999	316245	0	31	TrialsPROC	TO_024_TOOL24_BA.png	2	2	38	SessionSelectionList														nonlure	3	Tools	0-Back	33	80	31	0	0	83	1	39	137556	1	14	59	135517	-1	136173	1	656	3	3	2039	53	137570	-54	0																38												
WM080112	135225_fnca	2	1	1	1147450501	1	75.031	75.031	2.0.10.147	2.0.10.242	2.0.10.242	1.0.0.439	7	234	2	3	Verdana	1	80	0	0	0	WM Stimuli\	0.9	1168.88888888889	0.8	839	1	909.6	1	600.9	1	959.8	1	625.9	1	873.9	1	710.1	12	316242	3	316231	27	39	316269	-999999	316245	0	31	TrialsPROC	TO_019_TOOL19_BA.png	2	2	39	SessionSelectionList														target	2	Tools	0-Back	34	80	32	0	0	85	1	39	140115	1	14	59	138076	-1	138661	1	585	2	2	2039	53	140129	-54	0																39												
WM080112	135225_fnca	2	1	1	1147450501	1	75.031	75.031	2.0.10.147	2.0.10.242	2.0.10.242	1.0.0.439	7	234	2	3	Verdana	1	80	0	0	0	WM Stimuli\	0.9	1168.88888888889	0.8	839	1	909.6	1	600.9	1	959.8	1	625.9	1	873.9	1	710.1	12	316242	3	316231	27	39	316269	-999999	316245	0	31	TrialsPROC	TO_023_TOOL23_BA.png	2	2	40	SessionSelectionList														nonlure	3	Tools	0-Back	35	80	33	0	0	86	1	39	142674	1	13	59	140635	-1	141335	1	700	3	3	2039	52	142687	-53	0																40												
WM080112	135225_fnca	2	1	1	1147450501	1	75.031	75.031	2.0.10.147	2.0.10.242	2.0.10.242	1.0.0.439	7	234	2	3	Verdana	1	80	0	0	0	WM Stimuli\	0.9	1168.88888888889	0.8	839	1	909.6	1	600.9	1	959.8	1	625.9	1	873.9	1	710.1	12	316242	3	316231	27	39	316269	-999999	316245	0	31	TrialsPROC	TO_020_TOOL20_BA.png	2	2	41	SessionSelectionList														nonlure	3	Tools	0-Back	36	80	34	0	0	87	2	39	145233	1	13	59	143194	-1	144030	1	836	3	3	2039	52	145246	-53	0																41												
WM080112	135225_fnca	2	1	1	1147450501	1	75.031	75.031	2.0.10.147	2.0.10.242	2.0.10.242	1.0.0.439	7	234	2	3	Verdana	1	80	0	0	0	WM Stimuli\	0.9	1168.88888888889	0.8	839	1	909.6	1	600.9	1	959.8	1	625.9	1	873.9	1	710.1	12	316242	3	316231	27	39	316269	-999999	316245	0	31	TrialsPROC	TO_020_TOOL20_BA.png	2	2	42	SessionSelectionList														lure	3	Tools	0-Back	37	80	35	0	0	88	3	40	147792	1	13	58	145752	-1	146318	1	566	3	3	2040	53	147805	-54	0																42												
WM080112	135225_fnca	2	1	1	1147450501	1	75.031	75.031	2.0.10.147	2.0.10.242	2.0.10.242	1.0.0.439	7	234	2	3	Verdana	1	80	0	0	0	WM Stimuli\	0.9	1168.88888888889	0.8	839	1	909.6	1	600.9	1	959.8	1	625.9	1	873.9	1	710.1	12	316242	3	316231	27	39	316269	-999999	316245	0	31	TrialsPROC	TO_022_TOOL22_BA.png	2	2	43	SessionSelectionList														nonlure	3	Tools	0-Back	38	80	36	0	0	88	4	40	150351	1	13	59	148311	-1	149108	1	797	3	3	2040	53	150364	-54	0																43												
WM080112	135225_fnca	2	1	1	1147450501	1	75.031	75.031	2.0.10.147	2.0.10.242	2.0.10.242	1.0.0.439	7	234	2	3	Verdana	1	80	0	0	0	WM Stimuli\	0.9	1168.88888888889	0.8	839	1	909.6	1	600.9	1	959.8	1	625.9	1	873.9	1	710.1	12	316242	3	316231	27	39	316269	-999999	316245	0	31	TrialsPROC	TO_022_TOOL22_BA.png	2	2	44	SessionSelectionList														lure	3	Tools	0-Back	39	80	37	0	0	89	5	40	152910	1	13	59	150870	-1	151457	1	587	3	3	2040	53	152923	-54	0																44												
WM080112	135225_fnca	2	1	1	1147450501	1	75.031	75.031	2.0.10.147	2.0.10.242	2.0.10.242	1.0.0.439	7	234	2	3	Verdana	1	80	0	0	0	WM Stimuli\	0.9	1168.88888888889	0.8	839	1	909.6	1	600.9	1	959.8	1	625.9	1	873.9	1	710.1	12	316242	3	316231	27	39	316269	-999999	316245	0	31	TrialsPROC	TO_021_TOOL21_BA.png	2	2	45	SessionSelectionList														nonlure	3	Tools	0-Back	40	80	38	0	0	89	6	40	155469	1	13	59	153429	-1	154161	1	732	3	3	2040	53	155482	-54	0																45												
WM080112	135225_fnca	2	1	1	1147450501	1	75.031	75.031	2.0.10.147	2.0.10.242	2.0.10.242	1.0.0.439	7	234	2	3	Verdana	1	80	0	0	0	WM Stimuli\	0.9	1168.88888888889	0.8	839	1	909.6	1	600.9	1	959.8	1	625.9	1	873.9	1	710.1	12	316242	3	316231	27	39	316269	-999999	316245	0	31	TrialsPROC	TO_021_TOOL21_BA.png	2	2	46	SessionSelectionList														lure	3	Tools	0-Back	41	80	39	0	0	90	7	39	158027	2	14	59	155988	-1	156534	1	546	3	3	2039	53	158041	-54	0																46												
WM080112	135225_fnca	2	1	1	1147450501	1	75.031	75.031	2.0.10.147	2.0.10.242	2.0.10.242	1.0.0.439	7	234	2	3	Verdana	1	80	0	0	0	WM Stimuli\	0.9	1168.88888888889	0.8	839	1	909.6	1	600.9	1	959.8	1	625.9	1	873.9	1	710.1	12	316242	3	316231	27	39	316269	-999999	316245	0	32	Fix15secPROC	""	2	2	47	SessionSelectionList																																															6	158494	-7	0							47												
WM080112	135225_fnca	2	1	1	1147450501	1	75.031	75.031	2.0.10.147	2.0.10.242	2.0.10.242	1.0.0.439	7	234	2	3	Verdana	1	80	0	0	0	WM Stimuli\	0.9	1168.88888888889	0.8	839	1	909.6	1	600.9	1	959.8	1	625.9	1	873.9	1	710.1	12	316242	3	316231	27	39	316269	-999999	316245	0	33	Cue2BackPROC	""	2	2	48	SessionSelectionList									13	173501	-14	0																																													48												
WM080112	135225_fnca	2	1	1	1147450501	1	75.031	75.031	2.0.10.147	2.0.10.242	2.0.10.242	1.0.0.439	7	234	2	3	Verdana	1	80	0	0	0	WM Stimuli\	0.9	1168.88888888889	0.8	839	1	909.6	1	600.9	1	959.8	1	625.9	1	873.9	1	710.1	12	316242	3	316231	27	39	316269	-999999	316245	0	34	TrialsPROC	BP_020_H17-T_BA.png	2	2	49	SessionSelectionList														nonlure	3	Body	2-Back	42	80	40	0	0	90	8	39	178086	1	14	59	176047	-1	177124	1	1077	3	3	2039	53	178100	-54	0																49												
WM080112	135225_fnca	2	1	1	1147450501	1	75.031	75.031	2.0.10.147	2.0.10.242	2.0.10.242	1.0.0.439	7	234	2	3	Verdana	1	80	0	0	0	WM Stimuli\	0.9	1168.88888888889	0.8	839	1	909.6	1	600.9	1	959.8	1	625.9	1	873.9	1	710.1	12	316242	3	316231	27	39	316269	-999999	316245	0	34	TrialsPROC	BP_019_H14-T_BA.png	2	2	50	SessionSelectionList														nonlure	3	Body	2-Back	43	80	41	0	0	90	9	39	180645	1	13	59	178606	-1	179755	1	1149	3	3	2039	52	180658	-53	0																50												
WM080112	135225_fnca	2	1	1	1147450501	1	75.031	75.031	2.0.10.147	2.0.10.242	2.0.10.242	1.0.0.439	7	234	2	3	Verdana	1	80	0	0	0	WM Stimuli\	0.9	1168.88888888889	0.8	839	1	909.6	1	600.9	1	959.8	1	625.9	1	873.9	1	710.1	12	316242	3	316231	27	39	316269	-999999	316245	0	34	TrialsPROC	BP_020_H17-T_BA.png	2	2	51	SessionSelectionList														target	2	Body	2-Back	44	80	42	0	0	90	1	39	183204	1	13	59	181165	-1	181814	1	649	2	2	2039	52	183217	-53	0																51												
WM080112	135225_fnca	2	1	1	1147450501	1	75.031	75.031	2.0.10.147	2.0.10.242	2.0.10.242	1.0.0.439	7	234	2	3	Verdana	1	80	0	0	0	WM Stimuli\	0.9	1168.88888888889	0.8	839	1	909.6	1	600.9	1	959.8	1	625.9	1	873.9	1	710.1	12	316242	3	316231	27	39	316269	-999999	316245	0	34	TrialsPROC	BP_019_H14-T_BA.png	2	2	52	SessionSelectionList														target	2	Body	2-Back	45	80	43	0	0	90	2	39	185763	1	13	59	183724	-1	184555	1	831	2	2	2039	52	185776	-53	0																52												
WM080112	135225_fnca	2	1	1	1147450501	1	75.031	75.031	2.0.10.147	2.0.10.242	2.0.10.242	1.0.0.439	7	234	2	3	Verdana	1	80	0	0	0	WM Stimuli\	0.9	1168.88888888889	0.8	839	1	909.6	1	600.9	1	959.8	1	625.9	1	873.9	1	710.1	12	316242	3	316231	27	39	316269	-999999	316245	0	34	TrialsPROC	BP_024_H3-T_BA.png	2	2	53	SessionSelectionList														nonlure	3	Body	2-Back	46	80	44	0	0	90	1	39	188322	1	13	59	186283	-1	188030	1	1747	3	3	2039	52	188335	-53	0																53												
WM080112	135225_fnca	2	1	1	1147450501	1	75.031	75.031	2.0.10.147	2.0.10.242	2.0.10.242	1.0.0.439	7	234	2	3	Verdana	1	80	0	0	0	WM Stimuli\	0.9	1168.88888888889	0.8	839	1	909.6	1	600.9	1	959.8	1	625.9	1	873.9	1	710.1	12	316242	3	316231	27	39	316269	-999999	316245	0	34	TrialsPROC	BP_024_H3-T_BA.png	2	2	54	SessionSelectionList														lure	3	Body	2-Back	47	80	45	0	0	90	2	39	190881	1	13	59	188842	-1	190360	1	1518	3	3	2039	52	190894	-53	0																54												
WM080112	135225_fnca	2	1	1	1147450501	1	75.031	75.031	2.0.10.147	2.0.10.242	2.0.10.242	1.0.0.439	7	234	2	3	Verdana	1	80	0	0	0	WM Stimuli\	0.9	1168.88888888889	0.8	839	1	909.6	1	600.9	1	959.8	1	625.9	1	873.9	1	710.1	12	316242	3	316231	27	39	316269	-999999	316245	0	34	TrialsPROC	BP_025_H5-T_BA.png	2	2	55	SessionSelectionList														nonlure	3	Body	2-Back	48	80	46	0	0	90	3	39	193440	1	13	59	191401	-1	193141	1	1740	3	3	2039	52	193453	-53	0																55												
WM080112	135225_fnca	2	1	1	1147450501	1	75.031	75.031	2.0.10.147	2.0.10.242	2.0.10.242	1.0.0.439	7	234	2	3	Verdana	1	80	0	0	0	WM Stimuli\	0.9	1168.88888888889	0.8	839	1	909.6	1	600.9	1	959.8	1	625.9	1	873.9	1	710.1	12	316242	3	316231	27	39	316269	-999999	316245	0	34	TrialsPROC	BP_023_H25-T_BA.png	2	2	56	SessionSelectionList														nonlure	3	Body	2-Back	49	80	46	0	1	90	3	39	195999	1	13	59	193960	-1	0	0	0	""	3	2039	52	196012	-53	0																56												
WM080112	135225_fnca	2	1	1	1147450501	1	75.031	75.031	2.0.10.147	2.0.10.242	2.0.10.242	1.0.0.439	7	234	2	3	Verdana	1	80	0	0	0	WM Stimuli\	0.9	1168.88888888889	0.8	839	1	909.6	1	600.9	1	959.8	1	625.9	1	873.9	1	710.1	12	316242	3	316231	27	39	316269	-999999	316245	0	34	TrialsPROC	BP_022_H24-T_BA.png	2	2	57	SessionSelectionList														nonlure	3	Body	2-Back	50	80	47	0	0	90	1	39	198557	2	14	58	196518	-1	197295	1	777	3	3	2039	53	198571	-54	0																57												
WM080112	135225_fnca	2	1	1	1147450501	1	75.031	75.031	2.0.10.147	2.0.10.242	2.0.10.242	1.0.0.439	7	234	2	3	Verdana	1	80	0	0	0	WM Stimuli\	0.9	1168.88888888889	0.8	839	1	909.6	1	600.9	1	959.8	1	625.9	1	873.9	1	710.1	12	316242	3	316231	27	39	316269	-999999	316245	0	34	TrialsPROC	BP_022_H24-T_BA.png	2	2	58	SessionSelectionList														lure	3	Body	2-Back	51	80	48	0	0	90	2	39	201116	2	14	59	199077	-1	200109	1	1032	3	3	2039	53	201130	-54	0																58												
WM080112	135225_fnca	2	1	1	1147450501	1	75.031	75.031	2.0.10.147	2.0.10.242	2.0.10.242	1.0.0.439	7	234	2	3	Verdana	1	80	0	0	0	WM Stimuli\	0.9	1168.88888888889	0.8	839	1	909.6	1	600.9	1	959.8	1	625.9	1	873.9	1	710.1	12	316242	3	316231	27	39	316269	-999999	316245	0	35	Cue2BackPROC	""	2	2	59	SessionSelectionList									6	201583	-7	0																																													59												
WM080112	135225_fnca	2	1	1	1147450501	1	75.031	75.031	2.0.10.147	2.0.10.242	2.0.10.242	1.0.0.439	7	234	2	3	Verdana	1	80	0	0	0	WM Stimuli\	0.9	1168.88888888889	0.8	839	1	909.6	1	600.9	1	959.8	1	625.9	1	873.9	1	710.1	12	316242	3	316231	27	39	316269	-999999	316245	0	36	TrialsPROC	PL_019_SCENE_05.png	2	2	60	SessionSelectionList														nonlure	3	Place	2-Back	52	80	49	0	0	90	3	39	206181	1	14	65	204142	-1	205636	1	1494	3	3	2039	53	206195	-54	0																60												
WM080112	135225_fnca	2	1	1	1147450501	1	75.031	75.031	2.0.10.147	2.0.10.242	2.0.10.242	1.0.0.439	7	234	2	3	Verdana	1	80	0	0	0	WM Stimuli\	0.9	1168.88888888889	0.8	839	1	909.6	1	600.9	1	959.8	1	625.9	1	873.9	1	710.1	12	316242	3	316231	27	39	316269	-999999	316245	0	36	TrialsPROC	PL_017_SCENE_03.png	2	2	61	SessionSelectionList														nonlure	3	Place	2-Back	53	80	50	0	0	90	4	39	208753	2	14	72	206714	-1	207518	1	804	3	3	2039	53	208767	-54	0																61												
WM080112	135225_fnca	2	1	1	1147450501	1	75.031	75.031	2.0.10.147	2.0.10.242	2.0.10.242	1.0.0.439	7	234	2	3	Verdana	1	80	0	0	0	WM Stimuli\	0.9	1168.88888888889	0.8	839	1	909.6	1	600.9	1	959.8	1	625.9	1	873.9	1	710.1	12	316242	3	316231	27	39	316269	-999999	316245	0	36	TrialsPROC	PL_017_SCENE_03.png	2	2	62	SessionSelectionList														lure	3	Place	2-Back	54	80	51	0	0	90	5	40	211326	1	13	72	209286	-1	210024	1	738	3	3	2040	53	211339	-54	0																62												
WM080112	135225_fnca	2	1	1	1147450501	1	75.031	75.031	2.0.10.147	2.0.10.242	2.0.10.242	1.0.0.439	7	234	2	3	Verdana	1	80	0	0	0	WM Stimuli\	0.9	1168.88888888889	0.8	839	1	909.6	1	600.9	1	959.8	1	625.9	1	873.9	1	710.1	12	316242	3	316231	27	39	316269	-999999	316245	0	36	TrialsPROC	PL_016_SCENE_02.png	2	2	63	SessionSelectionList														nonlure	3	Place	2-Back	55	80	52	0	0	90	6	39	213898	1	13	73	211859	-1	212588	1	729	3	3	2039	52	213911	-53	0																63												
WM080112	135225_fnca	2	1	1	1147450501	1	75.031	75.031	2.0.10.147	2.0.10.242	2.0.10.242	1.0.0.439	7	234	2	3	Verdana	1	80	0	0	0	WM Stimuli\	0.9	1168.88888888889	0.8	839	1	909.6	1	600.9	1	959.8	1	625.9	1	873.9	1	710.1	12	316242	3	316231	27	39	316269	-999999	316245	0	36	TrialsPROC	PL_015_SCENE_01.png	2	2	64	SessionSelectionList														nonlure	3	Place	2-Back	56	80	53	0	0	90	7	39	216470	1	14	72	214431	-1	215255	1	824	3	3	2039	53	216484	-54	0																64												
WM080112	135225_fnca	2	1	1	1147450501	1	75.031	75.031	2.0.10.147	2.0.10.242	2.0.10.242	1.0.0.439	7	234	2	3	Verdana	1	80	0	0	0	WM Stimuli\	0.9	1168.88888888889	0.8	839	1	909.6	1	600.9	1	959.8	1	625.9	1	873.9	1	710.1	12	316242	3	316231	27	39	316269	-999999	316245	0	36	TrialsPROC	PL_016_SCENE_02.png	2	2	65	SessionSelectionList														target	2	Place	2-Back	57	80	54	0	0	90	1	39	219042	2	14	72	217003	-1	217829	1	826	2	2	2039	53	219056	-54	0																65												
WM080112	135225_fnca	2	1	1	1147450501	1	75.031	75.031	2.0.10.147	2.0.10.242	2.0.10.242	1.0.0.439	7	234	2	3	Verdana	1	80	0	0	0	WM Stimuli\	0.9	1168.88888888889	0.8	839	1	909.6	1	600.9	1	959.8	1	625.9	1	873.9	1	710.1	12	316242	3	316231	27	39	316269	-999999	316245	0	36	TrialsPROC	PL_015_SCENE_01.png	2	2	66	SessionSelectionList														target	2	Place	2-Back	58	80	55	0	0	90	2	40	221615	1	13	72	219575	-1	220068	1	493	2	2	2040	53	221628	-54	0																66												
WM080112	135225_fnca	2	1	1	1147450501	1	75.031	75.031	2.0.10.147	2.0.10.242	2.0.10.242	1.0.0.439	7	234	2	3	Verdana	1	80	0	0	0	WM Stimuli\	0.9	1168.88888888889	0.8	839	1	909.6	1	600.9	1	959.8	1	625.9	1	873.9	1	710.1	12	316242	3	316231	27	39	316269	-999999	316245	0	36	TrialsPROC	PL_020_SCENE_06.png	2	2	67	SessionSelectionList														nonlure	3	Place	2-Back	59	80	56	0	0	90	1	39	224187	1	14	73	222148	-1	223942	1	1794	3	3	2039	53	224201	-54	0																67												
WM080112	135225_fnca	2	1	1	1147450501	1	75.031	75.031	2.0.10.147	2.0.10.242	2.0.10.242	1.0.0.439	7	234	2	3	Verdana	1	80	0	0	0	WM Stimuli\	0.9	1168.88888888889	0.8	839	1	909.6	1	600.9	1	959.8	1	625.9	1	873.9	1	710.1	12	316242	3	316231	27	39	316269	-999999	316245	0	36	TrialsPROC	PL_020_SCENE_06.png	2	2	68	SessionSelectionList														lure	3	Place	2-Back	60	80	57	0	0	90	2	39	226759	3	14	72	224720	-1	225601	1	881	3	3	2039	53	226773	-54	0																68												
WM080112	135225_fnca	2	1	1	1147450501	1	75.031	75.031	2.0.10.147	2.0.10.242	2.0.10.242	1.0.0.439	7	234	2	3	Verdana	1	80	0	0	0	WM Stimuli\	0.9	1168.88888888889	0.8	839	1	909.6	1	600.9	1	959.8	1	625.9	1	873.9	1	710.1	12	316242	3	316231	27	39	316269	-999999	316245	0	36	TrialsPROC	PL_018_SCENE_04.png	2	2	69	SessionSelectionList														nonlure	3	Place	2-Back	61	80	58	0	0	90	3	39	229331	2	14	72	227292	-1	228307	1	1015	3	3	2039	53	229345	-54	0																69												
WM080112	135225_fnca	2	1	1	1147450501	1	75.031	75.031	2.0.10.147	2.0.10.242	2.0.10.242	1.0.0.439	7	234	2	3	Verdana	1	80	0	0	0	WM Stimuli\	0.9	1168.88888888889	0.8	839	1	909.6	1	600.9	1	959.8	1	625.9	1	873.9	1	710.1	12	316242	3	316231	27	39	316269	-999999	316245	0	37	Fix15secPROC	""	2	2	70	SessionSelectionList																																															6	229798	-7	0							70												
WM080112	135225_fnca	2	1	1	1147450501	1	75.031	75.031	2.0.10.147	2.0.10.242	2.0.10.242	1.0.0.439	7	234	2	3	Verdana	1	80	0	0	0	WM Stimuli\	0.9	1168.88888888889	0.8	839	1	909.6	1	600.9	1	959.8	1	625.9	1	873.9	1	710.1	12	316242	3	316231	27	39	316269	-999999	316245	0	38	Cue0BackPROC	FC_020_F10.png	2	2	71	SessionSelectionList																																										14	244806	-15	0												71												
WM080112	135225_fnca	2	1	1	1147450501	1	75.031	75.031	2.0.10.147	2.0.10.242	2.0.10.242	1.0.0.439	7	234	2	3	Verdana	1	80	0	0	0	WM Stimuli\	0.9	1168.88888888889	0.8	839	1	909.6	1	600.9	1	959.8	1	625.9	1	873.9	1	710.1	12	316242	3	316231	27	39	316269	-999999	316245	0	39	TrialsPROC	FC_024_F12.png	2	2	72	SessionSelectionList														nonlure	3	Face	0-Back	62	80	59	0	0	90	4	39	249403	3	14	72	247364	-1	248453	1	1089	3	3	2039	53	249417	-54	0																72												
WM080112	135225_fnca	2	1	1	1147450501	1	75.031	75.031	2.0.10.147	2.0.10.242	2.0.10.242	1.0.0.439	7	234	2	3	Verdana	1	80	0	0	0	WM Stimuli\	0.9	1168.88888888889	0.8	839	1	909.6	1	600.9	1	959.8	1	625.9	1	873.9	1	710.1	12	316242	3	316231	27	39	316269	-999999	316245	0	39	TrialsPROC	FC_023_M12.png	2	2	73	SessionSelectionList														nonlure	3	Face	0-Back	63	80	60	0	0	91	5	39	251975	2	14	72	249936	-1	250460	1	524	3	3	2039	53	251989	-54	0																73												
WM080112	135225_fnca	2	1	1	1147450501	1	75.031	75.031	2.0.10.147	2.0.10.242	2.0.10.242	1.0.0.439	7	234	2	3	Verdana	1	80	0	0	0	WM Stimuli\	0.9	1168.88888888889	0.8	839	1	909.6	1	600.9	1	959.8	1	625.9	1	873.9	1	710.1	12	316242	3	316231	27	39	316269	-999999	316245	0	39	TrialsPROC	FC_020_F10.png	2	2	74	SessionSelectionList														target	2	Face	0-Back	64	80	61	0	0	91	1	39	254548	1	13	73	252509	-1	253149	1	640	2	2	2039	52	254561	-53	0																74												
WM080112	135225_fnca	2	1	1	1147450501	1	75.031	75.031	2.0.10.147	2.0.10.242	2.0.10.242	1.0.0.439	7	234	2	3	Verdana	1	80	0	0	0	WM Stimuli\	0.9	1168.88888888889	0.8	839	1	909.6	1	600.9	1	959.8	1	625.9	1	873.9	1	710.1	12	316242	3	316231	27	39	316269	-999999	316245	0	39	TrialsPROC	FC_024_F12.png	2	2	75	SessionSelectionList														lure	3	Face	0-Back	65	80	62	0	0	92	1	39	257120	2	14	72	255081	-1	256088	1	1007	3	3	2039	53	257134	-54	0																75												
WM080112	135225_fnca	2	1	1	1147450501	1	75.031	75.031	2.0.10.147	2.0.10.242	2.0.10.242	1.0.0.439	7	234	2	3	Verdana	1	80	0	0	0	WM Stimuli\	0.9	1168.88888888889	0.8	839	1	909.6	1	600.9	1	959.8	1	625.9	1	873.9	1	710.1	12	316242	3	316231	27	39	316269	-999999	316245	0	39	TrialsPROC	FC_020_F10.png	2	2	76	SessionSelectionList														target	2	Face	0-Back	66	80	63	0	0	92	1	39	259692	2	14	72	257653	-1	258227	1	574	2	2	2039	53	259706	-54	0																76												
WM080112	135225_fnca	2	1	1	1147450501	1	75.031	75.031	2.0.10.147	2.0.10.242	2.0.10.242	1.0.0.439	7	234	2	3	Verdana	1	80	0	0	0	WM Stimuli\	0.9	1168.88888888889	0.8	839	1	909.6	1	600.9	1	959.8	1	625.9	1	873.9	1	710.1	12	316242	3	316231	27	39	316269	-999999	316245	0	39	TrialsPROC	FC_022_F11.png	2	2	77	SessionSelectionList														nonlure	3	Face	0-Back	67	80	64	0	0	92	1	40	262265	1	13	72	260225	-1	260653	1	428	3	3	2040	53	262278	-54	0																77												
WM080112	135225_fnca	2	1	1	1147450501	1	75.031	75.031	2.0.10.147	2.0.10.242	2.0.10.242	1.0.0.439	7	234	2	3	Verdana	1	80	0	0	0	WM Stimuli\	0.9	1168.88888888889	0.8	839	1	909.6	1	600.9	1	959.8	1	625.9	1	873.9	1	710.1	12	316242	3	316231	27	39	316269	-999999	316245	0	39	TrialsPROC	FC_023_M12.png	2	2	78	SessionSelectionList														lure	3	Face	0-Back	68	80	65	0	0	93	2	39	264837	1	14	73	262798	-1	263344	1	546	3	3	2039	53	264851	-54	0																78												
WM080112	135225_fnca	2	1	1	1147450501	1	75.031	75.031	2.0.10.147	2.0.10.242	2.0.10.242	1.0.0.439	7	234	2	3	Verdana	1	80	0	0	0	WM Stimuli\	0.9	1168.88888888889	0.8	839	1	909.6	1	600.9	1	959.8	1	625.9	1	873.9	1	710.1	12	316242	3	316231	27	39	316269	-999999	316245	0	39	TrialsPROC	FC_021_M11.png	2	2	79	SessionSelectionList														nonlure	3	Face	0-Back	69	80	66	0	0	93	3	39	267409	2	14	72	265370	-1	265770	1	400	3	3	2039	53	267423	-54	0																79												
WM080112	135225_fnca	2	1	1	1147450501	1	75.031	75.031	2.0.10.147	2.0.10.242	2.0.10.242	1.0.0.439	7	234	2	3	Verdana	1	80	0	0	0	WM Stimuli\	0.9	1168.88888888889	0.8	839	1	909.6	1	600.9	1	959.8	1	625.9	1	873.9	1	710.1	12	316242	3	316231	27	39	316269	-999999	316245	0	39	TrialsPROC	FC_021_M11.png	2	2	80	SessionSelectionList														lure	3	Face	0-Back	70	80	67	0	0	93	4	39	269981	2	14	72	267942	-1	268322	1	380	3	3	2039	53	269995	-54	0																80												
WM080112	135225_fnca	2	1	1	1147450501	1	75.031	75.031	2.0.10.147	2.0.10.242	2.0.10.242	1.0.0.439	7	234	2	3	Verdana	1	80	0	0	0	WM Stimuli\	0.9	1168.88888888889	0.8	839	1	909.6	1	600.9	1	959.8	1	625.9	1	873.9	1	710.1	12	316242	3	316231	27	39	316269	-999999	316245	0	39	TrialsPROC	FC_019_M10.png	2	2	81	SessionSelectionList														nonlure	3	Face	0-Back	71	80	68	0	0	93	5	39	272554	1	13	73	270515	-1	270936	1	421	3	3	2039	52	272567	-53	0																81												
WM080112	135225_fnca	2	1	1	1147450501	1	75.031	75.031	2.0.10.147	2.0.10.242	2.0.10.242	1.0.0.439	7	234	2	3	Verdana	1	80	0	0	0	WM Stimuli\	0.9	1168.88888888889	0.8	839	1	909.6	1	600.9	1	959.8	1	625.9	1	873.9	1	710.1	12	316242	3	316231	27	39	316269	-999999	316245	0	40	Cue0BackPROC	PL_021_SCENE_07.png	2	2	82	SessionSelectionList																																										19	273034	-20	0												82												
WM080112	135225_fnca	2	1	1	1147450501	1	75.031	75.031	2.0.10.147	2.0.10.242	2.0.10.242	1.0.0.439	7	234	2	3	Verdana	1	80	0	0	0	WM Stimuli\	0.9	1168.88888888889	0.8	839	1	909.6	1	600.9	1	959.8	1	625.9	1	873.9	1	710.1	12	316242	3	316231	27	39	316269	-999999	316245	0	41	TrialsPROC	PL_025_SCENE_18.png	2	2	83	SessionSelectionList														nonlure	3	Place	0-Back	72	80	69	0	0	94	6	39	277618	2	14	64	275579	-1	276355	1	776	3	3	2039	53	277632	-54	0																83												
WM080112	135225_fnca	2	1	1	1147450501	1	75.031	75.031	2.0.10.147	2.0.10.242	2.0.10.242	1.0.0.439	7	234	2	3	Verdana	1	80	0	0	0	WM Stimuli\	0.9	1168.88888888889	0.8	839	1	909.6	1	600.9	1	959.8	1	625.9	1	873.9	1	710.1	12	316242	3	316231	27	39	316269	-999999	316245	0	41	TrialsPROC	PL_026_SCENE_24.png	2	2	84	SessionSelectionList														nonlure	3	Place	0-Back	73	80	70	0	0	94	7	40	280191	1	13	72	278151	-1	278850	1	699	3	3	2040	53	280204	-54	0																84												
WM080112	135225_fnca	2	1	1	1147450501	1	75.031	75.031	2.0.10.147	2.0.10.242	2.0.10.242	1.0.0.439	7	234	2	3	Verdana	1	80	0	0	0	WM Stimuli\	0.9	1168.88888888889	0.8	839	1	909.6	1	600.9	1	959.8	1	625.9	1	873.9	1	710.1	12	316242	3	316231	27	39	316269	-999999	316245	0	41	TrialsPROC	PL_025_SCENE_18.png	2	2	85	SessionSelectionList														lure	3	Place	0-Back	74	80	71	0	0	94	8	39	282763	1	13	73	280724	-1	281252	1	528	3	3	2039	52	282776	-53	0																85												
WM080112	135225_fnca	2	1	1	1147450501	1	75.031	75.031	2.0.10.147	2.0.10.242	2.0.10.242	1.0.0.439	7	234	2	3	Verdana	1	80	0	0	0	WM Stimuli\	0.9	1168.88888888889	0.8	839	1	909.6	1	600.9	1	959.8	1	625.9	1	873.9	1	710.1	12	316242	3	316231	27	39	316269	-999999	316245	0	41	TrialsPROC	PL_022_SCENE_08.png	2	2	86	SessionSelectionList														nonlure	3	Place	0-Back	75	80	72	0	0	94	9	39	285335	2	14	72	283296	-1	283798	1	502	3	3	2039	53	285349	-54	0																86												
WM080112	135225_fnca	2	1	1	1147450501	1	75.031	75.031	2.0.10.147	2.0.10.242	2.0.10.242	1.0.0.439	7	234	2	3	Verdana	1	80	0	0	0	WM Stimuli\	0.9	1168.88888888889	0.8	839	1	909.6	1	600.9	1	959.8	1	625.9	1	873.9	1	710.1	12	316242	3	316231	27	39	316269	-999999	316245	0	41	TrialsPROC	PL_026_SCENE_24.png	2	2	87	SessionSelectionList														lure	3	Place	0-Back	76	80	73	0	0	94	10	39	287907	2	14	72	285868	-1	286485	1	617	3	3	2039	53	287921	-54	0																87												
WM080112	135225_fnca	2	1	1	1147450501	1	75.031	75.031	2.0.10.147	2.0.10.242	2.0.10.242	1.0.0.439	7	234	2	3	Verdana	1	80	0	0	0	WM Stimuli\	0.9	1168.88888888889	0.8	839	1	909.6	1	600.9	1	959.8	1	625.9	1	873.9	1	710.1	12	316242	3	316231	27	39	316269	-999999	316245	0	41	TrialsPROC	PL_021_SCENE_07.png	2	2	88	SessionSelectionList														target	2	Place	0-Back	77	80	74	0	0	94	1	40	290480	1	13	72	288440	-1	288979	1	539	2	2	2040	53	290493	-54	0																88												
WM080112	135225_fnca	2	1	1	1147450501	1	75.031	75.031	2.0.10.147	2.0.10.242	2.0.10.242	1.0.0.439	7	234	2	3	Verdana	1	80	0	0	0	WM Stimuli\	0.9	1168.88888888889	0.8	839	1	909.6	1	600.9	1	959.8	1	625.9	1	873.9	1	710.1	12	316242	3	316231	27	39	316269	-999999	316245	0	41	TrialsPROC	PL_021_SCENE_07.png	2	2	89	SessionSelectionList														target	2	Place	0-Back	78	80	75	0	0	95	2	39	293052	1	14	73	291013	-1	291741	1	728	2	2	2039	53	293066	-54	0																89												
WM080112	135225_fnca	2	1	1	1147450501	1	75.031	75.031	2.0.10.147	2.0.10.242	2.0.10.242	1.0.0.439	7	234	2	3	Verdana	1	80	0	0	0	WM Stimuli\	0.9	1168.88888888889	0.8	839	1	909.6	1	600.9	1	959.8	1	625.9	1	873.9	1	710.1	12	316242	3	316231	27	39	316269	-999999	316245	0	41	TrialsPROC	PL_023_SCENE_09.png	2	2	90	SessionSelectionList														nonlure	3	Place	0-Back	79	80	76	0	0	95	1	39	295624	2	14	72	293585	-1	294208	1	623	3	3	2039	53	295638	-54	0																90												
WM080112	135225_fnca	2	1	1	1147450501	1	75.031	75.031	2.0.10.147	2.0.10.242	2.0.10.242	1.0.0.439	7	234	2	3	Verdana	1	80	0	0	0	WM Stimuli\	0.9	1168.88888888889	0.8	839	1	909.6	1	600.9	1	959.8	1	625.9	1	873.9	1	710.1	12	316242	3	316231	27	39	316269	-999999	316245	0	41	TrialsPROC	PL_024_SCENE_10.png	2	2	91	SessionSelectionList														nonlure	3	Place	0-Back	80	80	77	0	0	95	2	39	298196	2	14	72	296157	-1	296791	1	634	3	3	2039	53	298210	-54	0																91												
WM080112	135225_fnca	2	1	1	1147450501	1	75.031	75.031	2.0.10.147	2.0.10.242	2.0.10.242	1.0.0.439	7	234	2	3	Verdana	1	80	0	0	0	WM Stimuli\	0.9	1168.88888888889	0.8	839	1	909.6	1	600.9	1	959.8	1	625.9	1	873.9	1	710.1	12	316242	3	316231	27	39	316269	-999999	316245	0	41	TrialsPROC	PL_022_SCENE_08.png	2	2	92	SessionSelectionList														lure	3	Place	0-Back	80	80	78	0	0	95	3	39	300769	1	13	73	298730	-1	299343	1	613	3	3	2039	52	300782	-53	0																92												
WM080112	135225_fnca	2	1	1	1147450501	1	75.031	75.031	2.0.10.147	2.0.10.242	2.0.10.242	1.0.0.439	7	234	2	3	Verdana	1	80	0	0	0	WM Stimuli\	0.9	1168.88888888889	0.8	839	1	909.6	1	600.9	1	959.8	1	625.9	1	873.9	1	710.1	12	316242	3	316231	27	39	316269	-999999	316245	0	42	Fix15secPROC	""	2	2	93	SessionSelectionList																																															6	301236	-7	0							93												
