ExperimentName	HCPID	RunNumber	Subject	Session	RandomSeed	Group	Laptop.RefreshRate	ScannerD2.RefreshRate	StudioVersion	RuntimeVersion	RuntimeVersionExpected	ExperimentVersion	triggercode	Allowed	Target	Nontarget	FontStyle	RunTrialNumber[Session]	TrialsPerRun[Session]	TotalRespGreater200[Session]	ConsecRTLess200[Session]	ConsecNonResp[Session]	StimuliDir	ACC_2_Back_Body	Avg_RT_For_Correct_Trials_2_Back_Body	ACC_0_Back_Body	Avg_RT_For_Correct_Trials_0_Back_Body	ACC_2_Back_Face	Avg_RT_For_Correct_Trials_2_Back_Face	ACC_0_Back_Face	Avg_RT_For_Correct_Trials_0_Back_Face	ACC_2_Back_Place	Avg_RT_For_Correct_Trials_2_Back_Place	ACC_0_Back_Place	Avg_RT_For_Correct_Trials_0_Back_Place	ACC_2_Back_Tools	Avg_RT_For_Correct_Trials_2_Back_Tools	ACC_0_Back_Tools	Avg_RT_For_Correct_Trials_0_Back_Tools	ExpInstrucFeelFreeToRest.OnsetDelay	ExpInstrucFeelFreeToRest.OnsetTime	ExpInstrucFeelFreeToRest.DurationError	ExpInstrucFeelFreeToRest.StartTime	ExpInstrucFeelFreeToRest.OnsetToOnsetTime	FeelFreeToRest.OnsetDelay	FeelFreeToRest.OnsetTime	FeelFreeToRest.DurationError	FeelFreeToRest.StartTime	FeelFreeToRest.OnsetToOnsetTime	SessionSelectionList	Procedure[Block]	Stimulus[Block]	RunNumberFilterValue	SessionSelectionList.Cycle	SessionSelectionList.Sample	Running[Block]	IntroButtonMap.OnsetDelay	IntroButtonMap.OnsetTime	IntroButtonMap.DurationError	IntroButtonMap.OnsetToOnsetTime	GetReady.OnsetDelay	GetReady.OnsetTime	GetReady.DurationError	GetReady.OnsetToOnsetTime	Cue2Back.OnsetDelay	Cue2Back.OnsetTime	Cue2Back.DurationError	Cue2Back.OnsetToOnsetTime	Run1Block1	TargetType	CorrectResponse	StimType	BlockType	RunTrialNumber[Block]	TrialsPerRun[Block]	TotalRespGreater200[Block]	ConsecRTLess200[Block]	ConsecNonResp[Block]	ControlAcc	ConsecSameResp	ExperimenterWindow.OnsetDelay	ExperimenterWindow.OnsetTime	ExperimenterWindow.DurationError	ExperimenterWindow.OnsetToOnsetTime	Stim.OnsetDelay	Stim.OnsetTime	Stim.DurationError	Stim.RTTime	Stim.ACC	Stim.RT	Stim.RESP	Stim.CRESP	Stim.OnsetToOnsetTime	Fix.OnsetDelay	Fix.OnsetTime	Fix.DurationError	Fix.OnsetToOnsetTime	CueTarget.OnsetDelay	CueTarget.OnsetTime	CueTarget.DurationError	CueTarget.OnsetToOnsetTime	Run1Block2	Fix15sec.OnsetDelay	Fix15sec.OnsetTime	Fix15sec.DurationError	Fix15sec.OnsetToOnsetTime	Run1Block3	Run1Block4	Run1Block5	Run1Block6	Run1Block7	Run1Block8	Block	Procedure[Trial]	Stimulus[Trial]	ReadyList	Running[Trial]	ReadyList.Cycle	ReadyList.Sample	SyncSlide.OnsetDelay	SyncSlide.OnsetTime	SyncSlide.DurationError	SyncSlide.FinishTime	SyncSlide.OnsetToOnsetTime	Trial
WM080112	116524_fnca	2	1	1	-1496402697	1	75.030	75.030	2.0.10.147	2.0.10.242	2.0.10.242	1.0.0.439	7	234	2	3	Verdana	1	80	0	0	0	WM Stimuli\	0.6	1061.66666666667	0.7	1222.14285714286	0.7	914.857142857143	0.6	920.833333333333	0.7	1402.57142857143	0.8	1112	0.7	1099.14285714286	0.5	780.6	13	324187	2	324175	27	40	324214	-999999	324190	0	22	TRSyncPROC	""	2	2	1	SessionSelectionList	112	11927	-999999	0	30	16605	-999999	0																																																	1	InitialTR	4	1	ReadyList	1	1	15	30866	-16	32850	0	1
WM080112	116524_fnca	2	1	1	-1496402697	1	75.030	75.030	2.0.10.147	2.0.10.242	2.0.10.242	1.0.0.439	7	234	2	3	Verdana	1	80	0	0	0	WM Stimuli\	0.6	1061.66666666667	0.7	1222.14285714286	0.7	914.857142857143	0.6	920.833333333333	0.7	1402.57142857143	0.8	1112	0.7	1099.14285714286	0.5	780.6	13	324187	2	324175	27	40	324214	-999999	324190	0	22	TRSyncPROC	""	2	2	1	SessionSelectionList	112	11927	-999999	0	30	16605	-999999	0																																																	1	InitialTR	3	2	ReadyList	1	2	14	32865	-15	34850	0	2
WM080112	116524_fnca	2	1	1	-1496402697	1	75.030	75.030	2.0.10.147	2.0.10.242	2.0.10.242	1.0.0.439	7	234	2	3	Verdana	1	80	0	0	0	WM Stimuli\	0.6	1061.66666666667	0.7	1222.14285714286	0.7	914.857142857143	0.6	920.833333333333	0.7	1402.57142857143	0.8	1112	0.7	1099.14285714286	0.5	780.6	13	324187	2	324175	27	40	324214	-999999	324190	0	22	TRSyncPROC	""	2	2	1	SessionSelectionList	112	11927	-999999	0	30	16605	-999999	0																																																	1	InitialTR	2	3	ReadyList	1	3	13	34864	-14	36850	0	3
WM080112	116524_fnca	2	1	1	-1496402697	1	75.030	75.030	2.0.10.147	2.0.10.242	2.0.10.242	1.0.0.439	7	234	2	3	Verdana	1	80	0	0	0	WM Stimuli\	0.6	1061.66666666667	0.7	1222.14285714286	0.7	914.857142857143	0.6	920.833333333333	0.7	1402.57142857143	0.8	1112	0.7	1099.14285714286	0.5	780.6	13	324187	2	324175	27	40	324214	-999999	324190	0	22	TRSyncPROC	""	2	2	1	SessionSelectionList	112	11927	-999999	0	30	16605	-999999	0																																																	1	InitialTR	1	4	ReadyList	1	4	12	36863	-13	38850	0	4
WM080112	116524_fnca	2	1	1	-1496402697	1	75.030	75.030	2.0.10.147	2.0.10.242	2.0.10.242	1.0.0.439	7	234	2	3	Verdana	1	80	0	0	0	WM Stimuli\	0.6	1061.66666666667	0.7	1222.14285714286	0.7	914.857142857143	0.6	920.833333333333	0.7	1402.57142857143	0.8	1112	0.7	1099.14285714286	0.5	780.6	13	324187	2	324175	27	40	324214	-999999	324190	0	23	Cue2BackPROC	""	2	2	2	SessionSelectionList									11	38862	-12	0																																													2												
WM080112	116524_fnca	2	1	1	-1496402697	1	75.030	75.030	2.0.10.147	2.0.10.242	2.0.10.242	1.0.0.439	7	234	2	3	Verdana	1	80	0	0	0	WM Stimuli\	0.6	1061.66666666667	0.7	1222.14285714286	0.7	914.857142857143	0.6	920.833333333333	0.7	1402.57142857143	0.8	1112	0.7	1099.14285714286	0.5	780.6	13	324187	2	324175	27	40	324214	-999999	324190	0	24	TrialsPROC	TO_014_TOOL14_BA.png	2	2	3	SessionSelectionList														nonlure	3	Tools	2-Back	2	80	1	0	0	0	1	52	43487	3	14	84	41435	-1	42171	1	736	3	3	2052	66	43501	-67	0																3												
WM080112	116524_fnca	2	1	1	-1496402697	1	75.030	75.030	2.0.10.147	2.0.10.242	2.0.10.242	1.0.0.439	7	234	2	3	Verdana	1	80	0	0	0	WM Stimuli\	0.6	1061.66666666667	0.7	1222.14285714286	0.7	914.857142857143	0.6	920.833333333333	0.7	1402.57142857143	0.8	1112	0.7	1099.14285714286	0.5	780.6	13	324187	2	324175	27	40	324214	-999999	324190	0	24	TrialsPROC	TO_013_TOOL13_BA.png	2	2	4	SessionSelectionList														nonlure	3	Tools	2-Back	3	80	2	0	0	0	2	39	46033	2	13	59	43994	-1	44691	1	697	3	3	2039	52	46046	-53	0																4												
WM080112	116524_fnca	2	1	1	-1496402697	1	75.030	75.030	2.0.10.147	2.0.10.242	2.0.10.242	1.0.0.439	7	234	2	3	Verdana	1	80	0	0	0	WM Stimuli\	0.6	1061.66666666667	0.7	1222.14285714286	0.7	914.857142857143	0.6	920.833333333333	0.7	1402.57142857143	0.8	1112	0.7	1099.14285714286	0.5	780.6	13	324187	2	324175	27	40	324214	-999999	324190	0	24	TrialsPROC	TO_016_TOOL16_BA.png	2	2	5	SessionSelectionList														nonlure	3	Tools	2-Back	4	80	3	0	0	0	3	39	48592	1	13	59	46553	-1	47359	1	806	3	3	2039	52	48605	-53	0																5												
WM080112	116524_fnca	2	1	1	-1496402697	1	75.030	75.030	2.0.10.147	2.0.10.242	2.0.10.242	1.0.0.439	7	234	2	3	Verdana	1	80	0	0	0	WM Stimuli\	0.6	1061.66666666667	0.7	1222.14285714286	0.7	914.857142857143	0.6	920.833333333333	0.7	1402.57142857143	0.8	1112	0.7	1099.14285714286	0.5	780.6	13	324187	2	324175	27	40	324214	-999999	324190	0	24	TrialsPROC	TO_014_TOOL14_BA.png	2	2	6	SessionSelectionList														lure	3	Tools	2-Back	5	80	4	0	0	0	1	39	51164	2	14	72	49125	-1	49886	0	761	2	3	2039	53	51178	-54	0																6												
WM080112	116524_fnca	2	1	1	-1496402697	1	75.030	75.030	2.0.10.147	2.0.10.242	2.0.10.242	1.0.0.439	7	234	2	3	Verdana	1	80	0	0	0	WM Stimuli\	0.6	1061.66666666667	0.7	1222.14285714286	0.7	914.857142857143	0.6	920.833333333333	0.7	1402.57142857143	0.8	1112	0.7	1099.14285714286	0.5	780.6	13	324187	2	324175	27	40	324214	-999999	324190	0	24	TrialsPROC	TO_016_TOOL16_BA.png	2	2	7	SessionSelectionList														target	2	Tools	2-Back	6	80	5	0	0	0	1	39	53736	3	14	72	51697	-1	53392	0	1695	3	2	2039	53	53750	-54	0																7												
WM080112	116524_fnca	2	1	1	-1496402697	1	75.030	75.030	2.0.10.147	2.0.10.242	2.0.10.242	1.0.0.439	7	234	2	3	Verdana	1	80	0	0	0	WM Stimuli\	0.6	1061.66666666667	0.7	1222.14285714286	0.7	914.857142857143	0.6	920.833333333333	0.7	1402.57142857143	0.8	1112	0.7	1099.14285714286	0.5	780.6	13	324187	2	324175	27	40	324214	-999999	324190	0	24	TrialsPROC	TO_018_TOOL18_BA.png	2	2	8	SessionSelectionList														nonlure	3	Tools	2-Back	7	80	6	0	0	0	2	39	56295	3	14	59	54256	-1	56196	1	1940	3	3	2039	53	56309	-54	0																8												
WM080112	116524_fnca	2	1	1	-1496402697	1	75.030	75.030	2.0.10.147	2.0.10.242	2.0.10.242	1.0.0.439	7	234	2	3	Verdana	1	80	0	0	0	WM Stimuli\	0.6	1061.66666666667	0.7	1222.14285714286	0.7	914.857142857143	0.6	920.833333333333	0.7	1402.57142857143	0.8	1112	0.7	1099.14285714286	0.5	780.6	13	324187	2	324175	27	40	324214	-999999	324190	0	24	TrialsPROC	TO_017_TOOL17_BA.png	2	2	9	SessionSelectionList														nonlure	3	Tools	2-Back	8	80	7	0	0	0	3	39	58854	2	14	59	56815	-1	57631	1	816	3	3	2039	53	58868	-54	0																9												
WM080112	116524_fnca	2	1	1	-1496402697	1	75.030	75.030	2.0.10.147	2.0.10.242	2.0.10.242	1.0.0.439	7	234	2	3	Verdana	1	80	0	0	0	WM Stimuli\	0.6	1061.66666666667	0.7	1222.14285714286	0.7	914.857142857143	0.6	920.833333333333	0.7	1402.57142857143	0.8	1112	0.7	1099.14285714286	0.5	780.6	13	324187	2	324175	27	40	324214	-999999	324190	0	24	TrialsPROC	TO_018_TOOL18_BA.png	2	2	10	SessionSelectionList														target	2	Tools	2-Back	9	80	8	0	0	0	4	39	61413	3	14	59	59374	-1	60676	0	1302	3	2	2039	53	61427	-54	0																10												
WM080112	116524_fnca	2	1	1	-1496402697	1	75.030	75.030	2.0.10.147	2.0.10.242	2.0.10.242	1.0.0.439	7	234	2	3	Verdana	1	80	0	0	0	WM Stimuli\	0.6	1061.66666666667	0.7	1222.14285714286	0.7	914.857142857143	0.6	920.833333333333	0.7	1402.57142857143	0.8	1112	0.7	1099.14285714286	0.5	780.6	13	324187	2	324175	27	40	324214	-999999	324190	0	24	TrialsPROC	TO_015_TOOL15_BA.png	2	2	11	SessionSelectionList														nonlure	3	Tools	2-Back	10	80	9	0	0	0	5	39	63972	3	14	59	61933	-1	62843	1	910	3	3	2039	53	63986	-54	0																11												
WM080112	116524_fnca	2	1	1	-1496402697	1	75.030	75.030	2.0.10.147	2.0.10.242	2.0.10.242	1.0.0.439	7	234	2	3	Verdana	1	80	0	0	0	WM Stimuli\	0.6	1061.66666666667	0.7	1222.14285714286	0.7	914.857142857143	0.6	920.833333333333	0.7	1402.57142857143	0.8	1112	0.7	1099.14285714286	0.5	780.6	13	324187	2	324175	27	40	324214	-999999	324190	0	24	TrialsPROC	TO_017_TOOL17_BA.png	2	2	12	SessionSelectionList														lure	3	Tools	2-Back	11	80	10	0	0	0	6	39	66531	2	14	59	64492	-1	66281	1	1789	3	3	2039	53	66545	-54	0																12												
WM080112	116524_fnca	2	1	1	-1496402697	1	75.030	75.030	2.0.10.147	2.0.10.242	2.0.10.242	1.0.0.439	7	234	2	3	Verdana	1	80	0	0	0	WM Stimuli\	0.6	1061.66666666667	0.7	1222.14285714286	0.7	914.857142857143	0.6	920.833333333333	0.7	1402.57142857143	0.8	1112	0.7	1099.14285714286	0.5	780.6	13	324187	2	324175	27	40	324214	-999999	324190	0	25	Cue0BackPROC	BP_013_BP7_BA.png	2	2	13	SessionSelectionList																																										19	67011	-20	0												13												
WM080112	116524_fnca	2	1	1	-1496402697	1	75.030	75.030	2.0.10.147	2.0.10.242	2.0.10.242	1.0.0.439	7	234	2	3	Verdana	1	80	0	0	0	WM Stimuli\	0.6	1061.66666666667	0.7	1222.14285714286	0.7	914.857142857143	0.6	920.833333333333	0.7	1402.57142857143	0.8	1112	0.7	1099.14285714286	0.5	780.6	13	324187	2	324175	27	40	324214	-999999	324190	0	26	TrialsPROC	BP_015_H10-T_BA.png	2	2	14	SessionSelectionList														nonlure	3	Body	0-Back	12	80	10	0	1	0	6	39	71583	2	13	52	69544	-1	0	0	0	""	3	2039	52	71596	-53	0																14												
WM080112	116524_fnca	2	1	1	-1496402697	1	75.030	75.030	2.0.10.147	2.0.10.242	2.0.10.242	1.0.0.439	7	234	2	3	Verdana	1	80	0	0	0	WM Stimuli\	0.6	1061.66666666667	0.7	1222.14285714286	0.7	914.857142857143	0.6	920.833333333333	0.7	1402.57142857143	0.8	1112	0.7	1099.14285714286	0.5	780.6	13	324187	2	324175	27	40	324214	-999999	324190	0	26	TrialsPROC	BP_018_H13-T_BA.png	2	2	15	SessionSelectionList														nonlure	3	Body	0-Back	13	80	11	0	0	50	1	39	74142	2	13	59	72103	-1	73260	1	1157	3	3	2039	52	74155	-53	0																15												
WM080112	116524_fnca	2	1	1	-1496402697	1	75.030	75.030	2.0.10.147	2.0.10.242	2.0.10.242	1.0.0.439	7	234	2	3	Verdana	1	80	0	0	0	WM Stimuli\	0.6	1061.66666666667	0.7	1222.14285714286	0.7	914.857142857143	0.6	920.833333333333	0.7	1402.57142857143	0.8	1112	0.7	1099.14285714286	0.5	780.6	13	324187	2	324175	27	40	324214	-999999	324190	0	26	TrialsPROC	BP_014_BP9_BA.png	2	2	16	SessionSelectionList														nonlure	3	Body	0-Back	14	80	12	0	0	67	2	38	76700	3	14	59	74662	-1	75675	1	1013	3	3	2038	52	76714	-53	0																16												
WM080112	116524_fnca	2	1	1	-1496402697	1	75.030	75.030	2.0.10.147	2.0.10.242	2.0.10.242	1.0.0.439	7	234	2	3	Verdana	1	80	0	0	0	WM Stimuli\	0.6	1061.66666666667	0.7	1222.14285714286	0.7	914.857142857143	0.6	920.833333333333	0.7	1402.57142857143	0.8	1112	0.7	1099.14285714286	0.5	780.6	13	324187	2	324175	27	40	324214	-999999	324190	0	26	TrialsPROC	BP_018_H13-T_BA.png	2	2	17	SessionSelectionList														lure	3	Body	0-Back	15	80	13	0	0	50	1	39	79259	2	14	58	77220	-1	77982	0	762	2	3	2039	53	79273	-54	0																17												
WM080112	116524_fnca	2	1	1	-1496402697	1	75.030	75.030	2.0.10.147	2.0.10.242	2.0.10.242	1.0.0.439	7	234	2	3	Verdana	1	80	0	0	0	WM Stimuli\	0.6	1061.66666666667	0.7	1222.14285714286	0.7	914.857142857143	0.6	920.833333333333	0.7	1402.57142857143	0.8	1112	0.7	1099.14285714286	0.5	780.6	13	324187	2	324175	27	40	324214	-999999	324190	0	26	TrialsPROC	BP_013_BP7_BA.png	2	2	18	SessionSelectionList														target	2	Body	0-Back	16	80	14	0	0	40	1	39	81832	2	13	73	79793	-1	81342	0	1549	3	2	2039	52	81845	-53	0																18												
WM080112	116524_fnca	2	1	1	-1496402697	1	75.030	75.030	2.0.10.147	2.0.10.242	2.0.10.242	1.0.0.439	7	234	2	3	Verdana	1	80	0	0	0	WM Stimuli\	0.6	1061.66666666667	0.7	1222.14285714286	0.7	914.857142857143	0.6	920.833333333333	0.7	1402.57142857143	0.8	1112	0.7	1099.14285714286	0.5	780.6	13	324187	2	324175	27	40	324214	-999999	324190	0	26	TrialsPROC	BP_015_H10-T_BA.png	2	2	19	SessionSelectionList														lure	3	Body	0-Back	17	80	15	0	0	50	2	39	84391	1	13	59	82352	-1	83778	1	1426	3	3	2039	52	84404	-53	0																19												
WM080112	116524_fnca	2	1	1	-1496402697	1	75.030	75.030	2.0.10.147	2.0.10.242	2.0.10.242	1.0.0.439	7	234	2	3	Verdana	1	80	0	0	0	WM Stimuli\	0.6	1061.66666666667	0.7	1222.14285714286	0.7	914.857142857143	0.6	920.833333333333	0.7	1402.57142857143	0.8	1112	0.7	1099.14285714286	0.5	780.6	13	324187	2	324175	27	40	324214	-999999	324190	0	26	TrialsPROC	BP_016_H11-T_BA.png	2	2	20	SessionSelectionList														nonlure	3	Body	0-Back	18	80	16	0	0	57	3	39	86950	2	13	59	84911	-1	86142	1	1231	3	3	2039	52	86963	-53	0																20												
WM080112	116524_fnca	2	1	1	-1496402697	1	75.030	75.030	2.0.10.147	2.0.10.242	2.0.10.242	1.0.0.439	7	234	2	3	Verdana	1	80	0	0	0	WM Stimuli\	0.6	1061.66666666667	0.7	1222.14285714286	0.7	914.857142857143	0.6	920.833333333333	0.7	1402.57142857143	0.8	1112	0.7	1099.14285714286	0.5	780.6	13	324187	2	324175	27	40	324214	-999999	324190	0	26	TrialsPROC	BP_013_BP7_BA.png	2	2	21	SessionSelectionList														target	2	Body	0-Back	19	80	17	0	0	62	1	39	89509	2	13	59	87470	-1	88039	1	569	2	2	2039	52	89522	-53	0																21												
WM080112	116524_fnca	2	1	1	-1496402697	1	75.030	75.030	2.0.10.147	2.0.10.242	2.0.10.242	1.0.0.439	7	234	2	3	Verdana	1	80	0	0	0	WM Stimuli\	0.6	1061.66666666667	0.7	1222.14285714286	0.7	914.857142857143	0.6	920.833333333333	0.7	1402.57142857143	0.8	1112	0.7	1099.14285714286	0.5	780.6	13	324187	2	324175	27	40	324214	-999999	324190	0	26	TrialsPROC	BP_017_H12-T_BA.png	2	2	22	SessionSelectionList														nonlure	3	Body	0-Back	20	80	18	0	0	67	1	39	92068	1	13	59	90029	-1	91535	1	1506	3	3	2039	52	92081	-53	0																22												
WM080112	116524_fnca	2	1	1	-1496402697	1	75.030	75.030	2.0.10.147	2.0.10.242	2.0.10.242	1.0.0.439	7	234	2	3	Verdana	1	80	0	0	0	WM Stimuli\	0.6	1061.66666666667	0.7	1222.14285714286	0.7	914.857142857143	0.6	920.833333333333	0.7	1402.57142857143	0.8	1112	0.7	1099.14285714286	0.5	780.6	13	324187	2	324175	27	40	324214	-999999	324190	0	26	TrialsPROC	BP_014_BP9_BA.png	2	2	23	SessionSelectionList														lure	3	Body	0-Back	21	80	19	0	0	70	2	39	94627	2	13	59	92588	-1	94241	1	1653	3	3	2039	52	94640	-53	0																23												
WM080112	116524_fnca	2	1	1	-1496402697	1	75.030	75.030	2.0.10.147	2.0.10.242	2.0.10.242	1.0.0.439	7	234	2	3	Verdana	1	80	0	0	0	WM Stimuli\	0.6	1061.66666666667	0.7	1222.14285714286	0.7	914.857142857143	0.6	920.833333333333	0.7	1402.57142857143	0.8	1112	0.7	1099.14285714286	0.5	780.6	13	324187	2	324175	27	40	324214	-999999	324190	0	27	Fix15secPROC	""	2	2	24	SessionSelectionList																																															5	95093	-6	0							24												
WM080112	116524_fnca	2	1	1	-1496402697	1	75.030	75.030	2.0.10.147	2.0.10.242	2.0.10.242	1.0.0.439	7	234	2	3	Verdana	1	80	0	0	0	WM Stimuli\	0.6	1061.66666666667	0.7	1222.14285714286	0.7	914.857142857143	0.6	920.833333333333	0.7	1402.57142857143	0.8	1112	0.7	1099.14285714286	0.5	780.6	13	324187	2	324175	27	40	324214	-999999	324190	0	28	Cue2BackPROC	""	2	2	25	SessionSelectionList									12	110100	-13	0																																													25												
WM080112	116524_fnca	2	1	1	-1496402697	1	75.030	75.030	2.0.10.147	2.0.10.242	2.0.10.242	1.0.0.439	7	234	2	3	Verdana	1	80	0	0	0	WM Stimuli\	0.6	1061.66666666667	0.7	1222.14285714286	0.7	914.857142857143	0.6	920.833333333333	0.7	1402.57142857143	0.8	1112	0.7	1099.14285714286	0.5	780.6	13	324187	2	324175	27	40	324214	-999999	324190	0	29	TrialsPROC	FC_015_M8.png	2	2	26	SessionSelectionList														nonlure	3	Face	2-Back	22	80	19	0	1	70	2	39	114698	3	14	71	112659	-1	0	0	0	""	3	2039	53	114712	-54	0																26												
WM080112	116524_fnca	2	1	1	-1496402697	1	75.030	75.030	2.0.10.147	2.0.10.242	2.0.10.242	1.0.0.439	7	234	2	3	Verdana	1	80	0	0	0	WM Stimuli\	0.6	1061.66666666667	0.7	1222.14285714286	0.7	914.857142857143	0.6	920.833333333333	0.7	1402.57142857143	0.8	1112	0.7	1099.14285714286	0.5	780.6	13	324187	2	324175	27	40	324214	-999999	324190	0	29	TrialsPROC	FC_018_F9.png	2	2	27	SessionSelectionList														nonlure	3	Face	2-Back	23	80	20	0	0	70	1	39	117271	1	13	73	115232	-1	115845	1	613	3	3	2039	52	117284	-53	0																27												
WM080112	116524_fnca	2	1	1	-1496402697	1	75.030	75.030	2.0.10.147	2.0.10.242	2.0.10.242	1.0.0.439	7	234	2	3	Verdana	1	80	0	0	0	WM Stimuli\	0.6	1061.66666666667	0.7	1222.14285714286	0.7	914.857142857143	0.6	920.833333333333	0.7	1402.57142857143	0.8	1112	0.7	1099.14285714286	0.5	780.6	13	324187	2	324175	27	40	324214	-999999	324190	0	29	TrialsPROC	FC_018_F9.png	2	2	28	SessionSelectionList														lure	3	Face	2-Back	24	80	21	0	0	70	2	39	119843	3	13	72	117804	-1	118530	1	726	3	3	2039	52	119856	-53	0																28												
WM080112	116524_fnca	2	1	1	-1496402697	1	75.030	75.030	2.0.10.147	2.0.10.242	2.0.10.242	1.0.0.439	7	234	2	3	Verdana	1	80	0	0	0	WM Stimuli\	0.6	1061.66666666667	0.7	1222.14285714286	0.7	914.857142857143	0.6	920.833333333333	0.7	1402.57142857143	0.8	1112	0.7	1099.14285714286	0.5	780.6	13	324187	2	324175	27	40	324214	-999999	324190	0	29	TrialsPROC	FC_017_M9.png	2	2	29	SessionSelectionList														nonlure	3	Face	2-Back	25	80	22	0	0	70	3	39	122415	2	14	72	120376	-1	121121	1	745	3	3	2039	53	122429	-54	0																29												
WM080112	116524_fnca	2	1	1	-1496402697	1	75.030	75.030	2.0.10.147	2.0.10.242	2.0.10.242	1.0.0.439	7	234	2	3	Verdana	1	80	0	0	0	WM Stimuli\	0.6	1061.66666666667	0.7	1222.14285714286	0.7	914.857142857143	0.6	920.833333333333	0.7	1402.57142857143	0.8	1112	0.7	1099.14285714286	0.5	780.6	13	324187	2	324175	27	40	324214	-999999	324190	0	29	TrialsPROC	FC_017_M9.png	2	2	30	SessionSelectionList														lure	3	Face	2-Back	26	80	23	0	0	70	4	40	124988	2	13	72	122948	-1	123695	1	747	3	3	2040	53	125001	-54	0																30												
WM080112	116524_fnca	2	1	1	-1496402697	1	75.030	75.030	2.0.10.147	2.0.10.242	2.0.10.242	1.0.0.439	7	234	2	3	Verdana	1	80	0	0	0	WM Stimuli\	0.6	1061.66666666667	0.7	1222.14285714286	0.7	914.857142857143	0.6	920.833333333333	0.7	1402.57142857143	0.8	1112	0.7	1099.14285714286	0.5	780.6	13	324187	2	324175	27	40	324214	-999999	324190	0	29	TrialsPROC	FC_016_F8.png	2	2	31	SessionSelectionList														nonlure	3	Face	2-Back	27	80	24	0	0	70	5	39	127560	2	13	73	125521	-1	126872	1	1351	3	3	2039	52	127573	-53	0																31												
WM080112	116524_fnca	2	1	1	-1496402697	1	75.030	75.030	2.0.10.147	2.0.10.242	2.0.10.242	1.0.0.439	7	234	2	3	Verdana	1	80	0	0	0	WM Stimuli\	0.6	1061.66666666667	0.7	1222.14285714286	0.7	914.857142857143	0.6	920.833333333333	0.7	1402.57142857143	0.8	1112	0.7	1099.14285714286	0.5	780.6	13	324187	2	324175	27	40	324214	-999999	324190	0	29	TrialsPROC	FC_013_M7.png	2	2	32	SessionSelectionList														nonlure	3	Face	2-Back	28	80	25	0	0	70	1	39	130132	2	14	72	128093	-1	128853	0	760	2	3	2039	53	130146	-54	0																32												
WM080112	116524_fnca	2	1	1	-1496402697	1	75.030	75.030	2.0.10.147	2.0.10.242	2.0.10.242	1.0.0.439	7	234	2	3	Verdana	1	80	0	0	0	WM Stimuli\	0.6	1061.66666666667	0.7	1222.14285714286	0.7	914.857142857143	0.6	920.833333333333	0.7	1402.57142857143	0.8	1112	0.7	1099.14285714286	0.5	780.6	13	324187	2	324175	27	40	324214	-999999	324190	0	29	TrialsPROC	FC_014_F7.png	2	2	33	SessionSelectionList														nonlure	3	Face	2-Back	29	80	26	0	0	70	1	39	132704	3	14	72	130665	-1	132072	1	1407	3	3	2039	53	132718	-54	0																33												
WM080112	116524_fnca	2	1	1	-1496402697	1	75.030	75.030	2.0.10.147	2.0.10.242	2.0.10.242	1.0.0.439	7	234	2	3	Verdana	1	80	0	0	0	WM Stimuli\	0.6	1061.66666666667	0.7	1222.14285714286	0.7	914.857142857143	0.6	920.833333333333	0.7	1402.57142857143	0.8	1112	0.7	1099.14285714286	0.5	780.6	13	324187	2	324175	27	40	324214	-999999	324190	0	29	TrialsPROC	FC_013_M7.png	2	2	34	SessionSelectionList														target	2	Face	2-Back	30	80	27	0	0	70	2	39	135277	1	13	73	133238	-1	134229	0	991	3	2	2039	52	135290	-53	0																34												
WM080112	116524_fnca	2	1	1	-1496402697	1	75.030	75.030	2.0.10.147	2.0.10.242	2.0.10.242	1.0.0.439	7	234	2	3	Verdana	1	80	0	0	0	WM Stimuli\	0.6	1061.66666666667	0.7	1222.14285714286	0.7	914.857142857143	0.6	920.833333333333	0.7	1402.57142857143	0.8	1112	0.7	1099.14285714286	0.5	780.6	13	324187	2	324175	27	40	324214	-999999	324190	0	29	TrialsPROC	FC_014_F7.png	2	2	35	SessionSelectionList														target	2	Face	2-Back	31	80	28	0	0	70	1	39	137849	3	14	72	135810	-1	136625	1	815	2	2	2039	53	137863	-54	0																35												
WM080112	116524_fnca	2	1	1	-1496402697	1	75.030	75.030	2.0.10.147	2.0.10.242	2.0.10.242	1.0.0.439	7	234	2	3	Verdana	1	80	0	0	0	WM Stimuli\	0.6	1061.66666666667	0.7	1222.14285714286	0.7	914.857142857143	0.6	920.833333333333	0.7	1402.57142857143	0.8	1112	0.7	1099.14285714286	0.5	780.6	13	324187	2	324175	27	40	324214	-999999	324190	0	30	Cue0BackPROC	TO_019_TOOL19_BA.png	2	2	36	SessionSelectionList																																										19	138329	-20	0												36												
WM080112	116524_fnca	2	1	1	-1496402697	1	75.030	75.030	2.0.10.147	2.0.10.242	2.0.10.242	1.0.0.439	7	234	2	3	Verdana	1	80	0	0	0	WM Stimuli\	0.6	1061.66666666667	0.7	1222.14285714286	0.7	914.857142857143	0.6	920.833333333333	0.7	1402.57142857143	0.8	1112	0.7	1099.14285714286	0.5	780.6	13	324187	2	324175	27	40	324214	-999999	324190	0	31	TrialsPROC	TO_019_TOOL19_BA.png	2	2	37	SessionSelectionList														target	2	Tools	0-Back	32	80	28	0	1	64	1	39	142900	3	14	51	140861	-1	0	0	0	""	2	2039	53	142914	-54	0																37												
WM080112	116524_fnca	2	1	1	-1496402697	1	75.030	75.030	2.0.10.147	2.0.10.242	2.0.10.242	1.0.0.439	7	234	2	3	Verdana	1	80	0	0	0	WM Stimuli\	0.6	1061.66666666667	0.7	1222.14285714286	0.7	914.857142857143	0.6	920.833333333333	0.7	1402.57142857143	0.8	1112	0.7	1099.14285714286	0.5	780.6	13	324187	2	324175	27	40	324214	-999999	324190	0	31	TrialsPROC	TO_024_TOOL24_BA.png	2	2	38	SessionSelectionList														nonlure	3	Tools	0-Back	33	80	29	0	0	67	1	39	145459	3	14	59	143420	-1	144025	1	605	3	3	2039	53	145473	-54	0																38												
WM080112	116524_fnca	2	1	1	-1496402697	1	75.030	75.030	2.0.10.147	2.0.10.242	2.0.10.242	1.0.0.439	7	234	2	3	Verdana	1	80	0	0	0	WM Stimuli\	0.6	1061.66666666667	0.7	1222.14285714286	0.7	914.857142857143	0.6	920.833333333333	0.7	1402.57142857143	0.8	1112	0.7	1099.14285714286	0.5	780.6	13	324187	2	324175	27	40	324214	-999999	324190	0	31	TrialsPROC	TO_019_TOOL19_BA.png	2	2	39	SessionSelectionList														target	2	Tools	0-Back	34	80	30	0	0	62	2	39	148018	2	14	59	145979	-1	147385	0	1406	3	2	2039	53	148032	-54	0																39												
WM080112	116524_fnca	2	1	1	-1496402697	1	75.030	75.030	2.0.10.147	2.0.10.242	2.0.10.242	1.0.0.439	7	234	2	3	Verdana	1	80	0	0	0	WM Stimuli\	0.6	1061.66666666667	0.7	1222.14285714286	0.7	914.857142857143	0.6	920.833333333333	0.7	1402.57142857143	0.8	1112	0.7	1099.14285714286	0.5	780.6	13	324187	2	324175	27	40	324214	-999999	324190	0	31	TrialsPROC	TO_023_TOOL23_BA.png	2	2	40	SessionSelectionList														nonlure	3	Tools	0-Back	35	80	31	0	0	64	3	39	150577	3	14	59	148538	-1	149397	1	859	3	3	2039	53	150591	-54	0																40												
WM080112	116524_fnca	2	1	1	-1496402697	1	75.030	75.030	2.0.10.147	2.0.10.242	2.0.10.242	1.0.0.439	7	234	2	3	Verdana	1	80	0	0	0	WM Stimuli\	0.6	1061.66666666667	0.7	1222.14285714286	0.7	914.857142857143	0.6	920.833333333333	0.7	1402.57142857143	0.8	1112	0.7	1099.14285714286	0.5	780.6	13	324187	2	324175	27	40	324214	-999999	324190	0	31	TrialsPROC	TO_020_TOOL20_BA.png	2	2	41	SessionSelectionList														nonlure	3	Tools	0-Back	36	80	32	0	0	67	4	39	153136	2	14	59	151097	-1	151762	1	665	3	3	2039	53	153150	-54	0																41												
WM080112	116524_fnca	2	1	1	-1496402697	1	75.030	75.030	2.0.10.147	2.0.10.242	2.0.10.242	1.0.0.439	7	234	2	3	Verdana	1	80	0	0	0	WM Stimuli\	0.6	1061.66666666667	0.7	1222.14285714286	0.7	914.857142857143	0.6	920.833333333333	0.7	1402.57142857143	0.8	1112	0.7	1099.14285714286	0.5	780.6	13	324187	2	324175	27	40	324214	-999999	324190	0	31	TrialsPROC	TO_020_TOOL20_BA.png	2	2	42	SessionSelectionList														lure	3	Tools	0-Back	37	80	33	0	0	69	5	39	155695	3	14	59	153656	-1	154390	1	734	3	3	2039	53	155709	-54	0																42												
WM080112	116524_fnca	2	1	1	-1496402697	1	75.030	75.030	2.0.10.147	2.0.10.242	2.0.10.242	1.0.0.439	7	234	2	3	Verdana	1	80	0	0	0	WM Stimuli\	0.6	1061.66666666667	0.7	1222.14285714286	0.7	914.857142857143	0.6	920.833333333333	0.7	1402.57142857143	0.8	1112	0.7	1099.14285714286	0.5	780.6	13	324187	2	324175	27	40	324214	-999999	324190	0	31	TrialsPROC	TO_022_TOOL22_BA.png	2	2	43	SessionSelectionList														nonlure	3	Tools	0-Back	38	80	34	0	0	65	1	39	158254	1	14	59	156215	-1	156881	0	666	2	3	2039	53	158268	-54	0																43												
WM080112	116524_fnca	2	1	1	-1496402697	1	75.030	75.030	2.0.10.147	2.0.10.242	2.0.10.242	1.0.0.439	7	234	2	3	Verdana	1	80	0	0	0	WM Stimuli\	0.6	1061.66666666667	0.7	1222.14285714286	0.7	914.857142857143	0.6	920.833333333333	0.7	1402.57142857143	0.8	1112	0.7	1099.14285714286	0.5	780.6	13	324187	2	324175	27	40	324214	-999999	324190	0	31	TrialsPROC	TO_022_TOOL22_BA.png	2	2	44	SessionSelectionList														lure	3	Tools	0-Back	39	80	35	0	0	61	2	39	160813	1	14	59	158774	-1	159735	0	961	2	3	2039	53	160827	-54	0																44												
WM080112	116524_fnca	2	1	1	-1496402697	1	75.030	75.030	2.0.10.147	2.0.10.242	2.0.10.242	1.0.0.439	7	234	2	3	Verdana	1	80	0	0	0	WM Stimuli\	0.6	1061.66666666667	0.7	1222.14285714286	0.7	914.857142857143	0.6	920.833333333333	0.7	1402.57142857143	0.8	1112	0.7	1099.14285714286	0.5	780.6	13	324187	2	324175	27	40	324214	-999999	324190	0	31	TrialsPROC	TO_021_TOOL21_BA.png	2	2	45	SessionSelectionList														nonlure	3	Tools	0-Back	40	80	36	0	0	63	1	39	163372	3	13	59	161333	-1	162373	1	1040	3	3	2039	52	163385	-53	0																45												
WM080112	116524_fnca	2	1	1	-1496402697	1	75.030	75.030	2.0.10.147	2.0.10.242	2.0.10.242	1.0.0.439	7	234	2	3	Verdana	1	80	0	0	0	WM Stimuli\	0.6	1061.66666666667	0.7	1222.14285714286	0.7	914.857142857143	0.6	920.833333333333	0.7	1402.57142857143	0.8	1112	0.7	1099.14285714286	0.5	780.6	13	324187	2	324175	27	40	324214	-999999	324190	0	31	TrialsPROC	TO_021_TOOL21_BA.png	2	2	46	SessionSelectionList														lure	3	Tools	0-Back	41	80	37	0	0	60	1	39	165931	1	13	59	163892	-1	165455	0	1563	2	3	2039	52	165944	-53	0																46												
WM080112	116524_fnca	2	1	1	-1496402697	1	75.030	75.030	2.0.10.147	2.0.10.242	2.0.10.242	1.0.0.439	7	234	2	3	Verdana	1	80	0	0	0	WM Stimuli\	0.6	1061.66666666667	0.7	1222.14285714286	0.7	914.857142857143	0.6	920.833333333333	0.7	1402.57142857143	0.8	1112	0.7	1099.14285714286	0.5	780.6	13	324187	2	324175	27	40	324214	-999999	324190	0	32	Fix15secPROC	""	2	2	47	SessionSelectionList																																															6	166398	-7	0							47												
WM080112	116524_fnca	2	1	1	-1496402697	1	75.030	75.030	2.0.10.147	2.0.10.242	2.0.10.242	1.0.0.439	7	234	2	3	Verdana	1	80	0	0	0	WM Stimuli\	0.6	1061.66666666667	0.7	1222.14285714286	0.7	914.857142857143	0.6	920.833333333333	0.7	1402.57142857143	0.8	1112	0.7	1099.14285714286	0.5	780.6	13	324187	2	324175	27	40	324214	-999999	324190	0	33	Cue2BackPROC	""	2	2	48	SessionSelectionList									13	181405	-14	0																																													48												
WM080112	116524_fnca	2	1	1	-1496402697	1	75.030	75.030	2.0.10.147	2.0.10.242	2.0.10.242	1.0.0.439	7	234	2	3	Verdana	1	80	0	0	0	WM Stimuli\	0.6	1061.66666666667	0.7	1222.14285714286	0.7	914.857142857143	0.6	920.833333333333	0.7	1402.57142857143	0.8	1112	0.7	1099.14285714286	0.5	780.6	13	324187	2	324175	27	40	324214	-999999	324190	0	34	TrialsPROC	BP_020_H17-T_BA.png	2	2	49	SessionSelectionList														nonlure	3	Body	2-Back	42	80	37	0	1	60	1	39	185990	1	13	59	183951	-1	0	0	0	""	3	2039	52	186003	-53	0																49												
WM080112	116524_fnca	2	1	1	-1496402697	1	75.030	75.030	2.0.10.147	2.0.10.242	2.0.10.242	1.0.0.439	7	234	2	3	Verdana	1	80	0	0	0	WM Stimuli\	0.6	1061.66666666667	0.7	1222.14285714286	0.7	914.857142857143	0.6	920.833333333333	0.7	1402.57142857143	0.8	1112	0.7	1099.14285714286	0.5	780.6	13	324187	2	324175	27	40	324214	-999999	324190	0	34	TrialsPROC	BP_019_H14-T_BA.png	2	2	50	SessionSelectionList														nonlure	3	Body	2-Back	43	80	37	0	2	60	1	39	188562	1	13	72	186523	-1	0	0	0	""	3	2039	52	188575	-53	0																50												
WM080112	116524_fnca	2	1	1	-1496402697	1	75.030	75.030	2.0.10.147	2.0.10.242	2.0.10.242	1.0.0.439	7	234	2	3	Verdana	1	80	0	0	0	WM Stimuli\	0.6	1061.66666666667	0.7	1222.14285714286	0.7	914.857142857143	0.6	920.833333333333	0.7	1402.57142857143	0.8	1112	0.7	1099.14285714286	0.5	780.6	13	324187	2	324175	27	40	324214	-999999	324190	0	34	TrialsPROC	BP_020_H17-T_BA.png	2	2	51	SessionSelectionList														target	2	Body	2-Back	44	80	38	0	0	60	1	39	191121	1	13	59	189082	-1	189948	1	866	2	2	2039	52	191134	-53	0																51												
WM080112	116524_fnca	2	1	1	-1496402697	1	75.030	75.030	2.0.10.147	2.0.10.242	2.0.10.242	1.0.0.439	7	234	2	3	Verdana	1	80	0	0	0	WM Stimuli\	0.6	1061.66666666667	0.7	1222.14285714286	0.7	914.857142857143	0.6	920.833333333333	0.7	1402.57142857143	0.8	1112	0.7	1099.14285714286	0.5	780.6	13	324187	2	324175	27	40	324214	-999999	324190	0	34	TrialsPROC	BP_019_H14-T_BA.png	2	2	52	SessionSelectionList														target	2	Body	2-Back	45	80	39	0	0	60	1	39	193693	3	14	72	191654	-1	192513	0	859	3	2	2039	53	193707	-54	0																52												
WM080112	116524_fnca	2	1	1	-1496402697	1	75.030	75.030	2.0.10.147	2.0.10.242	2.0.10.242	1.0.0.439	7	234	2	3	Verdana	1	80	0	0	0	WM Stimuli\	0.6	1061.66666666667	0.7	1222.14285714286	0.7	914.857142857143	0.6	920.833333333333	0.7	1402.57142857143	0.8	1112	0.7	1099.14285714286	0.5	780.6	13	324187	2	324175	27	40	324214	-999999	324190	0	34	TrialsPROC	BP_024_H3-T_BA.png	2	2	53	SessionSelectionList														nonlure	3	Body	2-Back	46	80	40	0	0	60	2	39	196252	1	13	59	194213	-1	195481	1	1268	3	3	2039	52	196265	-53	0																53												
WM080112	116524_fnca	2	1	1	-1496402697	1	75.030	75.030	2.0.10.147	2.0.10.242	2.0.10.242	1.0.0.439	7	234	2	3	Verdana	1	80	0	0	0	WM Stimuli\	0.6	1061.66666666667	0.7	1222.14285714286	0.7	914.857142857143	0.6	920.833333333333	0.7	1402.57142857143	0.8	1112	0.7	1099.14285714286	0.5	780.6	13	324187	2	324175	27	40	324214	-999999	324190	0	34	TrialsPROC	BP_024_H3-T_BA.png	2	2	54	SessionSelectionList														lure	3	Body	2-Back	47	80	41	0	0	60	3	39	198811	1	13	59	196772	-1	197766	1	994	3	3	2039	52	198824	-53	0																54												
WM080112	116524_fnca	2	1	1	-1496402697	1	75.030	75.030	2.0.10.147	2.0.10.242	2.0.10.242	1.0.0.439	7	234	2	3	Verdana	1	80	0	0	0	WM Stimuli\	0.6	1061.66666666667	0.7	1222.14285714286	0.7	914.857142857143	0.6	920.833333333333	0.7	1402.57142857143	0.8	1112	0.7	1099.14285714286	0.5	780.6	13	324187	2	324175	27	40	324214	-999999	324190	0	34	TrialsPROC	BP_025_H5-T_BA.png	2	2	55	SessionSelectionList														nonlure	3	Body	2-Back	48	80	42	0	0	60	1	39	201370	1	13	59	199331	-1	200555	0	1224	2	3	2039	52	201383	-53	0																55												
WM080112	116524_fnca	2	1	1	-1496402697	1	75.030	75.030	2.0.10.147	2.0.10.242	2.0.10.242	1.0.0.439	7	234	2	3	Verdana	1	80	0	0	0	WM Stimuli\	0.6	1061.66666666667	0.7	1222.14285714286	0.7	914.857142857143	0.6	920.833333333333	0.7	1402.57142857143	0.8	1112	0.7	1099.14285714286	0.5	780.6	13	324187	2	324175	27	40	324214	-999999	324190	0	34	TrialsPROC	BP_023_H25-T_BA.png	2	2	56	SessionSelectionList														nonlure	3	Body	2-Back	49	80	43	0	0	60	1	39	203942	3	14	72	201903	-1	203041	1	1138	3	3	2039	53	203956	-54	0																56												
WM080112	116524_fnca	2	1	1	-1496402697	1	75.030	75.030	2.0.10.147	2.0.10.242	2.0.10.242	1.0.0.439	7	234	2	3	Verdana	1	80	0	0	0	WM Stimuli\	0.6	1061.66666666667	0.7	1222.14285714286	0.7	914.857142857143	0.6	920.833333333333	0.7	1402.57142857143	0.8	1112	0.7	1099.14285714286	0.5	780.6	13	324187	2	324175	27	40	324214	-999999	324190	0	34	TrialsPROC	BP_022_H24-T_BA.png	2	2	57	SessionSelectionList														nonlure	3	Body	2-Back	50	80	44	0	0	60	2	39	206501	3	14	59	204462	-1	205657	1	1195	3	3	2039	53	206515	-54	0																57												
WM080112	116524_fnca	2	1	1	-1496402697	1	75.030	75.030	2.0.10.147	2.0.10.242	2.0.10.242	1.0.0.439	7	234	2	3	Verdana	1	80	0	0	0	WM Stimuli\	0.6	1061.66666666667	0.7	1222.14285714286	0.7	914.857142857143	0.6	920.833333333333	0.7	1402.57142857143	0.8	1112	0.7	1099.14285714286	0.5	780.6	13	324187	2	324175	27	40	324214	-999999	324190	0	34	TrialsPROC	BP_022_H24-T_BA.png	2	2	58	SessionSelectionList														lure	3	Body	2-Back	51	80	45	0	0	60	3	39	209060	2	14	59	207021	-1	207930	1	909	3	3	2039	53	209074	-54	0																58												
WM080112	116524_fnca	2	1	1	-1496402697	1	75.030	75.030	2.0.10.147	2.0.10.242	2.0.10.242	1.0.0.439	7	234	2	3	Verdana	1	80	0	0	0	WM Stimuli\	0.6	1061.66666666667	0.7	1222.14285714286	0.7	914.857142857143	0.6	920.833333333333	0.7	1402.57142857143	0.8	1112	0.7	1099.14285714286	0.5	780.6	13	324187	2	324175	27	40	324214	-999999	324190	0	35	Cue2BackPROC	""	2	2	59	SessionSelectionList									6	209527	-7	0																																													59												
WM080112	116524_fnca	2	1	1	-1496402697	1	75.030	75.030	2.0.10.147	2.0.10.242	2.0.10.242	1.0.0.439	7	234	2	3	Verdana	1	80	0	0	0	WM Stimuli\	0.6	1061.66666666667	0.7	1222.14285714286	0.7	914.857142857143	0.6	920.833333333333	0.7	1402.57142857143	0.8	1112	0.7	1099.14285714286	0.5	780.6	13	324187	2	324175	27	40	324214	-999999	324190	0	36	TrialsPROC	PL_019_SCENE_05.png	2	2	60	SessionSelectionList														nonlure	3	Place	2-Back	52	80	46	0	0	60	4	39	214125	1	13	65	212086	-1	213280	1	1194	3	3	2039	52	214138	-53	0																60												
WM080112	116524_fnca	2	1	1	-1496402697	1	75.030	75.030	2.0.10.147	2.0.10.242	2.0.10.242	1.0.0.439	7	234	2	3	Verdana	1	80	0	0	0	WM Stimuli\	0.6	1061.66666666667	0.7	1222.14285714286	0.7	914.857142857143	0.6	920.833333333333	0.7	1402.57142857143	0.8	1112	0.7	1099.14285714286	0.5	780.6	13	324187	2	324175	27	40	324214	-999999	324190	0	36	TrialsPROC	PL_017_SCENE_03.png	2	2	61	SessionSelectionList														nonlure	3	Place	2-Back	53	80	47	0	0	60	5	39	216697	1	14	72	214658	-1	215680	1	1022	3	3	2039	53	216711	-54	0																61												
WM080112	116524_fnca	2	1	1	-1496402697	1	75.030	75.030	2.0.10.147	2.0.10.242	2.0.10.242	1.0.0.439	7	234	2	3	Verdana	1	80	0	0	0	WM Stimuli\	0.6	1061.66666666667	0.7	1222.14285714286	0.7	914.857142857143	0.6	920.833333333333	0.7	1402.57142857143	0.8	1112	0.7	1099.14285714286	0.5	780.6	13	324187	2	324175	27	40	324214	-999999	324190	0	36	TrialsPROC	PL_017_SCENE_03.png	2	2	62	SessionSelectionList														lure	3	Place	2-Back	54	80	48	0	0	60	6	39	219269	2	14	72	217230	-1	218868	1	1638	3	3	2039	53	219283	-54	0																62												
WM080112	116524_fnca	2	1	1	-1496402697	1	75.030	75.030	2.0.10.147	2.0.10.242	2.0.10.242	1.0.0.439	7	234	2	3	Verdana	1	80	0	0	0	WM Stimuli\	0.6	1061.66666666667	0.7	1222.14285714286	0.7	914.857142857143	0.6	920.833333333333	0.7	1402.57142857143	0.8	1112	0.7	1099.14285714286	0.5	780.6	13	324187	2	324175	27	40	324214	-999999	324190	0	36	TrialsPROC	PL_016_SCENE_02.png	2	2	63	SessionSelectionList														nonlure	3	Place	2-Back	55	80	48	0	1	60	6	39	221842	2	13	73	219803	-1	0	0	0	""	3	2039	52	221855	-53	0																63												
WM080112	116524_fnca	2	1	1	-1496402697	1	75.030	75.030	2.0.10.147	2.0.10.242	2.0.10.242	1.0.0.439	7	234	2	3	Verdana	1	80	0	0	0	WM Stimuli\	0.6	1061.66666666667	0.7	1222.14285714286	0.7	914.857142857143	0.6	920.833333333333	0.7	1402.57142857143	0.8	1112	0.7	1099.14285714286	0.5	780.6	13	324187	2	324175	27	40	324214	-999999	324190	0	36	TrialsPROC	PL_015_SCENE_01.png	2	2	64	SessionSelectionList														nonlure	3	Place	2-Back	56	80	49	0	0	60	1	39	224414	2	13	72	222375	-1	224157	1	1782	3	3	2039	52	224427	-53	0																64												
WM080112	116524_fnca	2	1	1	-1496402697	1	75.030	75.030	2.0.10.147	2.0.10.242	2.0.10.242	1.0.0.439	7	234	2	3	Verdana	1	80	0	0	0	WM Stimuli\	0.6	1061.66666666667	0.7	1222.14285714286	0.7	914.857142857143	0.6	920.833333333333	0.7	1402.57142857143	0.8	1112	0.7	1099.14285714286	0.5	780.6	13	324187	2	324175	27	40	324214	-999999	324190	0	36	TrialsPROC	PL_016_SCENE_02.png	2	2	65	SessionSelectionList														target	2	Place	2-Back	57	80	50	0	0	60	2	39	226986	2	14	72	224947	-1	226295	0	1348	3	2	2039	53	227000	-54	0																65												
WM080112	116524_fnca	2	1	1	-1496402697	1	75.030	75.030	2.0.10.147	2.0.10.242	2.0.10.242	1.0.0.439	7	234	2	3	Verdana	1	80	0	0	0	WM Stimuli\	0.6	1061.66666666667	0.7	1222.14285714286	0.7	914.857142857143	0.6	920.833333333333	0.7	1402.57142857143	0.8	1112	0.7	1099.14285714286	0.5	780.6	13	324187	2	324175	27	40	324214	-999999	324190	0	36	TrialsPROC	PL_015_SCENE_01.png	2	2	66	SessionSelectionList														target	2	Place	2-Back	58	80	51	0	0	60	1	40	229559	2	13	72	227519	-1	228743	1	1224	2	2	2040	53	229572	-54	0																66												
WM080112	116524_fnca	2	1	1	-1496402697	1	75.030	75.030	2.0.10.147	2.0.10.242	2.0.10.242	1.0.0.439	7	234	2	3	Verdana	1	80	0	0	0	WM Stimuli\	0.6	1061.66666666667	0.7	1222.14285714286	0.7	914.857142857143	0.6	920.833333333333	0.7	1402.57142857143	0.8	1112	0.7	1099.14285714286	0.5	780.6	13	324187	2	324175	27	40	324214	-999999	324190	0	36	TrialsPROC	PL_020_SCENE_06.png	2	2	67	SessionSelectionList														nonlure	3	Place	2-Back	59	80	52	0	0	60	1	39	232131	1	13	73	230092	-1	231764	1	1672	3	3	2039	52	232144	-53	0																67												
WM080112	116524_fnca	2	1	1	-1496402697	1	75.030	75.030	2.0.10.147	2.0.10.242	2.0.10.242	1.0.0.439	7	234	2	3	Verdana	1	80	0	0	0	WM Stimuli\	0.6	1061.66666666667	0.7	1222.14285714286	0.7	914.857142857143	0.6	920.833333333333	0.7	1402.57142857143	0.8	1112	0.7	1099.14285714286	0.5	780.6	13	324187	2	324175	27	40	324214	-999999	324190	0	36	TrialsPROC	PL_020_SCENE_06.png	2	2	68	SessionSelectionList														lure	3	Place	2-Back	60	80	53	0	0	60	1	39	234703	2	14	72	232664	-1	233839	0	1175	2	3	2039	53	234717	-54	0																68												
WM080112	116524_fnca	2	1	1	-1496402697	1	75.030	75.030	2.0.10.147	2.0.10.242	2.0.10.242	1.0.0.439	7	234	2	3	Verdana	1	80	0	0	0	WM Stimuli\	0.6	1061.66666666667	0.7	1222.14285714286	0.7	914.857142857143	0.6	920.833333333333	0.7	1402.57142857143	0.8	1112	0.7	1099.14285714286	0.5	780.6	13	324187	2	324175	27	40	324214	-999999	324190	0	36	TrialsPROC	PL_018_SCENE_04.png	2	2	69	SessionSelectionList														nonlure	3	Place	2-Back	61	80	54	0	0	60	1	39	237275	3	14	72	235236	-1	236522	1	1286	3	3	2039	53	237289	-54	0																69												
WM080112	116524_fnca	2	1	1	-1496402697	1	75.030	75.030	2.0.10.147	2.0.10.242	2.0.10.242	1.0.0.439	7	234	2	3	Verdana	1	80	0	0	0	WM Stimuli\	0.6	1061.66666666667	0.7	1222.14285714286	0.7	914.857142857143	0.6	920.833333333333	0.7	1402.57142857143	0.8	1112	0.7	1099.14285714286	0.5	780.6	13	324187	2	324175	27	40	324214	-999999	324190	0	37	Fix15secPROC	""	2	2	70	SessionSelectionList																																															6	237742	-7	0							70												
WM080112	116524_fnca	2	1	1	-1496402697	1	75.030	75.030	2.0.10.147	2.0.10.242	2.0.10.242	1.0.0.439	7	234	2	3	Verdana	1	80	0	0	0	WM Stimuli\	0.6	1061.66666666667	0.7	1222.14285714286	0.7	914.857142857143	0.6	920.833333333333	0.7	1402.57142857143	0.8	1112	0.7	1099.14285714286	0.5	780.6	13	324187	2	324175	27	40	324214	-999999	324190	0	38	Cue0BackPROC	FC_020_F10.png	2	2	71	SessionSelectionList																																										26	252762	-27	0												71												
WM080112	116524_fnca	2	1	1	-1496402697	1	75.030	75.030	2.0.10.147	2.0.10.242	2.0.10.242	1.0.0.439	7	234	2	3	Verdana	1	80	0	0	0	WM Stimuli\	0.6	1061.66666666667	0.7	1222.14285714286	0.7	914.857142857143	0.6	920.833333333333	0.7	1402.57142857143	0.8	1112	0.7	1099.14285714286	0.5	780.6	13	324187	2	324175	27	40	324214	-999999	324190	0	39	TrialsPROC	FC_024_F12.png	2	2	72	SessionSelectionList														nonlure	3	Face	0-Back	62	80	55	0	0	62	2	39	257347	3	14	72	255308	-1	256378	1	1070	3	3	2039	53	257361	-54	0																72												
WM080112	116524_fnca	2	1	1	-1496402697	1	75.030	75.030	2.0.10.147	2.0.10.242	2.0.10.242	1.0.0.439	7	234	2	3	Verdana	1	80	0	0	0	WM Stimuli\	0.6	1061.66666666667	0.7	1222.14285714286	0.7	914.857142857143	0.6	920.833333333333	0.7	1402.57142857143	0.8	1112	0.7	1099.14285714286	0.5	780.6	13	324187	2	324175	27	40	324214	-999999	324190	0	39	TrialsPROC	FC_023_M12.png	2	2	73	SessionSelectionList														nonlure	3	Face	0-Back	63	80	56	0	0	64	3	40	259920	2	13	72	257880	-1	258669	1	789	3	3	2040	53	259933	-54	0																73												
WM080112	116524_fnca	2	1	1	-1496402697	1	75.030	75.030	2.0.10.147	2.0.10.242	2.0.10.242	1.0.0.439	7	234	2	3	Verdana	1	80	0	0	0	WM Stimuli\	0.6	1061.66666666667	0.7	1222.14285714286	0.7	914.857142857143	0.6	920.833333333333	0.7	1402.57142857143	0.8	1112	0.7	1099.14285714286	0.5	780.6	13	324187	2	324175	27	40	324214	-999999	324190	0	39	TrialsPROC	FC_020_F10.png	2	2	74	SessionSelectionList														target	2	Face	0-Back	64	80	57	0	0	61	4	39	262492	1	13	73	260453	-1	261757	0	1304	3	2	2039	52	262505	-53	0																74												
WM080112	116524_fnca	2	1	1	-1496402697	1	75.030	75.030	2.0.10.147	2.0.10.242	2.0.10.242	1.0.0.439	7	234	2	3	Verdana	1	80	0	0	0	WM Stimuli\	0.6	1061.66666666667	0.7	1222.14285714286	0.7	914.857142857143	0.6	920.833333333333	0.7	1402.57142857143	0.8	1112	0.7	1099.14285714286	0.5	780.6	13	324187	2	324175	27	40	324214	-999999	324190	0	39	TrialsPROC	FC_024_F12.png	2	2	75	SessionSelectionList														lure	3	Face	0-Back	65	80	58	0	0	58	1	39	265064	2	14	72	263025	-1	263675	0	650	2	3	2039	53	265078	-54	0																75												
WM080112	116524_fnca	2	1	1	-1496402697	1	75.030	75.030	2.0.10.147	2.0.10.242	2.0.10.242	1.0.0.439	7	234	2	3	Verdana	1	80	0	0	0	WM Stimuli\	0.6	1061.66666666667	0.7	1222.14285714286	0.7	914.857142857143	0.6	920.833333333333	0.7	1402.57142857143	0.8	1112	0.7	1099.14285714286	0.5	780.6	13	324187	2	324175	27	40	324214	-999999	324190	0	39	TrialsPROC	FC_020_F10.png	2	2	76	SessionSelectionList														target	2	Face	0-Back	66	80	58	0	1	56	1	39	267636	3	14	72	265597	-1	0	0	0	""	2	2039	53	267650	-54	0																76												
WM080112	116524_fnca	2	1	1	-1496402697	1	75.030	75.030	2.0.10.147	2.0.10.242	2.0.10.242	1.0.0.439	7	234	2	3	Verdana	1	80	0	0	0	WM Stimuli\	0.6	1061.66666666667	0.7	1222.14285714286	0.7	914.857142857143	0.6	920.833333333333	0.7	1402.57142857143	0.8	1112	0.7	1099.14285714286	0.5	780.6	13	324187	2	324175	27	40	324214	-999999	324190	0	39	TrialsPROC	FC_022_F11.png	2	2	77	SessionSelectionList														nonlure	3	Face	0-Back	67	80	59	0	0	58	1	39	270209	1	13	73	268170	-1	268593	1	423	3	3	2039	52	270222	-53	0																77												
WM080112	116524_fnca	2	1	1	-1496402697	1	75.030	75.030	2.0.10.147	2.0.10.242	2.0.10.242	1.0.0.439	7	234	2	3	Verdana	1	80	0	0	0	WM Stimuli\	0.6	1061.66666666667	0.7	1222.14285714286	0.7	914.857142857143	0.6	920.833333333333	0.7	1402.57142857143	0.8	1112	0.7	1099.14285714286	0.5	780.6	13	324187	2	324175	27	40	324214	-999999	324190	0	39	TrialsPROC	FC_023_M12.png	2	2	78	SessionSelectionList														lure	3	Face	0-Back	68	80	60	0	0	59	2	39	272781	1	13	72	270742	-1	271466	1	724	3	3	2039	52	272794	-53	0																78												
WM080112	116524_fnca	2	1	1	-1496402697	1	75.030	75.030	2.0.10.147	2.0.10.242	2.0.10.242	1.0.0.439	7	234	2	3	Verdana	1	80	0	0	0	WM Stimuli\	0.6	1061.66666666667	0.7	1222.14285714286	0.7	914.857142857143	0.6	920.833333333333	0.7	1402.57142857143	0.8	1112	0.7	1099.14285714286	0.5	780.6	13	324187	2	324175	27	40	324214	-999999	324190	0	39	TrialsPROC	FC_021_M11.png	2	2	79	SessionSelectionList														nonlure	3	Face	0-Back	69	80	61	0	0	61	3	39	275353	2	14	72	273314	-1	275061	1	1747	3	3	2039	53	275367	-54	0																79												
WM080112	116524_fnca	2	1	1	-1496402697	1	75.030	75.030	2.0.10.147	2.0.10.242	2.0.10.242	1.0.0.439	7	234	2	3	Verdana	1	80	0	0	0	WM Stimuli\	0.6	1061.66666666667	0.7	1222.14285714286	0.7	914.857142857143	0.6	920.833333333333	0.7	1402.57142857143	0.8	1112	0.7	1099.14285714286	0.5	780.6	13	324187	2	324175	27	40	324214	-999999	324190	0	39	TrialsPROC	FC_021_M11.png	2	2	80	SessionSelectionList														lure	3	Face	0-Back	70	80	62	0	0	62	4	40	277926	1	13	72	275886	-1	276658	1	772	3	3	2040	53	277939	-54	0																80												
WM080112	116524_fnca	2	1	1	-1496402697	1	75.030	75.030	2.0.10.147	2.0.10.242	2.0.10.242	1.0.0.439	7	234	2	3	Verdana	1	80	0	0	0	WM Stimuli\	0.6	1061.66666666667	0.7	1222.14285714286	0.7	914.857142857143	0.6	920.833333333333	0.7	1402.57142857143	0.8	1112	0.7	1099.14285714286	0.5	780.6	13	324187	2	324175	27	40	324214	-999999	324190	0	39	TrialsPROC	FC_019_M10.png	2	2	81	SessionSelectionList														nonlure	3	Face	0-Back	71	80	62	0	1	60	4	39	280498	2	13	73	278459	-1	0	0	0	""	3	2039	52	280511	-53	0																81												
WM080112	116524_fnca	2	1	1	-1496402697	1	75.030	75.030	2.0.10.147	2.0.10.242	2.0.10.242	1.0.0.439	7	234	2	3	Verdana	1	80	0	0	0	WM Stimuli\	0.6	1061.66666666667	0.7	1222.14285714286	0.7	914.857142857143	0.6	920.833333333333	0.7	1402.57142857143	0.8	1112	0.7	1099.14285714286	0.5	780.6	13	324187	2	324175	27	40	324214	-999999	324190	0	40	Cue0BackPROC	PL_021_SCENE_07.png	2	2	82	SessionSelectionList																																										19	280978	-20	0												82												
WM080112	116524_fnca	2	1	1	-1496402697	1	75.030	75.030	2.0.10.147	2.0.10.242	2.0.10.242	1.0.0.439	7	234	2	3	Verdana	1	80	0	0	0	WM Stimuli\	0.6	1061.66666666667	0.7	1222.14285714286	0.7	914.857142857143	0.6	920.833333333333	0.7	1402.57142857143	0.8	1112	0.7	1099.14285714286	0.5	780.6	13	324187	2	324175	27	40	324214	-999999	324190	0	41	TrialsPROC	PL_025_SCENE_18.png	2	2	83	SessionSelectionList														nonlure	3	Place	0-Back	72	80	63	0	0	61	1	40	285563	2	13	64	283523	-1	285012	1	1489	3	3	2040	53	285576	-54	0																83												
WM080112	116524_fnca	2	1	1	-1496402697	1	75.030	75.030	2.0.10.147	2.0.10.242	2.0.10.242	1.0.0.439	7	234	2	3	Verdana	1	80	0	0	0	WM Stimuli\	0.6	1061.66666666667	0.7	1222.14285714286	0.7	914.857142857143	0.6	920.833333333333	0.7	1402.57142857143	0.8	1112	0.7	1099.14285714286	0.5	780.6	13	324187	2	324175	27	40	324214	-999999	324190	0	41	TrialsPROC	PL_026_SCENE_24.png	2	2	84	SessionSelectionList														nonlure	3	Place	0-Back	73	80	64	0	0	62	2	39	288135	1	13	73	286096	-1	287076	1	980	3	3	2039	52	288148	-53	0																84												
WM080112	116524_fnca	2	1	1	-1496402697	1	75.030	75.030	2.0.10.147	2.0.10.242	2.0.10.242	1.0.0.439	7	234	2	3	Verdana	1	80	0	0	0	WM Stimuli\	0.6	1061.66666666667	0.7	1222.14285714286	0.7	914.857142857143	0.6	920.833333333333	0.7	1402.57142857143	0.8	1112	0.7	1099.14285714286	0.5	780.6	13	324187	2	324175	27	40	324214	-999999	324190	0	41	TrialsPROC	PL_025_SCENE_18.png	2	2	85	SessionSelectionList														lure	3	Place	0-Back	74	80	65	0	0	61	1	39	290707	1	14	72	288668	-1	289307	0	639	2	3	2039	53	290721	-54	0																85												
WM080112	116524_fnca	2	1	1	-1496402697	1	75.030	75.030	2.0.10.147	2.0.10.242	2.0.10.242	1.0.0.439	7	234	2	3	Verdana	1	80	0	0	0	WM Stimuli\	0.6	1061.66666666667	0.7	1222.14285714286	0.7	914.857142857143	0.6	920.833333333333	0.7	1402.57142857143	0.8	1112	0.7	1099.14285714286	0.5	780.6	13	324187	2	324175	27	40	324214	-999999	324190	0	41	TrialsPROC	PL_022_SCENE_08.png	2	2	86	SessionSelectionList														nonlure	3	Place	0-Back	75	80	66	0	0	62	1	39	293279	3	14	72	291240	-1	291880	1	640	3	3	2039	53	293293	-54	0																86												
WM080112	116524_fnca	2	1	1	-1496402697	1	75.030	75.030	2.0.10.147	2.0.10.242	2.0.10.242	1.0.0.439	7	234	2	3	Verdana	1	80	0	0	0	WM Stimuli\	0.6	1061.66666666667	0.7	1222.14285714286	0.7	914.857142857143	0.6	920.833333333333	0.7	1402.57142857143	0.8	1112	0.7	1099.14285714286	0.5	780.6	13	324187	2	324175	27	40	324214	-999999	324190	0	41	TrialsPROC	PL_026_SCENE_24.png	2	2	87	SessionSelectionList														lure	3	Place	0-Back	76	80	67	0	0	63	2	40	295852	2	13	72	293812	-1	295674	1	1862	3	3	2040	53	295865	-54	0																87												
WM080112	116524_fnca	2	1	1	-1496402697	1	75.030	75.030	2.0.10.147	2.0.10.242	2.0.10.242	1.0.0.439	7	234	2	3	Verdana	1	80	0	0	0	WM Stimuli\	0.6	1061.66666666667	0.7	1222.14285714286	0.7	914.857142857143	0.6	920.833333333333	0.7	1402.57142857143	0.8	1112	0.7	1099.14285714286	0.5	780.6	13	324187	2	324175	27	40	324214	-999999	324190	0	41	TrialsPROC	PL_021_SCENE_07.png	2	2	88	SessionSelectionList														target	2	Place	0-Back	77	80	67	0	1	61	2	39	298424	2	13	73	296385	-1	0	0	0	""	2	2039	52	298437	-53	0																88												
WM080112	116524_fnca	2	1	1	-1496402697	1	75.030	75.030	2.0.10.147	2.0.10.242	2.0.10.242	1.0.0.439	7	234	2	3	Verdana	1	80	0	0	0	WM Stimuli\	0.6	1061.66666666667	0.7	1222.14285714286	0.7	914.857142857143	0.6	920.833333333333	0.7	1402.57142857143	0.8	1112	0.7	1099.14285714286	0.5	780.6	13	324187	2	324175	27	40	324214	-999999	324190	0	41	TrialsPROC	PL_021_SCENE_07.png	2	2	89	SessionSelectionList														target	2	Place	0-Back	78	80	68	0	0	62	1	39	300996	2	14	72	298957	-1	299852	1	895	2	2	2039	53	301010	-54	0																89												
WM080112	116524_fnca	2	1	1	-1496402697	1	75.030	75.030	2.0.10.147	2.0.10.242	2.0.10.242	1.0.0.439	7	234	2	3	Verdana	1	80	0	0	0	WM Stimuli\	0.6	1061.66666666667	0.7	1222.14285714286	0.7	914.857142857143	0.6	920.833333333333	0.7	1402.57142857143	0.8	1112	0.7	1099.14285714286	0.5	780.6	13	324187	2	324175	27	40	324214	-999999	324190	0	41	TrialsPROC	PL_023_SCENE_09.png	2	2	90	SessionSelectionList														nonlure	3	Place	0-Back	79	80	69	0	0	63	1	40	303569	2	13	72	301529	-1	302364	1	835	3	3	2040	53	303582	-54	0																90												
WM080112	116524_fnca	2	1	1	-1496402697	1	75.030	75.030	2.0.10.147	2.0.10.242	2.0.10.242	1.0.0.439	7	234	2	3	Verdana	1	80	0	0	0	WM Stimuli\	0.6	1061.66666666667	0.7	1222.14285714286	0.7	914.857142857143	0.6	920.833333333333	0.7	1402.57142857143	0.8	1112	0.7	1099.14285714286	0.5	780.6	13	324187	2	324175	27	40	324214	-999999	324190	0	41	TrialsPROC	PL_024_SCENE_10.png	2	2	91	SessionSelectionList														nonlure	3	Place	0-Back	80	80	70	0	0	64	2	39	306141	2	13	73	304102	-1	305249	1	1147	3	3	2039	52	306154	-53	0																91												
WM080112	116524_fnca	2	1	1	-1496402697	1	75.030	75.030	2.0.10.147	2.0.10.242	2.0.10.242	1.0.0.439	7	234	2	3	Verdana	1	80	0	0	0	WM Stimuli\	0.6	1061.66666666667	0.7	1222.14285714286	0.7	914.857142857143	0.6	920.833333333333	0.7	1402.57142857143	0.8	1112	0.7	1099.14285714286	0.5	780.6	13	324187	2	324175	27	40	324214	-999999	324190	0	41	TrialsPROC	PL_022_SCENE_08.png	2	2	92	SessionSelectionList														lure	3	Place	0-Back	80	80	71	0	0	65	3	39	308713	3	14	72	306674	-1	307722	1	1048	3	3	2039	53	308727	-54	0																92												
WM080112	116524_fnca	2	1	1	-1496402697	1	75.030	75.030	2.0.10.147	2.0.10.242	2.0.10.242	1.0.0.439	7	234	2	3	Verdana	1	80	0	0	0	WM Stimuli\	0.6	1061.66666666667	0.7	1222.14285714286	0.7	914.857142857143	0.6	920.833333333333	0.7	1402.57142857143	0.8	1112	0.7	1099.14285714286	0.5	780.6	13	324187	2	324175	27	40	324214	-999999	324190	0	42	Fix15secPROC	""	2	2	93	SessionSelectionList																																															6	309180	-7	0							93												
