ExperimentName	HCPID	RunNumber	Subject	Session	RandomSeed	Group	Laptop.RefreshRate	ScannerD2.RefreshRate	StudioVersion	RuntimeVersion	RuntimeVersionExpected	ExperimentVersion	triggercode	Allowed	Target	Nontarget	FontStyle	RunTrialNumber[Session]	TrialsPerRun[Session]	TotalRespGreater200[Session]	ConsecRTLess200[Session]	ConsecNonResp[Session]	StimuliDir	ACC_2_Back_Body	Avg_RT_For_Correct_Trials_2_Back_Body	ACC_0_Back_Body	Avg_RT_For_Correct_Trials_0_Back_Body	ACC_2_Back_Face	Avg_RT_For_Correct_Trials_2_Back_Face	ACC_0_Back_Face	Avg_RT_For_Correct_Trials_0_Back_Face	ACC_2_Back_Place	Avg_RT_For_Correct_Trials_2_Back_Place	ACC_0_Back_Place	Avg_RT_For_Correct_Trials_0_Back_Place	ACC_2_Back_Tools	Avg_RT_For_Correct_Trials_2_Back_Tools	ACC_0_Back_Tools	Avg_RT_For_Correct_Trials_0_Back_Tools	ExpInstrucFeelFreeToRest.OnsetDelay	ExpInstrucFeelFreeToRest.OnsetTime	ExpInstrucFeelFreeToRest.DurationError	ExpInstrucFeelFreeToRest.StartTime	ExpInstrucFeelFreeToRest.OnsetToOnsetTime	FeelFreeToRest.OnsetDelay	FeelFreeToRest.OnsetTime	FeelFreeToRest.DurationError	FeelFreeToRest.StartTime	FeelFreeToRest.OnsetToOnsetTime	SessionSelectionList	Procedure[Block]	Stimulus[Block]	RunNumberFilterValue	SessionSelectionList.Cycle	SessionSelectionList.Sample	Running[Block]	IntroButtonMap.OnsetDelay	IntroButtonMap.OnsetTime	IntroButtonMap.DurationError	IntroButtonMap.OnsetToOnsetTime	GetReady.OnsetDelay	GetReady.OnsetTime	GetReady.DurationError	GetReady.OnsetToOnsetTime	Cue2Back.OnsetDelay	Cue2Back.OnsetTime	Cue2Back.DurationError	Cue2Back.OnsetToOnsetTime	Run1Block1	TargetType	CorrectResponse	StimType	BlockType	RunTrialNumber[Block]	TrialsPerRun[Block]	TotalRespGreater200[Block]	ConsecRTLess200[Block]	ConsecNonResp[Block]	ControlAcc	ConsecSameResp	ExperimenterWindow.OnsetDelay	ExperimenterWindow.OnsetTime	ExperimenterWindow.DurationError	ExperimenterWindow.OnsetToOnsetTime	Stim.OnsetDelay	Stim.OnsetTime	Stim.DurationError	Stim.RTTime	Stim.ACC	Stim.RT	Stim.RESP	Stim.CRESP	Stim.OnsetToOnsetTime	Fix.OnsetDelay	Fix.OnsetTime	Fix.DurationError	Fix.OnsetToOnsetTime	CueTarget.OnsetDelay	CueTarget.OnsetTime	CueTarget.DurationError	CueTarget.OnsetToOnsetTime	Run1Block2	Fix15sec.OnsetDelay	Fix15sec.OnsetTime	Fix15sec.DurationError	Fix15sec.OnsetToOnsetTime	Run1Block3	Run1Block4	Run1Block5	Run1Block6	Run1Block7	Run1Block8	Block	Procedure[Trial]	Stimulus[Trial]	ReadyList	Running[Trial]	ReadyList.Cycle	ReadyList.Sample	SyncSlide.OnsetDelay	SyncSlide.OnsetTime	SyncSlide.DurationError	SyncSlide.FinishTime	SyncSlide.OnsetToOnsetTime	Trial
WM080112	159340_fnca	2	1	1	-1211859060	1	75.031	75.031	2.0.10.147	2.0.10.242	2.0.10.242	1.0.0.439	7	234	2	3	Verdana	1	80	0	0	0	WM Stimuli\	0.9	1053	1	662.3	0.6	695	1	546.6	0.7	1199.28571428571	1	699.1	1	774.3	0.9	712	13	319547	2	319535	27	40	319574	-999999	319550	0	22	TRSyncPROC	""	2	2	1	SessionSelectionList	103	5476	-999999	0	30	12554	-999999	0																																																	1	InitialTR	4	1	ReadyList	1	1	11	26228	-12	28216	0	1
WM080112	159340_fnca	2	1	1	-1211859060	1	75.031	75.031	2.0.10.147	2.0.10.242	2.0.10.242	1.0.0.439	7	234	2	3	Verdana	1	80	0	0	0	WM Stimuli\	0.9	1053	1	662.3	0.6	695	1	546.6	0.7	1199.28571428571	1	699.1	1	774.3	0.9	712	13	319547	2	319535	27	40	319574	-999999	319550	0	22	TRSyncPROC	""	2	2	1	SessionSelectionList	103	5476	-999999	0	30	12554	-999999	0																																																	1	InitialTR	3	2	ReadyList	1	2	10	28227	-11	30216	0	2
WM080112	159340_fnca	2	1	1	-1211859060	1	75.031	75.031	2.0.10.147	2.0.10.242	2.0.10.242	1.0.0.439	7	234	2	3	Verdana	1	80	0	0	0	WM Stimuli\	0.9	1053	1	662.3	0.6	695	1	546.6	0.7	1199.28571428571	1	699.1	1	774.3	0.9	712	13	319547	2	319535	27	40	319574	-999999	319550	0	22	TRSyncPROC	""	2	2	1	SessionSelectionList	103	5476	-999999	0	30	12554	-999999	0																																																	1	InitialTR	2	3	ReadyList	1	3	9	30226	-10	32216	0	3
WM080112	159340_fnca	2	1	1	-1211859060	1	75.031	75.031	2.0.10.147	2.0.10.242	2.0.10.242	1.0.0.439	7	234	2	3	Verdana	1	80	0	0	0	WM Stimuli\	0.9	1053	1	662.3	0.6	695	1	546.6	0.7	1199.28571428571	1	699.1	1	774.3	0.9	712	13	319547	2	319535	27	40	319574	-999999	319550	0	22	TRSyncPROC	""	2	2	1	SessionSelectionList	103	5476	-999999	0	30	12554	-999999	0																																																	1	InitialTR	1	4	ReadyList	1	4	8	32225	-9	34216	0	4
WM080112	159340_fnca	2	1	1	-1211859060	1	75.031	75.031	2.0.10.147	2.0.10.242	2.0.10.242	1.0.0.439	7	234	2	3	Verdana	1	80	0	0	0	WM Stimuli\	0.9	1053	1	662.3	0.6	695	1	546.6	0.7	1199.28571428571	1	699.1	1	774.3	0.9	712	13	319547	2	319535	27	40	319574	-999999	319550	0	23	Cue2BackPROC	""	2	2	2	SessionSelectionList									7	34224	-8	0																																													2												
WM080112	159340_fnca	2	1	1	-1211859060	1	75.031	75.031	2.0.10.147	2.0.10.242	2.0.10.242	1.0.0.439	7	234	2	3	Verdana	1	80	0	0	0	WM Stimuli\	0.9	1053	1	662.3	0.6	695	1	546.6	0.7	1199.28571428571	1	699.1	1	774.3	0.9	712	13	319547	2	319535	27	40	319574	-999999	319550	0	24	TrialsPROC	TO_014_TOOL14_BA.png	2	2	3	SessionSelectionList														nonlure	3	Tools	2-Back	2	80	1	0	0	0	1	52	38849	3	14	80	36797	-1	37142	1	345	3	3	2052	66	38863	-67	0																3												
WM080112	159340_fnca	2	1	1	-1211859060	1	75.031	75.031	2.0.10.147	2.0.10.242	2.0.10.242	1.0.0.439	7	234	2	3	Verdana	1	80	0	0	0	WM Stimuli\	0.9	1053	1	662.3	0.6	695	1	546.6	0.7	1199.28571428571	1	699.1	1	774.3	0.9	712	13	319547	2	319535	27	40	319574	-999999	319550	0	24	TrialsPROC	TO_013_TOOL13_BA.png	2	2	4	SessionSelectionList														nonlure	3	Tools	2-Back	3	80	2	0	0	0	2	39	41395	2	14	59	39356	-1	39873	1	517	3	3	2039	53	41409	-54	0																4												
WM080112	159340_fnca	2	1	1	-1211859060	1	75.031	75.031	2.0.10.147	2.0.10.242	2.0.10.242	1.0.0.439	7	234	2	3	Verdana	1	80	0	0	0	WM Stimuli\	0.9	1053	1	662.3	0.6	695	1	546.6	0.7	1199.28571428571	1	699.1	1	774.3	0.9	712	13	319547	2	319535	27	40	319574	-999999	319550	0	24	TrialsPROC	TO_016_TOOL16_BA.png	2	2	5	SessionSelectionList														nonlure	3	Tools	2-Back	4	80	3	0	0	0	3	39	43954	1	13	59	41915	-1	42647	1	732	3	3	2039	52	43967	-53	0																5												
WM080112	159340_fnca	2	1	1	-1211859060	1	75.031	75.031	2.0.10.147	2.0.10.242	2.0.10.242	1.0.0.439	7	234	2	3	Verdana	1	80	0	0	0	WM Stimuli\	0.9	1053	1	662.3	0.6	695	1	546.6	0.7	1199.28571428571	1	699.1	1	774.3	0.9	712	13	319547	2	319535	27	40	319574	-999999	319550	0	24	TrialsPROC	TO_014_TOOL14_BA.png	2	2	6	SessionSelectionList														lure	3	Tools	2-Back	5	80	4	0	0	0	4	39	46526	1	14	72	44487	-1	45746	1	1259	3	3	2039	53	46540	-54	0																6												
WM080112	159340_fnca	2	1	1	-1211859060	1	75.031	75.031	2.0.10.147	2.0.10.242	2.0.10.242	1.0.0.439	7	234	2	3	Verdana	1	80	0	0	0	WM Stimuli\	0.9	1053	1	662.3	0.6	695	1	546.6	0.7	1199.28571428571	1	699.1	1	774.3	0.9	712	13	319547	2	319535	27	40	319574	-999999	319550	0	24	TrialsPROC	TO_016_TOOL16_BA.png	2	2	7	SessionSelectionList														target	2	Tools	2-Back	6	80	5	0	0	0	1	39	49085	1	14	59	47046	-1	47961	1	915	2	2	2039	53	49099	-54	0																7												
WM080112	159340_fnca	2	1	1	-1211859060	1	75.031	75.031	2.0.10.147	2.0.10.242	2.0.10.242	1.0.0.439	7	234	2	3	Verdana	1	80	0	0	0	WM Stimuli\	0.9	1053	1	662.3	0.6	695	1	546.6	0.7	1199.28571428571	1	699.1	1	774.3	0.9	712	13	319547	2	319535	27	40	319574	-999999	319550	0	24	TrialsPROC	TO_018_TOOL18_BA.png	2	2	8	SessionSelectionList														nonlure	3	Tools	2-Back	7	80	6	0	0	0	1	39	51644	1	14	59	49605	-1	50520	1	915	3	3	2039	53	51658	-54	0																8												
WM080112	159340_fnca	2	1	1	-1211859060	1	75.031	75.031	2.0.10.147	2.0.10.242	2.0.10.242	1.0.0.439	7	234	2	3	Verdana	1	80	0	0	0	WM Stimuli\	0.9	1053	1	662.3	0.6	695	1	546.6	0.7	1199.28571428571	1	699.1	1	774.3	0.9	712	13	319547	2	319535	27	40	319574	-999999	319550	0	24	TrialsPROC	TO_017_TOOL17_BA.png	2	2	9	SessionSelectionList														nonlure	3	Tools	2-Back	8	80	7	0	0	0	2	39	54203	1	14	59	52164	-1	52907	1	743	3	3	2039	53	54217	-54	0																9												
WM080112	159340_fnca	2	1	1	-1211859060	1	75.031	75.031	2.0.10.147	2.0.10.242	2.0.10.242	1.0.0.439	7	234	2	3	Verdana	1	80	0	0	0	WM Stimuli\	0.9	1053	1	662.3	0.6	695	1	546.6	0.7	1199.28571428571	1	699.1	1	774.3	0.9	712	13	319547	2	319535	27	40	319574	-999999	319550	0	24	TrialsPROC	TO_018_TOOL18_BA.png	2	2	10	SessionSelectionList														target	2	Tools	2-Back	9	80	8	0	0	0	1	39	56762	2	14	59	54723	-1	55311	1	588	2	2	2039	53	56776	-54	0																10												
WM080112	159340_fnca	2	1	1	-1211859060	1	75.031	75.031	2.0.10.147	2.0.10.242	2.0.10.242	1.0.0.439	7	234	2	3	Verdana	1	80	0	0	0	WM Stimuli\	0.9	1053	1	662.3	0.6	695	1	546.6	0.7	1199.28571428571	1	699.1	1	774.3	0.9	712	13	319547	2	319535	27	40	319574	-999999	319550	0	24	TrialsPROC	TO_015_TOOL15_BA.png	2	2	11	SessionSelectionList														nonlure	3	Tools	2-Back	10	80	9	0	0	0	1	39	59321	1	13	59	57282	-1	58270	1	988	3	3	2039	52	59334	-53	0																11												
WM080112	159340_fnca	2	1	1	-1211859060	1	75.031	75.031	2.0.10.147	2.0.10.242	2.0.10.242	1.0.0.439	7	234	2	3	Verdana	1	80	0	0	0	WM Stimuli\	0.9	1053	1	662.3	0.6	695	1	546.6	0.7	1199.28571428571	1	699.1	1	774.3	0.9	712	13	319547	2	319535	27	40	319574	-999999	319550	0	24	TrialsPROC	TO_017_TOOL17_BA.png	2	2	12	SessionSelectionList														lure	3	Tools	2-Back	11	80	10	0	0	0	2	39	61880	1	13	59	59841	-1	60582	1	741	3	3	2039	52	61893	-53	0																12												
WM080112	159340_fnca	2	1	1	-1211859060	1	75.031	75.031	2.0.10.147	2.0.10.242	2.0.10.242	1.0.0.439	7	234	2	3	Verdana	1	80	0	0	0	WM Stimuli\	0.9	1053	1	662.3	0.6	695	1	546.6	0.7	1199.28571428571	1	699.1	1	774.3	0.9	712	13	319547	2	319535	27	40	319574	-999999	319550	0	25	Cue0BackPROC	BP_013_BP7_BA.png	2	2	13	SessionSelectionList																																										18	62359	-19	0												13												
WM080112	159340_fnca	2	1	1	-1211859060	1	75.031	75.031	2.0.10.147	2.0.10.242	2.0.10.242	1.0.0.439	7	234	2	3	Verdana	1	80	0	0	0	WM Stimuli\	0.9	1053	1	662.3	0.6	695	1	546.6	0.7	1199.28571428571	1	699.1	1	774.3	0.9	712	13	319547	2	319535	27	40	319574	-999999	319550	0	26	TrialsPROC	BP_015_H10-T_BA.png	2	2	14	SessionSelectionList														nonlure	3	Body	0-Back	12	80	11	0	0	100	3	39	66931	1	14	51	64892	-1	65826	1	934	3	3	2039	53	66945	-54	0																14												
WM080112	159340_fnca	2	1	1	-1211859060	1	75.031	75.031	2.0.10.147	2.0.10.242	2.0.10.242	1.0.0.439	7	234	2	3	Verdana	1	80	0	0	0	WM Stimuli\	0.9	1053	1	662.3	0.6	695	1	546.6	0.7	1199.28571428571	1	699.1	1	774.3	0.9	712	13	319547	2	319535	27	40	319574	-999999	319550	0	26	TrialsPROC	BP_018_H13-T_BA.png	2	2	15	SessionSelectionList														nonlure	3	Body	0-Back	13	80	12	0	0	100	4	39	69490	1	14	59	67451	-1	68055	1	604	3	3	2039	53	69504	-54	0																15												
WM080112	159340_fnca	2	1	1	-1211859060	1	75.031	75.031	2.0.10.147	2.0.10.242	2.0.10.242	1.0.0.439	7	234	2	3	Verdana	1	80	0	0	0	WM Stimuli\	0.9	1053	1	662.3	0.6	695	1	546.6	0.7	1199.28571428571	1	699.1	1	774.3	0.9	712	13	319547	2	319535	27	40	319574	-999999	319550	0	26	TrialsPROC	BP_014_BP9_BA.png	2	2	16	SessionSelectionList														nonlure	3	Body	0-Back	14	80	13	0	0	100	5	39	72049	1	14	59	70010	-1	70773	1	763	3	3	2039	53	72063	-54	0																16												
WM080112	159340_fnca	2	1	1	-1211859060	1	75.031	75.031	2.0.10.147	2.0.10.242	2.0.10.242	1.0.0.439	7	234	2	3	Verdana	1	80	0	0	0	WM Stimuli\	0.9	1053	1	662.3	0.6	695	1	546.6	0.7	1199.28571428571	1	699.1	1	774.3	0.9	712	13	319547	2	319535	27	40	319574	-999999	319550	0	26	TrialsPROC	BP_018_H13-T_BA.png	2	2	17	SessionSelectionList														lure	3	Body	0-Back	15	80	14	0	0	100	6	52	74621	2	14	59	72569	-1	73114	1	545	3	3	2052	66	74635	-67	0																17												
WM080112	159340_fnca	2	1	1	-1211859060	1	75.031	75.031	2.0.10.147	2.0.10.242	2.0.10.242	1.0.0.439	7	234	2	3	Verdana	1	80	0	0	0	WM Stimuli\	0.9	1053	1	662.3	0.6	695	1	546.6	0.7	1199.28571428571	1	699.1	1	774.3	0.9	712	13	319547	2	319535	27	40	319574	-999999	319550	0	26	TrialsPROC	BP_013_BP7_BA.png	2	2	18	SessionSelectionList														target	2	Body	0-Back	16	80	15	0	0	100	1	39	77180	1	14	72	75141	-1	75726	1	585	2	2	2039	53	77194	-54	0																18												
WM080112	159340_fnca	2	1	1	-1211859060	1	75.031	75.031	2.0.10.147	2.0.10.242	2.0.10.242	1.0.0.439	7	234	2	3	Verdana	1	80	0	0	0	WM Stimuli\	0.9	1053	1	662.3	0.6	695	1	546.6	0.7	1199.28571428571	1	699.1	1	774.3	0.9	712	13	319547	2	319535	27	40	319574	-999999	319550	0	26	TrialsPROC	BP_015_H10-T_BA.png	2	2	19	SessionSelectionList														lure	3	Body	0-Back	17	80	16	0	0	100	1	39	79739	1	14	59	77700	-1	78345	1	645	3	3	2039	53	79753	-54	0																19												
WM080112	159340_fnca	2	1	1	-1211859060	1	75.031	75.031	2.0.10.147	2.0.10.242	2.0.10.242	1.0.0.439	7	234	2	3	Verdana	1	80	0	0	0	WM Stimuli\	0.9	1053	1	662.3	0.6	695	1	546.6	0.7	1199.28571428571	1	699.1	1	774.3	0.9	712	13	319547	2	319535	27	40	319574	-999999	319550	0	26	TrialsPROC	BP_016_H11-T_BA.png	2	2	20	SessionSelectionList														nonlure	3	Body	0-Back	18	80	17	0	0	100	2	39	82298	1	14	59	80259	-1	80686	1	427	3	3	2039	53	82312	-54	0																20												
WM080112	159340_fnca	2	1	1	-1211859060	1	75.031	75.031	2.0.10.147	2.0.10.242	2.0.10.242	1.0.0.439	7	234	2	3	Verdana	1	80	0	0	0	WM Stimuli\	0.9	1053	1	662.3	0.6	695	1	546.6	0.7	1199.28571428571	1	699.1	1	774.3	0.9	712	13	319547	2	319535	27	40	319574	-999999	319550	0	26	TrialsPROC	BP_013_BP7_BA.png	2	2	21	SessionSelectionList														target	2	Body	0-Back	19	80	18	0	0	100	1	39	84870	2	14	72	82831	-1	83476	1	645	2	2	2039	53	84884	-54	0																21												
WM080112	159340_fnca	2	1	1	-1211859060	1	75.031	75.031	2.0.10.147	2.0.10.242	2.0.10.242	1.0.0.439	7	234	2	3	Verdana	1	80	0	0	0	WM Stimuli\	0.9	1053	1	662.3	0.6	695	1	546.6	0.7	1199.28571428571	1	699.1	1	774.3	0.9	712	13	319547	2	319535	27	40	319574	-999999	319550	0	26	TrialsPROC	BP_017_H12-T_BA.png	2	2	22	SessionSelectionList														nonlure	3	Body	0-Back	20	80	19	0	0	100	1	39	87429	2	14	59	85390	-1	85845	1	455	3	3	2039	53	87443	-54	0																22												
WM080112	159340_fnca	2	1	1	-1211859060	1	75.031	75.031	2.0.10.147	2.0.10.242	2.0.10.242	1.0.0.439	7	234	2	3	Verdana	1	80	0	0	0	WM Stimuli\	0.9	1053	1	662.3	0.6	695	1	546.6	0.7	1199.28571428571	1	699.1	1	774.3	0.9	712	13	319547	2	319535	27	40	319574	-999999	319550	0	26	TrialsPROC	BP_014_BP9_BA.png	2	2	23	SessionSelectionList														lure	3	Body	0-Back	21	80	20	0	0	100	2	39	89988	2	14	59	87949	-1	88969	1	1020	3	3	2039	53	90002	-54	0																23												
WM080112	159340_fnca	2	1	1	-1211859060	1	75.031	75.031	2.0.10.147	2.0.10.242	2.0.10.242	1.0.0.439	7	234	2	3	Verdana	1	80	0	0	0	WM Stimuli\	0.9	1053	1	662.3	0.6	695	1	546.6	0.7	1199.28571428571	1	699.1	1	774.3	0.9	712	13	319547	2	319535	27	40	319574	-999999	319550	0	27	Fix15secPROC	""	2	2	24	SessionSelectionList																																															6	90455	-7	0							24												
WM080112	159340_fnca	2	1	1	-1211859060	1	75.031	75.031	2.0.10.147	2.0.10.242	2.0.10.242	1.0.0.439	7	234	2	3	Verdana	1	80	0	0	0	WM Stimuli\	0.9	1053	1	662.3	0.6	695	1	546.6	0.7	1199.28571428571	1	699.1	1	774.3	0.9	712	13	319547	2	319535	27	40	319574	-999999	319550	0	28	Cue2BackPROC	""	2	2	25	SessionSelectionList									13	105462	-14	0																																													25												
WM080112	159340_fnca	2	1	1	-1211859060	1	75.031	75.031	2.0.10.147	2.0.10.242	2.0.10.242	1.0.0.439	7	234	2	3	Verdana	1	80	0	0	0	WM Stimuli\	0.9	1053	1	662.3	0.6	695	1	546.6	0.7	1199.28571428571	1	699.1	1	774.3	0.9	712	13	319547	2	319535	27	40	319574	-999999	319550	0	29	TrialsPROC	FC_015_M8.png	2	2	26	SessionSelectionList														nonlure	3	Face	2-Back	22	80	20	0	1	100	2	39	110060	2	14	72	108021	-1	0	0	0	""	3	2039	53	110074	-54	0																26												
WM080112	159340_fnca	2	1	1	-1211859060	1	75.031	75.031	2.0.10.147	2.0.10.242	2.0.10.242	1.0.0.439	7	234	2	3	Verdana	1	80	0	0	0	WM Stimuli\	0.9	1053	1	662.3	0.6	695	1	546.6	0.7	1199.28571428571	1	699.1	1	774.3	0.9	712	13	319547	2	319535	27	40	319574	-999999	319550	0	29	TrialsPROC	FC_018_F9.png	2	2	27	SessionSelectionList														nonlure	3	Face	2-Back	23	80	21	0	0	100	1	39	112632	1	14	72	110593	-1	111411	1	818	3	3	2039	53	112646	-54	0																27												
WM080112	159340_fnca	2	1	1	-1211859060	1	75.031	75.031	2.0.10.147	2.0.10.242	2.0.10.242	1.0.0.439	7	234	2	3	Verdana	1	80	0	0	0	WM Stimuli\	0.9	1053	1	662.3	0.6	695	1	546.6	0.7	1199.28571428571	1	699.1	1	774.3	0.9	712	13	319547	2	319535	27	40	319574	-999999	319550	0	29	TrialsPROC	FC_018_F9.png	2	2	28	SessionSelectionList														lure	3	Face	2-Back	24	80	21	0	1	100	1	39	115204	2	14	72	113165	-1	0	0	0	""	3	2039	53	115218	-54	0																28												
WM080112	159340_fnca	2	1	1	-1211859060	1	75.031	75.031	2.0.10.147	2.0.10.242	2.0.10.242	1.0.0.439	7	234	2	3	Verdana	1	80	0	0	0	WM Stimuli\	0.9	1053	1	662.3	0.6	695	1	546.6	0.7	1199.28571428571	1	699.1	1	774.3	0.9	712	13	319547	2	319535	27	40	319574	-999999	319550	0	29	TrialsPROC	FC_017_M9.png	2	2	29	SessionSelectionList														nonlure	3	Face	2-Back	25	80	22	0	0	100	1	39	117777	1	13	73	115738	-1	116394	1	656	3	3	2039	52	117790	-53	0																29												
WM080112	159340_fnca	2	1	1	-1211859060	1	75.031	75.031	2.0.10.147	2.0.10.242	2.0.10.242	1.0.0.439	7	234	2	3	Verdana	1	80	0	0	0	WM Stimuli\	0.9	1053	1	662.3	0.6	695	1	546.6	0.7	1199.28571428571	1	699.1	1	774.3	0.9	712	13	319547	2	319535	27	40	319574	-999999	319550	0	29	TrialsPROC	FC_017_M9.png	2	2	30	SessionSelectionList														lure	3	Face	2-Back	26	80	23	0	0	100	2	39	120349	1	14	72	118310	-1	118940	1	630	3	3	2039	53	120363	-54	0																30												
WM080112	159340_fnca	2	1	1	-1211859060	1	75.031	75.031	2.0.10.147	2.0.10.242	2.0.10.242	1.0.0.439	7	234	2	3	Verdana	1	80	0	0	0	WM Stimuli\	0.9	1053	1	662.3	0.6	695	1	546.6	0.7	1199.28571428571	1	699.1	1	774.3	0.9	712	13	319547	2	319535	27	40	319574	-999999	319550	0	29	TrialsPROC	FC_016_F8.png	2	2	31	SessionSelectionList														nonlure	3	Face	2-Back	27	80	24	0	0	100	3	39	122921	2	14	72	120882	-1	121473	1	591	3	3	2039	53	122935	-54	0																31												
WM080112	159340_fnca	2	1	1	-1211859060	1	75.031	75.031	2.0.10.147	2.0.10.242	2.0.10.242	1.0.0.439	7	234	2	3	Verdana	1	80	0	0	0	WM Stimuli\	0.9	1053	1	662.3	0.6	695	1	546.6	0.7	1199.28571428571	1	699.1	1	774.3	0.9	712	13	319547	2	319535	27	40	319574	-999999	319550	0	29	TrialsPROC	FC_013_M7.png	2	2	32	SessionSelectionList														nonlure	3	Face	2-Back	28	80	25	0	0	100	4	40	125494	1	13	72	123454	-1	124245	1	791	3	3	2040	53	125507	-54	0																32												
WM080112	159340_fnca	2	1	1	-1211859060	1	75.031	75.031	2.0.10.147	2.0.10.242	2.0.10.242	1.0.0.439	7	234	2	3	Verdana	1	80	0	0	0	WM Stimuli\	0.9	1053	1	662.3	0.6	695	1	546.6	0.7	1199.28571428571	1	699.1	1	774.3	0.9	712	13	319547	2	319535	27	40	319574	-999999	319550	0	29	TrialsPROC	FC_014_F7.png	2	2	33	SessionSelectionList														nonlure	3	Face	2-Back	29	80	26	0	0	100	5	39	128066	1	14	73	126027	-1	126711	1	684	3	3	2039	53	128080	-54	0																33												
WM080112	159340_fnca	2	1	1	-1211859060	1	75.031	75.031	2.0.10.147	2.0.10.242	2.0.10.242	1.0.0.439	7	234	2	3	Verdana	1	80	0	0	0	WM Stimuli\	0.9	1053	1	662.3	0.6	695	1	546.6	0.7	1199.28571428571	1	699.1	1	774.3	0.9	712	13	319547	2	319535	27	40	319574	-999999	319550	0	29	TrialsPROC	FC_013_M7.png	2	2	34	SessionSelectionList														target	2	Face	2-Back	30	80	27	0	0	100	6	39	130638	1	14	72	128599	-1	129761	0	1162	3	2	2039	53	130652	-54	0																34												
WM080112	159340_fnca	2	1	1	-1211859060	1	75.031	75.031	2.0.10.147	2.0.10.242	2.0.10.242	1.0.0.439	7	234	2	3	Verdana	1	80	0	0	0	WM Stimuli\	0.9	1053	1	662.3	0.6	695	1	546.6	0.7	1199.28571428571	1	699.1	1	774.3	0.9	712	13	319547	2	319535	27	40	319574	-999999	319550	0	29	TrialsPROC	FC_014_F7.png	2	2	35	SessionSelectionList														target	2	Face	2-Back	31	80	28	0	0	100	7	39	133210	2	14	72	131171	-1	131883	0	712	3	2	2039	53	133224	-54	0																35												
WM080112	159340_fnca	2	1	1	-1211859060	1	75.031	75.031	2.0.10.147	2.0.10.242	2.0.10.242	1.0.0.439	7	234	2	3	Verdana	1	80	0	0	0	WM Stimuli\	0.9	1053	1	662.3	0.6	695	1	546.6	0.7	1199.28571428571	1	699.1	1	774.3	0.9	712	13	319547	2	319535	27	40	319574	-999999	319550	0	30	Cue0BackPROC	TO_019_TOOL19_BA.png	2	2	36	SessionSelectionList																																										19	133690	-20	0												36												
WM080112	159340_fnca	2	1	1	-1211859060	1	75.031	75.031	2.0.10.147	2.0.10.242	2.0.10.242	1.0.0.439	7	234	2	3	Verdana	1	80	0	0	0	WM Stimuli\	0.9	1053	1	662.3	0.6	695	1	546.6	0.7	1199.28571428571	1	699.1	1	774.3	0.9	712	13	319547	2	319535	27	40	319574	-999999	319550	0	31	TrialsPROC	TO_019_TOOL19_BA.png	2	2	37	SessionSelectionList														target	2	Tools	0-Back	32	80	28	0	1	91	7	40	138262	1	13	51	136222	-1	0	0	0	""	2	2040	53	138275	-54	0																37												
WM080112	159340_fnca	2	1	1	-1211859060	1	75.031	75.031	2.0.10.147	2.0.10.242	2.0.10.242	1.0.0.439	7	234	2	3	Verdana	1	80	0	0	0	WM Stimuli\	0.9	1053	1	662.3	0.6	695	1	546.6	0.7	1199.28571428571	1	699.1	1	774.3	0.9	712	13	319547	2	319535	27	40	319574	-999999	319550	0	31	TrialsPROC	TO_024_TOOL24_BA.png	2	2	38	SessionSelectionList														nonlure	3	Tools	0-Back	33	80	29	0	0	92	1	40	140821	1	13	59	138781	-1	139960	1	1179	3	3	2040	53	140834	-54	0																38												
WM080112	159340_fnca	2	1	1	-1211859060	1	75.031	75.031	2.0.10.147	2.0.10.242	2.0.10.242	1.0.0.439	7	234	2	3	Verdana	1	80	0	0	0	WM Stimuli\	0.9	1053	1	662.3	0.6	695	1	546.6	0.7	1199.28571428571	1	699.1	1	774.3	0.9	712	13	319547	2	319535	27	40	319574	-999999	319550	0	31	TrialsPROC	TO_019_TOOL19_BA.png	2	2	39	SessionSelectionList														target	2	Tools	0-Back	34	80	30	0	0	92	1	39	143379	2	14	59	141340	-1	142178	1	838	2	2	2039	53	143393	-54	0																39												
WM080112	159340_fnca	2	1	1	-1211859060	1	75.031	75.031	2.0.10.147	2.0.10.242	2.0.10.242	1.0.0.439	7	234	2	3	Verdana	1	80	0	0	0	WM Stimuli\	0.9	1053	1	662.3	0.6	695	1	546.6	0.7	1199.28571428571	1	699.1	1	774.3	0.9	712	13	319547	2	319535	27	40	319574	-999999	319550	0	31	TrialsPROC	TO_023_TOOL23_BA.png	2	2	40	SessionSelectionList														nonlure	3	Tools	0-Back	35	80	31	0	0	93	1	39	145939	1	13	60	143900	-1	144508	1	608	3	3	2039	52	145952	-53	0																40												
WM080112	159340_fnca	2	1	1	-1211859060	1	75.031	75.031	2.0.10.147	2.0.10.242	2.0.10.242	1.0.0.439	7	234	2	3	Verdana	1	80	0	0	0	WM Stimuli\	0.9	1053	1	662.3	0.6	695	1	546.6	0.7	1199.28571428571	1	699.1	1	774.3	0.9	712	13	319547	2	319535	27	40	319574	-999999	319550	0	31	TrialsPROC	TO_020_TOOL20_BA.png	2	2	41	SessionSelectionList														nonlure	3	Tools	0-Back	36	80	32	0	0	93	2	39	148497	2	14	58	146458	-1	146913	1	455	3	3	2039	53	148511	-54	0																41												
WM080112	159340_fnca	2	1	1	-1211859060	1	75.031	75.031	2.0.10.147	2.0.10.242	2.0.10.242	1.0.0.439	7	234	2	3	Verdana	1	80	0	0	0	WM Stimuli\	0.9	1053	1	662.3	0.6	695	1	546.6	0.7	1199.28571428571	1	699.1	1	774.3	0.9	712	13	319547	2	319535	27	40	319574	-999999	319550	0	31	TrialsPROC	TO_020_TOOL20_BA.png	2	2	42	SessionSelectionList														lure	3	Tools	0-Back	37	80	33	0	0	94	3	39	151056	3	14	59	149017	-1	149429	1	412	3	3	2039	53	151070	-54	0																42												
WM080112	159340_fnca	2	1	1	-1211859060	1	75.031	75.031	2.0.10.147	2.0.10.242	2.0.10.242	1.0.0.439	7	234	2	3	Verdana	1	80	0	0	0	WM Stimuli\	0.9	1053	1	662.3	0.6	695	1	546.6	0.7	1199.28571428571	1	699.1	1	774.3	0.9	712	13	319547	2	319535	27	40	319574	-999999	319550	0	31	TrialsPROC	TO_022_TOOL22_BA.png	2	2	43	SessionSelectionList														nonlure	3	Tools	0-Back	38	80	34	0	0	94	4	39	153615	2	14	59	151576	-1	152303	1	727	3	3	2039	53	153629	-54	0																43												
WM080112	159340_fnca	2	1	1	-1211859060	1	75.031	75.031	2.0.10.147	2.0.10.242	2.0.10.242	1.0.0.439	7	234	2	3	Verdana	1	80	0	0	0	WM Stimuli\	0.9	1053	1	662.3	0.6	695	1	546.6	0.7	1199.28571428571	1	699.1	1	774.3	0.9	712	13	319547	2	319535	27	40	319574	-999999	319550	0	31	TrialsPROC	TO_022_TOOL22_BA.png	2	2	44	SessionSelectionList														lure	3	Tools	0-Back	39	80	35	0	0	94	5	39	156174	3	14	59	154135	-1	154579	1	444	3	3	2039	53	156188	-54	0																44												
WM080112	159340_fnca	2	1	1	-1211859060	1	75.031	75.031	2.0.10.147	2.0.10.242	2.0.10.242	1.0.0.439	7	234	2	3	Verdana	1	80	0	0	0	WM Stimuli\	0.9	1053	1	662.3	0.6	695	1	546.6	0.7	1199.28571428571	1	699.1	1	774.3	0.9	712	13	319547	2	319535	27	40	319574	-999999	319550	0	31	TrialsPROC	TO_021_TOOL21_BA.png	2	2	45	SessionSelectionList														nonlure	3	Tools	0-Back	40	80	36	0	0	95	6	39	158733	2	14	59	156694	-1	157837	1	1143	3	3	2039	53	158747	-54	0																45												
WM080112	159340_fnca	2	1	1	-1211859060	1	75.031	75.031	2.0.10.147	2.0.10.242	2.0.10.242	1.0.0.439	7	234	2	3	Verdana	1	80	0	0	0	WM Stimuli\	0.9	1053	1	662.3	0.6	695	1	546.6	0.7	1199.28571428571	1	699.1	1	774.3	0.9	712	13	319547	2	319535	27	40	319574	-999999	319550	0	31	TrialsPROC	TO_021_TOOL21_BA.png	2	2	46	SessionSelectionList														lure	3	Tools	0-Back	41	80	37	0	0	95	7	39	161292	1	14	59	159253	-1	159855	1	602	3	3	2039	53	161306	-54	0																46												
WM080112	159340_fnca	2	1	1	-1211859060	1	75.031	75.031	2.0.10.147	2.0.10.242	2.0.10.242	1.0.0.439	7	234	2	3	Verdana	1	80	0	0	0	WM Stimuli\	0.9	1053	1	662.3	0.6	695	1	546.6	0.7	1199.28571428571	1	699.1	1	774.3	0.9	712	13	319547	2	319535	27	40	319574	-999999	319550	0	32	Fix15secPROC	""	2	2	47	SessionSelectionList																																															6	161759	-7	0							47												
WM080112	159340_fnca	2	1	1	-1211859060	1	75.031	75.031	2.0.10.147	2.0.10.242	2.0.10.242	1.0.0.439	7	234	2	3	Verdana	1	80	0	0	0	WM Stimuli\	0.9	1053	1	662.3	0.6	695	1	546.6	0.7	1199.28571428571	1	699.1	1	774.3	0.9	712	13	319547	2	319535	27	40	319574	-999999	319550	0	33	Cue2BackPROC	""	2	2	48	SessionSelectionList									13	176766	-14	0																																													48												
WM080112	159340_fnca	2	1	1	-1211859060	1	75.031	75.031	2.0.10.147	2.0.10.242	2.0.10.242	1.0.0.439	7	234	2	3	Verdana	1	80	0	0	0	WM Stimuli\	0.9	1053	1	662.3	0.6	695	1	546.6	0.7	1199.28571428571	1	699.1	1	774.3	0.9	712	13	319547	2	319535	27	40	319574	-999999	319550	0	34	TrialsPROC	BP_020_H17-T_BA.png	2	2	49	SessionSelectionList														nonlure	3	Body	2-Back	42	80	38	0	0	95	8	39	181364	2	14	72	179325	-1	181035	1	1710	3	3	2039	53	181378	-54	0																49												
WM080112	159340_fnca	2	1	1	-1211859060	1	75.031	75.031	2.0.10.147	2.0.10.242	2.0.10.242	1.0.0.439	7	234	2	3	Verdana	1	80	0	0	0	WM Stimuli\	0.9	1053	1	662.3	0.6	695	1	546.6	0.7	1199.28571428571	1	699.1	1	774.3	0.9	712	13	319547	2	319535	27	40	319574	-999999	319550	0	34	TrialsPROC	BP_019_H14-T_BA.png	2	2	50	SessionSelectionList														nonlure	3	Body	2-Back	43	80	39	0	0	95	9	39	183923	1	14	59	181884	-1	182830	1	946	3	3	2039	53	183937	-54	0																50												
WM080112	159340_fnca	2	1	1	-1211859060	1	75.031	75.031	2.0.10.147	2.0.10.242	2.0.10.242	1.0.0.439	7	234	2	3	Verdana	1	80	0	0	0	WM Stimuli\	0.9	1053	1	662.3	0.6	695	1	546.6	0.7	1199.28571428571	1	699.1	1	774.3	0.9	712	13	319547	2	319535	27	40	319574	-999999	319550	0	34	TrialsPROC	BP_020_H17-T_BA.png	2	2	51	SessionSelectionList														target	2	Body	2-Back	44	80	40	0	0	95	1	39	186482	1	13	59	184443	-1	184948	1	505	2	2	2039	52	186495	-53	0																51												
WM080112	159340_fnca	2	1	1	-1211859060	1	75.031	75.031	2.0.10.147	2.0.10.242	2.0.10.242	1.0.0.439	7	234	2	3	Verdana	1	80	0	0	0	WM Stimuli\	0.9	1053	1	662.3	0.6	695	1	546.6	0.7	1199.28571428571	1	699.1	1	774.3	0.9	712	13	319547	2	319535	27	40	319574	-999999	319550	0	34	TrialsPROC	BP_019_H14-T_BA.png	2	2	52	SessionSelectionList														target	2	Body	2-Back	45	80	41	0	0	95	2	39	189054	1	14	72	187015	-1	188215	1	1200	2	2	2039	53	189068	-54	0																52												
WM080112	159340_fnca	2	1	1	-1211859060	1	75.031	75.031	2.0.10.147	2.0.10.242	2.0.10.242	1.0.0.439	7	234	2	3	Verdana	1	80	0	0	0	WM Stimuli\	0.9	1053	1	662.3	0.6	695	1	546.6	0.7	1199.28571428571	1	699.1	1	774.3	0.9	712	13	319547	2	319535	27	40	319574	-999999	319550	0	34	TrialsPROC	BP_024_H3-T_BA.png	2	2	53	SessionSelectionList														nonlure	3	Body	2-Back	46	80	42	0	0	95	1	39	191613	1	14	59	189574	-1	190679	1	1105	3	3	2039	53	191627	-54	0																53												
WM080112	159340_fnca	2	1	1	-1211859060	1	75.031	75.031	2.0.10.147	2.0.10.242	2.0.10.242	1.0.0.439	7	234	2	3	Verdana	1	80	0	0	0	WM Stimuli\	0.9	1053	1	662.3	0.6	695	1	546.6	0.7	1199.28571428571	1	699.1	1	774.3	0.9	712	13	319547	2	319535	27	40	319574	-999999	319550	0	34	TrialsPROC	BP_024_H3-T_BA.png	2	2	54	SessionSelectionList														lure	3	Body	2-Back	47	80	43	0	0	95	2	39	194172	1	14	59	192133	-1	193029	1	896	3	3	2039	53	194186	-54	0																54												
WM080112	159340_fnca	2	1	1	-1211859060	1	75.031	75.031	2.0.10.147	2.0.10.242	2.0.10.242	1.0.0.439	7	234	2	3	Verdana	1	80	0	0	0	WM Stimuli\	0.9	1053	1	662.3	0.6	695	1	546.6	0.7	1199.28571428571	1	699.1	1	774.3	0.9	712	13	319547	2	319535	27	40	319574	-999999	319550	0	34	TrialsPROC	BP_025_H5-T_BA.png	2	2	55	SessionSelectionList														nonlure	3	Body	2-Back	48	80	44	0	0	95	3	39	196731	1	14	59	194692	-1	196040	1	1348	3	3	2039	53	196745	-54	0																55												
WM080112	159340_fnca	2	1	1	-1211859060	1	75.031	75.031	2.0.10.147	2.0.10.242	2.0.10.242	1.0.0.439	7	234	2	3	Verdana	1	80	0	0	0	WM Stimuli\	0.9	1053	1	662.3	0.6	695	1	546.6	0.7	1199.28571428571	1	699.1	1	774.3	0.9	712	13	319547	2	319535	27	40	319574	-999999	319550	0	34	TrialsPROC	BP_023_H25-T_BA.png	2	2	56	SessionSelectionList														nonlure	3	Body	2-Back	49	80	45	0	0	95	1	39	199303	2	14	72	197264	-1	198321	0	1057	2	3	2039	53	199317	-54	0																56												
WM080112	159340_fnca	2	1	1	-1211859060	1	75.031	75.031	2.0.10.147	2.0.10.242	2.0.10.242	1.0.0.439	7	234	2	3	Verdana	1	80	0	0	0	WM Stimuli\	0.9	1053	1	662.3	0.6	695	1	546.6	0.7	1199.28571428571	1	699.1	1	774.3	0.9	712	13	319547	2	319535	27	40	319574	-999999	319550	0	34	TrialsPROC	BP_022_H24-T_BA.png	2	2	57	SessionSelectionList														nonlure	3	Body	2-Back	50	80	46	0	0	95	1	39	201862	2	14	59	199823	-1	200730	1	907	3	3	2039	53	201876	-54	0																57												
WM080112	159340_fnca	2	1	1	-1211859060	1	75.031	75.031	2.0.10.147	2.0.10.242	2.0.10.242	1.0.0.439	7	234	2	3	Verdana	1	80	0	0	0	WM Stimuli\	0.9	1053	1	662.3	0.6	695	1	546.6	0.7	1199.28571428571	1	699.1	1	774.3	0.9	712	13	319547	2	319535	27	40	319574	-999999	319550	0	34	TrialsPROC	BP_022_H24-T_BA.png	2	2	58	SessionSelectionList														lure	3	Body	2-Back	51	80	47	0	0	95	2	39	204421	1	14	59	202382	-1	203242	1	860	3	3	2039	53	204435	-54	0																58												
WM080112	159340_fnca	2	1	1	-1211859060	1	75.031	75.031	2.0.10.147	2.0.10.242	2.0.10.242	1.0.0.439	7	234	2	3	Verdana	1	80	0	0	0	WM Stimuli\	0.9	1053	1	662.3	0.6	695	1	546.6	0.7	1199.28571428571	1	699.1	1	774.3	0.9	712	13	319547	2	319535	27	40	319574	-999999	319550	0	35	Cue2BackPROC	""	2	2	59	SessionSelectionList									5	204887	-6	0																																													59												
WM080112	159340_fnca	2	1	1	-1211859060	1	75.031	75.031	2.0.10.147	2.0.10.242	2.0.10.242	1.0.0.439	7	234	2	3	Verdana	1	80	0	0	0	WM Stimuli\	0.9	1053	1	662.3	0.6	695	1	546.6	0.7	1199.28571428571	1	699.1	1	774.3	0.9	712	13	319547	2	319535	27	40	319574	-999999	319550	0	36	TrialsPROC	PL_019_SCENE_05.png	2	2	60	SessionSelectionList														nonlure	3	Place	2-Back	52	80	48	0	0	95	3	40	209486	1	13	64	207446	-1	208875	1	1429	3	3	2040	53	209499	-54	0																60												
WM080112	159340_fnca	2	1	1	-1211859060	1	75.031	75.031	2.0.10.147	2.0.10.242	2.0.10.242	1.0.0.439	7	234	2	3	Verdana	1	80	0	0	0	WM Stimuli\	0.9	1053	1	662.3	0.6	695	1	546.6	0.7	1199.28571428571	1	699.1	1	774.3	0.9	712	13	319547	2	319535	27	40	319574	-999999	319550	0	36	TrialsPROC	PL_017_SCENE_03.png	2	2	61	SessionSelectionList														nonlure	3	Place	2-Back	53	80	49	0	0	95	4	39	212058	1	14	73	210019	-1	211745	1	1726	3	3	2039	53	212072	-54	0																61												
WM080112	159340_fnca	2	1	1	-1211859060	1	75.031	75.031	2.0.10.147	2.0.10.242	2.0.10.242	1.0.0.439	7	234	2	3	Verdana	1	80	0	0	0	WM Stimuli\	0.9	1053	1	662.3	0.6	695	1	546.6	0.7	1199.28571428571	1	699.1	1	774.3	0.9	712	13	319547	2	319535	27	40	319574	-999999	319550	0	36	TrialsPROC	PL_017_SCENE_03.png	2	2	62	SessionSelectionList														lure	3	Place	2-Back	54	80	50	0	0	95	5	39	214630	2	14	72	212591	-1	213906	1	1315	3	3	2039	53	214644	-54	0																62												
WM080112	159340_fnca	2	1	1	-1211859060	1	75.031	75.031	2.0.10.147	2.0.10.242	2.0.10.242	1.0.0.439	7	234	2	3	Verdana	1	80	0	0	0	WM Stimuli\	0.9	1053	1	662.3	0.6	695	1	546.6	0.7	1199.28571428571	1	699.1	1	774.3	0.9	712	13	319547	2	319535	27	40	319574	-999999	319550	0	36	TrialsPROC	PL_016_SCENE_02.png	2	2	63	SessionSelectionList														nonlure	3	Place	2-Back	55	80	51	0	0	95	6	39	217202	2	14	72	215163	-1	216113	1	950	3	3	2039	53	217216	-54	0																63												
WM080112	159340_fnca	2	1	1	-1211859060	1	75.031	75.031	2.0.10.147	2.0.10.242	2.0.10.242	1.0.0.439	7	234	2	3	Verdana	1	80	0	0	0	WM Stimuli\	0.9	1053	1	662.3	0.6	695	1	546.6	0.7	1199.28571428571	1	699.1	1	774.3	0.9	712	13	319547	2	319535	27	40	319574	-999999	319550	0	36	TrialsPROC	PL_015_SCENE_01.png	2	2	64	SessionSelectionList														nonlure	3	Place	2-Back	56	80	52	0	0	95	7	39	219775	2	13	73	217736	-1	218450	1	714	3	3	2039	52	219788	-53	0																64												
WM080112	159340_fnca	2	1	1	-1211859060	1	75.031	75.031	2.0.10.147	2.0.10.242	2.0.10.242	1.0.0.439	7	234	2	3	Verdana	1	80	0	0	0	WM Stimuli\	0.9	1053	1	662.3	0.6	695	1	546.6	0.7	1199.28571428571	1	699.1	1	774.3	0.9	712	13	319547	2	319535	27	40	319574	-999999	319550	0	36	TrialsPROC	PL_016_SCENE_02.png	2	2	65	SessionSelectionList														target	2	Place	2-Back	57	80	53	0	0	95	8	39	222347	2	14	72	220308	-1	221089	0	781	3	2	2039	53	222361	-54	0																65												
WM080112	159340_fnca	2	1	1	-1211859060	1	75.031	75.031	2.0.10.147	2.0.10.242	2.0.10.242	1.0.0.439	7	234	2	3	Verdana	1	80	0	0	0	WM Stimuli\	0.9	1053	1	662.3	0.6	695	1	546.6	0.7	1199.28571428571	1	699.1	1	774.3	0.9	712	13	319547	2	319535	27	40	319574	-999999	319550	0	36	TrialsPROC	PL_015_SCENE_01.png	2	2	66	SessionSelectionList														target	2	Place	2-Back	58	80	54	0	0	95	9	39	224919	2	14	72	222880	-1	223890	0	1010	3	2	2039	53	224933	-54	0																66												
WM080112	159340_fnca	2	1	1	-1211859060	1	75.031	75.031	2.0.10.147	2.0.10.242	2.0.10.242	1.0.0.439	7	234	2	3	Verdana	1	80	0	0	0	WM Stimuli\	0.9	1053	1	662.3	0.6	695	1	546.6	0.7	1199.28571428571	1	699.1	1	774.3	0.9	712	13	319547	2	319535	27	40	319574	-999999	319550	0	36	TrialsPROC	PL_020_SCENE_06.png	2	2	67	SessionSelectionList														nonlure	3	Place	2-Back	59	80	54	0	1	95	9	40	227492	1	13	72	225452	-1	0	0	0	""	3	2040	53	227505	-54	0																67												
WM080112	159340_fnca	2	1	1	-1211859060	1	75.031	75.031	2.0.10.147	2.0.10.242	2.0.10.242	1.0.0.439	7	234	2	3	Verdana	1	80	0	0	0	WM Stimuli\	0.9	1053	1	662.3	0.6	695	1	546.6	0.7	1199.28571428571	1	699.1	1	774.3	0.9	712	13	319547	2	319535	27	40	319574	-999999	319550	0	36	TrialsPROC	PL_020_SCENE_06.png	2	2	68	SessionSelectionList														lure	3	Place	2-Back	60	80	55	0	0	95	1	39	230064	1	14	73	228025	-1	229132	1	1107	3	3	2039	53	230078	-54	0																68												
WM080112	159340_fnca	2	1	1	-1211859060	1	75.031	75.031	2.0.10.147	2.0.10.242	2.0.10.242	1.0.0.439	7	234	2	3	Verdana	1	80	0	0	0	WM Stimuli\	0.9	1053	1	662.3	0.6	695	1	546.6	0.7	1199.28571428571	1	699.1	1	774.3	0.9	712	13	319547	2	319535	27	40	319574	-999999	319550	0	36	TrialsPROC	PL_018_SCENE_04.png	2	2	69	SessionSelectionList														nonlure	3	Place	2-Back	61	80	56	0	0	95	2	39	232636	1	14	72	230597	-1	231751	1	1154	3	3	2039	53	232650	-54	0																69												
WM080112	159340_fnca	2	1	1	-1211859060	1	75.031	75.031	2.0.10.147	2.0.10.242	2.0.10.242	1.0.0.439	7	234	2	3	Verdana	1	80	0	0	0	WM Stimuli\	0.9	1053	1	662.3	0.6	695	1	546.6	0.7	1199.28571428571	1	699.1	1	774.3	0.9	712	13	319547	2	319535	27	40	319574	-999999	319550	0	37	Fix15secPROC	""	2	2	70	SessionSelectionList																																															6	233103	-7	0							70												
WM080112	159340_fnca	2	1	1	-1211859060	1	75.031	75.031	2.0.10.147	2.0.10.242	2.0.10.242	1.0.0.439	7	234	2	3	Verdana	1	80	0	0	0	WM Stimuli\	0.9	1053	1	662.3	0.6	695	1	546.6	0.7	1199.28571428571	1	699.1	1	774.3	0.9	712	13	319547	2	319535	27	40	319574	-999999	319550	0	38	Cue0BackPROC	FC_020_F10.png	2	2	71	SessionSelectionList																																										26	248123	-27	0												71												
WM080112	159340_fnca	2	1	1	-1211859060	1	75.031	75.031	2.0.10.147	2.0.10.242	2.0.10.242	1.0.0.439	7	234	2	3	Verdana	1	80	0	0	0	WM Stimuli\	0.9	1053	1	662.3	0.6	695	1	546.6	0.7	1199.28571428571	1	699.1	1	774.3	0.9	712	13	319547	2	319535	27	40	319574	-999999	319550	0	39	TrialsPROC	FC_024_F12.png	2	2	72	SessionSelectionList														nonlure	3	Face	0-Back	62	80	57	0	0	95	3	39	252708	1	14	72	250669	-1	251748	1	1079	3	3	2039	53	252722	-54	0																72												
WM080112	159340_fnca	2	1	1	-1211859060	1	75.031	75.031	2.0.10.147	2.0.10.242	2.0.10.242	1.0.0.439	7	234	2	3	Verdana	1	80	0	0	0	WM Stimuli\	0.9	1053	1	662.3	0.6	695	1	546.6	0.7	1199.28571428571	1	699.1	1	774.3	0.9	712	13	319547	2	319535	27	40	319574	-999999	319550	0	39	TrialsPROC	FC_023_M12.png	2	2	73	SessionSelectionList														nonlure	3	Face	0-Back	63	80	58	0	0	95	4	39	255280	2	14	72	253241	-1	253868	1	627	3	3	2039	53	255294	-54	0																73												
WM080112	159340_fnca	2	1	1	-1211859060	1	75.031	75.031	2.0.10.147	2.0.10.242	2.0.10.242	1.0.0.439	7	234	2	3	Verdana	1	80	0	0	0	WM Stimuli\	0.9	1053	1	662.3	0.6	695	1	546.6	0.7	1199.28571428571	1	699.1	1	774.3	0.9	712	13	319547	2	319535	27	40	319574	-999999	319550	0	39	TrialsPROC	FC_020_F10.png	2	2	74	SessionSelectionList														target	2	Face	0-Back	64	80	59	0	0	96	1	39	257852	2	14	72	255813	-1	256427	1	614	2	2	2039	53	257866	-54	0																74												
WM080112	159340_fnca	2	1	1	-1211859060	1	75.031	75.031	2.0.10.147	2.0.10.242	2.0.10.242	1.0.0.439	7	234	2	3	Verdana	1	80	0	0	0	WM Stimuli\	0.9	1053	1	662.3	0.6	695	1	546.6	0.7	1199.28571428571	1	699.1	1	774.3	0.9	712	13	319547	2	319535	27	40	319574	-999999	319550	0	39	TrialsPROC	FC_024_F12.png	2	2	75	SessionSelectionList														lure	3	Face	0-Back	65	80	60	0	0	96	1	40	260425	2	13	72	258385	-1	258733	1	348	3	3	2040	53	260438	-54	0																75												
WM080112	159340_fnca	2	1	1	-1211859060	1	75.031	75.031	2.0.10.147	2.0.10.242	2.0.10.242	1.0.0.439	7	234	2	3	Verdana	1	80	0	0	0	WM Stimuli\	0.9	1053	1	662.3	0.6	695	1	546.6	0.7	1199.28571428571	1	699.1	1	774.3	0.9	712	13	319547	2	319535	27	40	319574	-999999	319550	0	39	TrialsPROC	FC_020_F10.png	2	2	76	SessionSelectionList														target	2	Face	0-Back	66	80	61	0	0	96	1	39	262997	2	14	73	260958	-1	261506	1	548	2	2	2039	53	263011	-54	0																76												
WM080112	159340_fnca	2	1	1	-1211859060	1	75.031	75.031	2.0.10.147	2.0.10.242	2.0.10.242	1.0.0.439	7	234	2	3	Verdana	1	80	0	0	0	WM Stimuli\	0.9	1053	1	662.3	0.6	695	1	546.6	0.7	1199.28571428571	1	699.1	1	774.3	0.9	712	13	319547	2	319535	27	40	319574	-999999	319550	0	39	TrialsPROC	FC_022_F11.png	2	2	77	SessionSelectionList														nonlure	3	Face	0-Back	67	80	62	0	0	96	1	39	265569	2	14	72	263530	-1	264061	1	531	3	3	2039	53	265583	-54	0																77												
WM080112	159340_fnca	2	1	1	-1211859060	1	75.031	75.031	2.0.10.147	2.0.10.242	2.0.10.242	1.0.0.439	7	234	2	3	Verdana	1	80	0	0	0	WM Stimuli\	0.9	1053	1	662.3	0.6	695	1	546.6	0.7	1199.28571428571	1	699.1	1	774.3	0.9	712	13	319547	2	319535	27	40	319574	-999999	319550	0	39	TrialsPROC	FC_023_M12.png	2	2	78	SessionSelectionList														lure	3	Face	0-Back	68	80	63	0	0	96	2	39	268141	3	14	72	266102	-1	266591	1	489	3	3	2039	53	268155	-54	0																78												
WM080112	159340_fnca	2	1	1	-1211859060	1	75.031	75.031	2.0.10.147	2.0.10.242	2.0.10.242	1.0.0.439	7	234	2	3	Verdana	1	80	0	0	0	WM Stimuli\	0.9	1053	1	662.3	0.6	695	1	546.6	0.7	1199.28571428571	1	699.1	1	774.3	0.9	712	13	319547	2	319535	27	40	319574	-999999	319550	0	39	TrialsPROC	FC_021_M11.png	2	2	79	SessionSelectionList														nonlure	3	Face	0-Back	69	80	64	0	0	96	3	39	270714	1	14	73	268675	-1	269109	1	434	3	3	2039	53	270728	-54	0																79												
WM080112	159340_fnca	2	1	1	-1211859060	1	75.031	75.031	2.0.10.147	2.0.10.242	2.0.10.242	1.0.0.439	7	234	2	3	Verdana	1	80	0	0	0	WM Stimuli\	0.9	1053	1	662.3	0.6	695	1	546.6	0.7	1199.28571428571	1	699.1	1	774.3	0.9	712	13	319547	2	319535	27	40	319574	-999999	319550	0	39	TrialsPROC	FC_021_M11.png	2	2	80	SessionSelectionList														lure	3	Face	0-Back	70	80	65	0	0	97	4	39	273286	1	14	72	271247	-1	271644	1	397	3	3	2039	53	273300	-54	0																80												
WM080112	159340_fnca	2	1	1	-1211859060	1	75.031	75.031	2.0.10.147	2.0.10.242	2.0.10.242	1.0.0.439	7	234	2	3	Verdana	1	80	0	0	0	WM Stimuli\	0.9	1053	1	662.3	0.6	695	1	546.6	0.7	1199.28571428571	1	699.1	1	774.3	0.9	712	13	319547	2	319535	27	40	319574	-999999	319550	0	39	TrialsPROC	FC_019_M10.png	2	2	81	SessionSelectionList														nonlure	3	Face	0-Back	71	80	66	0	0	97	5	39	275858	2	14	72	273819	-1	274218	1	399	3	3	2039	53	275872	-54	0																81												
WM080112	159340_fnca	2	1	1	-1211859060	1	75.031	75.031	2.0.10.147	2.0.10.242	2.0.10.242	1.0.0.439	7	234	2	3	Verdana	1	80	0	0	0	WM Stimuli\	0.9	1053	1	662.3	0.6	695	1	546.6	0.7	1199.28571428571	1	699.1	1	774.3	0.9	712	13	319547	2	319535	27	40	319574	-999999	319550	0	40	Cue0BackPROC	PL_021_SCENE_07.png	2	2	82	SessionSelectionList																																										19	276338	-20	0												82												
WM080112	159340_fnca	2	1	1	-1211859060	1	75.031	75.031	2.0.10.147	2.0.10.242	2.0.10.242	1.0.0.439	7	234	2	3	Verdana	1	80	0	0	0	WM Stimuli\	0.9	1053	1	662.3	0.6	695	1	546.6	0.7	1199.28571428571	1	699.1	1	774.3	0.9	712	13	319547	2	319535	27	40	319574	-999999	319550	0	41	TrialsPROC	PL_025_SCENE_18.png	2	2	83	SessionSelectionList														nonlure	3	Place	0-Back	72	80	67	0	0	97	6	39	280923	2	14	65	278884	-1	279486	1	602	3	3	2039	53	280937	-54	0																83												
WM080112	159340_fnca	2	1	1	-1211859060	1	75.031	75.031	2.0.10.147	2.0.10.242	2.0.10.242	1.0.0.439	7	234	2	3	Verdana	1	80	0	0	0	WM Stimuli\	0.9	1053	1	662.3	0.6	695	1	546.6	0.7	1199.28571428571	1	699.1	1	774.3	0.9	712	13	319547	2	319535	27	40	319574	-999999	319550	0	41	TrialsPROC	PL_026_SCENE_24.png	2	2	84	SessionSelectionList														nonlure	3	Place	0-Back	73	80	68	0	0	97	7	39	283495	2	14	72	281456	-1	282120	1	664	3	3	2039	53	283509	-54	0																84												
WM080112	159340_fnca	2	1	1	-1211859060	1	75.031	75.031	2.0.10.147	2.0.10.242	2.0.10.242	1.0.0.439	7	234	2	3	Verdana	1	80	0	0	0	WM Stimuli\	0.9	1053	1	662.3	0.6	695	1	546.6	0.7	1199.28571428571	1	699.1	1	774.3	0.9	712	13	319547	2	319535	27	40	319574	-999999	319550	0	41	TrialsPROC	PL_025_SCENE_18.png	2	2	85	SessionSelectionList														lure	3	Place	0-Back	74	80	69	0	0	97	8	39	286067	2	14	72	284028	-1	285503	1	1475	3	3	2039	53	286081	-54	0																85												
WM080112	159340_fnca	2	1	1	-1211859060	1	75.031	75.031	2.0.10.147	2.0.10.242	2.0.10.242	1.0.0.439	7	234	2	3	Verdana	1	80	0	0	0	WM Stimuli\	0.9	1053	1	662.3	0.6	695	1	546.6	0.7	1199.28571428571	1	699.1	1	774.3	0.9	712	13	319547	2	319535	27	40	319574	-999999	319550	0	41	TrialsPROC	PL_022_SCENE_08.png	2	2	86	SessionSelectionList														nonlure	3	Place	0-Back	75	80	70	0	0	97	9	39	288640	1	13	73	286601	-1	287627	1	1026	3	3	2039	52	288653	-53	0																86												
WM080112	159340_fnca	2	1	1	-1211859060	1	75.031	75.031	2.0.10.147	2.0.10.242	2.0.10.242	1.0.0.439	7	234	2	3	Verdana	1	80	0	0	0	WM Stimuli\	0.9	1053	1	662.3	0.6	695	1	546.6	0.7	1199.28571428571	1	699.1	1	774.3	0.9	712	13	319547	2	319535	27	40	319574	-999999	319550	0	41	TrialsPROC	PL_026_SCENE_24.png	2	2	87	SessionSelectionList														lure	3	Place	0-Back	76	80	71	0	0	97	10	39	291212	1	14	72	289173	-1	289616	1	443	3	3	2039	53	291226	-54	0																87												
WM080112	159340_fnca	2	1	1	-1211859060	1	75.031	75.031	2.0.10.147	2.0.10.242	2.0.10.242	1.0.0.439	7	234	2	3	Verdana	1	80	0	0	0	WM Stimuli\	0.9	1053	1	662.3	0.6	695	1	546.6	0.7	1199.28571428571	1	699.1	1	774.3	0.9	712	13	319547	2	319535	27	40	319574	-999999	319550	0	41	TrialsPROC	PL_021_SCENE_07.png	2	2	88	SessionSelectionList														target	2	Place	0-Back	77	80	72	0	0	97	1	39	293784	2	14	72	291745	-1	292372	1	627	2	2	2039	53	293798	-54	0																88												
WM080112	159340_fnca	2	1	1	-1211859060	1	75.031	75.031	2.0.10.147	2.0.10.242	2.0.10.242	1.0.0.439	7	234	2	3	Verdana	1	80	0	0	0	WM Stimuli\	0.9	1053	1	662.3	0.6	695	1	546.6	0.7	1199.28571428571	1	699.1	1	774.3	0.9	712	13	319547	2	319535	27	40	319574	-999999	319550	0	41	TrialsPROC	PL_021_SCENE_07.png	2	2	89	SessionSelectionList														target	2	Place	0-Back	78	80	73	0	0	97	2	40	296357	1	13	72	294317	-1	294973	1	656	2	2	2040	53	296370	-54	0																89												
WM080112	159340_fnca	2	1	1	-1211859060	1	75.031	75.031	2.0.10.147	2.0.10.242	2.0.10.242	1.0.0.439	7	234	2	3	Verdana	1	80	0	0	0	WM Stimuli\	0.9	1053	1	662.3	0.6	695	1	546.6	0.7	1199.28571428571	1	699.1	1	774.3	0.9	712	13	319547	2	319535	27	40	319574	-999999	319550	0	41	TrialsPROC	PL_023_SCENE_09.png	2	2	90	SessionSelectionList														nonlure	3	Place	0-Back	79	80	74	0	0	97	1	52	298942	2	14	73	296890	-1	297344	1	454	3	3	2052	66	298956	-67	0																90												
WM080112	159340_fnca	2	1	1	-1211859060	1	75.031	75.031	2.0.10.147	2.0.10.242	2.0.10.242	1.0.0.439	7	234	2	3	Verdana	1	80	0	0	0	WM Stimuli\	0.9	1053	1	662.3	0.6	695	1	546.6	0.7	1199.28571428571	1	699.1	1	774.3	0.9	712	13	319547	2	319535	27	40	319574	-999999	319550	0	41	TrialsPROC	PL_024_SCENE_10.png	2	2	91	SessionSelectionList														nonlure	3	Place	0-Back	80	80	75	0	0	97	2	39	301501	1	14	72	299462	-1	300122	1	660	3	3	2039	53	301515	-54	0																91												
WM080112	159340_fnca	2	1	1	-1211859060	1	75.031	75.031	2.0.10.147	2.0.10.242	2.0.10.242	1.0.0.439	7	234	2	3	Verdana	1	80	0	0	0	WM Stimuli\	0.9	1053	1	662.3	0.6	695	1	546.6	0.7	1199.28571428571	1	699.1	1	774.3	0.9	712	13	319547	2	319535	27	40	319574	-999999	319550	0	41	TrialsPROC	PL_022_SCENE_08.png	2	2	92	SessionSelectionList														lure	3	Place	0-Back	80	80	76	0	0	98	3	39	304073	2	14	72	302034	-1	302418	1	384	3	3	2039	53	304087	-54	0																92												
WM080112	159340_fnca	2	1	1	-1211859060	1	75.031	75.031	2.0.10.147	2.0.10.242	2.0.10.242	1.0.0.439	7	234	2	3	Verdana	1	80	0	0	0	WM Stimuli\	0.9	1053	1	662.3	0.6	695	1	546.6	0.7	1199.28571428571	1	699.1	1	774.3	0.9	712	13	319547	2	319535	27	40	319574	-999999	319550	0	42	Fix15secPROC	""	2	2	93	SessionSelectionList																																															6	304540	-7	0							93												
