ExperimentName	HCPID	RunNumber	Subject	Session	RandomSeed	Group	Laptop.RefreshRate	ScannerD2.RefreshRate	StudioVersion	RuntimeVersion	RuntimeVersionExpected	ExperimentVersion	triggercode	Allowed	Target	Nontarget	FontStyle	RunTrialNumber[Session]	TrialsPerRun[Session]	TotalRespGreater200[Session]	ConsecRTLess200[Session]	ConsecNonResp[Session]	StimuliDir	ACC_2_Back_Body	Avg_RT_For_Correct_Trials_2_Back_Body	ACC_0_Back_Body	Avg_RT_For_Correct_Trials_0_Back_Body	ACC_2_Back_Face	Avg_RT_For_Correct_Trials_2_Back_Face	ACC_0_Back_Face	Avg_RT_For_Correct_Trials_0_Back_Face	ACC_2_Back_Place	Avg_RT_For_Correct_Trials_2_Back_Place	ACC_0_Back_Place	Avg_RT_For_Correct_Trials_0_Back_Place	ACC_2_Back_Tools	Avg_RT_For_Correct_Trials_2_Back_Tools	ACC_0_Back_Tools	Avg_RT_For_Correct_Trials_0_Back_Tools	ExpInstrucFeelFreeToRest.OnsetDelay	ExpInstrucFeelFreeToRest.OnsetTime	ExpInstrucFeelFreeToRest.DurationError	ExpInstrucFeelFreeToRest.StartTime	ExpInstrucFeelFreeToRest.OnsetToOnsetTime	FeelFreeToRest.OnsetDelay	FeelFreeToRest.OnsetTime	FeelFreeToRest.DurationError	FeelFreeToRest.StartTime	FeelFreeToRest.OnsetToOnsetTime	SessionSelectionList	Procedure[Block]	Stimulus[Block]	RunNumberFilterValue	SessionSelectionList.Cycle	SessionSelectionList.Sample	Running[Block]	IntroButtonMap.OnsetDelay	IntroButtonMap.OnsetTime	IntroButtonMap.DurationError	IntroButtonMap.OnsetToOnsetTime	GetReady.OnsetDelay	GetReady.OnsetTime	GetReady.DurationError	GetReady.OnsetToOnsetTime	Cue2Back.OnsetDelay	Cue2Back.OnsetTime	Cue2Back.DurationError	Cue2Back.OnsetToOnsetTime	Run1Block1	TargetType	CorrectResponse	StimType	BlockType	RunTrialNumber[Block]	TrialsPerRun[Block]	TotalRespGreater200[Block]	ConsecRTLess200[Block]	ConsecNonResp[Block]	ControlAcc	ConsecSameResp	ExperimenterWindow.OnsetDelay	ExperimenterWindow.OnsetTime	ExperimenterWindow.DurationError	ExperimenterWindow.OnsetToOnsetTime	Stim.OnsetDelay	Stim.OnsetTime	Stim.DurationError	Stim.RTTime	Stim.ACC	Stim.RT	Stim.RESP	Stim.CRESP	Stim.OnsetToOnsetTime	Fix.OnsetDelay	Fix.OnsetTime	Fix.DurationError	Fix.OnsetToOnsetTime	CueTarget.OnsetDelay	CueTarget.OnsetTime	CueTarget.DurationError	CueTarget.OnsetToOnsetTime	Run1Block2	Fix15sec.OnsetDelay	Fix15sec.OnsetTime	Fix15sec.DurationError	Fix15sec.OnsetToOnsetTime	Run1Block3	Run1Block4	Run1Block5	Run1Block6	Run1Block7	Run1Block8	Block	Procedure[Trial]	Stimulus[Trial]	ReadyList	Running[Trial]	ReadyList.Cycle	ReadyList.Sample	SyncSlide.OnsetDelay	SyncSlide.OnsetTime	SyncSlide.DurationError	SyncSlide.FinishTime	SyncSlide.OnsetToOnsetTime	Trial
WM080112	153025_fnca	2	1	1	443798499	1	75.031	75.031	2.0.10.147	2.0.10.242	2.0.10.242	1.0.0.439	7	234	2	3	Verdana	1	80	0	0	0	WM Stimuli\	1	889.8	1	510.3	0.6	800	1	589	0.9	961.333333333333	0.9	675.222222222222	0.6	759.333333333333	1	574.4	13	324973	2	324961	27	40	325000	-999999	324976	0	22	TRSyncPROC	""	2	2	1	SessionSelectionList	109	5717	-999999	0	37	18032	-999999	0																																																	1	InitialTR	4	1	ReadyList	1	1	20	31733	-21	33712	0	1
WM080112	153025_fnca	2	1	1	443798499	1	75.031	75.031	2.0.10.147	2.0.10.242	2.0.10.242	1.0.0.439	7	234	2	3	Verdana	1	80	0	0	0	WM Stimuli\	1	889.8	1	510.3	0.6	800	1	589	0.9	961.333333333333	0.9	675.222222222222	0.6	759.333333333333	1	574.4	13	324973	2	324961	27	40	325000	-999999	324976	0	22	TRSyncPROC	""	2	2	1	SessionSelectionList	109	5717	-999999	0	37	18032	-999999	0																																																	1	InitialTR	3	2	ReadyList	1	2	19	33732	-20	35712	0	2
WM080112	153025_fnca	2	1	1	443798499	1	75.031	75.031	2.0.10.147	2.0.10.242	2.0.10.242	1.0.0.439	7	234	2	3	Verdana	1	80	0	0	0	WM Stimuli\	1	889.8	1	510.3	0.6	800	1	589	0.9	961.333333333333	0.9	675.222222222222	0.6	759.333333333333	1	574.4	13	324973	2	324961	27	40	325000	-999999	324976	0	22	TRSyncPROC	""	2	2	1	SessionSelectionList	109	5717	-999999	0	37	18032	-999999	0																																																	1	InitialTR	2	3	ReadyList	1	3	5	35718	-6	37712	0	3
WM080112	153025_fnca	2	1	1	443798499	1	75.031	75.031	2.0.10.147	2.0.10.242	2.0.10.242	1.0.0.439	7	234	2	3	Verdana	1	80	0	0	0	WM Stimuli\	1	889.8	1	510.3	0.6	800	1	589	0.9	961.333333333333	0.9	675.222222222222	0.6	759.333333333333	1	574.4	13	324973	2	324961	27	40	325000	-999999	324976	0	22	TRSyncPROC	""	2	2	1	SessionSelectionList	109	5717	-999999	0	37	18032	-999999	0																																																	1	InitialTR	1	4	ReadyList	1	4	4	37717	-5	39712	0	4
WM080112	153025_fnca	2	1	1	443798499	1	75.031	75.031	2.0.10.147	2.0.10.242	2.0.10.242	1.0.0.439	7	234	2	3	Verdana	1	80	0	0	0	WM Stimuli\	1	889.8	1	510.3	0.6	800	1	589	0.9	961.333333333333	0.9	675.222222222222	0.6	759.333333333333	1	574.4	13	324973	2	324961	27	40	325000	-999999	324976	0	23	Cue2BackPROC	""	2	2	2	SessionSelectionList									17	39730	-18	0																																													2												
WM080112	153025_fnca	2	1	1	443798499	1	75.031	75.031	2.0.10.147	2.0.10.242	2.0.10.242	1.0.0.439	7	234	2	3	Verdana	1	80	0	0	0	WM Stimuli\	1	889.8	1	510.3	0.6	800	1	589	0.9	961.333333333333	0.9	675.222222222222	0.6	759.333333333333	1	574.4	13	324973	2	324961	27	40	325000	-999999	324976	0	24	TrialsPROC	TO_014_TOOL14_BA.png	2	2	3	SessionSelectionList														nonlure	3	Tools	2-Back	2	80	0	0	1	0	0	53	44341	3	14	75	42288	-1	0	0	0	""	3	2053	67	44355	-68	0																3												
WM080112	153025_fnca	2	1	1	443798499	1	75.031	75.031	2.0.10.147	2.0.10.242	2.0.10.242	1.0.0.439	7	234	2	3	Verdana	1	80	0	0	0	WM Stimuli\	1	889.8	1	510.3	0.6	800	1	589	0.9	961.333333333333	0.9	675.222222222222	0.6	759.333333333333	1	574.4	13	324973	2	324961	27	40	325000	-999999	324976	0	24	TrialsPROC	TO_013_TOOL13_BA.png	2	2	4	SessionSelectionList														nonlure	3	Tools	2-Back	3	80	0	0	2	0	0	40	46887	2	13	59	44847	-1	0	0	0	""	3	2040	53	46900	-54	0																4												
WM080112	153025_fnca	2	1	1	443798499	1	75.031	75.031	2.0.10.147	2.0.10.242	2.0.10.242	1.0.0.439	7	234	2	3	Verdana	1	80	0	0	0	WM Stimuli\	1	889.8	1	510.3	0.6	800	1	589	0.9	961.333333333333	0.9	675.222222222222	0.6	759.333333333333	1	574.4	13	324973	2	324961	27	40	325000	-999999	324976	0	24	TrialsPROC	TO_016_TOOL16_BA.png	2	2	5	SessionSelectionList														nonlure	3	Tools	2-Back	4	80	1	0	0	0	1	39	49446	1	13	60	47407	-1	48191	1	784	3	3	2039	52	49459	-53	0																5												
WM080112	153025_fnca	2	1	1	443798499	1	75.031	75.031	2.0.10.147	2.0.10.242	2.0.10.242	1.0.0.439	7	234	2	3	Verdana	1	80	0	0	0	WM Stimuli\	1	889.8	1	510.3	0.6	800	1	589	0.9	961.333333333333	0.9	675.222222222222	0.6	759.333333333333	1	574.4	13	324973	2	324961	27	40	325000	-999999	324976	0	24	TrialsPROC	TO_014_TOOL14_BA.png	2	2	6	SessionSelectionList														lure	3	Tools	2-Back	5	80	2	0	0	0	2	39	52018	1	14	72	49979	-1	50905	1	926	3	3	2039	53	52032	-54	0																6												
WM080112	153025_fnca	2	1	1	443798499	1	75.031	75.031	2.0.10.147	2.0.10.242	2.0.10.242	1.0.0.439	7	234	2	3	Verdana	1	80	0	0	0	WM Stimuli\	1	889.8	1	510.3	0.6	800	1	589	0.9	961.333333333333	0.9	675.222222222222	0.6	759.333333333333	1	574.4	13	324973	2	324961	27	40	325000	-999999	324976	0	24	TrialsPROC	TO_016_TOOL16_BA.png	2	2	7	SessionSelectionList														target	2	Tools	2-Back	6	80	3	0	0	0	3	39	54577	1	14	59	52538	-1	53652	0	1114	3	2	2039	53	54591	-54	0																7												
WM080112	153025_fnca	2	1	1	443798499	1	75.031	75.031	2.0.10.147	2.0.10.242	2.0.10.242	1.0.0.439	7	234	2	3	Verdana	1	80	0	0	0	WM Stimuli\	1	889.8	1	510.3	0.6	800	1	589	0.9	961.333333333333	0.9	675.222222222222	0.6	759.333333333333	1	574.4	13	324973	2	324961	27	40	325000	-999999	324976	0	24	TrialsPROC	TO_018_TOOL18_BA.png	2	2	8	SessionSelectionList														nonlure	3	Tools	2-Back	7	80	4	0	0	0	4	39	57136	1	13	59	55097	-1	55871	1	774	3	3	2039	52	57149	-53	0																8												
WM080112	153025_fnca	2	1	1	443798499	1	75.031	75.031	2.0.10.147	2.0.10.242	2.0.10.242	1.0.0.439	7	234	2	3	Verdana	1	80	0	0	0	WM Stimuli\	1	889.8	1	510.3	0.6	800	1	589	0.9	961.333333333333	0.9	675.222222222222	0.6	759.333333333333	1	574.4	13	324973	2	324961	27	40	325000	-999999	324976	0	24	TrialsPROC	TO_017_TOOL17_BA.png	2	2	9	SessionSelectionList														nonlure	3	Tools	2-Back	8	80	5	0	0	0	5	39	59695	1	13	59	57656	-1	58501	1	845	3	3	2039	52	59708	-53	0																9												
WM080112	153025_fnca	2	1	1	443798499	1	75.031	75.031	2.0.10.147	2.0.10.242	2.0.10.242	1.0.0.439	7	234	2	3	Verdana	1	80	0	0	0	WM Stimuli\	1	889.8	1	510.3	0.6	800	1	589	0.9	961.333333333333	0.9	675.222222222222	0.6	759.333333333333	1	574.4	13	324973	2	324961	27	40	325000	-999999	324976	0	24	TrialsPROC	TO_018_TOOL18_BA.png	2	2	10	SessionSelectionList														target	2	Tools	2-Back	9	80	6	0	0	0	1	40	62254	1	13	58	60214	-1	60826	1	612	2	2	2040	53	62267	-54	0																10												
WM080112	153025_fnca	2	1	1	443798499	1	75.031	75.031	2.0.10.147	2.0.10.242	2.0.10.242	1.0.0.439	7	234	2	3	Verdana	1	80	0	0	0	WM Stimuli\	1	889.8	1	510.3	0.6	800	1	589	0.9	961.333333333333	0.9	675.222222222222	0.6	759.333333333333	1	574.4	13	324973	2	324961	27	40	325000	-999999	324976	0	24	TrialsPROC	TO_015_TOOL15_BA.png	2	2	11	SessionSelectionList														nonlure	3	Tools	2-Back	10	80	7	0	0	0	1	40	64813	1	13	59	62773	-1	63388	1	615	3	3	2040	53	64826	-54	0																11												
WM080112	153025_fnca	2	1	1	443798499	1	75.031	75.031	2.0.10.147	2.0.10.242	2.0.10.242	1.0.0.439	7	234	2	3	Verdana	1	80	0	0	0	WM Stimuli\	1	889.8	1	510.3	0.6	800	1	589	0.9	961.333333333333	0.9	675.222222222222	0.6	759.333333333333	1	574.4	13	324973	2	324961	27	40	325000	-999999	324976	0	24	TrialsPROC	TO_017_TOOL17_BA.png	2	2	12	SessionSelectionList														lure	3	Tools	2-Back	11	80	8	0	0	0	1	40	67372	1	13	59	65332	-1	66194	0	862	2	3	2040	53	67385	-54	0																12												
WM080112	153025_fnca	2	1	1	443798499	1	75.031	75.031	2.0.10.147	2.0.10.242	2.0.10.242	1.0.0.439	7	234	2	3	Verdana	1	80	0	0	0	WM Stimuli\	1	889.8	1	510.3	0.6	800	1	589	0.9	961.333333333333	0.9	675.222222222222	0.6	759.333333333333	1	574.4	13	324973	2	324961	27	40	325000	-999999	324976	0	25	Cue0BackPROC	BP_013_BP7_BA.png	2	2	13	SessionSelectionList																																										19	67851	-20	0												13												
WM080112	153025_fnca	2	1	1	443798499	1	75.031	75.031	2.0.10.147	2.0.10.242	2.0.10.242	1.0.0.439	7	234	2	3	Verdana	1	80	0	0	0	WM Stimuli\	1	889.8	1	510.3	0.6	800	1	589	0.9	961.333333333333	0.9	675.222222222222	0.6	759.333333333333	1	574.4	13	324973	2	324961	27	40	325000	-999999	324976	0	26	TrialsPROC	BP_015_H10-T_BA.png	2	2	14	SessionSelectionList														nonlure	3	Body	0-Back	12	80	9	0	0	100	1	39	72423	1	14	52	70384	-1	71225	1	841	3	3	2039	53	72437	-54	0																14												
WM080112	153025_fnca	2	1	1	443798499	1	75.031	75.031	2.0.10.147	2.0.10.242	2.0.10.242	1.0.0.439	7	234	2	3	Verdana	1	80	0	0	0	WM Stimuli\	1	889.8	1	510.3	0.6	800	1	589	0.9	961.333333333333	0.9	675.222222222222	0.6	759.333333333333	1	574.4	13	324973	2	324961	27	40	325000	-999999	324976	0	26	TrialsPROC	BP_018_H13-T_BA.png	2	2	15	SessionSelectionList														nonlure	3	Body	0-Back	13	80	10	0	0	100	2	39	74982	1	14	59	72943	-1	73420	1	477	3	3	2039	53	74996	-54	0																15												
WM080112	153025_fnca	2	1	1	443798499	1	75.031	75.031	2.0.10.147	2.0.10.242	2.0.10.242	1.0.0.439	7	234	2	3	Verdana	1	80	0	0	0	WM Stimuli\	1	889.8	1	510.3	0.6	800	1	589	0.9	961.333333333333	0.9	675.222222222222	0.6	759.333333333333	1	574.4	13	324973	2	324961	27	40	325000	-999999	324976	0	26	TrialsPROC	BP_014_BP9_BA.png	2	2	16	SessionSelectionList														nonlure	3	Body	0-Back	14	80	11	0	0	100	3	39	77541	1	13	59	75502	-1	76102	1	600	3	3	2039	52	77554	-53	0																16												
WM080112	153025_fnca	2	1	1	443798499	1	75.031	75.031	2.0.10.147	2.0.10.242	2.0.10.242	1.0.0.439	7	234	2	3	Verdana	1	80	0	0	0	WM Stimuli\	1	889.8	1	510.3	0.6	800	1	589	0.9	961.333333333333	0.9	675.222222222222	0.6	759.333333333333	1	574.4	13	324973	2	324961	27	40	325000	-999999	324976	0	26	TrialsPROC	BP_018_H13-T_BA.png	2	2	17	SessionSelectionList														lure	3	Body	0-Back	15	80	12	0	0	100	4	39	80100	1	13	59	78061	-1	78564	1	503	3	3	2039	52	80113	-53	0																17												
WM080112	153025_fnca	2	1	1	443798499	1	75.031	75.031	2.0.10.147	2.0.10.242	2.0.10.242	1.0.0.439	7	234	2	3	Verdana	1	80	0	0	0	WM Stimuli\	1	889.8	1	510.3	0.6	800	1	589	0.9	961.333333333333	0.9	675.222222222222	0.6	759.333333333333	1	574.4	13	324973	2	324961	27	40	325000	-999999	324976	0	26	TrialsPROC	BP_013_BP7_BA.png	2	2	18	SessionSelectionList														target	2	Body	0-Back	16	80	13	0	0	100	1	39	82659	1	13	59	80620	-1	81070	1	450	2	2	2039	52	82672	-53	0																18												
WM080112	153025_fnca	2	1	1	443798499	1	75.031	75.031	2.0.10.147	2.0.10.242	2.0.10.242	1.0.0.439	7	234	2	3	Verdana	1	80	0	0	0	WM Stimuli\	1	889.8	1	510.3	0.6	800	1	589	0.9	961.333333333333	0.9	675.222222222222	0.6	759.333333333333	1	574.4	13	324973	2	324961	27	40	325000	-999999	324976	0	26	TrialsPROC	BP_015_H10-T_BA.png	2	2	19	SessionSelectionList														lure	3	Body	0-Back	17	80	14	0	0	100	1	39	85218	1	13	59	83179	-1	83701	1	522	3	3	2039	52	85231	-53	0																19												
WM080112	153025_fnca	2	1	1	443798499	1	75.031	75.031	2.0.10.147	2.0.10.242	2.0.10.242	1.0.0.439	7	234	2	3	Verdana	1	80	0	0	0	WM Stimuli\	1	889.8	1	510.3	0.6	800	1	589	0.9	961.333333333333	0.9	675.222222222222	0.6	759.333333333333	1	574.4	13	324973	2	324961	27	40	325000	-999999	324976	0	26	TrialsPROC	BP_016_H11-T_BA.png	2	2	20	SessionSelectionList														nonlure	3	Body	0-Back	18	80	15	0	0	100	2	39	87777	1	13	59	85738	-1	86176	1	438	3	3	2039	52	87790	-53	0																20												
WM080112	153025_fnca	2	1	1	443798499	1	75.031	75.031	2.0.10.147	2.0.10.242	2.0.10.242	1.0.0.439	7	234	2	3	Verdana	1	80	0	0	0	WM Stimuli\	1	889.8	1	510.3	0.6	800	1	589	0.9	961.333333333333	0.9	675.222222222222	0.6	759.333333333333	1	574.4	13	324973	2	324961	27	40	325000	-999999	324976	0	26	TrialsPROC	BP_013_BP7_BA.png	2	2	21	SessionSelectionList														target	2	Body	0-Back	19	80	16	0	0	100	1	39	90336	1	13	59	88297	-1	88734	1	437	2	2	2039	52	90349	-53	0																21												
WM080112	153025_fnca	2	1	1	443798499	1	75.031	75.031	2.0.10.147	2.0.10.242	2.0.10.242	1.0.0.439	7	234	2	3	Verdana	1	80	0	0	0	WM Stimuli\	1	889.8	1	510.3	0.6	800	1	589	0.9	961.333333333333	0.9	675.222222222222	0.6	759.333333333333	1	574.4	13	324973	2	324961	27	40	325000	-999999	324976	0	26	TrialsPROC	BP_017_H12-T_BA.png	2	2	22	SessionSelectionList														nonlure	3	Body	0-Back	20	80	17	0	0	100	1	39	92894	2	14	58	90855	-1	91336	1	481	3	3	2039	53	92908	-54	0																22												
WM080112	153025_fnca	2	1	1	443798499	1	75.031	75.031	2.0.10.147	2.0.10.242	2.0.10.242	1.0.0.439	7	234	2	3	Verdana	1	80	0	0	0	WM Stimuli\	1	889.8	1	510.3	0.6	800	1	589	0.9	961.333333333333	0.9	675.222222222222	0.6	759.333333333333	1	574.4	13	324973	2	324961	27	40	325000	-999999	324976	0	26	TrialsPROC	BP_014_BP9_BA.png	2	2	23	SessionSelectionList														lure	3	Body	0-Back	21	80	18	0	0	100	2	39	95453	2	14	59	93414	-1	93768	1	354	3	3	2039	53	95467	-54	0																23												
WM080112	153025_fnca	2	1	1	443798499	1	75.031	75.031	2.0.10.147	2.0.10.242	2.0.10.242	1.0.0.439	7	234	2	3	Verdana	1	80	0	0	0	WM Stimuli\	1	889.8	1	510.3	0.6	800	1	589	0.9	961.333333333333	0.9	675.222222222222	0.6	759.333333333333	1	574.4	13	324973	2	324961	27	40	325000	-999999	324976	0	27	Fix15secPROC	""	2	2	24	SessionSelectionList																																															6	95920	-7	0							24												
WM080112	153025_fnca	2	1	1	443798499	1	75.031	75.031	2.0.10.147	2.0.10.242	2.0.10.242	1.0.0.439	7	234	2	3	Verdana	1	80	0	0	0	WM Stimuli\	1	889.8	1	510.3	0.6	800	1	589	0.9	961.333333333333	0.9	675.222222222222	0.6	759.333333333333	1	574.4	13	324973	2	324961	27	40	325000	-999999	324976	0	28	Cue2BackPROC	""	2	2	25	SessionSelectionList									13	110927	-14	0																																													25												
WM080112	153025_fnca	2	1	1	443798499	1	75.031	75.031	2.0.10.147	2.0.10.242	2.0.10.242	1.0.0.439	7	234	2	3	Verdana	1	80	0	0	0	WM Stimuli\	1	889.8	1	510.3	0.6	800	1	589	0.9	961.333333333333	0.9	675.222222222222	0.6	759.333333333333	1	574.4	13	324973	2	324961	27	40	325000	-999999	324976	0	29	TrialsPROC	FC_015_M8.png	2	2	26	SessionSelectionList														nonlure	3	Face	2-Back	22	80	18	0	1	100	2	39	115525	2	14	72	113486	-1	0	0	0	""	3	2039	53	115539	-54	0																26												
WM080112	153025_fnca	2	1	1	443798499	1	75.031	75.031	2.0.10.147	2.0.10.242	2.0.10.242	1.0.0.439	7	234	2	3	Verdana	1	80	0	0	0	WM Stimuli\	1	889.8	1	510.3	0.6	800	1	589	0.9	961.333333333333	0.9	675.222222222222	0.6	759.333333333333	1	574.4	13	324973	2	324961	27	40	325000	-999999	324976	0	29	TrialsPROC	FC_018_F9.png	2	2	27	SessionSelectionList														nonlure	3	Face	2-Back	23	80	18	0	2	100	2	39	118097	2	14	72	116058	-1	0	0	0	""	3	2039	53	118111	-54	0																27												
WM080112	153025_fnca	2	1	1	443798499	1	75.031	75.031	2.0.10.147	2.0.10.242	2.0.10.242	1.0.0.439	7	234	2	3	Verdana	1	80	0	0	0	WM Stimuli\	1	889.8	1	510.3	0.6	800	1	589	0.9	961.333333333333	0.9	675.222222222222	0.6	759.333333333333	1	574.4	13	324973	2	324961	27	40	325000	-999999	324976	0	29	TrialsPROC	FC_018_F9.png	2	2	28	SessionSelectionList														lure	3	Face	2-Back	24	80	18	0	3	100	2	39	120670	1	13	73	118631	-1	0	0	0	""	3	2039	52	120683	-53	0																28												
WM080112	153025_fnca	2	1	1	443798499	1	75.031	75.031	2.0.10.147	2.0.10.242	2.0.10.242	1.0.0.439	7	234	2	3	Verdana	1	80	0	0	0	WM Stimuli\	1	889.8	1	510.3	0.6	800	1	589	0.9	961.333333333333	0.9	675.222222222222	0.6	759.333333333333	1	574.4	13	324973	2	324961	27	40	325000	-999999	324976	0	29	TrialsPROC	FC_017_M9.png	2	2	29	SessionSelectionList														nonlure	3	Face	2-Back	25	80	19	0	0	100	1	39	123242	1	14	72	121203	-1	122447	1	1244	3	3	2039	53	123256	-54	0																29												
WM080112	153025_fnca	2	1	1	443798499	1	75.031	75.031	2.0.10.147	2.0.10.242	2.0.10.242	1.0.0.439	7	234	2	3	Verdana	1	80	0	0	0	WM Stimuli\	1	889.8	1	510.3	0.6	800	1	589	0.9	961.333333333333	0.9	675.222222222222	0.6	759.333333333333	1	574.4	13	324973	2	324961	27	40	325000	-999999	324976	0	29	TrialsPROC	FC_017_M9.png	2	2	30	SessionSelectionList														lure	3	Face	2-Back	26	80	20	0	0	100	2	39	125814	2	14	72	123775	-1	124774	1	999	3	3	2039	53	125828	-54	0																30												
WM080112	153025_fnca	2	1	1	443798499	1	75.031	75.031	2.0.10.147	2.0.10.242	2.0.10.242	1.0.0.439	7	234	2	3	Verdana	1	80	0	0	0	WM Stimuli\	1	889.8	1	510.3	0.6	800	1	589	0.9	961.333333333333	0.9	675.222222222222	0.6	759.333333333333	1	574.4	13	324973	2	324961	27	40	325000	-999999	324976	0	29	TrialsPROC	FC_016_F8.png	2	2	31	SessionSelectionList														nonlure	3	Face	2-Back	27	80	21	0	0	100	3	40	128387	1	13	72	126347	-1	127046	1	699	3	3	2040	53	128400	-54	0																31												
WM080112	153025_fnca	2	1	1	443798499	1	75.031	75.031	2.0.10.147	2.0.10.242	2.0.10.242	1.0.0.439	7	234	2	3	Verdana	1	80	0	0	0	WM Stimuli\	1	889.8	1	510.3	0.6	800	1	589	0.9	961.333333333333	0.9	675.222222222222	0.6	759.333333333333	1	574.4	13	324973	2	324961	27	40	325000	-999999	324976	0	29	TrialsPROC	FC_013_M7.png	2	2	32	SessionSelectionList														nonlure	3	Face	2-Back	28	80	22	0	0	100	4	39	130959	1	14	73	128920	-1	129484	1	564	3	3	2039	53	130973	-54	0																32												
WM080112	153025_fnca	2	1	1	443798499	1	75.031	75.031	2.0.10.147	2.0.10.242	2.0.10.242	1.0.0.439	7	234	2	3	Verdana	1	80	0	0	0	WM Stimuli\	1	889.8	1	510.3	0.6	800	1	589	0.9	961.333333333333	0.9	675.222222222222	0.6	759.333333333333	1	574.4	13	324973	2	324961	27	40	325000	-999999	324976	0	29	TrialsPROC	FC_014_F7.png	2	2	33	SessionSelectionList														nonlure	3	Face	2-Back	29	80	23	0	0	100	5	39	133531	1	14	72	131492	-1	132019	1	527	3	3	2039	53	133545	-54	0																33												
WM080112	153025_fnca	2	1	1	443798499	1	75.031	75.031	2.0.10.147	2.0.10.242	2.0.10.242	1.0.0.439	7	234	2	3	Verdana	1	80	0	0	0	WM Stimuli\	1	889.8	1	510.3	0.6	800	1	589	0.9	961.333333333333	0.9	675.222222222222	0.6	759.333333333333	1	574.4	13	324973	2	324961	27	40	325000	-999999	324976	0	29	TrialsPROC	FC_013_M7.png	2	2	34	SessionSelectionList														target	2	Face	2-Back	30	80	24	0	0	100	1	39	136103	2	14	72	134064	-1	134831	1	767	2	2	2039	53	136117	-54	0																34												
WM080112	153025_fnca	2	1	1	443798499	1	75.031	75.031	2.0.10.147	2.0.10.242	2.0.10.242	1.0.0.439	7	234	2	3	Verdana	1	80	0	0	0	WM Stimuli\	1	889.8	1	510.3	0.6	800	1	589	0.9	961.333333333333	0.9	675.222222222222	0.6	759.333333333333	1	574.4	13	324973	2	324961	27	40	325000	-999999	324976	0	29	TrialsPROC	FC_014_F7.png	2	2	35	SessionSelectionList														target	2	Face	2-Back	31	80	25	0	0	100	1	39	138676	1	13	73	136637	-1	137482	0	845	3	2	2039	52	138689	-53	0																35												
WM080112	153025_fnca	2	1	1	443798499	1	75.031	75.031	2.0.10.147	2.0.10.242	2.0.10.242	1.0.0.439	7	234	2	3	Verdana	1	80	0	0	0	WM Stimuli\	1	889.8	1	510.3	0.6	800	1	589	0.9	961.333333333333	0.9	675.222222222222	0.6	759.333333333333	1	574.4	13	324973	2	324961	27	40	325000	-999999	324976	0	30	Cue0BackPROC	TO_019_TOOL19_BA.png	2	2	36	SessionSelectionList																																										18	139155	-19	0												36												
WM080112	153025_fnca	2	1	1	443798499	1	75.031	75.031	2.0.10.147	2.0.10.242	2.0.10.242	1.0.0.439	7	234	2	3	Verdana	1	80	0	0	0	WM Stimuli\	1	889.8	1	510.3	0.6	800	1	589	0.9	961.333333333333	0.9	675.222222222222	0.6	759.333333333333	1	574.4	13	324973	2	324961	27	40	325000	-999999	324976	0	31	TrialsPROC	TO_019_TOOL19_BA.png	2	2	37	SessionSelectionList														target	2	Tools	0-Back	32	80	26	0	0	100	1	39	143727	1	14	51	141688	-1	143042	1	1354	2	2	2039	53	143741	-54	0																37												
WM080112	153025_fnca	2	1	1	443798499	1	75.031	75.031	2.0.10.147	2.0.10.242	2.0.10.242	1.0.0.439	7	234	2	3	Verdana	1	80	0	0	0	WM Stimuli\	1	889.8	1	510.3	0.6	800	1	589	0.9	961.333333333333	0.9	675.222222222222	0.6	759.333333333333	1	574.4	13	324973	2	324961	27	40	325000	-999999	324976	0	31	TrialsPROC	TO_024_TOOL24_BA.png	2	2	38	SessionSelectionList														nonlure	3	Tools	0-Back	33	80	27	0	0	100	1	39	146286	1	14	59	144247	-1	144928	1	681	3	3	2039	53	146300	-54	0																38												
WM080112	153025_fnca	2	1	1	443798499	1	75.031	75.031	2.0.10.147	2.0.10.242	2.0.10.242	1.0.0.439	7	234	2	3	Verdana	1	80	0	0	0	WM Stimuli\	1	889.8	1	510.3	0.6	800	1	589	0.9	961.333333333333	0.9	675.222222222222	0.6	759.333333333333	1	574.4	13	324973	2	324961	27	40	325000	-999999	324976	0	31	TrialsPROC	TO_019_TOOL19_BA.png	2	2	39	SessionSelectionList														target	2	Tools	0-Back	34	80	28	0	0	100	1	39	148845	1	14	59	146806	-1	147369	1	563	2	2	2039	53	148859	-54	0																39												
WM080112	153025_fnca	2	1	1	443798499	1	75.031	75.031	2.0.10.147	2.0.10.242	2.0.10.242	1.0.0.439	7	234	2	3	Verdana	1	80	0	0	0	WM Stimuli\	1	889.8	1	510.3	0.6	800	1	589	0.9	961.333333333333	0.9	675.222222222222	0.6	759.333333333333	1	574.4	13	324973	2	324961	27	40	325000	-999999	324976	0	31	TrialsPROC	TO_023_TOOL23_BA.png	2	2	40	SessionSelectionList														nonlure	3	Tools	0-Back	35	80	29	0	0	100	1	39	151404	1	14	59	149365	-1	149761	1	396	3	3	2039	53	151418	-54	0																40												
WM080112	153025_fnca	2	1	1	443798499	1	75.031	75.031	2.0.10.147	2.0.10.242	2.0.10.242	1.0.0.439	7	234	2	3	Verdana	1	80	0	0	0	WM Stimuli\	1	889.8	1	510.3	0.6	800	1	589	0.9	961.333333333333	0.9	675.222222222222	0.6	759.333333333333	1	574.4	13	324973	2	324961	27	40	325000	-999999	324976	0	31	TrialsPROC	TO_020_TOOL20_BA.png	2	2	41	SessionSelectionList														nonlure	3	Tools	0-Back	36	80	30	0	0	100	2	39	153963	1	13	59	151924	-1	152497	1	573	3	3	2039	52	153976	-53	0																41												
WM080112	153025_fnca	2	1	1	443798499	1	75.031	75.031	2.0.10.147	2.0.10.242	2.0.10.242	1.0.0.439	7	234	2	3	Verdana	1	80	0	0	0	WM Stimuli\	1	889.8	1	510.3	0.6	800	1	589	0.9	961.333333333333	0.9	675.222222222222	0.6	759.333333333333	1	574.4	13	324973	2	324961	27	40	325000	-999999	324976	0	31	TrialsPROC	TO_020_TOOL20_BA.png	2	2	42	SessionSelectionList														lure	3	Tools	0-Back	37	80	31	0	0	100	3	40	156522	1	13	58	154482	-1	154891	1	409	3	3	2040	53	156535	-54	0																42												
WM080112	153025_fnca	2	1	1	443798499	1	75.031	75.031	2.0.10.147	2.0.10.242	2.0.10.242	1.0.0.439	7	234	2	3	Verdana	1	80	0	0	0	WM Stimuli\	1	889.8	1	510.3	0.6	800	1	589	0.9	961.333333333333	0.9	675.222222222222	0.6	759.333333333333	1	574.4	13	324973	2	324961	27	40	325000	-999999	324976	0	31	TrialsPROC	TO_022_TOOL22_BA.png	2	2	43	SessionSelectionList														nonlure	3	Tools	0-Back	38	80	32	0	0	100	4	40	159081	1	13	59	157041	-1	157524	1	483	3	3	2040	53	159094	-54	0																43												
WM080112	153025_fnca	2	1	1	443798499	1	75.031	75.031	2.0.10.147	2.0.10.242	2.0.10.242	1.0.0.439	7	234	2	3	Verdana	1	80	0	0	0	WM Stimuli\	1	889.8	1	510.3	0.6	800	1	589	0.9	961.333333333333	0.9	675.222222222222	0.6	759.333333333333	1	574.4	13	324973	2	324961	27	40	325000	-999999	324976	0	31	TrialsPROC	TO_022_TOOL22_BA.png	2	2	44	SessionSelectionList														lure	3	Tools	0-Back	39	80	33	0	0	100	5	40	161640	1	13	59	159600	-1	160040	1	440	3	3	2040	53	161653	-54	0																44												
WM080112	153025_fnca	2	1	1	443798499	1	75.031	75.031	2.0.10.147	2.0.10.242	2.0.10.242	1.0.0.439	7	234	2	3	Verdana	1	80	0	0	0	WM Stimuli\	1	889.8	1	510.3	0.6	800	1	589	0.9	961.333333333333	0.9	675.222222222222	0.6	759.333333333333	1	574.4	13	324973	2	324961	27	40	325000	-999999	324976	0	31	TrialsPROC	TO_021_TOOL21_BA.png	2	2	45	SessionSelectionList														nonlure	3	Tools	0-Back	40	80	34	0	0	100	6	40	164199	1	13	59	162159	-1	162620	1	461	3	3	2040	53	164212	-54	0																45												
WM080112	153025_fnca	2	1	1	443798499	1	75.031	75.031	2.0.10.147	2.0.10.242	2.0.10.242	1.0.0.439	7	234	2	3	Verdana	1	80	0	0	0	WM Stimuli\	1	889.8	1	510.3	0.6	800	1	589	0.9	961.333333333333	0.9	675.222222222222	0.6	759.333333333333	1	574.4	13	324973	2	324961	27	40	325000	-999999	324976	0	31	TrialsPROC	TO_021_TOOL21_BA.png	2	2	46	SessionSelectionList														lure	3	Tools	0-Back	41	80	35	0	0	100	7	39	166757	2	14	59	164718	-1	165102	1	384	3	3	2039	53	166771	-54	0																46												
WM080112	153025_fnca	2	1	1	443798499	1	75.031	75.031	2.0.10.147	2.0.10.242	2.0.10.242	1.0.0.439	7	234	2	3	Verdana	1	80	0	0	0	WM Stimuli\	1	889.8	1	510.3	0.6	800	1	589	0.9	961.333333333333	0.9	675.222222222222	0.6	759.333333333333	1	574.4	13	324973	2	324961	27	40	325000	-999999	324976	0	32	Fix15secPROC	""	2	2	47	SessionSelectionList																																															6	167224	-7	0							47												
WM080112	153025_fnca	2	1	1	443798499	1	75.031	75.031	2.0.10.147	2.0.10.242	2.0.10.242	1.0.0.439	7	234	2	3	Verdana	1	80	0	0	0	WM Stimuli\	1	889.8	1	510.3	0.6	800	1	589	0.9	961.333333333333	0.9	675.222222222222	0.6	759.333333333333	1	574.4	13	324973	2	324961	27	40	325000	-999999	324976	0	33	Cue2BackPROC	""	2	2	48	SessionSelectionList									13	182231	-14	0																																													48												
WM080112	153025_fnca	2	1	1	443798499	1	75.031	75.031	2.0.10.147	2.0.10.242	2.0.10.242	1.0.0.439	7	234	2	3	Verdana	1	80	0	0	0	WM Stimuli\	1	889.8	1	510.3	0.6	800	1	589	0.9	961.333333333333	0.9	675.222222222222	0.6	759.333333333333	1	574.4	13	324973	2	324961	27	40	325000	-999999	324976	0	34	TrialsPROC	BP_020_H17-T_BA.png	2	2	49	SessionSelectionList														nonlure	3	Body	2-Back	42	80	36	0	0	100	8	39	186816	1	14	59	184777	-1	186441	1	1664	3	3	2039	53	186830	-54	0																49												
WM080112	153025_fnca	2	1	1	443798499	1	75.031	75.031	2.0.10.147	2.0.10.242	2.0.10.242	1.0.0.439	7	234	2	3	Verdana	1	80	0	0	0	WM Stimuli\	1	889.8	1	510.3	0.6	800	1	589	0.9	961.333333333333	0.9	675.222222222222	0.6	759.333333333333	1	574.4	13	324973	2	324961	27	40	325000	-999999	324976	0	34	TrialsPROC	BP_019_H14-T_BA.png	2	2	50	SessionSelectionList														nonlure	3	Body	2-Back	43	80	37	0	0	100	9	39	189375	1	14	59	187336	-1	187838	1	502	3	3	2039	53	189389	-54	0																50												
WM080112	153025_fnca	2	1	1	443798499	1	75.031	75.031	2.0.10.147	2.0.10.242	2.0.10.242	1.0.0.439	7	234	2	3	Verdana	1	80	0	0	0	WM Stimuli\	1	889.8	1	510.3	0.6	800	1	589	0.9	961.333333333333	0.9	675.222222222222	0.6	759.333333333333	1	574.4	13	324973	2	324961	27	40	325000	-999999	324976	0	34	TrialsPROC	BP_020_H17-T_BA.png	2	2	51	SessionSelectionList														target	2	Body	2-Back	44	80	38	0	0	100	1	39	191934	1	14	59	189895	-1	190450	1	555	2	2	2039	53	191948	-54	0																51												
WM080112	153025_fnca	2	1	1	443798499	1	75.031	75.031	2.0.10.147	2.0.10.242	2.0.10.242	1.0.0.439	7	234	2	3	Verdana	1	80	0	0	0	WM Stimuli\	1	889.8	1	510.3	0.6	800	1	589	0.9	961.333333333333	0.9	675.222222222222	0.6	759.333333333333	1	574.4	13	324973	2	324961	27	40	325000	-999999	324976	0	34	TrialsPROC	BP_019_H14-T_BA.png	2	2	52	SessionSelectionList														target	2	Body	2-Back	45	80	39	0	0	100	2	39	194493	1	14	59	192454	-1	193357	1	903	2	2	2039	53	194507	-54	0																52												
WM080112	153025_fnca	2	1	1	443798499	1	75.031	75.031	2.0.10.147	2.0.10.242	2.0.10.242	1.0.0.439	7	234	2	3	Verdana	1	80	0	0	0	WM Stimuli\	1	889.8	1	510.3	0.6	800	1	589	0.9	961.333333333333	0.9	675.222222222222	0.6	759.333333333333	1	574.4	13	324973	2	324961	27	40	325000	-999999	324976	0	34	TrialsPROC	BP_024_H3-T_BA.png	2	2	53	SessionSelectionList														nonlure	3	Body	2-Back	46	80	40	0	0	100	1	39	197052	1	13	59	195013	-1	195708	1	695	3	3	2039	52	197065	-53	0																53												
WM080112	153025_fnca	2	1	1	443798499	1	75.031	75.031	2.0.10.147	2.0.10.242	2.0.10.242	1.0.0.439	7	234	2	3	Verdana	1	80	0	0	0	WM Stimuli\	1	889.8	1	510.3	0.6	800	1	589	0.9	961.333333333333	0.9	675.222222222222	0.6	759.333333333333	1	574.4	13	324973	2	324961	27	40	325000	-999999	324976	0	34	TrialsPROC	BP_024_H3-T_BA.png	2	2	54	SessionSelectionList														lure	3	Body	2-Back	47	80	41	0	0	100	2	39	199611	1	13	59	197572	-1	198579	1	1007	3	3	2039	52	199624	-53	0																54												
WM080112	153025_fnca	2	1	1	443798499	1	75.031	75.031	2.0.10.147	2.0.10.242	2.0.10.242	1.0.0.439	7	234	2	3	Verdana	1	80	0	0	0	WM Stimuli\	1	889.8	1	510.3	0.6	800	1	589	0.9	961.333333333333	0.9	675.222222222222	0.6	759.333333333333	1	574.4	13	324973	2	324961	27	40	325000	-999999	324976	0	34	TrialsPROC	BP_025_H5-T_BA.png	2	2	55	SessionSelectionList														nonlure	3	Body	2-Back	48	80	42	0	0	100	3	39	202170	1	13	59	200131	-1	200907	1	776	3	3	2039	52	202183	-53	0																55												
WM080112	153025_fnca	2	1	1	443798499	1	75.031	75.031	2.0.10.147	2.0.10.242	2.0.10.242	1.0.0.439	7	234	2	3	Verdana	1	80	0	0	0	WM Stimuli\	1	889.8	1	510.3	0.6	800	1	589	0.9	961.333333333333	0.9	675.222222222222	0.6	759.333333333333	1	574.4	13	324973	2	324961	27	40	325000	-999999	324976	0	34	TrialsPROC	BP_023_H25-T_BA.png	2	2	56	SessionSelectionList														nonlure	3	Body	2-Back	49	80	43	0	0	100	4	39	204729	1	13	59	202690	-1	203635	1	945	3	3	2039	52	204742	-53	0																56												
WM080112	153025_fnca	2	1	1	443798499	1	75.031	75.031	2.0.10.147	2.0.10.242	2.0.10.242	1.0.0.439	7	234	2	3	Verdana	1	80	0	0	0	WM Stimuli\	1	889.8	1	510.3	0.6	800	1	589	0.9	961.333333333333	0.9	675.222222222222	0.6	759.333333333333	1	574.4	13	324973	2	324961	27	40	325000	-999999	324976	0	34	TrialsPROC	BP_022_H24-T_BA.png	2	2	57	SessionSelectionList														nonlure	3	Body	2-Back	50	80	44	0	0	100	5	39	207288	1	13	59	205249	-1	206228	1	979	3	3	2039	52	207301	-53	0																57												
WM080112	153025_fnca	2	1	1	443798499	1	75.031	75.031	2.0.10.147	2.0.10.242	2.0.10.242	1.0.0.439	7	234	2	3	Verdana	1	80	0	0	0	WM Stimuli\	1	889.8	1	510.3	0.6	800	1	589	0.9	961.333333333333	0.9	675.222222222222	0.6	759.333333333333	1	574.4	13	324973	2	324961	27	40	325000	-999999	324976	0	34	TrialsPROC	BP_022_H24-T_BA.png	2	2	58	SessionSelectionList														lure	3	Body	2-Back	51	80	45	0	0	100	6	39	209846	2	14	58	207807	-1	208679	1	872	3	3	2039	53	209860	-54	0																58												
WM080112	153025_fnca	2	1	1	443798499	1	75.031	75.031	2.0.10.147	2.0.10.242	2.0.10.242	1.0.0.439	7	234	2	3	Verdana	1	80	0	0	0	WM Stimuli\	1	889.8	1	510.3	0.6	800	1	589	0.9	961.333333333333	0.9	675.222222222222	0.6	759.333333333333	1	574.4	13	324973	2	324961	27	40	325000	-999999	324976	0	35	Cue2BackPROC	""	2	2	59	SessionSelectionList									6	210313	-7	0																																													59												
WM080112	153025_fnca	2	1	1	443798499	1	75.031	75.031	2.0.10.147	2.0.10.242	2.0.10.242	1.0.0.439	7	234	2	3	Verdana	1	80	0	0	0	WM Stimuli\	1	889.8	1	510.3	0.6	800	1	589	0.9	961.333333333333	0.9	675.222222222222	0.6	759.333333333333	1	574.4	13	324973	2	324961	27	40	325000	-999999	324976	0	36	TrialsPROC	PL_019_SCENE_05.png	2	2	60	SessionSelectionList														nonlure	3	Place	2-Back	52	80	45	0	1	100	6	39	214911	1	14	65	212872	-1	0	0	0	""	3	2039	53	214925	-54	0																60												
WM080112	153025_fnca	2	1	1	443798499	1	75.031	75.031	2.0.10.147	2.0.10.242	2.0.10.242	1.0.0.439	7	234	2	3	Verdana	1	80	0	0	0	WM Stimuli\	1	889.8	1	510.3	0.6	800	1	589	0.9	961.333333333333	0.9	675.222222222222	0.6	759.333333333333	1	574.4	13	324973	2	324961	27	40	325000	-999999	324976	0	36	TrialsPROC	PL_017_SCENE_03.png	2	2	61	SessionSelectionList														nonlure	3	Place	2-Back	53	80	46	0	0	100	1	39	217483	2	14	72	215444	-1	216768	1	1324	3	3	2039	53	217497	-54	0																61												
WM080112	153025_fnca	2	1	1	443798499	1	75.031	75.031	2.0.10.147	2.0.10.242	2.0.10.242	1.0.0.439	7	234	2	3	Verdana	1	80	0	0	0	WM Stimuli\	1	889.8	1	510.3	0.6	800	1	589	0.9	961.333333333333	0.9	675.222222222222	0.6	759.333333333333	1	574.4	13	324973	2	324961	27	40	325000	-999999	324976	0	36	TrialsPROC	PL_017_SCENE_03.png	2	2	62	SessionSelectionList														lure	3	Place	2-Back	54	80	47	0	0	100	2	40	220056	1	13	72	218016	-1	218978	1	962	3	3	2040	53	220069	-54	0																62												
WM080112	153025_fnca	2	1	1	443798499	1	75.031	75.031	2.0.10.147	2.0.10.242	2.0.10.242	1.0.0.439	7	234	2	3	Verdana	1	80	0	0	0	WM Stimuli\	1	889.8	1	510.3	0.6	800	1	589	0.9	961.333333333333	0.9	675.222222222222	0.6	759.333333333333	1	574.4	13	324973	2	324961	27	40	325000	-999999	324976	0	36	TrialsPROC	PL_016_SCENE_02.png	2	2	63	SessionSelectionList														nonlure	3	Place	2-Back	55	80	48	0	0	100	3	39	222628	1	14	73	220589	-1	221543	1	954	3	3	2039	53	222642	-54	0																63												
WM080112	153025_fnca	2	1	1	443798499	1	75.031	75.031	2.0.10.147	2.0.10.242	2.0.10.242	1.0.0.439	7	234	2	3	Verdana	1	80	0	0	0	WM Stimuli\	1	889.8	1	510.3	0.6	800	1	589	0.9	961.333333333333	0.9	675.222222222222	0.6	759.333333333333	1	574.4	13	324973	2	324961	27	40	325000	-999999	324976	0	36	TrialsPROC	PL_015_SCENE_01.png	2	2	64	SessionSelectionList														nonlure	3	Place	2-Back	56	80	49	0	0	100	4	39	225200	2	14	72	223161	-1	223802	1	641	3	3	2039	53	225214	-54	0																64												
WM080112	153025_fnca	2	1	1	443798499	1	75.031	75.031	2.0.10.147	2.0.10.242	2.0.10.242	1.0.0.439	7	234	2	3	Verdana	1	80	0	0	0	WM Stimuli\	1	889.8	1	510.3	0.6	800	1	589	0.9	961.333333333333	0.9	675.222222222222	0.6	759.333333333333	1	574.4	13	324973	2	324961	27	40	325000	-999999	324976	0	36	TrialsPROC	PL_016_SCENE_02.png	2	2	65	SessionSelectionList														target	2	Place	2-Back	57	80	50	0	0	100	1	39	227772	2	14	72	225733	-1	226613	1	880	2	2	2039	53	227786	-54	0																65												
WM080112	153025_fnca	2	1	1	443798499	1	75.031	75.031	2.0.10.147	2.0.10.242	2.0.10.242	1.0.0.439	7	234	2	3	Verdana	1	80	0	0	0	WM Stimuli\	1	889.8	1	510.3	0.6	800	1	589	0.9	961.333333333333	0.9	675.222222222222	0.6	759.333333333333	1	574.4	13	324973	2	324961	27	40	325000	-999999	324976	0	36	TrialsPROC	PL_015_SCENE_01.png	2	2	66	SessionSelectionList														target	2	Place	2-Back	58	80	51	0	0	100	2	39	230345	1	14	73	228306	-1	229794	1	1488	2	2	2039	53	230359	-54	0																66												
WM080112	153025_fnca	2	1	1	443798499	1	75.031	75.031	2.0.10.147	2.0.10.242	2.0.10.242	1.0.0.439	7	234	2	3	Verdana	1	80	0	0	0	WM Stimuli\	1	889.8	1	510.3	0.6	800	1	589	0.9	961.333333333333	0.9	675.222222222222	0.6	759.333333333333	1	574.4	13	324973	2	324961	27	40	325000	-999999	324976	0	36	TrialsPROC	PL_020_SCENE_06.png	2	2	67	SessionSelectionList														nonlure	3	Place	2-Back	59	80	52	0	0	100	1	39	232917	1	14	72	230878	-1	231591	1	713	3	3	2039	53	232931	-54	0																67												
WM080112	153025_fnca	2	1	1	443798499	1	75.031	75.031	2.0.10.147	2.0.10.242	2.0.10.242	1.0.0.439	7	234	2	3	Verdana	1	80	0	0	0	WM Stimuli\	1	889.8	1	510.3	0.6	800	1	589	0.9	961.333333333333	0.9	675.222222222222	0.6	759.333333333333	1	574.4	13	324973	2	324961	27	40	325000	-999999	324976	0	36	TrialsPROC	PL_020_SCENE_06.png	2	2	68	SessionSelectionList														lure	3	Place	2-Back	60	80	53	0	0	100	2	39	235489	2	14	72	233450	-1	234273	1	823	3	3	2039	53	235503	-54	0																68												
WM080112	153025_fnca	2	1	1	443798499	1	75.031	75.031	2.0.10.147	2.0.10.242	2.0.10.242	1.0.0.439	7	234	2	3	Verdana	1	80	0	0	0	WM Stimuli\	1	889.8	1	510.3	0.6	800	1	589	0.9	961.333333333333	0.9	675.222222222222	0.6	759.333333333333	1	574.4	13	324973	2	324961	27	40	325000	-999999	324976	0	36	TrialsPROC	PL_018_SCENE_04.png	2	2	69	SessionSelectionList														nonlure	3	Place	2-Back	61	80	54	0	0	100	3	40	238062	1	13	72	236022	-1	236889	1	867	3	3	2040	53	238075	-54	0																69												
WM080112	153025_fnca	2	1	1	443798499	1	75.031	75.031	2.0.10.147	2.0.10.242	2.0.10.242	1.0.0.439	7	234	2	3	Verdana	1	80	0	0	0	WM Stimuli\	1	889.8	1	510.3	0.6	800	1	589	0.9	961.333333333333	0.9	675.222222222222	0.6	759.333333333333	1	574.4	13	324973	2	324961	27	40	325000	-999999	324976	0	37	Fix15secPROC	""	2	2	70	SessionSelectionList																																															6	238528	-7	0							70												
WM080112	153025_fnca	2	1	1	443798499	1	75.031	75.031	2.0.10.147	2.0.10.242	2.0.10.242	1.0.0.439	7	234	2	3	Verdana	1	80	0	0	0	WM Stimuli\	1	889.8	1	510.3	0.6	800	1	589	0.9	961.333333333333	0.9	675.222222222222	0.6	759.333333333333	1	574.4	13	324973	2	324961	27	40	325000	-999999	324976	0	38	Cue0BackPROC	FC_020_F10.png	2	2	71	SessionSelectionList																																										27	253549	-28	0												71												
WM080112	153025_fnca	2	1	1	443798499	1	75.031	75.031	2.0.10.147	2.0.10.242	2.0.10.242	1.0.0.439	7	234	2	3	Verdana	1	80	0	0	0	WM Stimuli\	1	889.8	1	510.3	0.6	800	1	589	0.9	961.333333333333	0.9	675.222222222222	0.6	759.333333333333	1	574.4	13	324973	2	324961	27	40	325000	-999999	324976	0	39	TrialsPROC	FC_024_F12.png	2	2	72	SessionSelectionList														nonlure	3	Face	0-Back	62	80	55	0	0	100	4	39	258133	2	14	72	256094	-1	256863	1	769	3	3	2039	53	258147	-54	0																72												
WM080112	153025_fnca	2	1	1	443798499	1	75.031	75.031	2.0.10.147	2.0.10.242	2.0.10.242	1.0.0.439	7	234	2	3	Verdana	1	80	0	0	0	WM Stimuli\	1	889.8	1	510.3	0.6	800	1	589	0.9	961.333333333333	0.9	675.222222222222	0.6	759.333333333333	1	574.4	13	324973	2	324961	27	40	325000	-999999	324976	0	39	TrialsPROC	FC_023_M12.png	2	2	73	SessionSelectionList														nonlure	3	Face	0-Back	63	80	56	0	0	100	5	40	260706	1	13	72	258666	-1	259108	1	442	3	3	2040	53	260719	-54	0																73												
WM080112	153025_fnca	2	1	1	443798499	1	75.031	75.031	2.0.10.147	2.0.10.242	2.0.10.242	1.0.0.439	7	234	2	3	Verdana	1	80	0	0	0	WM Stimuli\	1	889.8	1	510.3	0.6	800	1	589	0.9	961.333333333333	0.9	675.222222222222	0.6	759.333333333333	1	574.4	13	324973	2	324961	27	40	325000	-999999	324976	0	39	TrialsPROC	FC_020_F10.png	2	2	74	SessionSelectionList														target	2	Face	0-Back	64	80	57	0	0	100	1	39	263278	1	14	73	261239	-1	261620	1	381	2	2	2039	53	263292	-54	0																74												
WM080112	153025_fnca	2	1	1	443798499	1	75.031	75.031	2.0.10.147	2.0.10.242	2.0.10.242	1.0.0.439	7	234	2	3	Verdana	1	80	0	0	0	WM Stimuli\	1	889.8	1	510.3	0.6	800	1	589	0.9	961.333333333333	0.9	675.222222222222	0.6	759.333333333333	1	574.4	13	324973	2	324961	27	40	325000	-999999	324976	0	39	TrialsPROC	FC_024_F12.png	2	2	75	SessionSelectionList														lure	3	Face	0-Back	65	80	58	0	0	100	1	39	265850	2	14	72	263811	-1	264492	1	681	3	3	2039	53	265864	-54	0																75												
WM080112	153025_fnca	2	1	1	443798499	1	75.031	75.031	2.0.10.147	2.0.10.242	2.0.10.242	1.0.0.439	7	234	2	3	Verdana	1	80	0	0	0	WM Stimuli\	1	889.8	1	510.3	0.6	800	1	589	0.9	961.333333333333	0.9	675.222222222222	0.6	759.333333333333	1	574.4	13	324973	2	324961	27	40	325000	-999999	324976	0	39	TrialsPROC	FC_020_F10.png	2	2	76	SessionSelectionList														target	2	Face	0-Back	66	80	59	0	0	100	1	39	268422	2	14	72	266383	-1	266956	1	573	2	2	2039	53	268436	-54	0																76												
WM080112	153025_fnca	2	1	1	443798499	1	75.031	75.031	2.0.10.147	2.0.10.242	2.0.10.242	1.0.0.439	7	234	2	3	Verdana	1	80	0	0	0	WM Stimuli\	1	889.8	1	510.3	0.6	800	1	589	0.9	961.333333333333	0.9	675.222222222222	0.6	759.333333333333	1	574.4	13	324973	2	324961	27	40	325000	-999999	324976	0	39	TrialsPROC	FC_022_F11.png	2	2	77	SessionSelectionList														nonlure	3	Face	0-Back	67	80	60	0	0	100	1	39	270995	1	14	73	268956	-1	269536	1	580	3	3	2039	53	271009	-54	0																77												
WM080112	153025_fnca	2	1	1	443798499	1	75.031	75.031	2.0.10.147	2.0.10.242	2.0.10.242	1.0.0.439	7	234	2	3	Verdana	1	80	0	0	0	WM Stimuli\	1	889.8	1	510.3	0.6	800	1	589	0.9	961.333333333333	0.9	675.222222222222	0.6	759.333333333333	1	574.4	13	324973	2	324961	27	40	325000	-999999	324976	0	39	TrialsPROC	FC_023_M12.png	2	2	78	SessionSelectionList														lure	3	Face	0-Back	68	80	61	0	0	100	2	39	273567	1	14	72	271528	-1	272119	1	591	3	3	2039	53	273581	-54	0																78												
WM080112	153025_fnca	2	1	1	443798499	1	75.031	75.031	2.0.10.147	2.0.10.242	2.0.10.242	1.0.0.439	7	234	2	3	Verdana	1	80	0	0	0	WM Stimuli\	1	889.8	1	510.3	0.6	800	1	589	0.9	961.333333333333	0.9	675.222222222222	0.6	759.333333333333	1	574.4	13	324973	2	324961	27	40	325000	-999999	324976	0	39	TrialsPROC	FC_021_M11.png	2	2	79	SessionSelectionList														nonlure	3	Face	0-Back	69	80	62	0	0	100	3	39	276139	2	14	72	274100	-1	274731	1	631	3	3	2039	53	276153	-54	0																79												
WM080112	153025_fnca	2	1	1	443798499	1	75.031	75.031	2.0.10.147	2.0.10.242	2.0.10.242	1.0.0.439	7	234	2	3	Verdana	1	80	0	0	0	WM Stimuli\	1	889.8	1	510.3	0.6	800	1	589	0.9	961.333333333333	0.9	675.222222222222	0.6	759.333333333333	1	574.4	13	324973	2	324961	27	40	325000	-999999	324976	0	39	TrialsPROC	FC_021_M11.png	2	2	80	SessionSelectionList														lure	3	Face	0-Back	70	80	63	0	0	100	4	40	278712	1	13	72	276672	-1	277215	1	543	3	3	2040	53	278725	-54	0																80												
WM080112	153025_fnca	2	1	1	443798499	1	75.031	75.031	2.0.10.147	2.0.10.242	2.0.10.242	1.0.0.439	7	234	2	3	Verdana	1	80	0	0	0	WM Stimuli\	1	889.8	1	510.3	0.6	800	1	589	0.9	961.333333333333	0.9	675.222222222222	0.6	759.333333333333	1	574.4	13	324973	2	324961	27	40	325000	-999999	324976	0	39	TrialsPROC	FC_019_M10.png	2	2	81	SessionSelectionList														nonlure	3	Face	0-Back	71	80	64	0	0	100	5	39	281284	1	14	73	279245	-1	279944	1	699	3	3	2039	53	281298	-54	0																81												
WM080112	153025_fnca	2	1	1	443798499	1	75.031	75.031	2.0.10.147	2.0.10.242	2.0.10.242	1.0.0.439	7	234	2	3	Verdana	1	80	0	0	0	WM Stimuli\	1	889.8	1	510.3	0.6	800	1	589	0.9	961.333333333333	0.9	675.222222222222	0.6	759.333333333333	1	574.4	13	324973	2	324961	27	40	325000	-999999	324976	0	40	Cue0BackPROC	PL_021_SCENE_07.png	2	2	82	SessionSelectionList																																										19	281764	-20	0												82												
WM080112	153025_fnca	2	1	1	443798499	1	75.031	75.031	2.0.10.147	2.0.10.242	2.0.10.242	1.0.0.439	7	234	2	3	Verdana	1	80	0	0	0	WM Stimuli\	1	889.8	1	510.3	0.6	800	1	589	0.9	961.333333333333	0.9	675.222222222222	0.6	759.333333333333	1	574.4	13	324973	2	324961	27	40	325000	-999999	324976	0	41	TrialsPROC	PL_025_SCENE_18.png	2	2	83	SessionSelectionList														nonlure	3	Place	0-Back	72	80	64	0	1	97	5	39	286348	2	14	64	284309	-1	0	0	0	""	3	2039	53	286362	-54	0																83												
WM080112	153025_fnca	2	1	1	443798499	1	75.031	75.031	2.0.10.147	2.0.10.242	2.0.10.242	1.0.0.439	7	234	2	3	Verdana	1	80	0	0	0	WM Stimuli\	1	889.8	1	510.3	0.6	800	1	589	0.9	961.333333333333	0.9	675.222222222222	0.6	759.333333333333	1	574.4	13	324973	2	324961	27	40	325000	-999999	324976	0	41	TrialsPROC	PL_026_SCENE_24.png	2	2	84	SessionSelectionList														nonlure	3	Place	0-Back	73	80	65	0	0	97	1	39	288921	2	14	73	286882	-1	287610	1	728	3	3	2039	53	288935	-54	0																84												
WM080112	153025_fnca	2	1	1	443798499	1	75.031	75.031	2.0.10.147	2.0.10.242	2.0.10.242	1.0.0.439	7	234	2	3	Verdana	1	80	0	0	0	WM Stimuli\	1	889.8	1	510.3	0.6	800	1	589	0.9	961.333333333333	0.9	675.222222222222	0.6	759.333333333333	1	574.4	13	324973	2	324961	27	40	325000	-999999	324976	0	41	TrialsPROC	PL_025_SCENE_18.png	2	2	85	SessionSelectionList														lure	3	Place	0-Back	74	80	66	0	0	97	2	39	291493	1	14	72	289454	-1	290037	1	583	3	3	2039	53	291507	-54	0																85												
WM080112	153025_fnca	2	1	1	443798499	1	75.031	75.031	2.0.10.147	2.0.10.242	2.0.10.242	1.0.0.439	7	234	2	3	Verdana	1	80	0	0	0	WM Stimuli\	1	889.8	1	510.3	0.6	800	1	589	0.9	961.333333333333	0.9	675.222222222222	0.6	759.333333333333	1	574.4	13	324973	2	324961	27	40	325000	-999999	324976	0	41	TrialsPROC	PL_022_SCENE_08.png	2	2	86	SessionSelectionList														nonlure	3	Place	0-Back	75	80	67	0	0	97	3	39	294065	2	14	72	292026	-1	292533	1	507	3	3	2039	53	294079	-54	0																86												
WM080112	153025_fnca	2	1	1	443798499	1	75.031	75.031	2.0.10.147	2.0.10.242	2.0.10.242	1.0.0.439	7	234	2	3	Verdana	1	80	0	0	0	WM Stimuli\	1	889.8	1	510.3	0.6	800	1	589	0.9	961.333333333333	0.9	675.222222222222	0.6	759.333333333333	1	574.4	13	324973	2	324961	27	40	325000	-999999	324976	0	41	TrialsPROC	PL_026_SCENE_24.png	2	2	87	SessionSelectionList														lure	3	Place	0-Back	76	80	68	0	0	97	4	40	296638	1	13	72	294598	-1	295093	1	495	3	3	2040	53	296651	-54	0																87												
WM080112	153025_fnca	2	1	1	443798499	1	75.031	75.031	2.0.10.147	2.0.10.242	2.0.10.242	1.0.0.439	7	234	2	3	Verdana	1	80	0	0	0	WM Stimuli\	1	889.8	1	510.3	0.6	800	1	589	0.9	961.333333333333	0.9	675.222222222222	0.6	759.333333333333	1	574.4	13	324973	2	324961	27	40	325000	-999999	324976	0	41	TrialsPROC	PL_021_SCENE_07.png	2	2	88	SessionSelectionList														target	2	Place	0-Back	77	80	69	0	0	97	1	39	299210	1	14	73	297171	-1	297749	1	578	2	2	2039	53	299224	-54	0																88												
WM080112	153025_fnca	2	1	1	443798499	1	75.031	75.031	2.0.10.147	2.0.10.242	2.0.10.242	1.0.0.439	7	234	2	3	Verdana	1	80	0	0	0	WM Stimuli\	1	889.8	1	510.3	0.6	800	1	589	0.9	961.333333333333	0.9	675.222222222222	0.6	759.333333333333	1	574.4	13	324973	2	324961	27	40	325000	-999999	324976	0	41	TrialsPROC	PL_021_SCENE_07.png	2	2	89	SessionSelectionList														target	2	Place	0-Back	78	80	70	0	0	97	2	39	301782	2	14	72	299743	-1	300262	1	519	2	2	2039	53	301796	-54	0																89												
WM080112	153025_fnca	2	1	1	443798499	1	75.031	75.031	2.0.10.147	2.0.10.242	2.0.10.242	1.0.0.439	7	234	2	3	Verdana	1	80	0	0	0	WM Stimuli\	1	889.8	1	510.3	0.6	800	1	589	0.9	961.333333333333	0.9	675.222222222222	0.6	759.333333333333	1	574.4	13	324973	2	324961	27	40	325000	-999999	324976	0	41	TrialsPROC	PL_023_SCENE_09.png	2	2	90	SessionSelectionList														nonlure	3	Place	0-Back	79	80	71	0	0	97	1	39	304354	2	14	72	302315	-1	303032	1	717	3	3	2039	53	304368	-54	0																90												
WM080112	153025_fnca	2	1	1	443798499	1	75.031	75.031	2.0.10.147	2.0.10.242	2.0.10.242	1.0.0.439	7	234	2	3	Verdana	1	80	0	0	0	WM Stimuli\	1	889.8	1	510.3	0.6	800	1	589	0.9	961.333333333333	0.9	675.222222222222	0.6	759.333333333333	1	574.4	13	324973	2	324961	27	40	325000	-999999	324976	0	41	TrialsPROC	PL_024_SCENE_10.png	2	2	91	SessionSelectionList														nonlure	3	Place	0-Back	80	80	72	0	0	97	2	39	306927	1	13	73	304888	-1	306274	1	1386	3	3	2039	52	306940	-53	0																91												
WM080112	153025_fnca	2	1	1	443798499	1	75.031	75.031	2.0.10.147	2.0.10.242	2.0.10.242	1.0.0.439	7	234	2	3	Verdana	1	80	0	0	0	WM Stimuli\	1	889.8	1	510.3	0.6	800	1	589	0.9	961.333333333333	0.9	675.222222222222	0.6	759.333333333333	1	574.4	13	324973	2	324961	27	40	325000	-999999	324976	0	41	TrialsPROC	PL_022_SCENE_08.png	2	2	92	SessionSelectionList														lure	3	Place	0-Back	80	80	73	0	0	98	3	39	309499	1	14	72	307460	-1	308024	1	564	3	3	2039	53	309513	-54	0																92												
WM080112	153025_fnca	2	1	1	443798499	1	75.031	75.031	2.0.10.147	2.0.10.242	2.0.10.242	1.0.0.439	7	234	2	3	Verdana	1	80	0	0	0	WM Stimuli\	1	889.8	1	510.3	0.6	800	1	589	0.9	961.333333333333	0.9	675.222222222222	0.6	759.333333333333	1	574.4	13	324973	2	324961	27	40	325000	-999999	324976	0	42	Fix15secPROC	""	2	2	93	SessionSelectionList																																															6	309966	-7	0							93												
