ExperimentName	HCPID	RunNumber	Subject	Session	RandomSeed	Group	Laptop.RefreshRate	ScannerD2.RefreshRate	StudioVersion	RuntimeVersion	RuntimeVersionExpected	ExperimentVersion	triggercode	Allowed	Target	Nontarget	FontStyle	RunTrialNumber[Session]	TrialsPerRun[Session]	TotalRespGreater200[Session]	ConsecRTLess200[Session]	ConsecNonResp[Session]	StimuliDir	ACC_2_Back_Body	Avg_RT_For_Correct_Trials_2_Back_Body	ACC_0_Back_Body	Avg_RT_For_Correct_Trials_0_Back_Body	ACC_2_Back_Face	Avg_RT_For_Correct_Trials_2_Back_Face	ACC_0_Back_Face	Avg_RT_For_Correct_Trials_0_Back_Face	ACC_2_Back_Place	Avg_RT_For_Correct_Trials_2_Back_Place	ACC_0_Back_Place	Avg_RT_For_Correct_Trials_0_Back_Place	ACC_2_Back_Tools	Avg_RT_For_Correct_Trials_2_Back_Tools	ACC_0_Back_Tools	Avg_RT_For_Correct_Trials_0_Back_Tools	ExpInstrucFeelFreeToRest.OnsetDelay	ExpInstrucFeelFreeToRest.OnsetTime	ExpInstrucFeelFreeToRest.DurationError	ExpInstrucFeelFreeToRest.StartTime	ExpInstrucFeelFreeToRest.OnsetToOnsetTime	FeelFreeToRest.OnsetDelay	FeelFreeToRest.OnsetTime	FeelFreeToRest.DurationError	FeelFreeToRest.StartTime	FeelFreeToRest.OnsetToOnsetTime	SessionSelectionList	Procedure[Block]	Stimulus[Block]	RunNumberFilterValue	SessionSelectionList.Cycle	SessionSelectionList.Sample	Running[Block]	IntroButtonMap.OnsetDelay	IntroButtonMap.OnsetTime	IntroButtonMap.DurationError	IntroButtonMap.OnsetToOnsetTime	GetReady.OnsetDelay	GetReady.OnsetTime	GetReady.DurationError	GetReady.OnsetToOnsetTime	Cue2Back.OnsetDelay	Cue2Back.OnsetTime	Cue2Back.DurationError	Cue2Back.OnsetToOnsetTime	Run1Block1	TargetType	CorrectResponse	StimType	BlockType	RunTrialNumber[Block]	TrialsPerRun[Block]	TotalRespGreater200[Block]	ConsecRTLess200[Block]	ConsecNonResp[Block]	ControlAcc	ConsecSameResp	ExperimenterWindow.OnsetDelay	ExperimenterWindow.OnsetTime	ExperimenterWindow.DurationError	ExperimenterWindow.OnsetToOnsetTime	Stim.OnsetDelay	Stim.OnsetTime	Stim.DurationError	Stim.RTTime	Stim.ACC	Stim.RT	Stim.RESP	Stim.CRESP	Stim.OnsetToOnsetTime	Fix.OnsetDelay	Fix.OnsetTime	Fix.DurationError	Fix.OnsetToOnsetTime	CueTarget.OnsetDelay	CueTarget.OnsetTime	CueTarget.DurationError	CueTarget.OnsetToOnsetTime	Run1Block2	Fix15sec.OnsetDelay	Fix15sec.OnsetTime	Fix15sec.DurationError	Fix15sec.OnsetToOnsetTime	Run1Block3	Run1Block4	Run1Block5	Run1Block6	Run1Block7	Run1Block8	Block	Procedure[Trial]	Stimulus[Trial]	ReadyList	Running[Trial]	ReadyList.Cycle	ReadyList.Sample	SyncSlide.OnsetDelay	SyncSlide.OnsetTime	SyncSlide.DurationError	SyncSlide.FinishTime	SyncSlide.OnsetToOnsetTime	Trial
WM080112	101309_fnca	2	1	1	-2081020907	1	75.031	75.031	2.0.10.147	2.0.10.242	2.0.10.242	1.0.0.439	7	234	2	3	Verdana	1	80	0	0	0	WM Stimuli\	1	1117.6	1	753.6	1	1113.1	1	723.8	1	1048.3	1	680.2	1	1006.7	1	747.1	12	337619	2	337608	14	26	337633	-999999	337621	0	22	TRSyncPROC	""	2	2	1	SessionSelectionList	105	32691	-999999	0	35	33531	-999999	0																																																	1	InitialTR	4	1	ReadyList	1	1	18	44192	-19	46173	0	1
WM080112	101309_fnca	2	1	1	-2081020907	1	75.031	75.031	2.0.10.147	2.0.10.242	2.0.10.242	1.0.0.439	7	234	2	3	Verdana	1	80	0	0	0	WM Stimuli\	1	1117.6	1	753.6	1	1113.1	1	723.8	1	1048.3	1	680.2	1	1006.7	1	747.1	12	337619	2	337608	14	26	337633	-999999	337621	0	22	TRSyncPROC	""	2	2	1	SessionSelectionList	105	32691	-999999	0	35	33531	-999999	0																																																	1	InitialTR	3	2	ReadyList	1	2	18	46192	-19	48173	0	2
WM080112	101309_fnca	2	1	1	-2081020907	1	75.031	75.031	2.0.10.147	2.0.10.242	2.0.10.242	1.0.0.439	7	234	2	3	Verdana	1	80	0	0	0	WM Stimuli\	1	1117.6	1	753.6	1	1113.1	1	723.8	1	1048.3	1	680.2	1	1006.7	1	747.1	12	337619	2	337608	14	26	337633	-999999	337621	0	22	TRSyncPROC	""	2	2	1	SessionSelectionList	105	32691	-999999	0	35	33531	-999999	0																																																	1	InitialTR	2	3	ReadyList	1	3	3	48177	-4	50173	0	3
WM080112	101309_fnca	2	1	1	-2081020907	1	75.031	75.031	2.0.10.147	2.0.10.242	2.0.10.242	1.0.0.439	7	234	2	3	Verdana	1	80	0	0	0	WM Stimuli\	1	1117.6	1	753.6	1	1113.1	1	723.8	1	1048.3	1	680.2	1	1006.7	1	747.1	12	337619	2	337608	14	26	337633	-999999	337621	0	22	TRSyncPROC	""	2	2	1	SessionSelectionList	105	32691	-999999	0	35	33531	-999999	0																																																	1	InitialTR	1	4	ReadyList	1	4	16	50190	-17	52173	0	4
WM080112	101309_fnca	2	1	1	-2081020907	1	75.031	75.031	2.0.10.147	2.0.10.242	2.0.10.242	1.0.0.439	7	234	2	3	Verdana	1	80	0	0	0	WM Stimuli\	1	1117.6	1	753.6	1	1113.1	1	723.8	1	1048.3	1	680.2	1	1006.7	1	747.1	12	337619	2	337608	14	26	337633	-999999	337621	0	23	Cue2BackPROC	""	2	2	2	SessionSelectionList									15	52189	-16	0																																													2												
WM080112	101309_fnca	2	1	1	-2081020907	1	75.031	75.031	2.0.10.147	2.0.10.242	2.0.10.242	1.0.0.439	7	234	2	3	Verdana	1	80	0	0	0	WM Stimuli\	1	1117.6	1	753.6	1	1113.1	1	723.8	1	1048.3	1	680.2	1	1006.7	1	747.1	12	337619	2	337608	14	26	337633	-999999	337621	0	24	TrialsPROC	TO_014_TOOL14_BA.png	2	2	3	SessionSelectionList														nonlure	3	Tools	2-Back	2	80	1	0	0	0	1	53	56801	3	13	74	54748	-1	55322	1	574	3	3	2053	66	56814	-67	0																3												
WM080112	101309_fnca	2	1	1	-2081020907	1	75.031	75.031	2.0.10.147	2.0.10.242	2.0.10.242	1.0.0.439	7	234	2	3	Verdana	1	80	0	0	0	WM Stimuli\	1	1117.6	1	753.6	1	1113.1	1	723.8	1	1048.3	1	680.2	1	1006.7	1	747.1	12	337619	2	337608	14	26	337633	-999999	337621	0	24	TrialsPROC	TO_013_TOOL13_BA.png	2	2	4	SessionSelectionList														nonlure	3	Tools	2-Back	3	80	2	0	0	0	2	39	59346	3	14	59	57307	-1	58285	1	978	3	3	2039	53	59360	-54	0																4												
WM080112	101309_fnca	2	1	1	-2081020907	1	75.031	75.031	2.0.10.147	2.0.10.242	2.0.10.242	1.0.0.439	7	234	2	3	Verdana	1	80	0	0	0	WM Stimuli\	1	1117.6	1	753.6	1	1113.1	1	723.8	1	1048.3	1	680.2	1	1006.7	1	747.1	12	337619	2	337608	14	26	337633	-999999	337621	0	24	TrialsPROC	TO_016_TOOL16_BA.png	2	2	5	SessionSelectionList														nonlure	3	Tools	2-Back	4	80	3	0	0	0	3	40	61919	1	13	72	59879	-1	60958	1	1079	3	3	2040	53	61932	-54	0																5												
WM080112	101309_fnca	2	1	1	-2081020907	1	75.031	75.031	2.0.10.147	2.0.10.242	2.0.10.242	1.0.0.439	7	234	2	3	Verdana	1	80	0	0	0	WM Stimuli\	1	1117.6	1	753.6	1	1113.1	1	723.8	1	1048.3	1	680.2	1	1006.7	1	747.1	12	337619	2	337608	14	26	337633	-999999	337621	0	24	TrialsPROC	TO_014_TOOL14_BA.png	2	2	6	SessionSelectionList														lure	3	Tools	2-Back	5	80	4	0	0	0	4	39	64491	1	14	73	62452	-1	63812	1	1360	3	3	2039	53	64505	-54	0																6												
WM080112	101309_fnca	2	1	1	-2081020907	1	75.031	75.031	2.0.10.147	2.0.10.242	2.0.10.242	1.0.0.439	7	234	2	3	Verdana	1	80	0	0	0	WM Stimuli\	1	1117.6	1	753.6	1	1113.1	1	723.8	1	1048.3	1	680.2	1	1006.7	1	747.1	12	337619	2	337608	14	26	337633	-999999	337621	0	24	TrialsPROC	TO_016_TOOL16_BA.png	2	2	7	SessionSelectionList														target	2	Tools	2-Back	6	80	5	0	0	0	1	39	67050	1	14	59	65011	-1	65970	1	959	2	2	2039	53	67064	-54	0																7												
WM080112	101309_fnca	2	1	1	-2081020907	1	75.031	75.031	2.0.10.147	2.0.10.242	2.0.10.242	1.0.0.439	7	234	2	3	Verdana	1	80	0	0	0	WM Stimuli\	1	1117.6	1	753.6	1	1113.1	1	723.8	1	1048.3	1	680.2	1	1006.7	1	747.1	12	337619	2	337608	14	26	337633	-999999	337621	0	24	TrialsPROC	TO_018_TOOL18_BA.png	2	2	8	SessionSelectionList														nonlure	3	Tools	2-Back	7	80	6	0	0	0	1	39	69609	1	14	59	67570	-1	68739	1	1169	3	3	2039	53	69623	-54	0																8												
WM080112	101309_fnca	2	1	1	-2081020907	1	75.031	75.031	2.0.10.147	2.0.10.242	2.0.10.242	1.0.0.439	7	234	2	3	Verdana	1	80	0	0	0	WM Stimuli\	1	1117.6	1	753.6	1	1113.1	1	723.8	1	1048.3	1	680.2	1	1006.7	1	747.1	12	337619	2	337608	14	26	337633	-999999	337621	0	24	TrialsPROC	TO_017_TOOL17_BA.png	2	2	9	SessionSelectionList														nonlure	3	Tools	2-Back	8	80	7	0	0	0	2	39	72168	1	14	59	70129	-1	71141	1	1012	3	3	2039	53	72182	-54	0																9												
WM080112	101309_fnca	2	1	1	-2081020907	1	75.031	75.031	2.0.10.147	2.0.10.242	2.0.10.242	1.0.0.439	7	234	2	3	Verdana	1	80	0	0	0	WM Stimuli\	1	1117.6	1	753.6	1	1113.1	1	723.8	1	1048.3	1	680.2	1	1006.7	1	747.1	12	337619	2	337608	14	26	337633	-999999	337621	0	24	TrialsPROC	TO_018_TOOL18_BA.png	2	2	10	SessionSelectionList														target	2	Tools	2-Back	9	80	8	0	0	0	1	40	74727	1	13	58	72687	-1	73383	1	696	2	2	2040	53	74740	-54	0																10												
WM080112	101309_fnca	2	1	1	-2081020907	1	75.031	75.031	2.0.10.147	2.0.10.242	2.0.10.242	1.0.0.439	7	234	2	3	Verdana	1	80	0	0	0	WM Stimuli\	1	1117.6	1	753.6	1	1113.1	1	723.8	1	1048.3	1	680.2	1	1006.7	1	747.1	12	337619	2	337608	14	26	337633	-999999	337621	0	24	TrialsPROC	TO_015_TOOL15_BA.png	2	2	11	SessionSelectionList														nonlure	3	Tools	2-Back	10	80	9	0	0	0	1	40	77286	1	13	59	75246	-1	76293	1	1047	3	3	2040	53	77299	-54	0																11												
WM080112	101309_fnca	2	1	1	-2081020907	1	75.031	75.031	2.0.10.147	2.0.10.242	2.0.10.242	1.0.0.439	7	234	2	3	Verdana	1	80	0	0	0	WM Stimuli\	1	1117.6	1	753.6	1	1113.1	1	723.8	1	1048.3	1	680.2	1	1006.7	1	747.1	12	337619	2	337608	14	26	337633	-999999	337621	0	24	TrialsPROC	TO_017_TOOL17_BA.png	2	2	12	SessionSelectionList														lure	3	Tools	2-Back	11	80	10	0	0	0	2	40	79845	1	13	59	77805	-1	78998	1	1193	3	3	2040	53	79858	-54	0																12												
WM080112	101309_fnca	2	1	1	-2081020907	1	75.031	75.031	2.0.10.147	2.0.10.242	2.0.10.242	1.0.0.439	7	234	2	3	Verdana	1	80	0	0	0	WM Stimuli\	1	1117.6	1	753.6	1	1113.1	1	723.8	1	1048.3	1	680.2	1	1006.7	1	747.1	12	337619	2	337608	14	26	337633	-999999	337621	0	25	Cue0BackPROC	BP_013_BP7_BA.png	2	2	13	SessionSelectionList																																										19	80324	-20	0												13												
WM080112	101309_fnca	2	1	1	-2081020907	1	75.031	75.031	2.0.10.147	2.0.10.242	2.0.10.242	1.0.0.439	7	234	2	3	Verdana	1	80	0	0	0	WM Stimuli\	1	1117.6	1	753.6	1	1113.1	1	723.8	1	1048.3	1	680.2	1	1006.7	1	747.1	12	337619	2	337608	14	26	337633	-999999	337621	0	26	TrialsPROC	BP_015_H10-T_BA.png	2	2	14	SessionSelectionList														nonlure	3	Body	0-Back	12	80	11	0	0	100	3	39	84909	2	14	65	82870	-1	84198	1	1328	3	3	2039	53	84923	-54	0																14												
WM080112	101309_fnca	2	1	1	-2081020907	1	75.031	75.031	2.0.10.147	2.0.10.242	2.0.10.242	1.0.0.439	7	234	2	3	Verdana	1	80	0	0	0	WM Stimuli\	1	1117.6	1	753.6	1	1113.1	1	723.8	1	1048.3	1	680.2	1	1006.7	1	747.1	12	337619	2	337608	14	26	337633	-999999	337621	0	26	TrialsPROC	BP_018_H13-T_BA.png	2	2	15	SessionSelectionList														nonlure	3	Body	0-Back	13	80	12	0	0	100	4	39	87468	2	14	59	85429	-1	86211	1	782	3	3	2039	53	87482	-54	0																15												
WM080112	101309_fnca	2	1	1	-2081020907	1	75.031	75.031	2.0.10.147	2.0.10.242	2.0.10.242	1.0.0.439	7	234	2	3	Verdana	1	80	0	0	0	WM Stimuli\	1	1117.6	1	753.6	1	1113.1	1	723.8	1	1048.3	1	680.2	1	1006.7	1	747.1	12	337619	2	337608	14	26	337633	-999999	337621	0	26	TrialsPROC	BP_014_BP9_BA.png	2	2	16	SessionSelectionList														nonlure	3	Body	0-Back	14	80	13	0	0	100	5	39	90027	1	14	59	87988	-1	88888	1	900	3	3	2039	53	90041	-54	0																16												
WM080112	101309_fnca	2	1	1	-2081020907	1	75.031	75.031	2.0.10.147	2.0.10.242	2.0.10.242	1.0.0.439	7	234	2	3	Verdana	1	80	0	0	0	WM Stimuli\	1	1117.6	1	753.6	1	1113.1	1	723.8	1	1048.3	1	680.2	1	1006.7	1	747.1	12	337619	2	337608	14	26	337633	-999999	337621	0	26	TrialsPROC	BP_018_H13-T_BA.png	2	2	17	SessionSelectionList														lure	3	Body	0-Back	15	80	14	0	0	100	6	39	92586	1	14	59	90547	-1	91637	1	1090	3	3	2039	53	92600	-54	0																17												
WM080112	101309_fnca	2	1	1	-2081020907	1	75.031	75.031	2.0.10.147	2.0.10.242	2.0.10.242	1.0.0.439	7	234	2	3	Verdana	1	80	0	0	0	WM Stimuli\	1	1117.6	1	753.6	1	1113.1	1	723.8	1	1048.3	1	680.2	1	1006.7	1	747.1	12	337619	2	337608	14	26	337633	-999999	337621	0	26	TrialsPROC	BP_013_BP7_BA.png	2	2	18	SessionSelectionList														target	2	Body	0-Back	16	80	15	0	0	100	1	39	95145	1	14	59	93106	-1	93631	1	525	2	2	2039	53	95159	-54	0																18												
WM080112	101309_fnca	2	1	1	-2081020907	1	75.031	75.031	2.0.10.147	2.0.10.242	2.0.10.242	1.0.0.439	7	234	2	3	Verdana	1	80	0	0	0	WM Stimuli\	1	1117.6	1	753.6	1	1113.1	1	723.8	1	1048.3	1	680.2	1	1006.7	1	747.1	12	337619	2	337608	14	26	337633	-999999	337621	0	26	TrialsPROC	BP_015_H10-T_BA.png	2	2	19	SessionSelectionList														lure	3	Body	0-Back	17	80	16	0	0	100	1	39	97704	1	14	59	95665	-1	96247	1	582	3	3	2039	53	97718	-54	0																19												
WM080112	101309_fnca	2	1	1	-2081020907	1	75.031	75.031	2.0.10.147	2.0.10.242	2.0.10.242	1.0.0.439	7	234	2	3	Verdana	1	80	0	0	0	WM Stimuli\	1	1117.6	1	753.6	1	1113.1	1	723.8	1	1048.3	1	680.2	1	1006.7	1	747.1	12	337619	2	337608	14	26	337633	-999999	337621	0	26	TrialsPROC	BP_016_H11-T_BA.png	2	2	20	SessionSelectionList														nonlure	3	Body	0-Back	18	80	17	0	0	100	2	39	100263	1	14	59	98224	-1	98888	1	664	3	3	2039	53	100277	-54	0																20												
WM080112	101309_fnca	2	1	1	-2081020907	1	75.031	75.031	2.0.10.147	2.0.10.242	2.0.10.242	1.0.0.439	7	234	2	3	Verdana	1	80	0	0	0	WM Stimuli\	1	1117.6	1	753.6	1	1113.1	1	723.8	1	1048.3	1	680.2	1	1006.7	1	747.1	12	337619	2	337608	14	26	337633	-999999	337621	0	26	TrialsPROC	BP_013_BP7_BA.png	2	2	21	SessionSelectionList														target	2	Body	0-Back	19	80	18	0	0	100	1	39	102822	1	14	59	100783	-1	101345	1	562	2	2	2039	53	102836	-54	0																21												
WM080112	101309_fnca	2	1	1	-2081020907	1	75.031	75.031	2.0.10.147	2.0.10.242	2.0.10.242	1.0.0.439	7	234	2	3	Verdana	1	80	0	0	0	WM Stimuli\	1	1117.6	1	753.6	1	1113.1	1	723.8	1	1048.3	1	680.2	1	1006.7	1	747.1	12	337619	2	337608	14	26	337633	-999999	337621	0	26	TrialsPROC	BP_017_H12-T_BA.png	2	2	22	SessionSelectionList														nonlure	3	Body	0-Back	20	80	19	0	0	100	1	39	105381	1	14	59	103342	-1	103813	1	471	3	3	2039	53	105395	-54	0																22												
WM080112	101309_fnca	2	1	1	-2081020907	1	75.031	75.031	2.0.10.147	2.0.10.242	2.0.10.242	1.0.0.439	7	234	2	3	Verdana	1	80	0	0	0	WM Stimuli\	1	1117.6	1	753.6	1	1113.1	1	723.8	1	1048.3	1	680.2	1	1006.7	1	747.1	12	337619	2	337608	14	26	337633	-999999	337621	0	26	TrialsPROC	BP_014_BP9_BA.png	2	2	23	SessionSelectionList														lure	3	Body	0-Back	21	80	20	0	0	100	2	39	107940	1	14	59	105901	-1	106533	1	632	3	3	2039	53	107954	-54	0																23												
WM080112	101309_fnca	2	1	1	-2081020907	1	75.031	75.031	2.0.10.147	2.0.10.242	2.0.10.242	1.0.0.439	7	234	2	3	Verdana	1	80	0	0	0	WM Stimuli\	1	1117.6	1	753.6	1	1113.1	1	723.8	1	1048.3	1	680.2	1	1006.7	1	747.1	12	337619	2	337608	14	26	337633	-999999	337621	0	27	Fix15secPROC	""	2	2	24	SessionSelectionList																																															6	108407	-7	0							24												
WM080112	101309_fnca	2	1	1	-2081020907	1	75.031	75.031	2.0.10.147	2.0.10.242	2.0.10.242	1.0.0.439	7	234	2	3	Verdana	1	80	0	0	0	WM Stimuli\	1	1117.6	1	753.6	1	1113.1	1	723.8	1	1048.3	1	680.2	1	1006.7	1	747.1	12	337619	2	337608	14	26	337633	-999999	337621	0	28	Cue2BackPROC	""	2	2	25	SessionSelectionList									12	123413	-13	0																																													25												
WM080112	101309_fnca	2	1	1	-2081020907	1	75.031	75.031	2.0.10.147	2.0.10.242	2.0.10.242	1.0.0.439	7	234	2	3	Verdana	1	80	0	0	0	WM Stimuli\	1	1117.6	1	753.6	1	1113.1	1	723.8	1	1048.3	1	680.2	1	1006.7	1	747.1	12	337619	2	337608	14	26	337633	-999999	337621	0	29	TrialsPROC	FC_015_M8.png	2	2	26	SessionSelectionList														nonlure	3	Face	2-Back	22	80	21	0	0	100	3	40	128012	1	13	71	125972	-1	127431	1	1459	3	3	2040	53	128025	-54	0																26												
WM080112	101309_fnca	2	1	1	-2081020907	1	75.031	75.031	2.0.10.147	2.0.10.242	2.0.10.242	1.0.0.439	7	234	2	3	Verdana	1	80	0	0	0	WM Stimuli\	1	1117.6	1	753.6	1	1113.1	1	723.8	1	1048.3	1	680.2	1	1006.7	1	747.1	12	337619	2	337608	14	26	337633	-999999	337621	0	29	TrialsPROC	FC_018_F9.png	2	2	27	SessionSelectionList														nonlure	3	Face	2-Back	23	80	22	0	0	100	4	39	130584	1	14	73	128545	-1	129558	1	1013	3	3	2039	53	130598	-54	0																27												
WM080112	101309_fnca	2	1	1	-2081020907	1	75.031	75.031	2.0.10.147	2.0.10.242	2.0.10.242	1.0.0.439	7	234	2	3	Verdana	1	80	0	0	0	WM Stimuli\	1	1117.6	1	753.6	1	1113.1	1	723.8	1	1048.3	1	680.2	1	1006.7	1	747.1	12	337619	2	337608	14	26	337633	-999999	337621	0	29	TrialsPROC	FC_018_F9.png	2	2	28	SessionSelectionList														lure	3	Face	2-Back	24	80	23	0	0	100	5	39	133156	2	14	72	131117	-1	132089	1	972	3	3	2039	53	133170	-54	0																28												
WM080112	101309_fnca	2	1	1	-2081020907	1	75.031	75.031	2.0.10.147	2.0.10.242	2.0.10.242	1.0.0.439	7	234	2	3	Verdana	1	80	0	0	0	WM Stimuli\	1	1117.6	1	753.6	1	1113.1	1	723.8	1	1048.3	1	680.2	1	1006.7	1	747.1	12	337619	2	337608	14	26	337633	-999999	337621	0	29	TrialsPROC	FC_017_M9.png	2	2	29	SessionSelectionList														nonlure	3	Face	2-Back	25	80	24	0	0	100	6	39	135728	2	14	72	133689	-1	134849	1	1160	3	3	2039	53	135742	-54	0																29												
WM080112	101309_fnca	2	1	1	-2081020907	1	75.031	75.031	2.0.10.147	2.0.10.242	2.0.10.242	1.0.0.439	7	234	2	3	Verdana	1	80	0	0	0	WM Stimuli\	1	1117.6	1	753.6	1	1113.1	1	723.8	1	1048.3	1	680.2	1	1006.7	1	747.1	12	337619	2	337608	14	26	337633	-999999	337621	0	29	TrialsPROC	FC_017_M9.png	2	2	30	SessionSelectionList														lure	3	Face	2-Back	26	80	25	0	0	100	7	39	138301	1	14	73	136262	-1	137855	1	1593	3	3	2039	53	138315	-54	0																30												
WM080112	101309_fnca	2	1	1	-2081020907	1	75.031	75.031	2.0.10.147	2.0.10.242	2.0.10.242	1.0.0.439	7	234	2	3	Verdana	1	80	0	0	0	WM Stimuli\	1	1117.6	1	753.6	1	1113.1	1	723.8	1	1048.3	1	680.2	1	1006.7	1	747.1	12	337619	2	337608	14	26	337633	-999999	337621	0	29	TrialsPROC	FC_016_F8.png	2	2	31	SessionSelectionList														nonlure	3	Face	2-Back	27	80	26	0	0	100	8	39	140873	1	14	72	138834	-1	139927	1	1093	3	3	2039	53	140887	-54	0																31												
WM080112	101309_fnca	2	1	1	-2081020907	1	75.031	75.031	2.0.10.147	2.0.10.242	2.0.10.242	1.0.0.439	7	234	2	3	Verdana	1	80	0	0	0	WM Stimuli\	1	1117.6	1	753.6	1	1113.1	1	723.8	1	1048.3	1	680.2	1	1006.7	1	747.1	12	337619	2	337608	14	26	337633	-999999	337621	0	29	TrialsPROC	FC_013_M7.png	2	2	32	SessionSelectionList														nonlure	3	Face	2-Back	28	80	27	0	0	100	9	39	143445	2	14	72	141406	-1	142336	1	930	3	3	2039	53	143459	-54	0																32												
WM080112	101309_fnca	2	1	1	-2081020907	1	75.031	75.031	2.0.10.147	2.0.10.242	2.0.10.242	1.0.0.439	7	234	2	3	Verdana	1	80	0	0	0	WM Stimuli\	1	1117.6	1	753.6	1	1113.1	1	723.8	1	1048.3	1	680.2	1	1006.7	1	747.1	12	337619	2	337608	14	26	337633	-999999	337621	0	29	TrialsPROC	FC_014_F7.png	2	2	33	SessionSelectionList														nonlure	3	Face	2-Back	29	80	28	0	0	100	10	40	146018	1	13	72	143978	-1	144922	1	944	3	3	2040	53	146031	-54	0																33												
WM080112	101309_fnca	2	1	1	-2081020907	1	75.031	75.031	2.0.10.147	2.0.10.242	2.0.10.242	1.0.0.439	7	234	2	3	Verdana	1	80	0	0	0	WM Stimuli\	1	1117.6	1	753.6	1	1113.1	1	723.8	1	1048.3	1	680.2	1	1006.7	1	747.1	12	337619	2	337608	14	26	337633	-999999	337621	0	29	TrialsPROC	FC_013_M7.png	2	2	34	SessionSelectionList														target	2	Face	2-Back	30	80	29	0	0	100	1	39	148590	1	14	73	146551	-1	147175	1	624	2	2	2039	53	148604	-54	0																34												
WM080112	101309_fnca	2	1	1	-2081020907	1	75.031	75.031	2.0.10.147	2.0.10.242	2.0.10.242	1.0.0.439	7	234	2	3	Verdana	1	80	0	0	0	WM Stimuli\	1	1117.6	1	753.6	1	1113.1	1	723.8	1	1048.3	1	680.2	1	1006.7	1	747.1	12	337619	2	337608	14	26	337633	-999999	337621	0	29	TrialsPROC	FC_014_F7.png	2	2	35	SessionSelectionList														target	2	Face	2-Back	31	80	30	0	0	100	2	39	151162	1	14	72	149123	-1	150466	1	1343	2	2	2039	53	151176	-54	0																35												
WM080112	101309_fnca	2	1	1	-2081020907	1	75.031	75.031	2.0.10.147	2.0.10.242	2.0.10.242	1.0.0.439	7	234	2	3	Verdana	1	80	0	0	0	WM Stimuli\	1	1117.6	1	753.6	1	1113.1	1	723.8	1	1048.3	1	680.2	1	1006.7	1	747.1	12	337619	2	337608	14	26	337633	-999999	337621	0	30	Cue0BackPROC	TO_019_TOOL19_BA.png	2	2	36	SessionSelectionList																																										19	151642	-20	0												36												
WM080112	101309_fnca	2	1	1	-2081020907	1	75.031	75.031	2.0.10.147	2.0.10.242	2.0.10.242	1.0.0.439	7	234	2	3	Verdana	1	80	0	0	0	WM Stimuli\	1	1117.6	1	753.6	1	1113.1	1	723.8	1	1048.3	1	680.2	1	1006.7	1	747.1	12	337619	2	337608	14	26	337633	-999999	337621	0	31	TrialsPROC	TO_019_TOOL19_BA.png	2	2	37	SessionSelectionList														target	2	Tools	0-Back	32	80	31	0	0	100	3	39	156213	2	14	51	154174	-1	155898	1	1724	2	2	2039	53	156227	-54	0																37												
WM080112	101309_fnca	2	1	1	-2081020907	1	75.031	75.031	2.0.10.147	2.0.10.242	2.0.10.242	1.0.0.439	7	234	2	3	Verdana	1	80	0	0	0	WM Stimuli\	1	1117.6	1	753.6	1	1113.1	1	723.8	1	1048.3	1	680.2	1	1006.7	1	747.1	12	337619	2	337608	14	26	337633	-999999	337621	0	31	TrialsPROC	TO_024_TOOL24_BA.png	2	2	38	SessionSelectionList														nonlure	3	Tools	0-Back	33	80	32	0	0	100	1	39	158772	2	14	59	156733	-1	157310	1	577	3	3	2039	53	158786	-54	0																38												
WM080112	101309_fnca	2	1	1	-2081020907	1	75.031	75.031	2.0.10.147	2.0.10.242	2.0.10.242	1.0.0.439	7	234	2	3	Verdana	1	80	0	0	0	WM Stimuli\	1	1117.6	1	753.6	1	1113.1	1	723.8	1	1048.3	1	680.2	1	1006.7	1	747.1	12	337619	2	337608	14	26	337633	-999999	337621	0	31	TrialsPROC	TO_019_TOOL19_BA.png	2	2	39	SessionSelectionList														target	2	Tools	0-Back	34	80	33	0	0	100	1	39	161331	2	14	59	159292	-1	159884	1	592	2	2	2039	53	161345	-54	0																39												
WM080112	101309_fnca	2	1	1	-2081020907	1	75.031	75.031	2.0.10.147	2.0.10.242	2.0.10.242	1.0.0.439	7	234	2	3	Verdana	1	80	0	0	0	WM Stimuli\	1	1117.6	1	753.6	1	1113.1	1	723.8	1	1048.3	1	680.2	1	1006.7	1	747.1	12	337619	2	337608	14	26	337633	-999999	337621	0	31	TrialsPROC	TO_023_TOOL23_BA.png	2	2	40	SessionSelectionList														nonlure	3	Tools	0-Back	35	80	34	0	0	100	1	39	163890	2	14	59	161851	-1	162493	1	642	3	3	2039	53	163904	-54	0																40												
WM080112	101309_fnca	2	1	1	-2081020907	1	75.031	75.031	2.0.10.147	2.0.10.242	2.0.10.242	1.0.0.439	7	234	2	3	Verdana	1	80	0	0	0	WM Stimuli\	1	1117.6	1	753.6	1	1113.1	1	723.8	1	1048.3	1	680.2	1	1006.7	1	747.1	12	337619	2	337608	14	26	337633	-999999	337621	0	31	TrialsPROC	TO_020_TOOL20_BA.png	2	2	41	SessionSelectionList														nonlure	3	Tools	0-Back	36	80	35	0	0	100	2	39	166449	2	14	59	164410	-1	165013	1	603	3	3	2039	53	166463	-54	0																41												
WM080112	101309_fnca	2	1	1	-2081020907	1	75.031	75.031	2.0.10.147	2.0.10.242	2.0.10.242	1.0.0.439	7	234	2	3	Verdana	1	80	0	0	0	WM Stimuli\	1	1117.6	1	753.6	1	1113.1	1	723.8	1	1048.3	1	680.2	1	1006.7	1	747.1	12	337619	2	337608	14	26	337633	-999999	337621	0	31	TrialsPROC	TO_020_TOOL20_BA.png	2	2	42	SessionSelectionList														lure	3	Tools	0-Back	37	80	36	0	0	100	3	39	169008	2	14	59	166969	-1	167557	1	588	3	3	2039	53	169022	-54	0																42												
WM080112	101309_fnca	2	1	1	-2081020907	1	75.031	75.031	2.0.10.147	2.0.10.242	2.0.10.242	1.0.0.439	7	234	2	3	Verdana	1	80	0	0	0	WM Stimuli\	1	1117.6	1	753.6	1	1113.1	1	723.8	1	1048.3	1	680.2	1	1006.7	1	747.1	12	337619	2	337608	14	26	337633	-999999	337621	0	31	TrialsPROC	TO_022_TOOL22_BA.png	2	2	43	SessionSelectionList														nonlure	3	Tools	0-Back	38	80	37	0	0	100	4	39	171567	2	14	59	169528	-1	170101	1	573	3	3	2039	53	171581	-54	0																43												
WM080112	101309_fnca	2	1	1	-2081020907	1	75.031	75.031	2.0.10.147	2.0.10.242	2.0.10.242	1.0.0.439	7	234	2	3	Verdana	1	80	0	0	0	WM Stimuli\	1	1117.6	1	753.6	1	1113.1	1	723.8	1	1048.3	1	680.2	1	1006.7	1	747.1	12	337619	2	337608	14	26	337633	-999999	337621	0	31	TrialsPROC	TO_022_TOOL22_BA.png	2	2	44	SessionSelectionList														lure	3	Tools	0-Back	39	80	38	0	0	100	5	39	174126	1	14	59	172087	-1	172944	1	857	3	3	2039	53	174140	-54	0																44												
WM080112	101309_fnca	2	1	1	-2081020907	1	75.031	75.031	2.0.10.147	2.0.10.242	2.0.10.242	1.0.0.439	7	234	2	3	Verdana	1	80	0	0	0	WM Stimuli\	1	1117.6	1	753.6	1	1113.1	1	723.8	1	1048.3	1	680.2	1	1006.7	1	747.1	12	337619	2	337608	14	26	337633	-999999	337621	0	31	TrialsPROC	TO_021_TOOL21_BA.png	2	2	45	SessionSelectionList														nonlure	3	Tools	0-Back	40	80	39	0	0	100	6	39	176685	1	14	59	174646	-1	175455	1	809	3	3	2039	53	176699	-54	0																45												
WM080112	101309_fnca	2	1	1	-2081020907	1	75.031	75.031	2.0.10.147	2.0.10.242	2.0.10.242	1.0.0.439	7	234	2	3	Verdana	1	80	0	0	0	WM Stimuli\	1	1117.6	1	753.6	1	1113.1	1	723.8	1	1048.3	1	680.2	1	1006.7	1	747.1	12	337619	2	337608	14	26	337633	-999999	337621	0	31	TrialsPROC	TO_021_TOOL21_BA.png	2	2	46	SessionSelectionList														lure	3	Tools	0-Back	41	80	40	0	0	100	7	39	179244	1	14	59	177205	-1	177711	1	506	3	3	2039	53	179258	-54	0																46												
WM080112	101309_fnca	2	1	1	-2081020907	1	75.031	75.031	2.0.10.147	2.0.10.242	2.0.10.242	1.0.0.439	7	234	2	3	Verdana	1	80	0	0	0	WM Stimuli\	1	1117.6	1	753.6	1	1113.1	1	723.8	1	1048.3	1	680.2	1	1006.7	1	747.1	12	337619	2	337608	14	26	337633	-999999	337621	0	32	Fix15secPROC	""	2	2	47	SessionSelectionList																																															6	179711	-7	0							47												
WM080112	101309_fnca	2	1	1	-2081020907	1	75.031	75.031	2.0.10.147	2.0.10.242	2.0.10.242	1.0.0.439	7	234	2	3	Verdana	1	80	0	0	0	WM Stimuli\	1	1117.6	1	753.6	1	1113.1	1	723.8	1	1048.3	1	680.2	1	1006.7	1	747.1	12	337619	2	337608	14	26	337633	-999999	337621	0	33	Cue2BackPROC	""	2	2	48	SessionSelectionList									13	194718	-14	0																																													48												
WM080112	101309_fnca	2	1	1	-2081020907	1	75.031	75.031	2.0.10.147	2.0.10.242	2.0.10.242	1.0.0.439	7	234	2	3	Verdana	1	80	0	0	0	WM Stimuli\	1	1117.6	1	753.6	1	1113.1	1	723.8	1	1048.3	1	680.2	1	1006.7	1	747.1	12	337619	2	337608	14	26	337633	-999999	337621	0	34	TrialsPROC	BP_020_H17-T_BA.png	2	2	49	SessionSelectionList														nonlure	3	Body	2-Back	42	80	41	0	0	100	8	39	199316	1	14	72	197277	-1	197902	1	625	3	3	2039	53	199330	-54	0																49												
WM080112	101309_fnca	2	1	1	-2081020907	1	75.031	75.031	2.0.10.147	2.0.10.242	2.0.10.242	1.0.0.439	7	234	2	3	Verdana	1	80	0	0	0	WM Stimuli\	1	1117.6	1	753.6	1	1113.1	1	723.8	1	1048.3	1	680.2	1	1006.7	1	747.1	12	337619	2	337608	14	26	337633	-999999	337621	0	34	TrialsPROC	BP_019_H14-T_BA.png	2	2	50	SessionSelectionList														nonlure	3	Body	2-Back	43	80	42	0	0	100	9	39	201888	2	14	72	199849	-1	200608	1	759	3	3	2039	53	201902	-54	0																50												
WM080112	101309_fnca	2	1	1	-2081020907	1	75.031	75.031	2.0.10.147	2.0.10.242	2.0.10.242	1.0.0.439	7	234	2	3	Verdana	1	80	0	0	0	WM Stimuli\	1	1117.6	1	753.6	1	1113.1	1	723.8	1	1048.3	1	680.2	1	1006.7	1	747.1	12	337619	2	337608	14	26	337633	-999999	337621	0	34	TrialsPROC	BP_020_H17-T_BA.png	2	2	51	SessionSelectionList														target	2	Body	2-Back	44	80	43	0	0	100	1	39	204447	1	14	59	202408	-1	203100	1	692	2	2	2039	53	204461	-54	0																51												
WM080112	101309_fnca	2	1	1	-2081020907	1	75.031	75.031	2.0.10.147	2.0.10.242	2.0.10.242	1.0.0.439	7	234	2	3	Verdana	1	80	0	0	0	WM Stimuli\	1	1117.6	1	753.6	1	1113.1	1	723.8	1	1048.3	1	680.2	1	1006.7	1	747.1	12	337619	2	337608	14	26	337633	-999999	337621	0	34	TrialsPROC	BP_019_H14-T_BA.png	2	2	52	SessionSelectionList														target	2	Body	2-Back	45	80	44	0	0	100	2	39	207006	1	14	59	204967	-1	206144	1	1177	2	2	2039	53	207020	-54	0																52												
WM080112	101309_fnca	2	1	1	-2081020907	1	75.031	75.031	2.0.10.147	2.0.10.242	2.0.10.242	1.0.0.439	7	234	2	3	Verdana	1	80	0	0	0	WM Stimuli\	1	1117.6	1	753.6	1	1113.1	1	723.8	1	1048.3	1	680.2	1	1006.7	1	747.1	12	337619	2	337608	14	26	337633	-999999	337621	0	34	TrialsPROC	BP_024_H3-T_BA.png	2	2	53	SessionSelectionList														nonlure	3	Body	2-Back	46	80	45	0	0	100	1	39	209578	2	14	72	207539	-1	208724	1	1185	3	3	2039	53	209592	-54	0																53												
WM080112	101309_fnca	2	1	1	-2081020907	1	75.031	75.031	2.0.10.147	2.0.10.242	2.0.10.242	1.0.0.439	7	234	2	3	Verdana	1	80	0	0	0	WM Stimuli\	1	1117.6	1	753.6	1	1113.1	1	723.8	1	1048.3	1	680.2	1	1006.7	1	747.1	12	337619	2	337608	14	26	337633	-999999	337621	0	34	TrialsPROC	BP_024_H3-T_BA.png	2	2	54	SessionSelectionList														lure	3	Body	2-Back	47	80	46	0	0	100	2	39	212137	2	14	59	210098	-1	211609	1	1511	3	3	2039	53	212151	-54	0																54												
WM080112	101309_fnca	2	1	1	-2081020907	1	75.031	75.031	2.0.10.147	2.0.10.242	2.0.10.242	1.0.0.439	7	234	2	3	Verdana	1	80	0	0	0	WM Stimuli\	1	1117.6	1	753.6	1	1113.1	1	723.8	1	1048.3	1	680.2	1	1006.7	1	747.1	12	337619	2	337608	14	26	337633	-999999	337621	0	34	TrialsPROC	BP_025_H5-T_BA.png	2	2	55	SessionSelectionList														nonlure	3	Body	2-Back	48	80	47	0	0	100	3	40	214710	1	13	72	212670	-1	214113	1	1443	3	3	2040	53	214723	-54	0																55												
WM080112	101309_fnca	2	1	1	-2081020907	1	75.031	75.031	2.0.10.147	2.0.10.242	2.0.10.242	1.0.0.439	7	234	2	3	Verdana	1	80	0	0	0	WM Stimuli\	1	1117.6	1	753.6	1	1113.1	1	723.8	1	1048.3	1	680.2	1	1006.7	1	747.1	12	337619	2	337608	14	26	337633	-999999	337621	0	34	TrialsPROC	BP_023_H25-T_BA.png	2	2	56	SessionSelectionList														nonlure	3	Body	2-Back	49	80	48	0	0	100	4	39	217282	1	14	73	215243	-1	216851	1	1608	3	3	2039	53	217296	-54	0																56												
WM080112	101309_fnca	2	1	1	-2081020907	1	75.031	75.031	2.0.10.147	2.0.10.242	2.0.10.242	1.0.0.439	7	234	2	3	Verdana	1	80	0	0	0	WM Stimuli\	1	1117.6	1	753.6	1	1113.1	1	723.8	1	1048.3	1	680.2	1	1006.7	1	747.1	12	337619	2	337608	14	26	337633	-999999	337621	0	34	TrialsPROC	BP_022_H24-T_BA.png	2	2	57	SessionSelectionList														nonlure	3	Body	2-Back	50	80	49	0	0	100	5	39	219841	1	14	59	217802	-1	218783	1	981	3	3	2039	53	219855	-54	0																57												
WM080112	101309_fnca	2	1	1	-2081020907	1	75.031	75.031	2.0.10.147	2.0.10.242	2.0.10.242	1.0.0.439	7	234	2	3	Verdana	1	80	0	0	0	WM Stimuli\	1	1117.6	1	753.6	1	1113.1	1	723.8	1	1048.3	1	680.2	1	1006.7	1	747.1	12	337619	2	337608	14	26	337633	-999999	337621	0	34	TrialsPROC	BP_022_H24-T_BA.png	2	2	58	SessionSelectionList														lure	3	Body	2-Back	51	80	50	0	0	100	6	39	222400	1	14	59	220361	-1	221556	1	1195	3	3	2039	53	222414	-54	0																58												
WM080112	101309_fnca	2	1	1	-2081020907	1	75.031	75.031	2.0.10.147	2.0.10.242	2.0.10.242	1.0.0.439	7	234	2	3	Verdana	1	80	0	0	0	WM Stimuli\	1	1117.6	1	753.6	1	1113.1	1	723.8	1	1048.3	1	680.2	1	1006.7	1	747.1	12	337619	2	337608	14	26	337633	-999999	337621	0	35	Cue2BackPROC	""	2	2	59	SessionSelectionList									5	222866	-6	0																																													59												
WM080112	101309_fnca	2	1	1	-2081020907	1	75.031	75.031	2.0.10.147	2.0.10.242	2.0.10.242	1.0.0.439	7	234	2	3	Verdana	1	80	0	0	0	WM Stimuli\	1	1117.6	1	753.6	1	1113.1	1	723.8	1	1048.3	1	680.2	1	1006.7	1	747.1	12	337619	2	337608	14	26	337633	-999999	337621	0	36	TrialsPROC	PL_019_SCENE_05.png	2	2	60	SessionSelectionList														nonlure	3	Place	2-Back	52	80	51	0	0	100	7	39	227464	2	14	64	225425	-1	227131	1	1706	3	3	2039	53	227478	-54	0																60												
WM080112	101309_fnca	2	1	1	-2081020907	1	75.031	75.031	2.0.10.147	2.0.10.242	2.0.10.242	1.0.0.439	7	234	2	3	Verdana	1	80	0	0	0	WM Stimuli\	1	1117.6	1	753.6	1	1113.1	1	723.8	1	1048.3	1	680.2	1	1006.7	1	747.1	12	337619	2	337608	14	26	337633	-999999	337621	0	36	TrialsPROC	PL_017_SCENE_03.png	2	2	61	SessionSelectionList														nonlure	3	Place	2-Back	53	80	52	0	0	100	8	40	230037	1	13	72	227997	-1	228983	1	986	3	3	2040	53	230050	-54	0																61												
WM080112	101309_fnca	2	1	1	-2081020907	1	75.031	75.031	2.0.10.147	2.0.10.242	2.0.10.242	1.0.0.439	7	234	2	3	Verdana	1	80	0	0	0	WM Stimuli\	1	1117.6	1	753.6	1	1113.1	1	723.8	1	1048.3	1	680.2	1	1006.7	1	747.1	12	337619	2	337608	14	26	337633	-999999	337621	0	36	TrialsPROC	PL_017_SCENE_03.png	2	2	62	SessionSelectionList														lure	3	Place	2-Back	54	80	53	0	0	100	9	39	232609	1	14	73	230570	-1	231714	1	1144	3	3	2039	53	232623	-54	0																62												
WM080112	101309_fnca	2	1	1	-2081020907	1	75.031	75.031	2.0.10.147	2.0.10.242	2.0.10.242	1.0.0.439	7	234	2	3	Verdana	1	80	0	0	0	WM Stimuli\	1	1117.6	1	753.6	1	1113.1	1	723.8	1	1048.3	1	680.2	1	1006.7	1	747.1	12	337619	2	337608	14	26	337633	-999999	337621	0	36	TrialsPROC	PL_016_SCENE_02.png	2	2	63	SessionSelectionList														nonlure	3	Place	2-Back	55	80	54	0	0	100	10	39	235181	2	14	72	233142	-1	234049	1	907	3	3	2039	53	235195	-54	0																63												
WM080112	101309_fnca	2	1	1	-2081020907	1	75.031	75.031	2.0.10.147	2.0.10.242	2.0.10.242	1.0.0.439	7	234	2	3	Verdana	1	80	0	0	0	WM Stimuli\	1	1117.6	1	753.6	1	1113.1	1	723.8	1	1048.3	1	680.2	1	1006.7	1	747.1	12	337619	2	337608	14	26	337633	-999999	337621	0	36	TrialsPROC	PL_015_SCENE_01.png	2	2	64	SessionSelectionList														nonlure	3	Place	2-Back	56	80	55	0	0	100	11	39	237753	2	14	72	235714	-1	236502	1	788	3	3	2039	53	237767	-54	0																64												
WM080112	101309_fnca	2	1	1	-2081020907	1	75.031	75.031	2.0.10.147	2.0.10.242	2.0.10.242	1.0.0.439	7	234	2	3	Verdana	1	80	0	0	0	WM Stimuli\	1	1117.6	1	753.6	1	1113.1	1	723.8	1	1048.3	1	680.2	1	1006.7	1	747.1	12	337619	2	337608	14	26	337633	-999999	337621	0	36	TrialsPROC	PL_016_SCENE_02.png	2	2	65	SessionSelectionList														target	2	Place	2-Back	57	80	56	0	0	100	1	39	240326	1	14	73	238287	-1	238798	1	511	2	2	2039	53	240340	-54	0																65												
WM080112	101309_fnca	2	1	1	-2081020907	1	75.031	75.031	2.0.10.147	2.0.10.242	2.0.10.242	1.0.0.439	7	234	2	3	Verdana	1	80	0	0	0	WM Stimuli\	1	1117.6	1	753.6	1	1113.1	1	723.8	1	1048.3	1	680.2	1	1006.7	1	747.1	12	337619	2	337608	14	26	337633	-999999	337621	0	36	TrialsPROC	PL_015_SCENE_01.png	2	2	66	SessionSelectionList														target	2	Place	2-Back	58	80	57	0	0	100	2	39	242898	1	14	72	240859	-1	242223	1	1364	2	2	2039	53	242912	-54	0																66												
WM080112	101309_fnca	2	1	1	-2081020907	1	75.031	75.031	2.0.10.147	2.0.10.242	2.0.10.242	1.0.0.439	7	234	2	3	Verdana	1	80	0	0	0	WM Stimuli\	1	1117.6	1	753.6	1	1113.1	1	723.8	1	1048.3	1	680.2	1	1006.7	1	747.1	12	337619	2	337608	14	26	337633	-999999	337621	0	36	TrialsPROC	PL_020_SCENE_06.png	2	2	67	SessionSelectionList														nonlure	3	Place	2-Back	59	80	58	0	0	100	1	39	245470	2	14	72	243431	-1	244804	1	1373	3	3	2039	53	245484	-54	0																67												
WM080112	101309_fnca	2	1	1	-2081020907	1	75.031	75.031	2.0.10.147	2.0.10.242	2.0.10.242	1.0.0.439	7	234	2	3	Verdana	1	80	0	0	0	WM Stimuli\	1	1117.6	1	753.6	1	1113.1	1	723.8	1	1048.3	1	680.2	1	1006.7	1	747.1	12	337619	2	337608	14	26	337633	-999999	337621	0	36	TrialsPROC	PL_020_SCENE_06.png	2	2	68	SessionSelectionList														lure	3	Place	2-Back	60	80	59	0	0	100	2	40	248043	1	13	72	246003	-1	246894	1	891	3	3	2040	53	248056	-54	0																68												
WM080112	101309_fnca	2	1	1	-2081020907	1	75.031	75.031	2.0.10.147	2.0.10.242	2.0.10.242	1.0.0.439	7	234	2	3	Verdana	1	80	0	0	0	WM Stimuli\	1	1117.6	1	753.6	1	1113.1	1	723.8	1	1048.3	1	680.2	1	1006.7	1	747.1	12	337619	2	337608	14	26	337633	-999999	337621	0	36	TrialsPROC	PL_018_SCENE_04.png	2	2	69	SessionSelectionList														nonlure	3	Place	2-Back	61	80	60	0	0	100	3	39	250628	2	14	86	248589	-1	249402	1	813	3	3	2039	53	250642	-54	0																69												
WM080112	101309_fnca	2	1	1	-2081020907	1	75.031	75.031	2.0.10.147	2.0.10.242	2.0.10.242	1.0.0.439	7	234	2	3	Verdana	1	80	0	0	0	WM Stimuli\	1	1117.6	1	753.6	1	1113.1	1	723.8	1	1048.3	1	680.2	1	1006.7	1	747.1	12	337619	2	337608	14	26	337633	-999999	337621	0	37	Fix15secPROC	""	2	2	70	SessionSelectionList																																															6	251095	-7	0							70												
WM080112	101309_fnca	2	1	1	-2081020907	1	75.031	75.031	2.0.10.147	2.0.10.242	2.0.10.242	1.0.0.439	7	234	2	3	Verdana	1	80	0	0	0	WM Stimuli\	1	1117.6	1	753.6	1	1113.1	1	723.8	1	1048.3	1	680.2	1	1006.7	1	747.1	12	337619	2	337608	14	26	337633	-999999	337621	0	38	Cue0BackPROC	FC_020_F10.png	2	2	71	SessionSelectionList																																										40	266129	-41	0												71												
WM080112	101309_fnca	2	1	1	-2081020907	1	75.031	75.031	2.0.10.147	2.0.10.242	2.0.10.242	1.0.0.439	7	234	2	3	Verdana	1	80	0	0	0	WM Stimuli\	1	1117.6	1	753.6	1	1113.1	1	723.8	1	1048.3	1	680.2	1	1006.7	1	747.1	12	337619	2	337608	14	26	337633	-999999	337621	0	39	TrialsPROC	FC_024_F12.png	2	2	72	SessionSelectionList														nonlure	3	Face	0-Back	62	80	61	0	0	100	4	39	270700	1	14	72	268661	-1	270339	1	1678	3	3	2039	53	270714	-54	0																72												
WM080112	101309_fnca	2	1	1	-2081020907	1	75.031	75.031	2.0.10.147	2.0.10.242	2.0.10.242	1.0.0.439	7	234	2	3	Verdana	1	80	0	0	0	WM Stimuli\	1	1117.6	1	753.6	1	1113.1	1	723.8	1	1048.3	1	680.2	1	1006.7	1	747.1	12	337619	2	337608	14	26	337633	-999999	337621	0	39	TrialsPROC	FC_023_M12.png	2	2	73	SessionSelectionList														nonlure	3	Face	0-Back	63	80	62	0	0	100	5	39	273286	1	13	86	271247	-1	272210	1	963	3	3	2039	52	273299	-53	0																73												
WM080112	101309_fnca	2	1	1	-2081020907	1	75.031	75.031	2.0.10.147	2.0.10.242	2.0.10.242	1.0.0.439	7	234	2	3	Verdana	1	80	0	0	0	WM Stimuli\	1	1117.6	1	753.6	1	1113.1	1	723.8	1	1048.3	1	680.2	1	1006.7	1	747.1	12	337619	2	337608	14	26	337633	-999999	337621	0	39	TrialsPROC	FC_020_F10.png	2	2	74	SessionSelectionList														target	2	Face	0-Back	64	80	63	0	0	100	1	39	275858	1	14	72	273819	-1	274339	1	520	2	2	2039	53	275872	-54	0																74												
WM080112	101309_fnca	2	1	1	-2081020907	1	75.031	75.031	2.0.10.147	2.0.10.242	2.0.10.242	1.0.0.439	7	234	2	3	Verdana	1	80	0	0	0	WM Stimuli\	1	1117.6	1	753.6	1	1113.1	1	723.8	1	1048.3	1	680.2	1	1006.7	1	747.1	12	337619	2	337608	14	26	337633	-999999	337621	0	39	TrialsPROC	FC_024_F12.png	2	2	75	SessionSelectionList														lure	3	Face	0-Back	65	80	64	0	0	100	1	39	278430	2	14	72	276391	-1	277083	1	692	3	3	2039	53	278444	-54	0																75												
WM080112	101309_fnca	2	1	1	-2081020907	1	75.031	75.031	2.0.10.147	2.0.10.242	2.0.10.242	1.0.0.439	7	234	2	3	Verdana	1	80	0	0	0	WM Stimuli\	1	1117.6	1	753.6	1	1113.1	1	723.8	1	1048.3	1	680.2	1	1006.7	1	747.1	12	337619	2	337608	14	26	337633	-999999	337621	0	39	TrialsPROC	FC_020_F10.png	2	2	76	SessionSelectionList														target	2	Face	0-Back	66	80	65	0	0	100	1	39	281002	2	14	72	278963	-1	279491	1	528	2	2	2039	53	281016	-54	0																76												
WM080112	101309_fnca	2	1	1	-2081020907	1	75.031	75.031	2.0.10.147	2.0.10.242	2.0.10.242	1.0.0.439	7	234	2	3	Verdana	1	80	0	0	0	WM Stimuli\	1	1117.6	1	753.6	1	1113.1	1	723.8	1	1048.3	1	680.2	1	1006.7	1	747.1	12	337619	2	337608	14	26	337633	-999999	337621	0	39	TrialsPROC	FC_022_F11.png	2	2	77	SessionSelectionList														nonlure	3	Face	0-Back	67	80	66	0	0	100	1	39	283575	1	14	73	281536	-1	282165	1	629	3	3	2039	53	283589	-54	0																77												
WM080112	101309_fnca	2	1	1	-2081020907	1	75.031	75.031	2.0.10.147	2.0.10.242	2.0.10.242	1.0.0.439	7	234	2	3	Verdana	1	80	0	0	0	WM Stimuli\	1	1117.6	1	753.6	1	1113.1	1	723.8	1	1048.3	1	680.2	1	1006.7	1	747.1	12	337619	2	337608	14	26	337633	-999999	337621	0	39	TrialsPROC	FC_023_M12.png	2	2	78	SessionSelectionList														lure	3	Face	0-Back	68	80	67	0	0	100	2	39	286147	1	14	72	284108	-1	284665	1	557	3	3	2039	53	286161	-54	0																78												
WM080112	101309_fnca	2	1	1	-2081020907	1	75.031	75.031	2.0.10.147	2.0.10.242	2.0.10.242	1.0.0.439	7	234	2	3	Verdana	1	80	0	0	0	WM Stimuli\	1	1117.6	1	753.6	1	1113.1	1	723.8	1	1048.3	1	680.2	1	1006.7	1	747.1	12	337619	2	337608	14	26	337633	-999999	337621	0	39	TrialsPROC	FC_021_M11.png	2	2	79	SessionSelectionList														nonlure	3	Face	0-Back	69	80	68	0	0	100	3	40	288733	1	13	85	286693	-1	287315	1	622	3	3	2040	53	288746	-54	0																79												
WM080112	101309_fnca	2	1	1	-2081020907	1	75.031	75.031	2.0.10.147	2.0.10.242	2.0.10.242	1.0.0.439	7	234	2	3	Verdana	1	80	0	0	0	WM Stimuli\	1	1117.6	1	753.6	1	1113.1	1	723.8	1	1048.3	1	680.2	1	1006.7	1	747.1	12	337619	2	337608	14	26	337633	-999999	337621	0	39	TrialsPROC	FC_021_M11.png	2	2	80	SessionSelectionList														lure	3	Face	0-Back	70	80	69	0	0	100	4	39	291305	1	14	73	289266	-1	289814	1	548	3	3	2039	53	291319	-54	0																80												
WM080112	101309_fnca	2	1	1	-2081020907	1	75.031	75.031	2.0.10.147	2.0.10.242	2.0.10.242	1.0.0.439	7	234	2	3	Verdana	1	80	0	0	0	WM Stimuli\	1	1117.6	1	753.6	1	1113.1	1	723.8	1	1048.3	1	680.2	1	1006.7	1	747.1	12	337619	2	337608	14	26	337633	-999999	337621	0	39	TrialsPROC	FC_019_M10.png	2	2	81	SessionSelectionList														nonlure	3	Face	0-Back	71	80	70	0	0	100	5	40	293891	1	13	85	291851	-1	292352	1	501	3	3	2040	53	293904	-54	0																81												
WM080112	101309_fnca	2	1	1	-2081020907	1	75.031	75.031	2.0.10.147	2.0.10.242	2.0.10.242	1.0.0.439	7	234	2	3	Verdana	1	80	0	0	0	WM Stimuli\	1	1117.6	1	753.6	1	1113.1	1	723.8	1	1048.3	1	680.2	1	1006.7	1	747.1	12	337619	2	337608	14	26	337633	-999999	337621	0	40	Cue0BackPROC	PL_021_SCENE_07.png	2	2	82	SessionSelectionList																																										33	294384	-34	0												82												
WM080112	101309_fnca	2	1	1	-2081020907	1	75.031	75.031	2.0.10.147	2.0.10.242	2.0.10.242	1.0.0.439	7	234	2	3	Verdana	1	80	0	0	0	WM Stimuli\	1	1117.6	1	753.6	1	1113.1	1	723.8	1	1048.3	1	680.2	1	1006.7	1	747.1	12	337619	2	337608	14	26	337633	-999999	337621	0	41	TrialsPROC	PL_025_SCENE_18.png	2	2	83	SessionSelectionList														nonlure	3	Place	0-Back	72	80	71	0	0	100	6	39	298968	2	14	78	296929	-1	297881	1	952	3	3	2039	53	298982	-54	0																83												
WM080112	101309_fnca	2	1	1	-2081020907	1	75.031	75.031	2.0.10.147	2.0.10.242	2.0.10.242	1.0.0.439	7	234	2	3	Verdana	1	80	0	0	0	WM Stimuli\	1	1117.6	1	753.6	1	1113.1	1	723.8	1	1048.3	1	680.2	1	1006.7	1	747.1	12	337619	2	337608	14	26	337633	-999999	337621	0	41	TrialsPROC	PL_026_SCENE_24.png	2	2	84	SessionSelectionList														nonlure	3	Place	0-Back	73	80	72	0	0	100	7	39	301554	1	14	86	299515	-1	300068	1	553	3	3	2039	53	301568	-54	0																84												
WM080112	101309_fnca	2	1	1	-2081020907	1	75.031	75.031	2.0.10.147	2.0.10.242	2.0.10.242	1.0.0.439	7	234	2	3	Verdana	1	80	0	0	0	WM Stimuli\	1	1117.6	1	753.6	1	1113.1	1	723.8	1	1048.3	1	680.2	1	1006.7	1	747.1	12	337619	2	337608	14	26	337633	-999999	337621	0	41	TrialsPROC	PL_025_SCENE_18.png	2	2	85	SessionSelectionList														lure	3	Place	0-Back	74	80	73	0	0	100	8	39	304126	2	14	72	302087	-1	302710	1	623	3	3	2039	53	304140	-54	0																85												
WM080112	101309_fnca	2	1	1	-2081020907	1	75.031	75.031	2.0.10.147	2.0.10.242	2.0.10.242	1.0.0.439	7	234	2	3	Verdana	1	80	0	0	0	WM Stimuli\	1	1117.6	1	753.6	1	1113.1	1	723.8	1	1048.3	1	680.2	1	1006.7	1	747.1	12	337619	2	337608	14	26	337633	-999999	337621	0	41	TrialsPROC	PL_022_SCENE_08.png	2	2	86	SessionSelectionList														nonlure	3	Place	0-Back	75	80	74	0	0	100	9	40	306699	1	13	72	304659	-1	305260	1	601	3	3	2040	53	306712	-54	0																86												
WM080112	101309_fnca	2	1	1	-2081020907	1	75.031	75.031	2.0.10.147	2.0.10.242	2.0.10.242	1.0.0.439	7	234	2	3	Verdana	1	80	0	0	0	WM Stimuli\	1	1117.6	1	753.6	1	1113.1	1	723.8	1	1048.3	1	680.2	1	1006.7	1	747.1	12	337619	2	337608	14	26	337633	-999999	337621	0	41	TrialsPROC	PL_026_SCENE_24.png	2	2	87	SessionSelectionList														lure	3	Place	0-Back	76	80	75	0	0	100	10	39	309271	1	14	73	307232	-1	307944	1	712	3	3	2039	53	309285	-54	0																87												
WM080112	101309_fnca	2	1	1	-2081020907	1	75.031	75.031	2.0.10.147	2.0.10.242	2.0.10.242	1.0.0.439	7	234	2	3	Verdana	1	80	0	0	0	WM Stimuli\	1	1117.6	1	753.6	1	1113.1	1	723.8	1	1048.3	1	680.2	1	1006.7	1	747.1	12	337619	2	337608	14	26	337633	-999999	337621	0	41	TrialsPROC	PL_021_SCENE_07.png	2	2	88	SessionSelectionList														target	2	Place	0-Back	77	80	76	0	0	100	1	39	311843	2	14	72	309804	-1	310436	1	632	2	2	2039	53	311857	-54	0																88												
WM080112	101309_fnca	2	1	1	-2081020907	1	75.031	75.031	2.0.10.147	2.0.10.242	2.0.10.242	1.0.0.439	7	234	2	3	Verdana	1	80	0	0	0	WM Stimuli\	1	1117.6	1	753.6	1	1113.1	1	723.8	1	1048.3	1	680.2	1	1006.7	1	747.1	12	337619	2	337608	14	26	337633	-999999	337621	0	41	TrialsPROC	PL_021_SCENE_07.png	2	2	89	SessionSelectionList														target	2	Place	0-Back	78	80	77	0	0	100	2	39	314415	2	14	72	312376	-1	313167	1	791	2	2	2039	53	314429	-54	0																89												
WM080112	101309_fnca	2	1	1	-2081020907	1	75.031	75.031	2.0.10.147	2.0.10.242	2.0.10.242	1.0.0.439	7	234	2	3	Verdana	1	80	0	0	0	WM Stimuli\	1	1117.6	1	753.6	1	1113.1	1	723.8	1	1048.3	1	680.2	1	1006.7	1	747.1	12	337619	2	337608	14	26	337633	-999999	337621	0	41	TrialsPROC	PL_023_SCENE_09.png	2	2	90	SessionSelectionList														nonlure	3	Place	0-Back	79	80	78	0	0	100	1	39	316988	1	14	73	314949	-1	315551	1	602	3	3	2039	53	317002	-54	0																90												
WM080112	101309_fnca	2	1	1	-2081020907	1	75.031	75.031	2.0.10.147	2.0.10.242	2.0.10.242	1.0.0.439	7	234	2	3	Verdana	1	80	0	0	0	WM Stimuli\	1	1117.6	1	753.6	1	1113.1	1	723.8	1	1048.3	1	680.2	1	1006.7	1	747.1	12	337619	2	337608	14	26	337633	-999999	337621	0	41	TrialsPROC	PL_024_SCENE_10.png	2	2	91	SessionSelectionList														nonlure	3	Place	0-Back	80	80	79	0	0	100	2	39	319573	2	14	85	317534	-1	318263	1	729	3	3	2039	53	319587	-54	0																91												
WM080112	101309_fnca	2	1	1	-2081020907	1	75.031	75.031	2.0.10.147	2.0.10.242	2.0.10.242	1.0.0.439	7	234	2	3	Verdana	1	80	0	0	0	WM Stimuli\	1	1117.6	1	753.6	1	1113.1	1	723.8	1	1048.3	1	680.2	1	1006.7	1	747.1	12	337619	2	337608	14	26	337633	-999999	337621	0	41	TrialsPROC	PL_022_SCENE_08.png	2	2	92	SessionSelectionList														lure	3	Place	0-Back	80	80	80	0	0	100	3	39	322146	1	13	73	320107	-1	320714	1	607	3	3	2039	52	322159	-53	0																92												
WM080112	101309_fnca	2	1	1	-2081020907	1	75.031	75.031	2.0.10.147	2.0.10.242	2.0.10.242	1.0.0.439	7	234	2	3	Verdana	1	80	0	0	0	WM Stimuli\	1	1117.6	1	753.6	1	1113.1	1	723.8	1	1048.3	1	680.2	1	1006.7	1	747.1	12	337619	2	337608	14	26	337633	-999999	337621	0	42	Fix15secPROC	""	2	2	93	SessionSelectionList																																															6	322613	-7	0							93												
