ExperimentName	HCPID	RunNumber	Subject	Session	RandomSeed	Group	Laptop.RefreshRate	ScannerD2.RefreshRate	StudioVersion	RuntimeVersion	RuntimeVersionExpected	ExperimentVersion	triggercode	Allowed	Target	Nontarget	FontStyle	RunTrialNumber[Session]	TrialsPerRun[Session]	TotalRespGreater200[Session]	ConsecRTLess200[Session]	ConsecNonResp[Session]	StimuliDir	ACC_2_Back_Body	Avg_RT_For_Correct_Trials_2_Back_Body	ACC_0_Back_Body	Avg_RT_For_Correct_Trials_0_Back_Body	ACC_2_Back_Face	Avg_RT_For_Correct_Trials_2_Back_Face	ACC_0_Back_Face	Avg_RT_For_Correct_Trials_0_Back_Face	ACC_2_Back_Place	Avg_RT_For_Correct_Trials_2_Back_Place	ACC_0_Back_Place	Avg_RT_For_Correct_Trials_0_Back_Place	ACC_2_Back_Tools	Avg_RT_For_Correct_Trials_2_Back_Tools	ACC_0_Back_Tools	Avg_RT_For_Correct_Trials_0_Back_Tools	ExpInstrucFeelFreeToRest.OnsetDelay	ExpInstrucFeelFreeToRest.OnsetTime	ExpInstrucFeelFreeToRest.DurationError	ExpInstrucFeelFreeToRest.StartTime	ExpInstrucFeelFreeToRest.OnsetToOnsetTime	FeelFreeToRest.OnsetDelay	FeelFreeToRest.OnsetTime	FeelFreeToRest.DurationError	FeelFreeToRest.StartTime	FeelFreeToRest.OnsetToOnsetTime	SessionSelectionList	Procedure[Block]	Stimulus[Block]	RunNumberFilterValue	SessionSelectionList.Cycle	SessionSelectionList.Sample	Running[Block]	IntroButtonMap.OnsetDelay	IntroButtonMap.OnsetTime	IntroButtonMap.DurationError	IntroButtonMap.OnsetToOnsetTime	GetReady.OnsetDelay	GetReady.OnsetTime	GetReady.DurationError	GetReady.OnsetToOnsetTime	Cue2Back.OnsetDelay	Cue2Back.OnsetTime	Cue2Back.DurationError	Cue2Back.OnsetToOnsetTime	Run1Block1	TargetType	CorrectResponse	StimType	BlockType	RunTrialNumber[Block]	TrialsPerRun[Block]	TotalRespGreater200[Block]	ConsecRTLess200[Block]	ConsecNonResp[Block]	ControlAcc	ConsecSameResp	ExperimenterWindow.OnsetDelay	ExperimenterWindow.OnsetTime	ExperimenterWindow.DurationError	ExperimenterWindow.OnsetToOnsetTime	Stim.OnsetDelay	Stim.OnsetTime	Stim.DurationError	Stim.RTTime	Stim.ACC	Stim.RT	Stim.RESP	Stim.CRESP	Stim.OnsetToOnsetTime	Fix.OnsetDelay	Fix.OnsetTime	Fix.DurationError	Fix.OnsetToOnsetTime	CueTarget.OnsetDelay	CueTarget.OnsetTime	CueTarget.DurationError	CueTarget.OnsetToOnsetTime	Run1Block2	Fix15sec.OnsetDelay	Fix15sec.OnsetTime	Fix15sec.DurationError	Fix15sec.OnsetToOnsetTime	Run1Block3	Run1Block4	Run1Block5	Run1Block6	Run1Block7	Run1Block8	Block	Procedure[Trial]	Stimulus[Trial]	ReadyList	Running[Trial]	ReadyList.Cycle	ReadyList.Sample	SyncSlide.OnsetDelay	SyncSlide.OnsetTime	SyncSlide.DurationError	SyncSlide.FinishTime	SyncSlide.OnsetToOnsetTime	Trial
WM080112	124422_fnca	1	1	1	-1701010965	1	75.031	75.031	2.0.10.147	2.0.10.242	2.0.10.242	1.0.0.439	7	234	2	3	Verdana	1	80	0	0	0	WM Stimuli\	0.4	1188	0.4	1170.25	1	865.1	0.9	797.777777777778	0.6	1306.66666666667	0.6	669.5	0.8	978.125	1	682.7	13	547430	2	547418	27	40	547457	-999999	547433	0	1	TRSyncPROC	""	1	2	1	SessionSelectionList	119	177076	-999999	0	29	238384	-999999	0																																																	1	InitialTR	4	1	ReadyList	1	1	18	253964	-19	255945	0	1
WM080112	124422_fnca	1	1	1	-1701010965	1	75.031	75.031	2.0.10.147	2.0.10.242	2.0.10.242	1.0.0.439	7	234	2	3	Verdana	1	80	0	0	0	WM Stimuli\	0.4	1188	0.4	1170.25	1	865.1	0.9	797.777777777778	0.6	1306.66666666667	0.6	669.5	0.8	978.125	1	682.7	13	547430	2	547418	27	40	547457	-999999	547433	0	1	TRSyncPROC	""	1	2	1	SessionSelectionList	119	177076	-999999	0	29	238384	-999999	0																																																	1	InitialTR	3	2	ReadyList	1	2	17	255963	-18	257945	0	2
WM080112	124422_fnca	1	1	1	-1701010965	1	75.031	75.031	2.0.10.147	2.0.10.242	2.0.10.242	1.0.0.439	7	234	2	3	Verdana	1	80	0	0	0	WM Stimuli\	0.4	1188	0.4	1170.25	1	865.1	0.9	797.777777777778	0.6	1306.66666666667	0.6	669.5	0.8	978.125	1	682.7	13	547430	2	547418	27	40	547457	-999999	547433	0	1	TRSyncPROC	""	1	2	1	SessionSelectionList	119	177076	-999999	0	29	238384	-999999	0																																																	1	InitialTR	2	3	ReadyList	1	3	3	257949	-4	259945	0	3
WM080112	124422_fnca	1	1	1	-1701010965	1	75.031	75.031	2.0.10.147	2.0.10.242	2.0.10.242	1.0.0.439	7	234	2	3	Verdana	1	80	0	0	0	WM Stimuli\	0.4	1188	0.4	1170.25	1	865.1	0.9	797.777777777778	0.6	1306.66666666667	0.6	669.5	0.8	978.125	1	682.7	13	547430	2	547418	27	40	547457	-999999	547433	0	1	TRSyncPROC	""	1	2	1	SessionSelectionList	119	177076	-999999	0	29	238384	-999999	0																																																	1	InitialTR	1	4	ReadyList	1	4	15	259961	-16	261945	0	4
WM080112	124422_fnca	1	1	1	-1701010965	1	75.031	75.031	2.0.10.147	2.0.10.242	2.0.10.242	1.0.0.439	7	234	2	3	Verdana	1	80	0	0	0	WM Stimuli\	0.4	1188	0.4	1170.25	1	865.1	0.9	797.777777777778	0.6	1306.66666666667	0.6	669.5	0.8	978.125	1	682.7	13	547430	2	547418	27	40	547457	-999999	547433	0	2	Cue2BackPROC	""	1	2	2	SessionSelectionList									15	261961	-16	0																																													2												
WM080112	124422_fnca	1	1	1	-1701010965	1	75.031	75.031	2.0.10.147	2.0.10.242	2.0.10.242	1.0.0.439	7	234	2	3	Verdana	1	80	0	0	0	WM Stimuli\	0.4	1188	0.4	1170.25	1	865.1	0.9	797.777777777778	0.6	1306.66666666667	0.6	669.5	0.8	978.125	1	682.7	13	547430	2	547418	27	40	547457	-999999	547433	0	3	TrialsPROC	BP_002_BP10_BA.png	1	2	3	SessionSelectionList													1	nonlure	3	Body	2-Back	2	80	0	0	1	0	0	52	266585	3	14	87	264533	-1	0	0	0	""	3	2052	66	266599	-67	0																3												
WM080112	124422_fnca	1	1	1	-1701010965	1	75.031	75.031	2.0.10.147	2.0.10.242	2.0.10.242	1.0.0.439	7	234	2	3	Verdana	1	80	0	0	0	WM Stimuli\	0.4	1188	0.4	1170.25	1	865.1	0.9	797.777777777778	0.6	1306.66666666667	0.6	669.5	0.8	978.125	1	682.7	13	547430	2	547418	27	40	547457	-999999	547433	0	3	TrialsPROC	BP_001_BP1_BA.png	1	2	4	SessionSelectionList													2	nonlure	3	Body	2-Back	3	80	0	0	2	0	0	39	269144	3	14	72	267105	-1	0	0	0	""	3	2039	53	269158	-54	0																4												
WM080112	124422_fnca	1	1	1	-1701010965	1	75.031	75.031	2.0.10.147	2.0.10.242	2.0.10.242	1.0.0.439	7	234	2	3	Verdana	1	80	0	0	0	WM Stimuli\	0.4	1188	0.4	1170.25	1	865.1	0.9	797.777777777778	0.6	1306.66666666667	0.6	669.5	0.8	978.125	1	682.7	13	547430	2	547418	27	40	547457	-999999	547433	0	3	TrialsPROC	BP_006_BP2_BA.png	1	2	5	SessionSelectionList													3	nonlure	3	Body	2-Back	4	80	1	0	0	0	1	39	271703	2	14	59	269664	-1	270791	0	1127	2	3	2039	53	271717	-54	0																5												
WM080112	124422_fnca	1	1	1	-1701010965	1	75.031	75.031	2.0.10.147	2.0.10.242	2.0.10.242	1.0.0.439	7	234	2	3	Verdana	1	80	0	0	0	WM Stimuli\	0.4	1188	0.4	1170.25	1	865.1	0.9	797.777777777778	0.6	1306.66666666667	0.6	669.5	0.8	978.125	1	682.7	13	547430	2	547418	27	40	547457	-999999	547433	0	3	TrialsPROC	BP_001_BP1_BA.png	1	2	6	SessionSelectionList													4	target	2	Body	2-Back	5	80	1	0	1	0	1	40	274276	1	13	72	272236	-1	0	0	0	""	2	2040	53	274289	-54	0																6												
WM080112	124422_fnca	1	1	1	-1701010965	1	75.031	75.031	2.0.10.147	2.0.10.242	2.0.10.242	1.0.0.439	7	234	2	3	Verdana	1	80	0	0	0	WM Stimuli\	0.4	1188	0.4	1170.25	1	865.1	0.9	797.777777777778	0.6	1306.66666666667	0.6	669.5	0.8	978.125	1	682.7	13	547430	2	547418	27	40	547457	-999999	547433	0	3	TrialsPROC	BP_005_BP19_BA.png	1	2	7	SessionSelectionList													5	nonlure	3	Body	2-Back	6	80	2	0	0	0	1	39	276848	1	13	73	274809	-1	276296	1	1487	3	3	2039	52	276861	-53	0																7												
WM080112	124422_fnca	1	1	1	-1701010965	1	75.031	75.031	2.0.10.147	2.0.10.242	2.0.10.242	1.0.0.439	7	234	2	3	Verdana	1	80	0	0	0	WM Stimuli\	0.4	1188	0.4	1170.25	1	865.1	0.9	797.777777777778	0.6	1306.66666666667	0.6	669.5	0.8	978.125	1	682.7	13	547430	2	547418	27	40	547457	-999999	547433	0	3	TrialsPROC	BP_003_BP16_BA.png	1	2	8	SessionSelectionList													6	nonlure	3	Body	2-Back	7	80	3	0	0	0	2	39	279407	1	13	59	277368	-1	278125	1	757	3	3	2039	52	279420	-53	0																8												
WM080112	124422_fnca	1	1	1	-1701010965	1	75.031	75.031	2.0.10.147	2.0.10.242	2.0.10.242	1.0.0.439	7	234	2	3	Verdana	1	80	0	0	0	WM Stimuli\	0.4	1188	0.4	1170.25	1	865.1	0.9	797.777777777778	0.6	1306.66666666667	0.6	669.5	0.8	978.125	1	682.7	13	547430	2	547418	27	40	547457	-999999	547433	0	3	TrialsPROC	BP_006_BP2_BA.png	1	2	9	SessionSelectionList													7	lure	3	Body	2-Back	8	80	4	0	0	0	1	39	281966	1	13	59	279927	-1	280533	0	606	2	3	2039	52	281979	-53	0																9												
WM080112	124422_fnca	1	1	1	-1701010965	1	75.031	75.031	2.0.10.147	2.0.10.242	2.0.10.242	1.0.0.439	7	234	2	3	Verdana	1	80	0	0	0	WM Stimuli\	0.4	1188	0.4	1170.25	1	865.1	0.9	797.777777777778	0.6	1306.66666666667	0.6	669.5	0.8	978.125	1	682.7	13	547430	2	547418	27	40	547457	-999999	547433	0	3	TrialsPROC	BP_004_BP18_BA.png	1	2	10	SessionSelectionList													8	nonlure	3	Body	2-Back	9	80	5	0	0	0	2	39	284525	1	13	59	282486	-1	284387	0	1901	2	3	2039	52	284538	-53	0																10												
WM080112	124422_fnca	1	1	1	-1701010965	1	75.031	75.031	2.0.10.147	2.0.10.242	2.0.10.242	1.0.0.439	7	234	2	3	Verdana	1	80	0	0	0	WM Stimuli\	0.4	1188	0.4	1170.25	1	865.1	0.9	797.777777777778	0.6	1306.66666666667	0.6	669.5	0.8	978.125	1	682.7	13	547430	2	547418	27	40	547457	-999999	547433	0	3	TrialsPROC	BP_005_BP19_BA.png	1	2	11	SessionSelectionList													9	lure	3	Body	2-Back	10	80	6	0	0	0	1	39	287084	1	13	59	285045	-1	286069	1	1024	3	3	2039	52	287097	-53	0																11												
WM080112	124422_fnca	1	1	1	-1701010965	1	75.031	75.031	2.0.10.147	2.0.10.242	2.0.10.242	1.0.0.439	7	234	2	3	Verdana	1	80	0	0	0	WM Stimuli\	0.4	1188	0.4	1170.25	1	865.1	0.9	797.777777777778	0.6	1306.66666666667	0.6	669.5	0.8	978.125	1	682.7	13	547430	2	547418	27	40	547457	-999999	547433	0	3	TrialsPROC	BP_004_BP18_BA.png	1	2	12	SessionSelectionList													10	target	2	Body	2-Back	11	80	7	0	0	0	1	40	289643	1	13	58	287603	-1	289087	1	1484	2	2	2040	53	289656	-54	0																12												
WM080112	124422_fnca	1	1	1	-1701010965	1	75.031	75.031	2.0.10.147	2.0.10.242	2.0.10.242	1.0.0.439	7	234	2	3	Verdana	1	80	0	0	0	WM Stimuli\	0.4	1188	0.4	1170.25	1	865.1	0.9	797.777777777778	0.6	1306.66666666667	0.6	669.5	0.8	978.125	1	682.7	13	547430	2	547418	27	40	547457	-999999	547433	0	4	Cue0BackPROC	FC_001_M1.png	1	2	13	SessionSelectionList																																										19	290122	-20	0												13												
WM080112	124422_fnca	1	1	1	-1701010965	1	75.031	75.031	2.0.10.147	2.0.10.242	2.0.10.242	1.0.0.439	7	234	2	3	Verdana	1	80	0	0	0	WM Stimuli\	0.4	1188	0.4	1170.25	1	865.1	0.9	797.777777777778	0.6	1306.66666666667	0.6	669.5	0.8	978.125	1	682.7	13	547430	2	547418	27	40	547457	-999999	547433	0	5	TrialsPROC	FC_005_M3.png	1	2	14	SessionSelectionList														nonlure	3	Face	0-Back	12	80	8	0	0	100	1	39	294707	2	14	65	292668	-1	293601	1	933	3	3	2039	53	294721	-54	0					1											14												
WM080112	124422_fnca	1	1	1	-1701010965	1	75.031	75.031	2.0.10.147	2.0.10.242	2.0.10.242	1.0.0.439	7	234	2	3	Verdana	1	80	0	0	0	WM Stimuli\	0.4	1188	0.4	1170.25	1	865.1	0.9	797.777777777778	0.6	1306.66666666667	0.6	669.5	0.8	978.125	1	682.7	13	547430	2	547418	27	40	547457	-999999	547433	0	5	TrialsPROC	FC_001_M1.png	1	2	15	SessionSelectionList														target	2	Face	0-Back	13	80	9	0	0	100	1	39	297279	2	14	72	295240	-1	296152	1	912	2	2	2039	53	297293	-54	0					2											15												
WM080112	124422_fnca	1	1	1	-1701010965	1	75.031	75.031	2.0.10.147	2.0.10.242	2.0.10.242	1.0.0.439	7	234	2	3	Verdana	1	80	0	0	0	WM Stimuli\	0.4	1188	0.4	1170.25	1	865.1	0.9	797.777777777778	0.6	1306.66666666667	0.6	669.5	0.8	978.125	1	682.7	13	547430	2	547418	27	40	547457	-999999	547433	0	5	TrialsPROC	FC_003_M2.png	1	2	16	SessionSelectionList														nonlure	3	Face	0-Back	14	80	10	0	0	100	1	39	299852	1	13	73	297813	-1	298630	1	817	3	3	2039	52	299865	-53	0					3											16												
WM080112	124422_fnca	1	1	1	-1701010965	1	75.031	75.031	2.0.10.147	2.0.10.242	2.0.10.242	1.0.0.439	7	234	2	3	Verdana	1	80	0	0	0	WM Stimuli\	0.4	1188	0.4	1170.25	1	865.1	0.9	797.777777777778	0.6	1306.66666666667	0.6	669.5	0.8	978.125	1	682.7	13	547430	2	547418	27	40	547457	-999999	547433	0	5	TrialsPROC	FC_004_F2.png	1	2	17	SessionSelectionList														nonlure	3	Face	0-Back	15	80	11	0	0	100	2	39	302424	1	14	72	300385	-1	301097	1	712	3	3	2039	53	302438	-54	0					4											17												
WM080112	124422_fnca	1	1	1	-1701010965	1	75.031	75.031	2.0.10.147	2.0.10.242	2.0.10.242	1.0.0.439	7	234	2	3	Verdana	1	80	0	0	0	WM Stimuli\	0.4	1188	0.4	1170.25	1	865.1	0.9	797.777777777778	0.6	1306.66666666667	0.6	669.5	0.8	978.125	1	682.7	13	547430	2	547418	27	40	547457	-999999	547433	0	5	TrialsPROC	FC_004_F2.png	1	2	18	SessionSelectionList														lure	3	Face	0-Back	16	80	12	0	0	100	3	39	304996	2	14	72	302957	-1	303419	1	462	3	3	2039	53	305010	-54	0					5											18												
WM080112	124422_fnca	1	1	1	-1701010965	1	75.031	75.031	2.0.10.147	2.0.10.242	2.0.10.242	1.0.0.439	7	234	2	3	Verdana	1	80	0	0	0	WM Stimuli\	0.4	1188	0.4	1170.25	1	865.1	0.9	797.777777777778	0.6	1306.66666666667	0.6	669.5	0.8	978.125	1	682.7	13	547430	2	547418	27	40	547457	-999999	547433	0	5	TrialsPROC	FC_001_M1.png	1	2	19	SessionSelectionList														target	2	Face	0-Back	17	80	13	0	0	100	1	40	307569	1	13	72	305529	-1	306211	1	682	2	2	2040	53	307582	-54	0					6											19												
WM080112	124422_fnca	1	1	1	-1701010965	1	75.031	75.031	2.0.10.147	2.0.10.242	2.0.10.242	1.0.0.439	7	234	2	3	Verdana	1	80	0	0	0	WM Stimuli\	0.4	1188	0.4	1170.25	1	865.1	0.9	797.777777777778	0.6	1306.66666666667	0.6	669.5	0.8	978.125	1	682.7	13	547430	2	547418	27	40	547457	-999999	547433	0	5	TrialsPROC	FC_006_F3.png	1	2	20	SessionSelectionList														nonlure	3	Face	0-Back	18	80	14	0	0	100	1	39	310141	1	13	73	308102	-1	308940	1	838	3	3	2039	52	310154	-53	0					7											20												
WM080112	124422_fnca	1	1	1	-1701010965	1	75.031	75.031	2.0.10.147	2.0.10.242	2.0.10.242	1.0.0.439	7	234	2	3	Verdana	1	80	0	0	0	WM Stimuli\	0.4	1188	0.4	1170.25	1	865.1	0.9	797.777777777778	0.6	1306.66666666667	0.6	669.5	0.8	978.125	1	682.7	13	547430	2	547418	27	40	547457	-999999	547433	0	5	TrialsPROC	FC_006_F3.png	1	2	21	SessionSelectionList														lure	3	Face	0-Back	19	80	15	0	0	100	2	39	312713	2	14	72	310674	-1	311398	1	724	3	3	2039	53	312727	-54	0					8											21												
WM080112	124422_fnca	1	1	1	-1701010965	1	75.031	75.031	2.0.10.147	2.0.10.242	2.0.10.242	1.0.0.439	7	234	2	3	Verdana	1	80	0	0	0	WM Stimuli\	0.4	1188	0.4	1170.25	1	865.1	0.9	797.777777777778	0.6	1306.66666666667	0.6	669.5	0.8	978.125	1	682.7	13	547430	2	547418	27	40	547457	-999999	547433	0	5	TrialsPROC	FC_003_M2.png	1	2	22	SessionSelectionList														lure	3	Face	0-Back	20	80	16	0	0	100	3	39	315285	2	14	72	313246	-1	314346	1	1100	3	3	2039	53	315299	-54	0					9											22												
WM080112	124422_fnca	1	1	1	-1701010965	1	75.031	75.031	2.0.10.147	2.0.10.242	2.0.10.242	1.0.0.439	7	234	2	3	Verdana	1	80	0	0	0	WM Stimuli\	0.4	1188	0.4	1170.25	1	865.1	0.9	797.777777777778	0.6	1306.66666666667	0.6	669.5	0.8	978.125	1	682.7	13	547430	2	547418	27	40	547457	-999999	547433	0	5	TrialsPROC	FC_002_F1.png	1	2	23	SessionSelectionList														nonlure	3	Face	0-Back	21	80	16	0	1	90	3	40	317858	1	13	72	315818	-1	0	0	0	""	3	2040	53	317871	-54	0					10											23												
WM080112	124422_fnca	1	1	1	-1701010965	1	75.031	75.031	2.0.10.147	2.0.10.242	2.0.10.242	1.0.0.439	7	234	2	3	Verdana	1	80	0	0	0	WM Stimuli\	0.4	1188	0.4	1170.25	1	865.1	0.9	797.777777777778	0.6	1306.66666666667	0.6	669.5	0.8	978.125	1	682.7	13	547430	2	547418	27	40	547457	-999999	547433	0	6	Fix15secPROC	""	1	2	24	SessionSelectionList																																															6	318324	-7	0							24												
WM080112	124422_fnca	1	1	1	-1701010965	1	75.031	75.031	2.0.10.147	2.0.10.242	2.0.10.242	1.0.0.439	7	234	2	3	Verdana	1	80	0	0	0	WM Stimuli\	0.4	1188	0.4	1170.25	1	865.1	0.9	797.777777777778	0.6	1306.66666666667	0.6	669.5	0.8	978.125	1	682.7	13	547430	2	547418	27	40	547457	-999999	547433	0	7	Cue2BackPROC	""	1	2	25	SessionSelectionList									13	333331	-14	0																																													25												
WM080112	124422_fnca	1	1	1	-1701010965	1	75.031	75.031	2.0.10.147	2.0.10.242	2.0.10.242	1.0.0.439	7	234	2	3	Verdana	1	80	0	0	0	WM Stimuli\	0.4	1188	0.4	1170.25	1	865.1	0.9	797.777777777778	0.6	1306.66666666667	0.6	669.5	0.8	978.125	1	682.7	13	547430	2	547418	27	40	547457	-999999	547433	0	8	TrialsPROC	TO_001_TOOL1_BA.png	1	2	26	SessionSelectionList														nonlure	3	Tools	2-Back	22	80	17	0	0	90	1	39	337916	1	14	59	335877	-1	337178	0	1301	2	3	2039	53	337930	-54	0										1						26												
WM080112	124422_fnca	1	1	1	-1701010965	1	75.031	75.031	2.0.10.147	2.0.10.242	2.0.10.242	1.0.0.439	7	234	2	3	Verdana	1	80	0	0	0	WM Stimuli\	0.4	1188	0.4	1170.25	1	865.1	0.9	797.777777777778	0.6	1306.66666666667	0.6	669.5	0.8	978.125	1	682.7	13	547430	2	547418	27	40	547457	-999999	547433	0	8	TrialsPROC	TO_002_TOOL2_BA.png	1	2	27	SessionSelectionList														nonlure	3	Tools	2-Back	23	80	18	0	0	90	1	39	340475	1	14	59	338436	-1	339920	1	1484	3	3	2039	53	340489	-54	0										2						27												
WM080112	124422_fnca	1	1	1	-1701010965	1	75.031	75.031	2.0.10.147	2.0.10.242	2.0.10.242	1.0.0.439	7	234	2	3	Verdana	1	80	0	0	0	WM Stimuli\	0.4	1188	0.4	1170.25	1	865.1	0.9	797.777777777778	0.6	1306.66666666667	0.6	669.5	0.8	978.125	1	682.7	13	547430	2	547418	27	40	547457	-999999	547433	0	8	TrialsPROC	TO_004_TOOL4_BA.png	1	2	28	SessionSelectionList														nonlure	3	Tools	2-Back	24	80	19	0	0	90	2	39	343034	1	13	59	340995	-1	342015	1	1020	3	3	2039	52	343047	-53	0										3						28												
WM080112	124422_fnca	1	1	1	-1701010965	1	75.031	75.031	2.0.10.147	2.0.10.242	2.0.10.242	1.0.0.439	7	234	2	3	Verdana	1	80	0	0	0	WM Stimuli\	0.4	1188	0.4	1170.25	1	865.1	0.9	797.777777777778	0.6	1306.66666666667	0.6	669.5	0.8	978.125	1	682.7	13	547430	2	547418	27	40	547457	-999999	547433	0	8	TrialsPROC	TO_002_TOOL2_BA.png	1	2	29	SessionSelectionList														target	2	Tools	2-Back	25	80	20	0	0	90	1	39	345593	1	13	59	343554	-1	344671	1	1117	2	2	2039	52	345606	-53	0										4						29												
WM080112	124422_fnca	1	1	1	-1701010965	1	75.031	75.031	2.0.10.147	2.0.10.242	2.0.10.242	1.0.0.439	7	234	2	3	Verdana	1	80	0	0	0	WM Stimuli\	0.4	1188	0.4	1170.25	1	865.1	0.9	797.777777777778	0.6	1306.66666666667	0.6	669.5	0.8	978.125	1	682.7	13	547430	2	547418	27	40	547457	-999999	547433	0	8	TrialsPROC	TO_001_TOOL1_BA.png	1	2	30	SessionSelectionList														lure	3	Tools	2-Back	26	80	21	0	0	90	1	39	348152	1	13	59	346113	-1	347251	1	1138	3	3	2039	52	348165	-53	0										5						30												
WM080112	124422_fnca	1	1	1	-1701010965	1	75.031	75.031	2.0.10.147	2.0.10.242	2.0.10.242	1.0.0.439	7	234	2	3	Verdana	1	80	0	0	0	WM Stimuli\	0.4	1188	0.4	1170.25	1	865.1	0.9	797.777777777778	0.6	1306.66666666667	0.6	669.5	0.8	978.125	1	682.7	13	547430	2	547418	27	40	547457	-999999	547433	0	8	TrialsPROC	TO_004_TOOL4_BA.png	1	2	31	SessionSelectionList														lure	3	Tools	2-Back	27	80	22	0	0	90	1	39	350711	1	13	59	348672	-1	350507	0	1835	2	3	2039	52	350724	-53	0										6						31												
WM080112	124422_fnca	1	1	1	-1701010965	1	75.031	75.031	2.0.10.147	2.0.10.242	2.0.10.242	1.0.0.439	7	234	2	3	Verdana	1	80	0	0	0	WM Stimuli\	0.4	1188	0.4	1170.25	1	865.1	0.9	797.777777777778	0.6	1306.66666666667	0.6	669.5	0.8	978.125	1	682.7	13	547430	2	547418	27	40	547457	-999999	547433	0	8	TrialsPROC	TO_006_TOOL6_BA.png	1	2	32	SessionSelectionList														nonlure	3	Tools	2-Back	28	80	23	0	0	90	1	40	353270	1	13	58	351230	-1	352454	1	1224	3	3	2040	53	353283	-54	0										7						32												
WM080112	124422_fnca	1	1	1	-1701010965	1	75.031	75.031	2.0.10.147	2.0.10.242	2.0.10.242	1.0.0.439	7	234	2	3	Verdana	1	80	0	0	0	WM Stimuli\	0.4	1188	0.4	1170.25	1	865.1	0.9	797.777777777778	0.6	1306.66666666667	0.6	669.5	0.8	978.125	1	682.7	13	547430	2	547418	27	40	547457	-999999	547433	0	8	TrialsPROC	TO_005_TOOL5_BA.png	1	2	33	SessionSelectionList														nonlure	3	Tools	2-Back	29	80	24	0	0	90	2	40	355829	1	13	59	353789	-1	354468	1	679	3	3	2040	53	355842	-54	0										8						33												
WM080112	124422_fnca	1	1	1	-1701010965	1	75.031	75.031	2.0.10.147	2.0.10.242	2.0.10.242	1.0.0.439	7	234	2	3	Verdana	1	80	0	0	0	WM Stimuli\	0.4	1188	0.4	1170.25	1	865.1	0.9	797.777777777778	0.6	1306.66666666667	0.6	669.5	0.8	978.125	1	682.7	13	547430	2	547418	27	40	547457	-999999	547433	0	8	TrialsPROC	TO_006_TOOL6_BA.png	1	2	34	SessionSelectionList														target	2	Tools	2-Back	30	80	25	0	0	90	1	40	358388	1	13	59	356348	-1	356901	1	553	2	2	2040	53	358401	-54	0										9						34												
WM080112	124422_fnca	1	1	1	-1701010965	1	75.031	75.031	2.0.10.147	2.0.10.242	2.0.10.242	1.0.0.439	7	234	2	3	Verdana	1	80	0	0	0	WM Stimuli\	0.4	1188	0.4	1170.25	1	865.1	0.9	797.777777777778	0.6	1306.66666666667	0.6	669.5	0.8	978.125	1	682.7	13	547430	2	547418	27	40	547457	-999999	547433	0	8	TrialsPROC	TO_003_TOOL3_BA.png	1	2	35	SessionSelectionList														nonlure	3	Tools	2-Back	31	80	26	0	0	90	1	40	360947	1	13	59	358907	-1	359517	1	610	3	3	2040	53	360960	-54	0										10						35												
WM080112	124422_fnca	1	1	1	-1701010965	1	75.031	75.031	2.0.10.147	2.0.10.242	2.0.10.242	1.0.0.439	7	234	2	3	Verdana	1	80	0	0	0	WM Stimuli\	0.4	1188	0.4	1170.25	1	865.1	0.9	797.777777777778	0.6	1306.66666666667	0.6	669.5	0.8	978.125	1	682.7	13	547430	2	547418	27	40	547457	-999999	547433	0	9	Cue0BackPROC	BP_007_BP20_BA.png	1	2	36	SessionSelectionList																																										19	361426	-20	0												36												
WM080112	124422_fnca	1	1	1	-1701010965	1	75.031	75.031	2.0.10.147	2.0.10.242	2.0.10.242	1.0.0.439	7	234	2	3	Verdana	1	80	0	0	0	WM Stimuli\	0.4	1188	0.4	1170.25	1	865.1	0.9	797.777777777778	0.6	1306.66666666667	0.6	669.5	0.8	978.125	1	682.7	13	547430	2	547418	27	40	547457	-999999	547433	0	10	TrialsPROC	BP_007_BP20_BA.png	1	2	37	SessionSelectionList														target	2	Body	0-Back	32	80	26	0	1	82	1	39	365998	1	13	52	363959	-1	0	0	0	""	2	2039	52	366011	-53	0											1					37												
WM080112	124422_fnca	1	1	1	-1701010965	1	75.031	75.031	2.0.10.147	2.0.10.242	2.0.10.242	1.0.0.439	7	234	2	3	Verdana	1	80	0	0	0	WM Stimuli\	0.4	1188	0.4	1170.25	1	865.1	0.9	797.777777777778	0.6	1306.66666666667	0.6	669.5	0.8	978.125	1	682.7	13	547430	2	547418	27	40	547457	-999999	547433	0	10	TrialsPROC	BP_011_BP4_BA.png	1	2	38	SessionSelectionList														nonlure	3	Body	0-Back	33	80	26	0	2	75	1	39	368557	1	13	59	366518	-1	0	0	0	""	3	2039	52	368570	-53	0											2					38												
WM080112	124422_fnca	1	1	1	-1701010965	1	75.031	75.031	2.0.10.147	2.0.10.242	2.0.10.242	1.0.0.439	7	234	2	3	Verdana	1	80	0	0	0	WM Stimuli\	0.4	1188	0.4	1170.25	1	865.1	0.9	797.777777777778	0.6	1306.66666666667	0.6	669.5	0.8	978.125	1	682.7	13	547430	2	547418	27	40	547457	-999999	547433	0	10	TrialsPROC	BP_010_BP3_BA.png	1	2	39	SessionSelectionList														nonlure	3	Body	0-Back	34	80	26	0	3	69	1	39	371116	1	13	59	369077	-1	0	0	0	""	3	2039	52	371129	-53	0											3					39												
WM080112	124422_fnca	1	1	1	-1701010965	1	75.031	75.031	2.0.10.147	2.0.10.242	2.0.10.242	1.0.0.439	7	234	2	3	Verdana	1	80	0	0	0	WM Stimuli\	0.4	1188	0.4	1170.25	1	865.1	0.9	797.777777777778	0.6	1306.66666666667	0.6	669.5	0.8	978.125	1	682.7	13	547430	2	547418	27	40	547457	-999999	547433	0	10	TrialsPROC	BP_008_BP21_BA.png	1	2	40	SessionSelectionList														nonlure	3	Body	0-Back	35	80	27	0	0	71	1	40	373675	1	13	58	371635	-1	373318	1	1683	3	3	2040	53	373688	-54	0											4					40												
WM080112	124422_fnca	1	1	1	-1701010965	1	75.031	75.031	2.0.10.147	2.0.10.242	2.0.10.242	1.0.0.439	7	234	2	3	Verdana	1	80	0	0	0	WM Stimuli\	0.4	1188	0.4	1170.25	1	865.1	0.9	797.777777777778	0.6	1306.66666666667	0.6	669.5	0.8	978.125	1	682.7	13	547430	2	547418	27	40	547457	-999999	547433	0	10	TrialsPROC	BP_011_BP4_BA.png	1	2	41	SessionSelectionList														lure	3	Body	0-Back	36	80	28	0	0	67	1	39	376247	1	13	73	374208	-1	375812	0	1604	2	3	2039	52	376260	-53	0											5					41												
WM080112	124422_fnca	1	1	1	-1701010965	1	75.031	75.031	2.0.10.147	2.0.10.242	2.0.10.242	1.0.0.439	7	234	2	3	Verdana	1	80	0	0	0	WM Stimuli\	0.4	1188	0.4	1170.25	1	865.1	0.9	797.777777777778	0.6	1306.66666666667	0.6	669.5	0.8	978.125	1	682.7	13	547430	2	547418	27	40	547457	-999999	547433	0	10	TrialsPROC	BP_009_BP22_BA.png	1	2	42	SessionSelectionList														nonlure	3	Body	0-Back	37	80	29	0	0	69	1	39	378806	1	13	59	376767	-1	377623	1	856	3	3	2039	52	378819	-53	0											6					42												
WM080112	124422_fnca	1	1	1	-1701010965	1	75.031	75.031	2.0.10.147	2.0.10.242	2.0.10.242	1.0.0.439	7	234	2	3	Verdana	1	80	0	0	0	WM Stimuli\	0.4	1188	0.4	1170.25	1	865.1	0.9	797.777777777778	0.6	1306.66666666667	0.6	669.5	0.8	978.125	1	682.7	13	547430	2	547418	27	40	547457	-999999	547433	0	10	TrialsPROC	BP_009_BP22_BA.png	1	2	43	SessionSelectionList														lure	3	Body	0-Back	38	80	30	0	0	65	1	39	381365	1	13	59	379326	-1	380882	0	1556	2	3	2039	52	381378	-53	0											7					43												
WM080112	124422_fnca	1	1	1	-1701010965	1	75.031	75.031	2.0.10.147	2.0.10.242	2.0.10.242	1.0.0.439	7	234	2	3	Verdana	1	80	0	0	0	WM Stimuli\	0.4	1188	0.4	1170.25	1	865.1	0.9	797.777777777778	0.6	1306.66666666667	0.6	669.5	0.8	978.125	1	682.7	13	547430	2	547418	27	40	547457	-999999	547433	0	10	TrialsPROC	BP_008_BP21_BA.png	1	2	44	SessionSelectionList														lure	3	Body	0-Back	39	80	31	0	0	67	1	39	383924	1	13	59	381885	-1	382943	1	1058	3	3	2039	52	383937	-53	0											8					44												
WM080112	124422_fnca	1	1	1	-1701010965	1	75.031	75.031	2.0.10.147	2.0.10.242	2.0.10.242	1.0.0.439	7	234	2	3	Verdana	1	80	0	0	0	WM Stimuli\	0.4	1188	0.4	1170.25	1	865.1	0.9	797.777777777778	0.6	1306.66666666667	0.6	669.5	0.8	978.125	1	682.7	13	547430	2	547418	27	40	547457	-999999	547433	0	10	TrialsPROC	BP_007_BP20_BA.png	1	2	45	SessionSelectionList														target	2	Body	0-Back	40	80	32	0	0	63	2	40	386483	1	13	58	384443	-1	385481	0	1038	3	2	2040	53	386496	-54	0											9					45												
WM080112	124422_fnca	1	1	1	-1701010965	1	75.031	75.031	2.0.10.147	2.0.10.242	2.0.10.242	1.0.0.439	7	234	2	3	Verdana	1	80	0	0	0	WM Stimuli\	0.4	1188	0.4	1170.25	1	865.1	0.9	797.777777777778	0.6	1306.66666666667	0.6	669.5	0.8	978.125	1	682.7	13	547430	2	547418	27	40	547457	-999999	547433	0	10	TrialsPROC	BP_012_BP5_BA.png	1	2	46	SessionSelectionList														nonlure	3	Body	0-Back	41	80	33	0	0	65	3	39	389042	1	13	60	387003	-1	388087	1	1084	3	3	2039	52	389055	-53	0											10					46												
WM080112	124422_fnca	1	1	1	-1701010965	1	75.031	75.031	2.0.10.147	2.0.10.242	2.0.10.242	1.0.0.439	7	234	2	3	Verdana	1	80	0	0	0	WM Stimuli\	0.4	1188	0.4	1170.25	1	865.1	0.9	797.777777777778	0.6	1306.66666666667	0.6	669.5	0.8	978.125	1	682.7	13	547430	2	547418	27	40	547457	-999999	547433	0	11	Fix15secPROC	""	1	2	47	SessionSelectionList																																															5	389508	-6	0							47												
WM080112	124422_fnca	1	1	1	-1701010965	1	75.031	75.031	2.0.10.147	2.0.10.242	2.0.10.242	1.0.0.439	7	234	2	3	Verdana	1	80	0	0	0	WM Stimuli\	0.4	1188	0.4	1170.25	1	865.1	0.9	797.777777777778	0.6	1306.66666666667	0.6	669.5	0.8	978.125	1	682.7	13	547430	2	547418	27	40	547457	-999999	547433	0	12	Cue0BackPROC	PL_001_92012.png	1	2	48	SessionSelectionList																																										12	404515	-13	0												48												
WM080112	124422_fnca	1	1	1	-1701010965	1	75.031	75.031	2.0.10.147	2.0.10.242	2.0.10.242	1.0.0.439	7	234	2	3	Verdana	1	80	0	0	0	WM Stimuli\	0.4	1188	0.4	1170.25	1	865.1	0.9	797.777777777778	0.6	1306.66666666667	0.6	669.5	0.8	978.125	1	682.7	13	547430	2	547418	27	40	547457	-999999	547433	0	13	TrialsPROC	PL_003_92016.png	1	2	49	SessionSelectionList														nonlure	3	Place	0-Back	42	80	33	0	1	62	3	39	409113	2	14	71	407074	-1	0	0	0	""	3	2039	53	409127	-54	0												1				49												
WM080112	124422_fnca	1	1	1	-1701010965	1	75.031	75.031	2.0.10.147	2.0.10.242	2.0.10.242	1.0.0.439	7	234	2	3	Verdana	1	80	0	0	0	WM Stimuli\	0.4	1188	0.4	1170.25	1	865.1	0.9	797.777777777778	0.6	1306.66666666667	0.6	669.5	0.8	978.125	1	682.7	13	547430	2	547418	27	40	547457	-999999	547433	0	13	TrialsPROC	PL_003_92016.png	1	2	50	SessionSelectionList														lure	3	Place	0-Back	43	80	34	0	0	59	1	39	411672	2	14	59	409633	-1	410331	0	698	2	3	2039	53	411686	-54	0												2				50												
WM080112	124422_fnca	1	1	1	-1701010965	1	75.031	75.031	2.0.10.147	2.0.10.242	2.0.10.242	1.0.0.439	7	234	2	3	Verdana	1	80	0	0	0	WM Stimuli\	0.4	1188	0.4	1170.25	1	865.1	0.9	797.777777777778	0.6	1306.66666666667	0.6	669.5	0.8	978.125	1	682.7	13	547430	2	547418	27	40	547457	-999999	547433	0	13	TrialsPROC	PL_006_92025.png	1	2	51	SessionSelectionList														nonlure	3	Place	0-Back	44	80	34	0	1	57	1	40	414245	1	13	72	412205	-1	0	0	0	""	3	2040	53	414258	-54	0												3				51												
WM080112	124422_fnca	1	1	1	-1701010965	1	75.031	75.031	2.0.10.147	2.0.10.242	2.0.10.242	1.0.0.439	7	234	2	3	Verdana	1	80	0	0	0	WM Stimuli\	0.4	1188	0.4	1170.25	1	865.1	0.9	797.777777777778	0.6	1306.66666666667	0.6	669.5	0.8	978.125	1	682.7	13	547430	2	547418	27	40	547457	-999999	547433	0	13	TrialsPROC	PL_001_92012.png	1	2	52	SessionSelectionList														target	2	Place	0-Back	45	80	35	0	0	54	1	39	416817	1	13	73	414778	-1	416483	0	1705	3	2	2039	52	416830	-53	0												4				52												
WM080112	124422_fnca	1	1	1	-1701010965	1	75.031	75.031	2.0.10.147	2.0.10.242	2.0.10.242	1.0.0.439	7	234	2	3	Verdana	1	80	0	0	0	WM Stimuli\	0.4	1188	0.4	1170.25	1	865.1	0.9	797.777777777778	0.6	1306.66666666667	0.6	669.5	0.8	978.125	1	682.7	13	547430	2	547418	27	40	547457	-999999	547433	0	13	TrialsPROC	PL_004_92023.png	1	2	53	SessionSelectionList														nonlure	3	Place	0-Back	46	80	36	0	0	56	2	39	419389	1	14	72	417350	-1	418191	1	841	3	3	2039	53	419403	-54	0												5				53												
WM080112	124422_fnca	1	1	1	-1701010965	1	75.031	75.031	2.0.10.147	2.0.10.242	2.0.10.242	1.0.0.439	7	234	2	3	Verdana	1	80	0	0	0	WM Stimuli\	0.4	1188	0.4	1170.25	1	865.1	0.9	797.777777777778	0.6	1306.66666666667	0.6	669.5	0.8	978.125	1	682.7	13	547430	2	547418	27	40	547457	-999999	547433	0	13	TrialsPROC	PL_005_92024.png	1	2	54	SessionSelectionList														nonlure	3	Place	0-Back	47	80	37	0	0	58	3	39	421948	1	14	59	419909	-1	420572	1	663	3	3	2039	53	421962	-54	0												6				54												
WM080112	124422_fnca	1	1	1	-1701010965	1	75.031	75.031	2.0.10.147	2.0.10.242	2.0.10.242	1.0.0.439	7	234	2	3	Verdana	1	80	0	0	0	WM Stimuli\	0.4	1188	0.4	1170.25	1	865.1	0.9	797.777777777778	0.6	1306.66666666667	0.6	669.5	0.8	978.125	1	682.7	13	547430	2	547418	27	40	547457	-999999	547433	0	13	TrialsPROC	PL_001_92012.png	1	2	55	SessionSelectionList														target	2	Place	0-Back	48	80	38	0	0	59	1	39	424520	2	14	72	422481	-1	423159	1	678	2	2	2039	53	424534	-54	0												7				55												
WM080112	124422_fnca	1	1	1	-1701010965	1	75.031	75.031	2.0.10.147	2.0.10.242	2.0.10.242	1.0.0.439	7	234	2	3	Verdana	1	80	0	0	0	WM Stimuli\	0.4	1188	0.4	1170.25	1	865.1	0.9	797.777777777778	0.6	1306.66666666667	0.6	669.5	0.8	978.125	1	682.7	13	547430	2	547418	27	40	547457	-999999	547433	0	13	TrialsPROC	PL_002_92014.png	1	2	56	SessionSelectionList														nonlure	3	Place	0-Back	49	80	39	0	0	61	1	40	427093	1	13	72	425053	-1	425700	1	647	3	3	2040	53	427106	-54	0												8				56												
WM080112	124422_fnca	1	1	1	-1701010965	1	75.031	75.031	2.0.10.147	2.0.10.242	2.0.10.242	1.0.0.439	7	234	2	3	Verdana	1	80	0	0	0	WM Stimuli\	0.4	1188	0.4	1170.25	1	865.1	0.9	797.777777777778	0.6	1306.66666666667	0.6	669.5	0.8	978.125	1	682.7	13	547430	2	547418	27	40	547457	-999999	547433	0	13	TrialsPROC	PL_004_92023.png	1	2	57	SessionSelectionList														lure	3	Place	0-Back	50	80	40	0	0	62	2	39	429665	2	13	73	427626	-1	428215	1	589	3	3	2039	52	429678	-53	0												9				57												
WM080112	124422_fnca	1	1	1	-1701010965	1	75.031	75.031	2.0.10.147	2.0.10.242	2.0.10.242	1.0.0.439	7	234	2	3	Verdana	1	80	0	0	0	WM Stimuli\	0.4	1188	0.4	1170.25	1	865.1	0.9	797.777777777778	0.6	1306.66666666667	0.6	669.5	0.8	978.125	1	682.7	13	547430	2	547418	27	40	547457	-999999	547433	0	13	TrialsPROC	PL_006_92025.png	1	2	58	SessionSelectionList														lure	3	Place	0-Back	51	80	41	0	0	63	3	39	432237	2	14	72	430198	-1	430797	1	599	3	3	2039	53	432251	-54	0												10				58												
WM080112	124422_fnca	1	1	1	-1701010965	1	75.031	75.031	2.0.10.147	2.0.10.242	2.0.10.242	1.0.0.439	7	234	2	3	Verdana	1	80	0	0	0	WM Stimuli\	0.4	1188	0.4	1170.25	1	865.1	0.9	797.777777777778	0.6	1306.66666666667	0.6	669.5	0.8	978.125	1	682.7	13	547430	2	547418	27	40	547457	-999999	547433	0	14	Cue2BackPROC	""	1	2	59	SessionSelectionList									6	432704	-7	0																																													59												
WM080112	124422_fnca	1	1	1	-1701010965	1	75.031	75.031	2.0.10.147	2.0.10.242	2.0.10.242	1.0.0.439	7	234	2	3	Verdana	1	80	0	0	0	WM Stimuli\	0.4	1188	0.4	1170.25	1	865.1	0.9	797.777777777778	0.6	1306.66666666667	0.6	669.5	0.8	978.125	1	682.7	13	547430	2	547418	27	40	547457	-999999	547433	0	15	TrialsPROC	FC_010_F5.png	1	2	60	SessionSelectionList														nonlure	3	Face	2-Back	52	80	42	0	0	63	4	39	437302	1	13	65	435263	-1	436936	1	1673	3	3	2039	52	437315	-53	0													1			60												
WM080112	124422_fnca	1	1	1	-1701010965	1	75.031	75.031	2.0.10.147	2.0.10.242	2.0.10.242	1.0.0.439	7	234	2	3	Verdana	1	80	0	0	0	WM Stimuli\	0.4	1188	0.4	1170.25	1	865.1	0.9	797.777777777778	0.6	1306.66666666667	0.6	669.5	0.8	978.125	1	682.7	13	547430	2	547418	27	40	547457	-999999	547433	0	15	TrialsPROC	FC_012_F6.png	1	2	61	SessionSelectionList														nonlure	3	Face	2-Back	53	80	43	0	0	63	5	39	439874	1	14	72	437835	-1	439307	1	1472	3	3	2039	53	439888	-54	0													2			61												
WM080112	124422_fnca	1	1	1	-1701010965	1	75.031	75.031	2.0.10.147	2.0.10.242	2.0.10.242	1.0.0.439	7	234	2	3	Verdana	1	80	0	0	0	WM Stimuli\	0.4	1188	0.4	1170.25	1	865.1	0.9	797.777777777778	0.6	1306.66666666667	0.6	669.5	0.8	978.125	1	682.7	13	547430	2	547418	27	40	547457	-999999	547433	0	15	TrialsPROC	FC_010_F5.png	1	2	62	SessionSelectionList														target	2	Face	2-Back	54	80	44	0	0	63	1	39	442446	2	14	72	440407	-1	440949	1	542	2	2	2039	53	442460	-54	0													3			62												
WM080112	124422_fnca	1	1	1	-1701010965	1	75.031	75.031	2.0.10.147	2.0.10.242	2.0.10.242	1.0.0.439	7	234	2	3	Verdana	1	80	0	0	0	WM Stimuli\	0.4	1188	0.4	1170.25	1	865.1	0.9	797.777777777778	0.6	1306.66666666667	0.6	669.5	0.8	978.125	1	682.7	13	547430	2	547418	27	40	547457	-999999	547433	0	15	TrialsPROC	FC_008_F4.png	1	2	63	SessionSelectionList														nonlure	3	Face	2-Back	55	80	45	0	0	63	1	39	445018	2	14	72	442979	-1	443707	1	728	3	3	2039	53	445032	-54	0													4			63												
WM080112	124422_fnca	1	1	1	-1701010965	1	75.031	75.031	2.0.10.147	2.0.10.242	2.0.10.242	1.0.0.439	7	234	2	3	Verdana	1	80	0	0	0	WM Stimuli\	0.4	1188	0.4	1170.25	1	865.1	0.9	797.777777777778	0.6	1306.66666666667	0.6	669.5	0.8	978.125	1	682.7	13	547430	2	547418	27	40	547457	-999999	547433	0	15	TrialsPROC	FC_012_F6.png	1	2	64	SessionSelectionList														lure	3	Face	2-Back	56	80	46	0	0	63	2	39	447591	1	13	73	445552	-1	445908	1	356	3	3	2039	52	447604	-53	0													5			64												
WM080112	124422_fnca	1	1	1	-1701010965	1	75.031	75.031	2.0.10.147	2.0.10.242	2.0.10.242	1.0.0.439	7	234	2	3	Verdana	1	80	0	0	0	WM Stimuli\	0.4	1188	0.4	1170.25	1	865.1	0.9	797.777777777778	0.6	1306.66666666667	0.6	669.5	0.8	978.125	1	682.7	13	547430	2	547418	27	40	547457	-999999	547433	0	15	TrialsPROC	FC_008_F4.png	1	2	65	SessionSelectionList														target	2	Face	2-Back	57	80	47	0	0	63	1	39	450163	1	14	72	448124	-1	448562	1	438	2	2	2039	53	450177	-54	0													6			65												
WM080112	124422_fnca	1	1	1	-1701010965	1	75.031	75.031	2.0.10.147	2.0.10.242	2.0.10.242	1.0.0.439	7	234	2	3	Verdana	1	80	0	0	0	WM Stimuli\	0.4	1188	0.4	1170.25	1	865.1	0.9	797.777777777778	0.6	1306.66666666667	0.6	669.5	0.8	978.125	1	682.7	13	547430	2	547418	27	40	547457	-999999	547433	0	15	TrialsPROC	FC_007_M4.png	1	2	66	SessionSelectionList														nonlure	3	Face	2-Back	58	80	48	0	0	63	1	40	452749	1	13	85	450709	-1	451421	1	712	3	3	2040	53	452762	-54	0													7			66												
WM080112	124422_fnca	1	1	1	-1701010965	1	75.031	75.031	2.0.10.147	2.0.10.242	2.0.10.242	1.0.0.439	7	234	2	3	Verdana	1	80	0	0	0	WM Stimuli\	0.4	1188	0.4	1170.25	1	865.1	0.9	797.777777777778	0.6	1306.66666666667	0.6	669.5	0.8	978.125	1	682.7	13	547430	2	547418	27	40	547457	-999999	547433	0	15	TrialsPROC	FC_007_M4.png	1	2	67	SessionSelectionList														lure	3	Face	2-Back	59	80	49	0	0	63	2	39	455321	1	13	73	453282	-1	453750	1	468	3	3	2039	52	455334	-53	0													8			67												
WM080112	124422_fnca	1	1	1	-1701010965	1	75.031	75.031	2.0.10.147	2.0.10.242	2.0.10.242	1.0.0.439	7	234	2	3	Verdana	1	80	0	0	0	WM Stimuli\	0.4	1188	0.4	1170.25	1	865.1	0.9	797.777777777778	0.6	1306.66666666667	0.6	669.5	0.8	978.125	1	682.7	13	547430	2	547418	27	40	547457	-999999	547433	0	15	TrialsPROC	FC_009_M5.png	1	2	68	SessionSelectionList														nonlure	3	Face	2-Back	60	80	50	0	0	63	3	39	457906	2	14	85	455867	-1	456722	1	855	3	3	2039	53	457920	-54	0													9			68												
WM080112	124422_fnca	1	1	1	-1701010965	1	75.031	75.031	2.0.10.147	2.0.10.242	2.0.10.242	1.0.0.439	7	234	2	3	Verdana	1	80	0	0	0	WM Stimuli\	0.4	1188	0.4	1170.25	1	865.1	0.9	797.777777777778	0.6	1306.66666666667	0.6	669.5	0.8	978.125	1	682.7	13	547430	2	547418	27	40	547457	-999999	547433	0	15	TrialsPROC	FC_011_M6.png	1	2	69	SessionSelectionList														nonlure	3	Face	2-Back	61	80	51	0	0	63	4	39	460492	2	14	86	458453	-1	459860	1	1407	3	3	2039	53	460506	-54	0													10			69												
WM080112	124422_fnca	1	1	1	-1701010965	1	75.031	75.031	2.0.10.147	2.0.10.242	2.0.10.242	1.0.0.439	7	234	2	3	Verdana	1	80	0	0	0	WM Stimuli\	0.4	1188	0.4	1170.25	1	865.1	0.9	797.777777777778	0.6	1306.66666666667	0.6	669.5	0.8	978.125	1	682.7	13	547430	2	547418	27	40	547457	-999999	547433	0	16	Fix15secPROC	""	1	2	70	SessionSelectionList																																															6	460959	-7	0							70												
WM080112	124422_fnca	1	1	1	-1701010965	1	75.031	75.031	2.0.10.147	2.0.10.242	2.0.10.242	1.0.0.439	7	234	2	3	Verdana	1	80	0	0	0	WM Stimuli\	0.4	1188	0.4	1170.25	1	865.1	0.9	797.777777777778	0.6	1306.66666666667	0.6	669.5	0.8	978.125	1	682.7	13	547430	2	547418	27	40	547457	-999999	547433	0	17	Cue0BackPROC	TO_007_TOOL7_BA.png	1	2	71	SessionSelectionList																																										26	475979	-27	0												71												
WM080112	124422_fnca	1	1	1	-1701010965	1	75.031	75.031	2.0.10.147	2.0.10.242	2.0.10.242	1.0.0.439	7	234	2	3	Verdana	1	80	0	0	0	WM Stimuli\	0.4	1188	0.4	1170.25	1	865.1	0.9	797.777777777778	0.6	1306.66666666667	0.6	669.5	0.8	978.125	1	682.7	13	547430	2	547418	27	40	547457	-999999	547433	0	18	TrialsPROC	TO_010_TOOL10_BA.png	1	2	72	SessionSelectionList														nonlure	3	Tools	0-Back	62	80	52	0	0	65	5	39	480564	1	13	72	478525	-1	479882	1	1357	3	3	2039	52	480577	-53	0														1		72												
WM080112	124422_fnca	1	1	1	-1701010965	1	75.031	75.031	2.0.10.147	2.0.10.242	2.0.10.242	1.0.0.439	7	234	2	3	Verdana	1	80	0	0	0	WM Stimuli\	0.4	1188	0.4	1170.25	1	865.1	0.9	797.777777777778	0.6	1306.66666666667	0.6	669.5	0.8	978.125	1	682.7	13	547430	2	547418	27	40	547457	-999999	547433	0	18	TrialsPROC	TO_009_TOOL9_BA.png	1	2	73	SessionSelectionList														nonlure	3	Tools	0-Back	63	80	53	0	0	66	6	39	483149	2	14	85	481110	-1	481864	1	754	3	3	2039	53	483163	-54	0														2		73												
WM080112	124422_fnca	1	1	1	-1701010965	1	75.031	75.031	2.0.10.147	2.0.10.242	2.0.10.242	1.0.0.439	7	234	2	3	Verdana	1	80	0	0	0	WM Stimuli\	0.4	1188	0.4	1170.25	1	865.1	0.9	797.777777777778	0.6	1306.66666666667	0.6	669.5	0.8	978.125	1	682.7	13	547430	2	547418	27	40	547457	-999999	547433	0	18	TrialsPROC	TO_009_TOOL9_BA.png	1	2	74	SessionSelectionList														lure	3	Tools	0-Back	64	80	54	0	0	67	7	39	485708	2	14	59	483669	-1	484138	1	469	3	3	2039	53	485722	-54	0														3		74												
WM080112	124422_fnca	1	1	1	-1701010965	1	75.031	75.031	2.0.10.147	2.0.10.242	2.0.10.242	1.0.0.439	7	234	2	3	Verdana	1	80	0	0	0	WM Stimuli\	0.4	1188	0.4	1170.25	1	865.1	0.9	797.777777777778	0.6	1306.66666666667	0.6	669.5	0.8	978.125	1	682.7	13	547430	2	547418	27	40	547457	-999999	547433	0	18	TrialsPROC	TO_008_TOOL8_BA.png	1	2	75	SessionSelectionList														nonlure	3	Tools	0-Back	65	80	55	0	0	68	8	39	488294	1	14	86	486255	-1	486807	1	552	3	3	2039	53	488308	-54	0														4		75												
WM080112	124422_fnca	1	1	1	-1701010965	1	75.031	75.031	2.0.10.147	2.0.10.242	2.0.10.242	1.0.0.439	7	234	2	3	Verdana	1	80	0	0	0	WM Stimuli\	0.4	1188	0.4	1170.25	1	865.1	0.9	797.777777777778	0.6	1306.66666666667	0.6	669.5	0.8	978.125	1	682.7	13	547430	2	547418	27	40	547457	-999999	547433	0	18	TrialsPROC	TO_011_TOOL11_BA.png	1	2	76	SessionSelectionList														nonlure	3	Tools	0-Back	66	80	56	0	0	69	9	39	490866	2	14	72	488827	-1	489663	1	836	3	3	2039	53	490880	-54	0														5		76												
WM080112	124422_fnca	1	1	1	-1701010965	1	75.031	75.031	2.0.10.147	2.0.10.242	2.0.10.242	1.0.0.439	7	234	2	3	Verdana	1	80	0	0	0	WM Stimuli\	0.4	1188	0.4	1170.25	1	865.1	0.9	797.777777777778	0.6	1306.66666666667	0.6	669.5	0.8	978.125	1	682.7	13	547430	2	547418	27	40	547457	-999999	547433	0	18	TrialsPROC	TO_012_TOOL12_BA.png	1	2	77	SessionSelectionList														nonlure	3	Tools	0-Back	67	80	57	0	0	69	10	39	493452	1	13	86	491413	-1	491986	1	573	3	3	2039	52	493465	-53	0														6		77												
WM080112	124422_fnca	1	1	1	-1701010965	1	75.031	75.031	2.0.10.147	2.0.10.242	2.0.10.242	1.0.0.439	7	234	2	3	Verdana	1	80	0	0	0	WM Stimuli\	0.4	1188	0.4	1170.25	1	865.1	0.9	797.777777777778	0.6	1306.66666666667	0.6	669.5	0.8	978.125	1	682.7	13	547430	2	547418	27	40	547457	-999999	547433	0	18	TrialsPROC	TO_010_TOOL10_BA.png	1	2	78	SessionSelectionList														lure	3	Tools	0-Back	68	80	58	0	0	70	11	39	496011	1	13	59	493972	-1	494461	1	489	3	3	2039	52	496024	-53	0														7		78												
WM080112	124422_fnca	1	1	1	-1701010965	1	75.031	75.031	2.0.10.147	2.0.10.242	2.0.10.242	1.0.0.439	7	234	2	3	Verdana	1	80	0	0	0	WM Stimuli\	0.4	1188	0.4	1170.25	1	865.1	0.9	797.777777777778	0.6	1306.66666666667	0.6	669.5	0.8	978.125	1	682.7	13	547430	2	547418	27	40	547457	-999999	547433	0	18	TrialsPROC	TO_007_TOOL7_BA.png	1	2	79	SessionSelectionList														target	2	Tools	0-Back	69	80	59	0	0	71	1	39	498570	1	13	59	496531	-1	497036	1	505	2	2	2039	52	498583	-53	0														8		79												
WM080112	124422_fnca	1	1	1	-1701010965	1	75.031	75.031	2.0.10.147	2.0.10.242	2.0.10.242	1.0.0.439	7	234	2	3	Verdana	1	80	0	0	0	WM Stimuli\	0.4	1188	0.4	1170.25	1	865.1	0.9	797.777777777778	0.6	1306.66666666667	0.6	669.5	0.8	978.125	1	682.7	13	547430	2	547418	27	40	547457	-999999	547433	0	18	TrialsPROC	TO_008_TOOL8_BA.png	1	2	80	SessionSelectionList														lure	3	Tools	0-Back	70	80	60	0	0	72	1	39	501129	1	13	59	499090	-1	499734	1	644	3	3	2039	52	501142	-53	0														9		80												
WM080112	124422_fnca	1	1	1	-1701010965	1	75.031	75.031	2.0.10.147	2.0.10.242	2.0.10.242	1.0.0.439	7	234	2	3	Verdana	1	80	0	0	0	WM Stimuli\	0.4	1188	0.4	1170.25	1	865.1	0.9	797.777777777778	0.6	1306.66666666667	0.6	669.5	0.8	978.125	1	682.7	13	547430	2	547418	27	40	547457	-999999	547433	0	18	TrialsPROC	TO_007_TOOL7_BA.png	1	2	81	SessionSelectionList														target	2	Tools	0-Back	71	80	61	0	0	72	1	40	503688	1	13	58	501648	-1	502296	1	648	2	2	2040	53	503701	-54	0														10		81												
WM080112	124422_fnca	1	1	1	-1701010965	1	75.031	75.031	2.0.10.147	2.0.10.242	2.0.10.242	1.0.0.439	7	234	2	3	Verdana	1	80	0	0	0	WM Stimuli\	0.4	1188	0.4	1170.25	1	865.1	0.9	797.777777777778	0.6	1306.66666666667	0.6	669.5	0.8	978.125	1	682.7	13	547430	2	547418	27	40	547457	-999999	547433	0	19	Cue2BackPROC	""	1	2	82	SessionSelectionList									6	504154	-7	0																																													82												
WM080112	124422_fnca	1	1	1	-1701010965	1	75.031	75.031	2.0.10.147	2.0.10.242	2.0.10.242	1.0.0.439	7	234	2	3	Verdana	1	80	0	0	0	WM Stimuli\	0.4	1188	0.4	1170.25	1	865.1	0.9	797.777777777778	0.6	1306.66666666667	0.6	669.5	0.8	978.125	1	682.7	13	547430	2	547418	27	40	547457	-999999	547433	0	20	TrialsPROC	PL_007_92026.png	1	2	83	SessionSelectionList														nonlure	3	Place	2-Back	72	80	62	0	0	72	1	40	508766	1	13	78	506726	-1	508430	1	1704	3	3	2040	53	508779	-54	0															1	83												
WM080112	124422_fnca	1	1	1	-1701010965	1	75.031	75.031	2.0.10.147	2.0.10.242	2.0.10.242	1.0.0.439	7	234	2	3	Verdana	1	80	0	0	0	WM Stimuli\	0.4	1188	0.4	1170.25	1	865.1	0.9	797.777777777778	0.6	1306.66666666667	0.6	669.5	0.8	978.125	1	682.7	13	547430	2	547418	27	40	547457	-999999	547433	0	20	TrialsPROC	PL_007_92026.png	1	2	84	SessionSelectionList														lure	3	Place	2-Back	73	80	62	0	1	72	1	39	511338	1	13	73	509299	-1	0	0	0	""	3	2039	52	511351	-53	0															2	84												
WM080112	124422_fnca	1	1	1	-1701010965	1	75.031	75.031	2.0.10.147	2.0.10.242	2.0.10.242	1.0.0.439	7	234	2	3	Verdana	1	80	0	0	0	WM Stimuli\	0.4	1188	0.4	1170.25	1	865.1	0.9	797.777777777778	0.6	1306.66666666667	0.6	669.5	0.8	978.125	1	682.7	13	547430	2	547418	27	40	547457	-999999	547433	0	20	TrialsPROC	PL_010_92038.png	1	2	85	SessionSelectionList														nonlure	3	Place	2-Back	74	80	63	0	0	72	1	39	513923	2	14	85	511884	-1	513362	1	1478	3	3	2039	53	513937	-54	0															3	85												
WM080112	124422_fnca	1	1	1	-1701010965	1	75.031	75.031	2.0.10.147	2.0.10.242	2.0.10.242	1.0.0.439	7	234	2	3	Verdana	1	80	0	0	0	WM Stimuli\	0.4	1188	0.4	1170.25	1	865.1	0.9	797.777777777778	0.6	1306.66666666667	0.6	669.5	0.8	978.125	1	682.7	13	547430	2	547418	27	40	547457	-999999	547433	0	20	TrialsPROC	PL_009_92037.png	1	2	86	SessionSelectionList														nonlure	3	Place	2-Back	75	80	64	0	0	72	2	39	516509	1	14	86	514470	-1	515055	1	585	3	3	2039	53	516523	-54	0															4	86												
WM080112	124422_fnca	1	1	1	-1701010965	1	75.031	75.031	2.0.10.147	2.0.10.242	2.0.10.242	1.0.0.439	7	234	2	3	Verdana	1	80	0	0	0	WM Stimuli\	0.4	1188	0.4	1170.25	1	865.1	0.9	797.777777777778	0.6	1306.66666666667	0.6	669.5	0.8	978.125	1	682.7	13	547430	2	547418	27	40	547457	-999999	547433	0	20	TrialsPROC	PL_010_92038.png	1	2	87	SessionSelectionList														target	2	Place	2-Back	76	80	65	0	0	72	3	39	519068	1	14	59	517029	-1	518182	0	1153	3	2	2039	53	519082	-54	0															5	87												
WM080112	124422_fnca	1	1	1	-1701010965	1	75.031	75.031	2.0.10.147	2.0.10.242	2.0.10.242	1.0.0.439	7	234	2	3	Verdana	1	80	0	0	0	WM Stimuli\	0.4	1188	0.4	1170.25	1	865.1	0.9	797.777777777778	0.6	1306.66666666667	0.6	669.5	0.8	978.125	1	682.7	13	547430	2	547418	27	40	547457	-999999	547433	0	20	TrialsPROC	PL_009_92037.png	1	2	88	SessionSelectionList														target	2	Place	2-Back	77	80	65	0	1	72	3	39	521627	1	14	59	519588	-1	0	0	0	""	2	2039	53	521641	-54	0															6	88												
WM080112	124422_fnca	1	1	1	-1701010965	1	75.031	75.031	2.0.10.147	2.0.10.242	2.0.10.242	1.0.0.439	7	234	2	3	Verdana	1	80	0	0	0	WM Stimuli\	0.4	1188	0.4	1170.25	1	865.1	0.9	797.777777777778	0.6	1306.66666666667	0.6	669.5	0.8	978.125	1	682.7	13	547430	2	547418	27	40	547457	-999999	547433	0	20	TrialsPROC	PL_008_92033.png	1	2	89	SessionSelectionList														nonlure	3	Place	2-Back	78	80	66	0	0	72	1	40	524213	1	13	85	522173	-1	523831	1	1658	3	3	2040	53	524226	-54	0															7	89												
WM080112	124422_fnca	1	1	1	-1701010965	1	75.031	75.031	2.0.10.147	2.0.10.242	2.0.10.242	1.0.0.439	7	234	2	3	Verdana	1	80	0	0	0	WM Stimuli\	0.4	1188	0.4	1170.25	1	865.1	0.9	797.777777777778	0.6	1306.66666666667	0.6	669.5	0.8	978.125	1	682.7	13	547430	2	547418	27	40	547457	-999999	547433	0	20	TrialsPROC	PL_012_92047.png	1	2	90	SessionSelectionList														nonlure	3	Place	2-Back	79	80	67	0	0	72	2	39	526798	1	14	86	524759	-1	526392	1	1633	3	3	2039	53	526812	-54	0															8	90												
WM080112	124422_fnca	1	1	1	-1701010965	1	75.031	75.031	2.0.10.147	2.0.10.242	2.0.10.242	1.0.0.439	7	234	2	3	Verdana	1	80	0	0	0	WM Stimuli\	0.4	1188	0.4	1170.25	1	865.1	0.9	797.777777777778	0.6	1306.66666666667	0.6	669.5	0.8	978.125	1	682.7	13	547430	2	547418	27	40	547457	-999999	547433	0	20	TrialsPROC	PL_012_92047.png	1	2	91	SessionSelectionList														lure	3	Place	2-Back	80	80	68	0	0	72	1	39	529370	2	14	72	527331	-1	529115	0	1784	2	3	2039	53	529384	-54	0															9	91												
WM080112	124422_fnca	1	1	1	-1701010965	1	75.031	75.031	2.0.10.147	2.0.10.242	2.0.10.242	1.0.0.439	7	234	2	3	Verdana	1	80	0	0	0	WM Stimuli\	0.4	1188	0.4	1170.25	1	865.1	0.9	797.777777777778	0.6	1306.66666666667	0.6	669.5	0.8	978.125	1	682.7	13	547430	2	547418	27	40	547457	-999999	547433	0	20	TrialsPROC	PL_011_92044.png	1	2	92	SessionSelectionList														nonlure	3	Place	2-Back	80	80	69	0	0	72	1	39	531956	1	14	86	529917	-1	530699	1	782	3	3	2039	53	531970	-54	0															10	92												
WM080112	124422_fnca	1	1	1	-1701010965	1	75.031	75.031	2.0.10.147	2.0.10.242	2.0.10.242	1.0.0.439	7	234	2	3	Verdana	1	80	0	0	0	WM Stimuli\	0.4	1188	0.4	1170.25	1	865.1	0.9	797.777777777778	0.6	1306.66666666667	0.6	669.5	0.8	978.125	1	682.7	13	547430	2	547418	27	40	547457	-999999	547433	0	21	Fix15secPROC	""	1	2	93	SessionSelectionList																																															6	532423	-7	0							93												
