ExperimentName	HCPID	RunNumber	Subject	Session	RandomSeed	Group	Laptop.RefreshRate	ScannerD2.RefreshRate	StudioVersion	RuntimeVersion	RuntimeVersionExpected	ExperimentVersion	triggercode	Allowed	Target	Nontarget	FontStyle	RunTrialNumber[Session]	TrialsPerRun[Session]	TotalRespGreater200[Session]	ConsecRTLess200[Session]	ConsecNonResp[Session]	StimuliDir	ACC_2_Back_Body	Avg_RT_For_Correct_Trials_2_Back_Body	ACC_0_Back_Body	Avg_RT_For_Correct_Trials_0_Back_Body	ACC_2_Back_Face	Avg_RT_For_Correct_Trials_2_Back_Face	ACC_0_Back_Face	Avg_RT_For_Correct_Trials_0_Back_Face	ACC_2_Back_Place	Avg_RT_For_Correct_Trials_2_Back_Place	ACC_0_Back_Place	Avg_RT_For_Correct_Trials_0_Back_Place	ACC_2_Back_Tools	Avg_RT_For_Correct_Trials_2_Back_Tools	ACC_0_Back_Tools	Avg_RT_For_Correct_Trials_0_Back_Tools	ExpInstrucFeelFreeToRest.OnsetDelay	ExpInstrucFeelFreeToRest.OnsetTime	ExpInstrucFeelFreeToRest.DurationError	ExpInstrucFeelFreeToRest.StartTime	ExpInstrucFeelFreeToRest.OnsetToOnsetTime	FeelFreeToRest.OnsetDelay	FeelFreeToRest.OnsetTime	FeelFreeToRest.DurationError	FeelFreeToRest.StartTime	FeelFreeToRest.OnsetToOnsetTime	SessionSelectionList	Procedure[Block]	Stimulus[Block]	RunNumberFilterValue	SessionSelectionList.Cycle	SessionSelectionList.Sample	Running[Block]	IntroButtonMap.OnsetDelay	IntroButtonMap.OnsetTime	IntroButtonMap.DurationError	IntroButtonMap.OnsetToOnsetTime	GetReady.OnsetDelay	GetReady.OnsetTime	GetReady.DurationError	GetReady.OnsetToOnsetTime	Cue2Back.OnsetDelay	Cue2Back.OnsetTime	Cue2Back.DurationError	Cue2Back.OnsetToOnsetTime	Run1Block1	TargetType	CorrectResponse	StimType	BlockType	RunTrialNumber[Block]	TrialsPerRun[Block]	TotalRespGreater200[Block]	ConsecRTLess200[Block]	ConsecNonResp[Block]	ControlAcc	ConsecSameResp	ExperimenterWindow.OnsetDelay	ExperimenterWindow.OnsetTime	ExperimenterWindow.DurationError	ExperimenterWindow.OnsetToOnsetTime	Stim.OnsetDelay	Stim.OnsetTime	Stim.DurationError	Stim.RTTime	Stim.ACC	Stim.RT	Stim.RESP	Stim.CRESP	Stim.OnsetToOnsetTime	Fix.OnsetDelay	Fix.OnsetTime	Fix.DurationError	Fix.OnsetToOnsetTime	CueTarget.OnsetDelay	CueTarget.OnsetTime	CueTarget.DurationError	CueTarget.OnsetToOnsetTime	Run1Block2	Fix15sec.OnsetDelay	Fix15sec.OnsetTime	Fix15sec.DurationError	Fix15sec.OnsetToOnsetTime	Run1Block3	Run1Block4	Run1Block5	Run1Block6	Run1Block7	Run1Block8	Block	Procedure[Trial]	Stimulus[Trial]	ReadyList	Running[Trial]	ReadyList.Cycle	ReadyList.Sample	SyncSlide.OnsetDelay	SyncSlide.OnsetTime	SyncSlide.DurationError	SyncSlide.FinishTime	SyncSlide.OnsetToOnsetTime	Trial
WM080112	113619_fnca	2	1	1	-1116335783	1	75.032	75.031	2.0.10.147	2.0.10.242	2.0.10.242	1.0.0.439	7	234	2	3	Verdana	1	80	0	0	0	WM Stimuli\	1	1058.6	1	873.3	0.9	1060.33333333333	0.9	751.222222222222	1	1153.3	1	806.5	1	978.4	0.9	965.111111111111	13	316173	2	316161	27	40	316200	-999999	316176	0	22	TRSyncPROC	""	2	2	1	SessionSelectionList	105	4955	-999999	0	32	8327	-999999	0																																																	1	InitialTR	4	1	ReadyList	1	1	13	21961	-14	23947	0	1
WM080112	113619_fnca	2	1	1	-1116335783	1	75.032	75.031	2.0.10.147	2.0.10.242	2.0.10.242	1.0.0.439	7	234	2	3	Verdana	1	80	0	0	0	WM Stimuli\	1	1058.6	1	873.3	0.9	1060.33333333333	0.9	751.222222222222	1	1153.3	1	806.5	1	978.4	0.9	965.111111111111	13	316173	2	316161	27	40	316200	-999999	316176	0	22	TRSyncPROC	""	2	2	1	SessionSelectionList	105	4955	-999999	0	32	8327	-999999	0																																																	1	InitialTR	3	2	ReadyList	1	2	12	23960	-13	25947	0	2
WM080112	113619_fnca	2	1	1	-1116335783	1	75.032	75.031	2.0.10.147	2.0.10.242	2.0.10.242	1.0.0.439	7	234	2	3	Verdana	1	80	0	0	0	WM Stimuli\	1	1058.6	1	873.3	0.9	1060.33333333333	0.9	751.222222222222	1	1153.3	1	806.5	1	978.4	0.9	965.111111111111	13	316173	2	316161	27	40	316200	-999999	316176	0	22	TRSyncPROC	""	2	2	1	SessionSelectionList	105	4955	-999999	0	32	8327	-999999	0																																																	1	InitialTR	2	3	ReadyList	1	3	12	25960	-13	27947	0	3
WM080112	113619_fnca	2	1	1	-1116335783	1	75.032	75.031	2.0.10.147	2.0.10.242	2.0.10.242	1.0.0.439	7	234	2	3	Verdana	1	80	0	0	0	WM Stimuli\	1	1058.6	1	873.3	0.9	1060.33333333333	0.9	751.222222222222	1	1153.3	1	806.5	1	978.4	0.9	965.111111111111	13	316173	2	316161	27	40	316200	-999999	316176	0	22	TRSyncPROC	""	2	2	1	SessionSelectionList	105	4955	-999999	0	32	8327	-999999	0																																																	1	InitialTR	1	4	ReadyList	1	4	11	27959	-12	29947	0	4
WM080112	113619_fnca	2	1	1	-1116335783	1	75.032	75.031	2.0.10.147	2.0.10.242	2.0.10.242	1.0.0.439	7	234	2	3	Verdana	1	80	0	0	0	WM Stimuli\	1	1058.6	1	873.3	0.9	1060.33333333333	0.9	751.222222222222	1	1153.3	1	806.5	1	978.4	0.9	965.111111111111	13	316173	2	316161	27	40	316200	-999999	316176	0	23	Cue2BackPROC	""	2	2	2	SessionSelectionList									10	29958	-11	0																																													2												
WM080112	113619_fnca	2	1	1	-1116335783	1	75.032	75.031	2.0.10.147	2.0.10.242	2.0.10.242	1.0.0.439	7	234	2	3	Verdana	1	80	0	0	0	WM Stimuli\	1	1058.6	1	873.3	0.9	1060.33333333333	0.9	751.222222222222	1	1153.3	1	806.5	1	978.4	0.9	965.111111111111	13	316173	2	316161	27	40	316200	-999999	316176	0	24	TrialsPROC	TO_014_TOOL14_BA.png	2	2	3	SessionSelectionList														nonlure	3	Tools	2-Back	2	80	1	0	0	0	1	53	34596	3	13	95	32543	-1	33559	1	1016	3	3	2053	66	34609	-67	0																3												
WM080112	113619_fnca	2	1	1	-1116335783	1	75.032	75.031	2.0.10.147	2.0.10.242	2.0.10.242	1.0.0.439	7	234	2	3	Verdana	1	80	0	0	0	WM Stimuli\	1	1058.6	1	873.3	0.9	1060.33333333333	0.9	751.222222222222	1	1153.3	1	806.5	1	978.4	0.9	965.111111111111	13	316173	2	316161	27	40	316200	-999999	316176	0	24	TrialsPROC	TO_013_TOOL13_BA.png	2	2	4	SessionSelectionList														nonlure	3	Tools	2-Back	3	80	2	0	0	0	2	39	37168	3	14	86	35129	-1	36003	1	874	3	3	2039	53	37182	-54	0																4												
WM080112	113619_fnca	2	1	1	-1116335783	1	75.032	75.031	2.0.10.147	2.0.10.242	2.0.10.242	1.0.0.439	7	234	2	3	Verdana	1	80	0	0	0	WM Stimuli\	1	1058.6	1	873.3	0.9	1060.33333333333	0.9	751.222222222222	1	1153.3	1	806.5	1	978.4	0.9	965.111111111111	13	316173	2	316161	27	40	316200	-999999	316176	0	24	TrialsPROC	TO_016_TOOL16_BA.png	2	2	5	SessionSelectionList														nonlure	3	Tools	2-Back	4	80	3	0	0	0	3	39	39754	1	13	86	37715	-1	38561	1	846	3	3	2039	52	39767	-53	0																5												
WM080112	113619_fnca	2	1	1	-1116335783	1	75.032	75.031	2.0.10.147	2.0.10.242	2.0.10.242	1.0.0.439	7	234	2	3	Verdana	1	80	0	0	0	WM Stimuli\	1	1058.6	1	873.3	0.9	1060.33333333333	0.9	751.222222222222	1	1153.3	1	806.5	1	978.4	0.9	965.111111111111	13	316173	2	316161	27	40	316200	-999999	316176	0	24	TrialsPROC	TO_014_TOOL14_BA.png	2	2	6	SessionSelectionList														lure	3	Tools	2-Back	5	80	4	0	0	0	4	39	42326	2	14	72	40287	-1	41624	1	1337	3	3	2039	53	42340	-54	0																6												
WM080112	113619_fnca	2	1	1	-1116335783	1	75.032	75.031	2.0.10.147	2.0.10.242	2.0.10.242	1.0.0.439	7	234	2	3	Verdana	1	80	0	0	0	WM Stimuli\	1	1058.6	1	873.3	0.9	1060.33333333333	0.9	751.222222222222	1	1153.3	1	806.5	1	978.4	0.9	965.111111111111	13	316173	2	316161	27	40	316200	-999999	316176	0	24	TrialsPROC	TO_016_TOOL16_BA.png	2	2	7	SessionSelectionList														target	2	Tools	2-Back	6	80	5	0	0	0	1	39	44885	1	14	59	42846	-1	43993	1	1147	2	2	2039	53	44899	-54	0																7												
WM080112	113619_fnca	2	1	1	-1116335783	1	75.032	75.031	2.0.10.147	2.0.10.242	2.0.10.242	1.0.0.439	7	234	2	3	Verdana	1	80	0	0	0	WM Stimuli\	1	1058.6	1	873.3	0.9	1060.33333333333	0.9	751.222222222222	1	1153.3	1	806.5	1	978.4	0.9	965.111111111111	13	316173	2	316161	27	40	316200	-999999	316176	0	24	TrialsPROC	TO_018_TOOL18_BA.png	2	2	8	SessionSelectionList														nonlure	3	Tools	2-Back	7	80	6	0	0	0	1	39	47457	2	14	72	45418	-1	46206	1	788	3	3	2039	53	47471	-54	0																8												
WM080112	113619_fnca	2	1	1	-1116335783	1	75.032	75.031	2.0.10.147	2.0.10.242	2.0.10.242	1.0.0.439	7	234	2	3	Verdana	1	80	0	0	0	WM Stimuli\	1	1058.6	1	873.3	0.9	1060.33333333333	0.9	751.222222222222	1	1153.3	1	806.5	1	978.4	0.9	965.111111111111	13	316173	2	316161	27	40	316200	-999999	316176	0	24	TrialsPROC	TO_017_TOOL17_BA.png	2	2	9	SessionSelectionList														nonlure	3	Tools	2-Back	8	80	7	0	0	0	2	39	50043	1	13	86	48004	-1	48659	1	655	3	3	2039	52	50056	-53	0																9												
WM080112	113619_fnca	2	1	1	-1116335783	1	75.032	75.031	2.0.10.147	2.0.10.242	2.0.10.242	1.0.0.439	7	234	2	3	Verdana	1	80	0	0	0	WM Stimuli\	1	1058.6	1	873.3	0.9	1060.33333333333	0.9	751.222222222222	1	1153.3	1	806.5	1	978.4	0.9	965.111111111111	13	316173	2	316161	27	40	316200	-999999	316176	0	24	TrialsPROC	TO_018_TOOL18_BA.png	2	2	10	SessionSelectionList														target	2	Tools	2-Back	9	80	8	0	0	0	1	39	52602	1	13	59	50563	-1	51301	1	738	2	2	2039	52	52615	-53	0																10												
WM080112	113619_fnca	2	1	1	-1116335783	1	75.032	75.031	2.0.10.147	2.0.10.242	2.0.10.242	1.0.0.439	7	234	2	3	Verdana	1	80	0	0	0	WM Stimuli\	1	1058.6	1	873.3	0.9	1060.33333333333	0.9	751.222222222222	1	1153.3	1	806.5	1	978.4	0.9	965.111111111111	13	316173	2	316161	27	40	316200	-999999	316176	0	24	TrialsPROC	TO_015_TOOL15_BA.png	2	2	11	SessionSelectionList														nonlure	3	Tools	2-Back	10	80	9	0	0	0	1	39	55187	2	14	85	53148	-1	54147	1	999	3	3	2039	53	55201	-54	0																11												
WM080112	113619_fnca	2	1	1	-1116335783	1	75.032	75.031	2.0.10.147	2.0.10.242	2.0.10.242	1.0.0.439	7	234	2	3	Verdana	1	80	0	0	0	WM Stimuli\	1	1058.6	1	873.3	0.9	1060.33333333333	0.9	751.222222222222	1	1153.3	1	806.5	1	978.4	0.9	965.111111111111	13	316173	2	316161	27	40	316200	-999999	316176	0	24	TrialsPROC	TO_017_TOOL17_BA.png	2	2	12	SessionSelectionList														lure	3	Tools	2-Back	11	80	10	0	0	0	2	39	57746	2	14	59	55707	-1	57091	1	1384	3	3	2039	53	57760	-54	0																12												
WM080112	113619_fnca	2	1	1	-1116335783	1	75.032	75.031	2.0.10.147	2.0.10.242	2.0.10.242	1.0.0.439	7	234	2	3	Verdana	1	80	0	0	0	WM Stimuli\	1	1058.6	1	873.3	0.9	1060.33333333333	0.9	751.222222222222	1	1153.3	1	806.5	1	978.4	0.9	965.111111111111	13	316173	2	316161	27	40	316200	-999999	316176	0	25	Cue0BackPROC	BP_013_BP7_BA.png	2	2	13	SessionSelectionList																																										33	58240	-34	0												13												
WM080112	113619_fnca	2	1	1	-1116335783	1	75.032	75.031	2.0.10.147	2.0.10.242	2.0.10.242	1.0.0.439	7	234	2	3	Verdana	1	80	0	0	0	WM Stimuli\	1	1058.6	1	873.3	0.9	1060.33333333333	0.9	751.222222222222	1	1153.3	1	806.5	1	978.4	0.9	965.111111111111	13	316173	2	316161	27	40	316200	-999999	316176	0	26	TrialsPROC	BP_015_H10-T_BA.png	2	2	14	SessionSelectionList														nonlure	3	Body	0-Back	12	80	11	0	0	100	3	39	62824	2	14	78	60785	-1	61643	1	858	3	3	2039	53	62838	-54	0																14												
WM080112	113619_fnca	2	1	1	-1116335783	1	75.032	75.031	2.0.10.147	2.0.10.242	2.0.10.242	1.0.0.439	7	234	2	3	Verdana	1	80	0	0	0	WM Stimuli\	1	1058.6	1	873.3	0.9	1060.33333333333	0.9	751.222222222222	1	1153.3	1	806.5	1	978.4	0.9	965.111111111111	13	316173	2	316161	27	40	316200	-999999	316176	0	26	TrialsPROC	BP_018_H13-T_BA.png	2	2	15	SessionSelectionList														nonlure	3	Body	0-Back	13	80	12	0	0	100	4	40	65397	1	13	72	63357	-1	64189	1	832	3	3	2040	53	65410	-54	0																15												
WM080112	113619_fnca	2	1	1	-1116335783	1	75.032	75.031	2.0.10.147	2.0.10.242	2.0.10.242	1.0.0.439	7	234	2	3	Verdana	1	80	0	0	0	WM Stimuli\	1	1058.6	1	873.3	0.9	1060.33333333333	0.9	751.222222222222	1	1153.3	1	806.5	1	978.4	0.9	965.111111111111	13	316173	2	316161	27	40	316200	-999999	316176	0	26	TrialsPROC	BP_014_BP9_BA.png	2	2	16	SessionSelectionList														nonlure	3	Body	0-Back	14	80	13	0	0	100	5	39	67955	2	14	59	65916	-1	67131	1	1215	3	3	2039	53	67969	-54	0																16												
WM080112	113619_fnca	2	1	1	-1116335783	1	75.032	75.031	2.0.10.147	2.0.10.242	2.0.10.242	1.0.0.439	7	234	2	3	Verdana	1	80	0	0	0	WM Stimuli\	1	1058.6	1	873.3	0.9	1060.33333333333	0.9	751.222222222222	1	1153.3	1	806.5	1	978.4	0.9	965.111111111111	13	316173	2	316161	27	40	316200	-999999	316176	0	26	TrialsPROC	BP_018_H13-T_BA.png	2	2	17	SessionSelectionList														lure	3	Body	0-Back	15	80	14	0	0	100	6	39	70514	2	14	59	68475	-1	69602	1	1127	3	3	2039	53	70528	-54	0																17												
WM080112	113619_fnca	2	1	1	-1116335783	1	75.032	75.031	2.0.10.147	2.0.10.242	2.0.10.242	1.0.0.439	7	234	2	3	Verdana	1	80	0	0	0	WM Stimuli\	1	1058.6	1	873.3	0.9	1060.33333333333	0.9	751.222222222222	1	1153.3	1	806.5	1	978.4	0.9	965.111111111111	13	316173	2	316161	27	40	316200	-999999	316176	0	26	TrialsPROC	BP_013_BP7_BA.png	2	2	18	SessionSelectionList														target	2	Body	0-Back	16	80	15	0	0	100	1	38	73073	2	14	60	71035	-1	71922	1	887	2	2	2038	52	73087	-53	0																18												
WM080112	113619_fnca	2	1	1	-1116335783	1	75.032	75.031	2.0.10.147	2.0.10.242	2.0.10.242	1.0.0.439	7	234	2	3	Verdana	1	80	0	0	0	WM Stimuli\	1	1058.6	1	873.3	0.9	1060.33333333333	0.9	751.222222222222	1	1153.3	1	806.5	1	978.4	0.9	965.111111111111	13	316173	2	316161	27	40	316200	-999999	316176	0	26	TrialsPROC	BP_015_H10-T_BA.png	2	2	19	SessionSelectionList														lure	3	Body	0-Back	17	80	16	0	0	100	1	39	75632	2	14	58	73593	-1	74409	1	816	3	3	2039	53	75646	-54	0																19												
WM080112	113619_fnca	2	1	1	-1116335783	1	75.032	75.031	2.0.10.147	2.0.10.242	2.0.10.242	1.0.0.439	7	234	2	3	Verdana	1	80	0	0	0	WM Stimuli\	1	1058.6	1	873.3	0.9	1060.33333333333	0.9	751.222222222222	1	1153.3	1	806.5	1	978.4	0.9	965.111111111111	13	316173	2	316161	27	40	316200	-999999	316176	0	26	TrialsPROC	BP_016_H11-T_BA.png	2	2	20	SessionSelectionList														nonlure	3	Body	0-Back	18	80	17	0	0	100	2	39	78218	1	13	86	76179	-1	76917	1	738	3	3	2039	52	78231	-53	0																20												
WM080112	113619_fnca	2	1	1	-1116335783	1	75.032	75.031	2.0.10.147	2.0.10.242	2.0.10.242	1.0.0.439	7	234	2	3	Verdana	1	80	0	0	0	WM Stimuli\	1	1058.6	1	873.3	0.9	1060.33333333333	0.9	751.222222222222	1	1153.3	1	806.5	1	978.4	0.9	965.111111111111	13	316173	2	316161	27	40	316200	-999999	316176	0	26	TrialsPROC	BP_013_BP7_BA.png	2	2	21	SessionSelectionList														target	2	Body	0-Back	19	80	18	0	0	100	1	39	80790	2	14	72	78751	-1	79730	1	979	2	2	2039	53	80804	-54	0																21												
WM080112	113619_fnca	2	1	1	-1116335783	1	75.032	75.031	2.0.10.147	2.0.10.242	2.0.10.242	1.0.0.439	7	234	2	3	Verdana	1	80	0	0	0	WM Stimuli\	1	1058.6	1	873.3	0.9	1060.33333333333	0.9	751.222222222222	1	1153.3	1	806.5	1	978.4	0.9	965.111111111111	13	316173	2	316161	27	40	316200	-999999	316176	0	26	TrialsPROC	BP_017_H12-T_BA.png	2	2	22	SessionSelectionList														nonlure	3	Body	0-Back	20	80	19	0	0	100	1	39	83376	1	13	86	81337	-1	82122	1	785	3	3	2039	52	83389	-53	0																22												
WM080112	113619_fnca	2	1	1	-1116335783	1	75.032	75.031	2.0.10.147	2.0.10.242	2.0.10.242	1.0.0.439	7	234	2	3	Verdana	1	80	0	0	0	WM Stimuli\	1	1058.6	1	873.3	0.9	1060.33333333333	0.9	751.222222222222	1	1153.3	1	806.5	1	978.4	0.9	965.111111111111	13	316173	2	316161	27	40	316200	-999999	316176	0	26	TrialsPROC	BP_014_BP9_BA.png	2	2	23	SessionSelectionList														lure	3	Body	0-Back	21	80	20	0	0	100	2	39	85935	1	13	59	83896	-1	84392	1	496	3	3	2039	52	85948	-53	0																23												
WM080112	113619_fnca	2	1	1	-1116335783	1	75.032	75.031	2.0.10.147	2.0.10.242	2.0.10.242	1.0.0.439	7	234	2	3	Verdana	1	80	0	0	0	WM Stimuli\	1	1058.6	1	873.3	0.9	1060.33333333333	0.9	751.222222222222	1	1153.3	1	806.5	1	978.4	0.9	965.111111111111	13	316173	2	316161	27	40	316200	-999999	316176	0	27	Fix15secPROC	""	2	2	24	SessionSelectionList																																															5	86401	-6	0							24												
WM080112	113619_fnca	2	1	1	-1116335783	1	75.032	75.031	2.0.10.147	2.0.10.242	2.0.10.242	1.0.0.439	7	234	2	3	Verdana	1	80	0	0	0	WM Stimuli\	1	1058.6	1	873.3	0.9	1060.33333333333	0.9	751.222222222222	1	1153.3	1	806.5	1	978.4	0.9	965.111111111111	13	316173	2	316161	27	40	316200	-999999	316176	0	28	Cue2BackPROC	""	2	2	25	SessionSelectionList									12	101408	-13	0																																													25												
WM080112	113619_fnca	2	1	1	-1116335783	1	75.032	75.031	2.0.10.147	2.0.10.242	2.0.10.242	1.0.0.439	7	234	2	3	Verdana	1	80	0	0	0	WM Stimuli\	1	1058.6	1	873.3	0.9	1060.33333333333	0.9	751.222222222222	1	1153.3	1	806.5	1	978.4	0.9	965.111111111111	13	316173	2	316161	27	40	316200	-999999	316176	0	29	TrialsPROC	FC_015_M8.png	2	2	26	SessionSelectionList														nonlure	3	Face	2-Back	22	80	21	0	0	100	3	39	106033	1	14	98	103994	-1	104959	1	965	3	3	2039	53	106047	-54	0																26												
WM080112	113619_fnca	2	1	1	-1116335783	1	75.032	75.031	2.0.10.147	2.0.10.242	2.0.10.242	1.0.0.439	7	234	2	3	Verdana	1	80	0	0	0	WM Stimuli\	1	1058.6	1	873.3	0.9	1060.33333333333	0.9	751.222222222222	1	1153.3	1	806.5	1	978.4	0.9	965.111111111111	13	316173	2	316161	27	40	316200	-999999	316176	0	29	TrialsPROC	FC_018_F9.png	2	2	27	SessionSelectionList														nonlure	3	Face	2-Back	23	80	22	0	0	100	4	39	108619	1	13	86	106580	-1	107447	1	867	3	3	2039	52	108632	-53	0																27												
WM080112	113619_fnca	2	1	1	-1116335783	1	75.032	75.031	2.0.10.147	2.0.10.242	2.0.10.242	1.0.0.439	7	234	2	3	Verdana	1	80	0	0	0	WM Stimuli\	1	1058.6	1	873.3	0.9	1060.33333333333	0.9	751.222222222222	1	1153.3	1	806.5	1	978.4	0.9	965.111111111111	13	316173	2	316161	27	40	316200	-999999	316176	0	29	TrialsPROC	FC_018_F9.png	2	2	28	SessionSelectionList														lure	3	Face	2-Back	24	80	23	0	0	100	5	39	111191	1	13	72	109152	-1	110832	1	1680	3	3	2039	52	111204	-53	0																28												
WM080112	113619_fnca	2	1	1	-1116335783	1	75.032	75.031	2.0.10.147	2.0.10.242	2.0.10.242	1.0.0.439	7	234	2	3	Verdana	1	80	0	0	0	WM Stimuli\	1	1058.6	1	873.3	0.9	1060.33333333333	0.9	751.222222222222	1	1153.3	1	806.5	1	978.4	0.9	965.111111111111	13	316173	2	316161	27	40	316200	-999999	316176	0	29	TrialsPROC	FC_017_M9.png	2	2	29	SessionSelectionList														nonlure	3	Face	2-Back	25	80	24	0	0	100	6	40	113777	1	13	85	111737	-1	112980	1	1243	3	3	2040	53	113790	-54	0																29												
WM080112	113619_fnca	2	1	1	-1116335783	1	75.032	75.031	2.0.10.147	2.0.10.242	2.0.10.242	1.0.0.439	7	234	2	3	Verdana	1	80	0	0	0	WM Stimuli\	1	1058.6	1	873.3	0.9	1060.33333333333	0.9	751.222222222222	1	1153.3	1	806.5	1	978.4	0.9	965.111111111111	13	316173	2	316161	27	40	316200	-999999	316176	0	29	TrialsPROC	FC_017_M9.png	2	2	30	SessionSelectionList														lure	3	Face	2-Back	26	80	25	0	0	100	7	39	116349	1	13	73	114310	-1	115227	1	917	3	3	2039	52	116362	-53	0																30												
WM080112	113619_fnca	2	1	1	-1116335783	1	75.032	75.031	2.0.10.147	2.0.10.242	2.0.10.242	1.0.0.439	7	234	2	3	Verdana	1	80	0	0	0	WM Stimuli\	1	1058.6	1	873.3	0.9	1060.33333333333	0.9	751.222222222222	1	1153.3	1	806.5	1	978.4	0.9	965.111111111111	13	316173	2	316161	27	40	316200	-999999	316176	0	29	TrialsPROC	FC_016_F8.png	2	2	31	SessionSelectionList														nonlure	3	Face	2-Back	27	80	26	0	0	100	8	39	118934	2	14	85	116895	-1	118092	1	1197	3	3	2039	53	118948	-54	0																31												
WM080112	113619_fnca	2	1	1	-1116335783	1	75.032	75.031	2.0.10.147	2.0.10.242	2.0.10.242	1.0.0.439	7	234	2	3	Verdana	1	80	0	0	0	WM Stimuli\	1	1058.6	1	873.3	0.9	1060.33333333333	0.9	751.222222222222	1	1153.3	1	806.5	1	978.4	0.9	965.111111111111	13	316173	2	316161	27	40	316200	-999999	316176	0	29	TrialsPROC	FC_013_M7.png	2	2	32	SessionSelectionList														nonlure	3	Face	2-Back	28	80	27	0	0	100	9	39	121520	1	13	86	119481	-1	120246	1	765	3	3	2039	52	121533	-53	0																32												
WM080112	113619_fnca	2	1	1	-1116335783	1	75.032	75.031	2.0.10.147	2.0.10.242	2.0.10.242	1.0.0.439	7	234	2	3	Verdana	1	80	0	0	0	WM Stimuli\	1	1058.6	1	873.3	0.9	1060.33333333333	0.9	751.222222222222	1	1153.3	1	806.5	1	978.4	0.9	965.111111111111	13	316173	2	316161	27	40	316200	-999999	316176	0	29	TrialsPROC	FC_014_F7.png	2	2	33	SessionSelectionList														nonlure	3	Face	2-Back	29	80	28	0	0	100	10	39	124119	1	13	99	122080	-1	122879	1	799	3	3	2039	52	124132	-53	0																33												
WM080112	113619_fnca	2	1	1	-1116335783	1	75.032	75.031	2.0.10.147	2.0.10.242	2.0.10.242	1.0.0.439	7	234	2	3	Verdana	1	80	0	0	0	WM Stimuli\	1	1058.6	1	873.3	0.9	1060.33333333333	0.9	751.222222222222	1	1153.3	1	806.5	1	978.4	0.9	965.111111111111	13	316173	2	316161	27	40	316200	-999999	316176	0	29	TrialsPROC	FC_013_M7.png	2	2	34	SessionSelectionList														target	2	Face	2-Back	30	80	29	0	0	100	1	39	126691	2	14	72	124652	-1	125762	1	1110	2	2	2039	53	126705	-54	0																34												
WM080112	113619_fnca	2	1	1	-1116335783	1	75.032	75.031	2.0.10.147	2.0.10.242	2.0.10.242	1.0.0.439	7	234	2	3	Verdana	1	80	0	0	0	WM Stimuli\	1	1058.6	1	873.3	0.9	1060.33333333333	0.9	751.222222222222	1	1153.3	1	806.5	1	978.4	0.9	965.111111111111	13	316173	2	316161	27	40	316200	-999999	316176	0	29	TrialsPROC	FC_014_F7.png	2	2	35	SessionSelectionList														target	2	Face	2-Back	31	80	30	0	0	100	1	39	129263	2	14	72	127224	-1	128557	0	1333	3	2	2039	53	129277	-54	0																35												
WM080112	113619_fnca	2	1	1	-1116335783	1	75.032	75.031	2.0.10.147	2.0.10.242	2.0.10.242	1.0.0.439	7	234	2	3	Verdana	1	80	0	0	0	WM Stimuli\	1	1058.6	1	873.3	0.9	1060.33333333333	0.9	751.222222222222	1	1153.3	1	806.5	1	978.4	0.9	965.111111111111	13	316173	2	316161	27	40	316200	-999999	316176	0	30	Cue0BackPROC	TO_019_TOOL19_BA.png	2	2	36	SessionSelectionList																																										46	129770	-47	0												36												
WM080112	113619_fnca	2	1	1	-1116335783	1	75.032	75.031	2.0.10.147	2.0.10.242	2.0.10.242	1.0.0.439	7	234	2	3	Verdana	1	80	0	0	0	WM Stimuli\	1	1058.6	1	873.3	0.9	1060.33333333333	0.9	751.222222222222	1	1153.3	1	806.5	1	978.4	0.9	965.111111111111	13	316173	2	316161	27	40	316200	-999999	316176	0	31	TrialsPROC	TO_019_TOOL19_BA.png	2	2	37	SessionSelectionList														target	2	Tools	0-Back	32	80	31	0	0	91	2	39	134315	1	13	52	132276	-1	133626	0	1350	3	2	2039	52	134328	-53	0																37												
WM080112	113619_fnca	2	1	1	-1116335783	1	75.032	75.031	2.0.10.147	2.0.10.242	2.0.10.242	1.0.0.439	7	234	2	3	Verdana	1	80	0	0	0	WM Stimuli\	1	1058.6	1	873.3	0.9	1060.33333333333	0.9	751.222222222222	1	1153.3	1	806.5	1	978.4	0.9	965.111111111111	13	316173	2	316161	27	40	316200	-999999	316176	0	31	TrialsPROC	TO_024_TOOL24_BA.png	2	2	38	SessionSelectionList														nonlure	3	Tools	0-Back	33	80	32	0	0	92	3	39	136900	2	14	85	134861	-1	135654	1	793	3	3	2039	53	136914	-54	0																38												
WM080112	113619_fnca	2	1	1	-1116335783	1	75.032	75.031	2.0.10.147	2.0.10.242	2.0.10.242	1.0.0.439	7	234	2	3	Verdana	1	80	0	0	0	WM Stimuli\	1	1058.6	1	873.3	0.9	1060.33333333333	0.9	751.222222222222	1	1153.3	1	806.5	1	978.4	0.9	965.111111111111	13	316173	2	316161	27	40	316200	-999999	316176	0	31	TrialsPROC	TO_019_TOOL19_BA.png	2	2	39	SessionSelectionList														target	2	Tools	0-Back	34	80	33	0	0	92	1	39	139459	2	14	59	137420	-1	138959	1	1539	2	2	2039	53	139473	-54	0																39												
WM080112	113619_fnca	2	1	1	-1116335783	1	75.032	75.031	2.0.10.147	2.0.10.242	2.0.10.242	1.0.0.439	7	234	2	3	Verdana	1	80	0	0	0	WM Stimuli\	1	1058.6	1	873.3	0.9	1060.33333333333	0.9	751.222222222222	1	1153.3	1	806.5	1	978.4	0.9	965.111111111111	13	316173	2	316161	27	40	316200	-999999	316176	0	31	TrialsPROC	TO_023_TOOL23_BA.png	2	2	40	SessionSelectionList														nonlure	3	Tools	0-Back	35	80	34	0	0	93	1	39	142058	2	14	99	140019	-1	141136	1	1117	3	3	2039	53	142072	-54	0																40												
WM080112	113619_fnca	2	1	1	-1116335783	1	75.032	75.031	2.0.10.147	2.0.10.242	2.0.10.242	1.0.0.439	7	234	2	3	Verdana	1	80	0	0	0	WM Stimuli\	1	1058.6	1	873.3	0.9	1060.33333333333	0.9	751.222222222222	1	1153.3	1	806.5	1	978.4	0.9	965.111111111111	13	316173	2	316161	27	40	316200	-999999	316176	0	31	TrialsPROC	TO_020_TOOL20_BA.png	2	2	41	SessionSelectionList														nonlure	3	Tools	0-Back	36	80	35	0	0	93	2	39	144644	1	13	86	142605	-1	143368	1	763	3	3	2039	52	144657	-53	0																41												
WM080112	113619_fnca	2	1	1	-1116335783	1	75.032	75.031	2.0.10.147	2.0.10.242	2.0.10.242	1.0.0.439	7	234	2	3	Verdana	1	80	0	0	0	WM Stimuli\	1	1058.6	1	873.3	0.9	1060.33333333333	0.9	751.222222222222	1	1153.3	1	806.5	1	978.4	0.9	965.111111111111	13	316173	2	316161	27	40	316200	-999999	316176	0	31	TrialsPROC	TO_020_TOOL20_BA.png	2	2	42	SessionSelectionList														lure	3	Tools	0-Back	37	80	36	0	0	94	3	39	147203	1	13	59	145164	-1	146025	1	861	3	3	2039	52	147216	-53	0																42												
WM080112	113619_fnca	2	1	1	-1116335783	1	75.032	75.031	2.0.10.147	2.0.10.242	2.0.10.242	1.0.0.439	7	234	2	3	Verdana	1	80	0	0	0	WM Stimuli\	1	1058.6	1	873.3	0.9	1060.33333333333	0.9	751.222222222222	1	1153.3	1	806.5	1	978.4	0.9	965.111111111111	13	316173	2	316161	27	40	316200	-999999	316176	0	31	TrialsPROC	TO_022_TOOL22_BA.png	2	2	43	SessionSelectionList														nonlure	3	Tools	0-Back	38	80	37	0	0	94	4	39	149788	2	14	85	147749	-1	148625	1	876	3	3	2039	53	149802	-54	0																43												
WM080112	113619_fnca	2	1	1	-1116335783	1	75.032	75.031	2.0.10.147	2.0.10.242	2.0.10.242	1.0.0.439	7	234	2	3	Verdana	1	80	0	0	0	WM Stimuli\	1	1058.6	1	873.3	0.9	1060.33333333333	0.9	751.222222222222	1	1153.3	1	806.5	1	978.4	0.9	965.111111111111	13	316173	2	316161	27	40	316200	-999999	316176	0	31	TrialsPROC	TO_022_TOOL22_BA.png	2	2	44	SessionSelectionList														lure	3	Tools	0-Back	39	80	38	0	0	94	5	39	152347	2	14	59	150308	-1	151085	1	777	3	3	2039	53	152361	-54	0																44												
WM080112	113619_fnca	2	1	1	-1116335783	1	75.032	75.031	2.0.10.147	2.0.10.242	2.0.10.242	1.0.0.439	7	234	2	3	Verdana	1	80	0	0	0	WM Stimuli\	1	1058.6	1	873.3	0.9	1060.33333333333	0.9	751.222222222222	1	1153.3	1	806.5	1	978.4	0.9	965.111111111111	13	316173	2	316161	27	40	316200	-999999	316176	0	31	TrialsPROC	TO_021_TOOL21_BA.png	2	2	45	SessionSelectionList														nonlure	3	Tools	0-Back	40	80	39	0	0	95	6	40	154920	1	13	72	152880	-1	153947	1	1067	3	3	2040	53	154933	-54	0																45												
WM080112	113619_fnca	2	1	1	-1116335783	1	75.032	75.031	2.0.10.147	2.0.10.242	2.0.10.242	1.0.0.439	7	234	2	3	Verdana	1	80	0	0	0	WM Stimuli\	1	1058.6	1	873.3	0.9	1060.33333333333	0.9	751.222222222222	1	1153.3	1	806.5	1	978.4	0.9	965.111111111111	13	316173	2	316161	27	40	316200	-999999	316176	0	31	TrialsPROC	TO_021_TOOL21_BA.png	2	2	46	SessionSelectionList														lure	3	Tools	0-Back	41	80	40	0	0	95	7	39	157478	2	14	59	155439	-1	156332	1	893	3	3	2039	53	157492	-54	0																46												
WM080112	113619_fnca	2	1	1	-1116335783	1	75.032	75.031	2.0.10.147	2.0.10.242	2.0.10.242	1.0.0.439	7	234	2	3	Verdana	1	80	0	0	0	WM Stimuli\	1	1058.6	1	873.3	0.9	1060.33333333333	0.9	751.222222222222	1	1153.3	1	806.5	1	978.4	0.9	965.111111111111	13	316173	2	316161	27	40	316200	-999999	316176	0	32	Fix15secPROC	""	2	2	47	SessionSelectionList																																															6	157945	-7	0							47												
WM080112	113619_fnca	2	1	1	-1116335783	1	75.032	75.031	2.0.10.147	2.0.10.242	2.0.10.242	1.0.0.439	7	234	2	3	Verdana	1	80	0	0	0	WM Stimuli\	1	1058.6	1	873.3	0.9	1060.33333333333	0.9	751.222222222222	1	1153.3	1	806.5	1	978.4	0.9	965.111111111111	13	316173	2	316161	27	40	316200	-999999	316176	0	33	Cue2BackPROC	""	2	2	48	SessionSelectionList									13	172952	-14	0																																													48												
WM080112	113619_fnca	2	1	1	-1116335783	1	75.032	75.031	2.0.10.147	2.0.10.242	2.0.10.242	1.0.0.439	7	234	2	3	Verdana	1	80	0	0	0	WM Stimuli\	1	1058.6	1	873.3	0.9	1060.33333333333	0.9	751.222222222222	1	1153.3	1	806.5	1	978.4	0.9	965.111111111111	13	316173	2	316161	27	40	316200	-999999	316176	0	34	TrialsPROC	BP_020_H17-T_BA.png	2	2	49	SessionSelectionList														nonlure	3	Body	2-Back	42	80	41	0	0	95	8	40	177564	1	13	85	175524	-1	176575	1	1051	3	3	2040	53	177577	-54	0																49												
WM080112	113619_fnca	2	1	1	-1116335783	1	75.032	75.031	2.0.10.147	2.0.10.242	2.0.10.242	1.0.0.439	7	234	2	3	Verdana	1	80	0	0	0	WM Stimuli\	1	1058.6	1	873.3	0.9	1060.33333333333	0.9	751.222222222222	1	1153.3	1	806.5	1	978.4	0.9	965.111111111111	13	316173	2	316161	27	40	316200	-999999	316176	0	34	TrialsPROC	BP_019_H14-T_BA.png	2	2	50	SessionSelectionList														nonlure	3	Body	2-Back	43	80	42	0	0	95	9	39	180149	1	14	86	178110	-1	178913	1	803	3	3	2039	53	180163	-54	0																50												
WM080112	113619_fnca	2	1	1	-1116335783	1	75.032	75.031	2.0.10.147	2.0.10.242	2.0.10.242	1.0.0.439	7	234	2	3	Verdana	1	80	0	0	0	WM Stimuli\	1	1058.6	1	873.3	0.9	1060.33333333333	0.9	751.222222222222	1	1153.3	1	806.5	1	978.4	0.9	965.111111111111	13	316173	2	316161	27	40	316200	-999999	316176	0	34	TrialsPROC	BP_020_H17-T_BA.png	2	2	51	SessionSelectionList														target	2	Body	2-Back	44	80	43	0	0	95	1	39	182708	1	13	59	180669	-1	181382	1	713	2	2	2039	52	182721	-53	0																51												
WM080112	113619_fnca	2	1	1	-1116335783	1	75.032	75.031	2.0.10.147	2.0.10.242	2.0.10.242	1.0.0.439	7	234	2	3	Verdana	1	80	0	0	0	WM Stimuli\	1	1058.6	1	873.3	0.9	1060.33333333333	0.9	751.222222222222	1	1153.3	1	806.5	1	978.4	0.9	965.111111111111	13	316173	2	316161	27	40	316200	-999999	316176	0	34	TrialsPROC	BP_019_H14-T_BA.png	2	2	52	SessionSelectionList														target	2	Body	2-Back	45	80	44	0	0	95	2	39	185267	1	13	59	183228	-1	183954	1	726	2	2	2039	52	185280	-53	0																52												
WM080112	113619_fnca	2	1	1	-1116335783	1	75.032	75.031	2.0.10.147	2.0.10.242	2.0.10.242	1.0.0.439	7	234	2	3	Verdana	1	80	0	0	0	WM Stimuli\	1	1058.6	1	873.3	0.9	1060.33333333333	0.9	751.222222222222	1	1153.3	1	806.5	1	978.4	0.9	965.111111111111	13	316173	2	316161	27	40	316200	-999999	316176	0	34	TrialsPROC	BP_024_H3-T_BA.png	2	2	53	SessionSelectionList														nonlure	3	Body	2-Back	46	80	45	0	0	95	1	40	187853	1	13	85	185813	-1	187127	1	1314	3	3	2040	53	187866	-54	0																53												
WM080112	113619_fnca	2	1	1	-1116335783	1	75.032	75.031	2.0.10.147	2.0.10.242	2.0.10.242	1.0.0.439	7	234	2	3	Verdana	1	80	0	0	0	WM Stimuli\	1	1058.6	1	873.3	0.9	1060.33333333333	0.9	751.222222222222	1	1153.3	1	806.5	1	978.4	0.9	965.111111111111	13	316173	2	316161	27	40	316200	-999999	316176	0	34	TrialsPROC	BP_024_H3-T_BA.png	2	2	54	SessionSelectionList														lure	3	Body	2-Back	47	80	46	0	0	95	2	39	190412	1	13	60	188373	-1	189279	1	906	3	3	2039	52	190425	-53	0																54												
WM080112	113619_fnca	2	1	1	-1116335783	1	75.032	75.031	2.0.10.147	2.0.10.242	2.0.10.242	1.0.0.439	7	234	2	3	Verdana	1	80	0	0	0	WM Stimuli\	1	1058.6	1	873.3	0.9	1060.33333333333	0.9	751.222222222222	1	1153.3	1	806.5	1	978.4	0.9	965.111111111111	13	316173	2	316161	27	40	316200	-999999	316176	0	34	TrialsPROC	BP_025_H5-T_BA.png	2	2	55	SessionSelectionList														nonlure	3	Body	2-Back	48	80	47	0	0	95	3	39	192997	2	14	85	190958	-1	192485	1	1527	3	3	2039	53	193011	-54	0																55												
WM080112	113619_fnca	2	1	1	-1116335783	1	75.032	75.031	2.0.10.147	2.0.10.242	2.0.10.242	1.0.0.439	7	234	2	3	Verdana	1	80	0	0	0	WM Stimuli\	1	1058.6	1	873.3	0.9	1060.33333333333	0.9	751.222222222222	1	1153.3	1	806.5	1	978.4	0.9	965.111111111111	13	316173	2	316161	27	40	316200	-999999	316176	0	34	TrialsPROC	BP_023_H25-T_BA.png	2	2	56	SessionSelectionList														nonlure	3	Body	2-Back	49	80	48	0	0	95	4	39	195583	1	13	86	193544	-1	194677	1	1133	3	3	2039	52	195596	-53	0																56												
WM080112	113619_fnca	2	1	1	-1116335783	1	75.032	75.031	2.0.10.147	2.0.10.242	2.0.10.242	1.0.0.439	7	234	2	3	Verdana	1	80	0	0	0	WM Stimuli\	1	1058.6	1	873.3	0.9	1060.33333333333	0.9	751.222222222222	1	1153.3	1	806.5	1	978.4	0.9	965.111111111111	13	316173	2	316161	27	40	316200	-999999	316176	0	34	TrialsPROC	BP_022_H24-T_BA.png	2	2	57	SessionSelectionList														nonlure	3	Body	2-Back	50	80	49	0	0	95	5	39	198168	2	14	85	196129	-1	196811	1	682	3	3	2039	53	198182	-54	0																57												
WM080112	113619_fnca	2	1	1	-1116335783	1	75.032	75.031	2.0.10.147	2.0.10.242	2.0.10.242	1.0.0.439	7	234	2	3	Verdana	1	80	0	0	0	WM Stimuli\	1	1058.6	1	873.3	0.9	1060.33333333333	0.9	751.222222222222	1	1153.3	1	806.5	1	978.4	0.9	965.111111111111	13	316173	2	316161	27	40	316200	-999999	316176	0	34	TrialsPROC	BP_022_H24-T_BA.png	2	2	58	SessionSelectionList														lure	3	Body	2-Back	51	80	50	0	0	95	6	39	200727	2	14	59	198688	-1	200419	1	1731	3	3	2039	53	200741	-54	0																58												
WM080112	113619_fnca	2	1	1	-1116335783	1	75.032	75.031	2.0.10.147	2.0.10.242	2.0.10.242	1.0.0.439	7	234	2	3	Verdana	1	80	0	0	0	WM Stimuli\	1	1058.6	1	873.3	0.9	1060.33333333333	0.9	751.222222222222	1	1153.3	1	806.5	1	978.4	0.9	965.111111111111	13	316173	2	316161	27	40	316200	-999999	316176	0	35	Cue2BackPROC	""	2	2	59	SessionSelectionList									6	201194	-7	0																																													59												
WM080112	113619_fnca	2	1	1	-1116335783	1	75.032	75.031	2.0.10.147	2.0.10.242	2.0.10.242	1.0.0.439	7	234	2	3	Verdana	1	80	0	0	0	WM Stimuli\	1	1058.6	1	873.3	0.9	1060.33333333333	0.9	751.222222222222	1	1153.3	1	806.5	1	978.4	0.9	965.111111111111	13	316173	2	316161	27	40	316200	-999999	316176	0	36	TrialsPROC	PL_019_SCENE_05.png	2	2	60	SessionSelectionList														nonlure	3	Place	2-Back	52	80	51	0	0	95	7	39	205818	2	14	91	203779	-1	205164	1	1385	3	3	2039	53	205832	-54	0																60												
WM080112	113619_fnca	2	1	1	-1116335783	1	75.032	75.031	2.0.10.147	2.0.10.242	2.0.10.242	1.0.0.439	7	234	2	3	Verdana	1	80	0	0	0	WM Stimuli\	1	1058.6	1	873.3	0.9	1060.33333333333	0.9	751.222222222222	1	1153.3	1	806.5	1	978.4	0.9	965.111111111111	13	316173	2	316161	27	40	316200	-999999	316176	0	36	TrialsPROC	PL_017_SCENE_03.png	2	2	61	SessionSelectionList														nonlure	3	Place	2-Back	53	80	52	0	0	95	8	39	208417	2	14	99	206378	-1	207887	1	1509	3	3	2039	53	208431	-54	0																61												
WM080112	113619_fnca	2	1	1	-1116335783	1	75.032	75.031	2.0.10.147	2.0.10.242	2.0.10.242	1.0.0.439	7	234	2	3	Verdana	1	80	0	0	0	WM Stimuli\	1	1058.6	1	873.3	0.9	1060.33333333333	0.9	751.222222222222	1	1153.3	1	806.5	1	978.4	0.9	965.111111111111	13	316173	2	316161	27	40	316200	-999999	316176	0	36	TrialsPROC	PL_017_SCENE_03.png	2	2	62	SessionSelectionList														lure	3	Place	2-Back	54	80	53	0	0	95	9	39	210990	1	13	73	208951	-1	210310	1	1359	3	3	2039	52	211003	-53	0																62												
WM080112	113619_fnca	2	1	1	-1116335783	1	75.032	75.031	2.0.10.147	2.0.10.242	2.0.10.242	1.0.0.439	7	234	2	3	Verdana	1	80	0	0	0	WM Stimuli\	1	1058.6	1	873.3	0.9	1060.33333333333	0.9	751.222222222222	1	1153.3	1	806.5	1	978.4	0.9	965.111111111111	13	316173	2	316161	27	40	316200	-999999	316176	0	36	TrialsPROC	PL_016_SCENE_02.png	2	2	63	SessionSelectionList														nonlure	3	Place	2-Back	55	80	54	0	0	95	10	40	213589	1	13	98	211549	-1	212480	1	931	3	3	2040	53	213602	-54	0																63												
WM080112	113619_fnca	2	1	1	-1116335783	1	75.032	75.031	2.0.10.147	2.0.10.242	2.0.10.242	1.0.0.439	7	234	2	3	Verdana	1	80	0	0	0	WM Stimuli\	1	1058.6	1	873.3	0.9	1060.33333333333	0.9	751.222222222222	1	1153.3	1	806.5	1	978.4	0.9	965.111111111111	13	316173	2	316161	27	40	316200	-999999	316176	0	36	TrialsPROC	PL_015_SCENE_01.png	2	2	64	SessionSelectionList														nonlure	3	Place	2-Back	56	80	55	0	0	95	11	40	216188	1	13	99	214148	-1	215269	1	1121	3	3	2040	53	216201	-54	0																64												
WM080112	113619_fnca	2	1	1	-1116335783	1	75.032	75.031	2.0.10.147	2.0.10.242	2.0.10.242	1.0.0.439	7	234	2	3	Verdana	1	80	0	0	0	WM Stimuli\	1	1058.6	1	873.3	0.9	1060.33333333333	0.9	751.222222222222	1	1153.3	1	806.5	1	978.4	0.9	965.111111111111	13	316173	2	316161	27	40	316200	-999999	316176	0	36	TrialsPROC	PL_016_SCENE_02.png	2	2	65	SessionSelectionList														target	2	Place	2-Back	57	80	56	0	0	95	1	39	218760	1	13	73	216721	-1	217888	1	1167	2	2	2039	52	218773	-53	0																65												
WM080112	113619_fnca	2	1	1	-1116335783	1	75.032	75.031	2.0.10.147	2.0.10.242	2.0.10.242	1.0.0.439	7	234	2	3	Verdana	1	80	0	0	0	WM Stimuli\	1	1058.6	1	873.3	0.9	1060.33333333333	0.9	751.222222222222	1	1153.3	1	806.5	1	978.4	0.9	965.111111111111	13	316173	2	316161	27	40	316200	-999999	316176	0	36	TrialsPROC	PL_015_SCENE_01.png	2	2	66	SessionSelectionList														target	2	Place	2-Back	58	80	57	0	0	95	2	39	221332	2	14	72	219293	-1	220652	1	1359	2	2	2039	53	221346	-54	0																66												
WM080112	113619_fnca	2	1	1	-1116335783	1	75.032	75.031	2.0.10.147	2.0.10.242	2.0.10.242	1.0.0.439	7	234	2	3	Verdana	1	80	0	0	0	WM Stimuli\	1	1058.6	1	873.3	0.9	1060.33333333333	0.9	751.222222222222	1	1153.3	1	806.5	1	978.4	0.9	965.111111111111	13	316173	2	316161	27	40	316200	-999999	316176	0	36	TrialsPROC	PL_020_SCENE_06.png	2	2	67	SessionSelectionList														nonlure	3	Place	2-Back	59	80	58	0	0	95	1	39	223931	1	13	99	221892	-1	222601	1	709	3	3	2039	52	223944	-53	0																67												
WM080112	113619_fnca	2	1	1	-1116335783	1	75.032	75.031	2.0.10.147	2.0.10.242	2.0.10.242	1.0.0.439	7	234	2	3	Verdana	1	80	0	0	0	WM Stimuli\	1	1058.6	1	873.3	0.9	1060.33333333333	0.9	751.222222222222	1	1153.3	1	806.5	1	978.4	0.9	965.111111111111	13	316173	2	316161	27	40	316200	-999999	316176	0	36	TrialsPROC	PL_020_SCENE_06.png	2	2	68	SessionSelectionList														lure	3	Place	2-Back	60	80	59	0	0	95	2	39	226503	2	14	72	224464	-1	225395	1	931	3	3	2039	53	226517	-54	0																68												
WM080112	113619_fnca	2	1	1	-1116335783	1	75.032	75.031	2.0.10.147	2.0.10.242	2.0.10.242	1.0.0.439	7	234	2	3	Verdana	1	80	0	0	0	WM Stimuli\	1	1058.6	1	873.3	0.9	1060.33333333333	0.9	751.222222222222	1	1153.3	1	806.5	1	978.4	0.9	965.111111111111	13	316173	2	316161	27	40	316200	-999999	316176	0	36	TrialsPROC	PL_018_SCENE_04.png	2	2	69	SessionSelectionList														nonlure	3	Place	2-Back	61	80	60	0	0	95	3	39	229102	2	14	99	227063	-1	228125	1	1062	3	3	2039	53	229116	-54	0																69												
WM080112	113619_fnca	2	1	1	-1116335783	1	75.032	75.031	2.0.10.147	2.0.10.242	2.0.10.242	1.0.0.439	7	234	2	3	Verdana	1	80	0	0	0	WM Stimuli\	1	1058.6	1	873.3	0.9	1060.33333333333	0.9	751.222222222222	1	1153.3	1	806.5	1	978.4	0.9	965.111111111111	13	316173	2	316161	27	40	316200	-999999	316176	0	37	Fix15secPROC	""	2	2	70	SessionSelectionList																																															6	229569	-7	0							70												
WM080112	113619_fnca	2	1	1	-1116335783	1	75.032	75.031	2.0.10.147	2.0.10.242	2.0.10.242	1.0.0.439	7	234	2	3	Verdana	1	80	0	0	0	WM Stimuli\	1	1058.6	1	873.3	0.9	1060.33333333333	0.9	751.222222222222	1	1153.3	1	806.5	1	978.4	0.9	965.111111111111	13	316173	2	316161	27	40	316200	-999999	316176	0	38	Cue0BackPROC	FC_020_F10.png	2	2	71	SessionSelectionList																																										39	244602	-40	0												71												
WM080112	113619_fnca	2	1	1	-1116335783	1	75.032	75.031	2.0.10.147	2.0.10.242	2.0.10.242	1.0.0.439	7	234	2	3	Verdana	1	80	0	0	0	WM Stimuli\	1	1058.6	1	873.3	0.9	1060.33333333333	0.9	751.222222222222	1	1153.3	1	806.5	1	978.4	0.9	965.111111111111	13	316173	2	316161	27	40	316200	-999999	316176	0	39	TrialsPROC	FC_024_F12.png	2	2	72	SessionSelectionList														nonlure	3	Face	0-Back	62	80	61	0	0	95	4	39	249187	2	14	85	247148	-1	247981	1	833	3	3	2039	53	249201	-54	0																72												
WM080112	113619_fnca	2	1	1	-1116335783	1	75.032	75.031	2.0.10.147	2.0.10.242	2.0.10.242	1.0.0.439	7	234	2	3	Verdana	1	80	0	0	0	WM Stimuli\	1	1058.6	1	873.3	0.9	1060.33333333333	0.9	751.222222222222	1	1153.3	1	806.5	1	978.4	0.9	965.111111111111	13	316173	2	316161	27	40	316200	-999999	316176	0	39	TrialsPROC	FC_023_M12.png	2	2	73	SessionSelectionList														nonlure	3	Face	0-Back	63	80	62	0	0	95	5	39	251773	1	13	86	249734	-1	250425	1	691	3	3	2039	52	251786	-53	0																73												
WM080112	113619_fnca	2	1	1	-1116335783	1	75.032	75.031	2.0.10.147	2.0.10.242	2.0.10.242	1.0.0.439	7	234	2	3	Verdana	1	80	0	0	0	WM Stimuli\	1	1058.6	1	873.3	0.9	1060.33333333333	0.9	751.222222222222	1	1153.3	1	806.5	1	978.4	0.9	965.111111111111	13	316173	2	316161	27	40	316200	-999999	316176	0	39	TrialsPROC	FC_020_F10.png	2	2	74	SessionSelectionList														target	2	Face	0-Back	64	80	63	0	0	96	1	39	254345	2	14	72	252306	-1	253052	1	746	2	2	2039	53	254359	-54	0																74												
WM080112	113619_fnca	2	1	1	-1116335783	1	75.032	75.031	2.0.10.147	2.0.10.242	2.0.10.242	1.0.0.439	7	234	2	3	Verdana	1	80	0	0	0	WM Stimuli\	1	1058.6	1	873.3	0.9	1060.33333333333	0.9	751.222222222222	1	1153.3	1	806.5	1	978.4	0.9	965.111111111111	13	316173	2	316161	27	40	316200	-999999	316176	0	39	TrialsPROC	FC_024_F12.png	2	2	75	SessionSelectionList														lure	3	Face	0-Back	65	80	64	0	0	96	1	39	256917	2	14	72	254878	-1	255561	1	683	3	3	2039	53	256931	-54	0																75												
WM080112	113619_fnca	2	1	1	-1116335783	1	75.032	75.031	2.0.10.147	2.0.10.242	2.0.10.242	1.0.0.439	7	234	2	3	Verdana	1	80	0	0	0	WM Stimuli\	1	1058.6	1	873.3	0.9	1060.33333333333	0.9	751.222222222222	1	1153.3	1	806.5	1	978.4	0.9	965.111111111111	13	316173	2	316161	27	40	316200	-999999	316176	0	39	TrialsPROC	FC_020_F10.png	2	2	76	SessionSelectionList														target	2	Face	0-Back	66	80	65	0	0	92	2	40	259490	1	13	72	257450	-1	258846	0	1396	3	2	2040	53	259503	-54	0																76												
WM080112	113619_fnca	2	1	1	-1116335783	1	75.032	75.031	2.0.10.147	2.0.10.242	2.0.10.242	1.0.0.439	7	234	2	3	Verdana	1	80	0	0	0	WM Stimuli\	1	1058.6	1	873.3	0.9	1060.33333333333	0.9	751.222222222222	1	1153.3	1	806.5	1	978.4	0.9	965.111111111111	13	316173	2	316161	27	40	316200	-999999	316176	0	39	TrialsPROC	FC_022_F11.png	2	2	77	SessionSelectionList														nonlure	3	Face	0-Back	67	80	66	0	0	92	3	39	262075	2	14	86	260036	-1	260800	1	764	3	3	2039	53	262089	-54	0																77												
WM080112	113619_fnca	2	1	1	-1116335783	1	75.032	75.031	2.0.10.147	2.0.10.242	2.0.10.242	1.0.0.439	7	234	2	3	Verdana	1	80	0	0	0	WM Stimuli\	1	1058.6	1	873.3	0.9	1060.33333333333	0.9	751.222222222222	1	1153.3	1	806.5	1	978.4	0.9	965.111111111111	13	316173	2	316161	27	40	316200	-999999	316176	0	39	TrialsPROC	FC_023_M12.png	2	2	78	SessionSelectionList														lure	3	Face	0-Back	68	80	67	0	0	93	4	39	264647	2	14	72	262608	-1	263368	1	760	3	3	2039	53	264661	-54	0																78												
WM080112	113619_fnca	2	1	1	-1116335783	1	75.032	75.031	2.0.10.147	2.0.10.242	2.0.10.242	1.0.0.439	7	234	2	3	Verdana	1	80	0	0	0	WM Stimuli\	1	1058.6	1	873.3	0.9	1060.33333333333	0.9	751.222222222222	1	1153.3	1	806.5	1	978.4	0.9	965.111111111111	13	316173	2	316161	27	40	316200	-999999	316176	0	39	TrialsPROC	FC_021_M11.png	2	2	79	SessionSelectionList														nonlure	3	Face	0-Back	69	80	68	0	0	93	5	39	267233	1	14	86	265194	-1	266133	1	939	3	3	2039	53	267247	-54	0																79												
WM080112	113619_fnca	2	1	1	-1116335783	1	75.032	75.031	2.0.10.147	2.0.10.242	2.0.10.242	1.0.0.439	7	234	2	3	Verdana	1	80	0	0	0	WM Stimuli\	1	1058.6	1	873.3	0.9	1060.33333333333	0.9	751.222222222222	1	1153.3	1	806.5	1	978.4	0.9	965.111111111111	13	316173	2	316161	27	40	316200	-999999	316176	0	39	TrialsPROC	FC_021_M11.png	2	2	80	SessionSelectionList														lure	3	Face	0-Back	70	80	69	0	0	93	6	39	269805	2	14	72	267766	-1	268453	1	687	3	3	2039	53	269819	-54	0																80												
WM080112	113619_fnca	2	1	1	-1116335783	1	75.032	75.031	2.0.10.147	2.0.10.242	2.0.10.242	1.0.0.439	7	234	2	3	Verdana	1	80	0	0	0	WM Stimuli\	1	1058.6	1	873.3	0.9	1060.33333333333	0.9	751.222222222222	1	1153.3	1	806.5	1	978.4	0.9	965.111111111111	13	316173	2	316161	27	40	316200	-999999	316176	0	39	TrialsPROC	FC_019_M10.png	2	2	81	SessionSelectionList														nonlure	3	Face	0-Back	71	80	70	0	0	93	7	39	272391	2	13	86	270352	-1	271010	1	658	3	3	2039	52	272404	-53	0																81												
WM080112	113619_fnca	2	1	1	-1116335783	1	75.032	75.031	2.0.10.147	2.0.10.242	2.0.10.242	1.0.0.439	7	234	2	3	Verdana	1	80	0	0	0	WM Stimuli\	1	1058.6	1	873.3	0.9	1060.33333333333	0.9	751.222222222222	1	1153.3	1	806.5	1	978.4	0.9	965.111111111111	13	316173	2	316161	27	40	316200	-999999	316176	0	40	Cue0BackPROC	PL_021_SCENE_07.png	2	2	82	SessionSelectionList																																										45	272897	-46	0												82												
WM080112	113619_fnca	2	1	1	-1116335783	1	75.032	75.031	2.0.10.147	2.0.10.242	2.0.10.242	1.0.0.439	7	234	2	3	Verdana	1	80	0	0	0	WM Stimuli\	1	1058.6	1	873.3	0.9	1060.33333333333	0.9	751.222222222222	1	1153.3	1	806.5	1	978.4	0.9	965.111111111111	13	316173	2	316161	27	40	316200	-999999	316176	0	41	TrialsPROC	PL_025_SCENE_18.png	2	2	83	SessionSelectionList														nonlure	3	Place	0-Back	72	80	71	0	0	94	8	40	277496	1	13	104	275456	-1	276215	1	759	3	3	2040	53	277509	-54	0																83												
WM080112	113619_fnca	2	1	1	-1116335783	1	75.032	75.031	2.0.10.147	2.0.10.242	2.0.10.242	1.0.0.439	7	234	2	3	Verdana	1	80	0	0	0	WM Stimuli\	1	1058.6	1	873.3	0.9	1060.33333333333	0.9	751.222222222222	1	1153.3	1	806.5	1	978.4	0.9	965.111111111111	13	316173	2	316161	27	40	316200	-999999	316176	0	41	TrialsPROC	PL_026_SCENE_24.png	2	2	84	SessionSelectionList														nonlure	3	Place	0-Back	73	80	72	0	0	94	9	39	280081	1	14	86	278042	-1	278600	1	558	3	3	2039	53	280095	-54	0																84												
WM080112	113619_fnca	2	1	1	-1116335783	1	75.032	75.031	2.0.10.147	2.0.10.242	2.0.10.242	1.0.0.439	7	234	2	3	Verdana	1	80	0	0	0	WM Stimuli\	1	1058.6	1	873.3	0.9	1060.33333333333	0.9	751.222222222222	1	1153.3	1	806.5	1	978.4	0.9	965.111111111111	13	316173	2	316161	27	40	316200	-999999	316176	0	41	TrialsPROC	PL_025_SCENE_18.png	2	2	85	SessionSelectionList														lure	3	Place	0-Back	74	80	73	0	0	94	10	39	282653	2	14	72	280614	-1	282201	1	1587	3	3	2039	53	282667	-54	0																85												
WM080112	113619_fnca	2	1	1	-1116335783	1	75.032	75.031	2.0.10.147	2.0.10.242	2.0.10.242	1.0.0.439	7	234	2	3	Verdana	1	80	0	0	0	WM Stimuli\	1	1058.6	1	873.3	0.9	1060.33333333333	0.9	751.222222222222	1	1153.3	1	806.5	1	978.4	0.9	965.111111111111	13	316173	2	316161	27	40	316200	-999999	316176	0	41	TrialsPROC	PL_022_SCENE_08.png	2	2	86	SessionSelectionList														nonlure	3	Place	0-Back	75	80	74	0	0	94	11	39	285239	1	13	86	283200	-1	283873	1	673	3	3	2039	52	285252	-53	0																86												
WM080112	113619_fnca	2	1	1	-1116335783	1	75.032	75.031	2.0.10.147	2.0.10.242	2.0.10.242	1.0.0.439	7	234	2	3	Verdana	1	80	0	0	0	WM Stimuli\	1	1058.6	1	873.3	0.9	1060.33333333333	0.9	751.222222222222	1	1153.3	1	806.5	1	978.4	0.9	965.111111111111	13	316173	2	316161	27	40	316200	-999999	316176	0	41	TrialsPROC	PL_026_SCENE_24.png	2	2	87	SessionSelectionList														lure	3	Place	0-Back	76	80	75	0	0	94	12	39	287811	2	14	72	285772	-1	286658	1	886	3	3	2039	53	287825	-54	0																87												
WM080112	113619_fnca	2	1	1	-1116335783	1	75.032	75.031	2.0.10.147	2.0.10.242	2.0.10.242	1.0.0.439	7	234	2	3	Verdana	1	80	0	0	0	WM Stimuli\	1	1058.6	1	873.3	0.9	1060.33333333333	0.9	751.222222222222	1	1153.3	1	806.5	1	978.4	0.9	965.111111111111	13	316173	2	316161	27	40	316200	-999999	316176	0	41	TrialsPROC	PL_021_SCENE_07.png	2	2	88	SessionSelectionList														target	2	Place	0-Back	77	80	76	0	0	94	1	40	290384	1	13	72	288344	-1	289163	1	819	2	2	2040	53	290397	-54	0																88												
WM080112	113619_fnca	2	1	1	-1116335783	1	75.032	75.031	2.0.10.147	2.0.10.242	2.0.10.242	1.0.0.439	7	234	2	3	Verdana	1	80	0	0	0	WM Stimuli\	1	1058.6	1	873.3	0.9	1060.33333333333	0.9	751.222222222222	1	1153.3	1	806.5	1	978.4	0.9	965.111111111111	13	316173	2	316161	27	40	316200	-999999	316176	0	41	TrialsPROC	PL_021_SCENE_07.png	2	2	89	SessionSelectionList														target	2	Place	0-Back	78	80	77	0	0	95	2	39	292956	1	13	73	290917	-1	291624	1	707	2	2	2039	52	292969	-53	0																89												
WM080112	113619_fnca	2	1	1	-1116335783	1	75.032	75.031	2.0.10.147	2.0.10.242	2.0.10.242	1.0.0.439	7	234	2	3	Verdana	1	80	0	0	0	WM Stimuli\	1	1058.6	1	873.3	0.9	1060.33333333333	0.9	751.222222222222	1	1153.3	1	806.5	1	978.4	0.9	965.111111111111	13	316173	2	316161	27	40	316200	-999999	316176	0	41	TrialsPROC	PL_023_SCENE_09.png	2	2	90	SessionSelectionList														nonlure	3	Place	0-Back	79	80	78	0	0	95	1	39	295541	3	14	85	293502	-1	294358	1	856	3	3	2039	53	295555	-54	0																90												
WM080112	113619_fnca	2	1	1	-1116335783	1	75.032	75.031	2.0.10.147	2.0.10.242	2.0.10.242	1.0.0.439	7	234	2	3	Verdana	1	80	0	0	0	WM Stimuli\	1	1058.6	1	873.3	0.9	1060.33333333333	0.9	751.222222222222	1	1153.3	1	806.5	1	978.4	0.9	965.111111111111	13	316173	2	316161	27	40	316200	-999999	316176	0	41	TrialsPROC	PL_024_SCENE_10.png	2	2	91	SessionSelectionList														nonlure	3	Place	0-Back	80	80	79	0	0	95	2	39	298127	1	13	86	296088	-1	296699	1	611	3	3	2039	52	298140	-53	0																91												
WM080112	113619_fnca	2	1	1	-1116335783	1	75.032	75.031	2.0.10.147	2.0.10.242	2.0.10.242	1.0.0.439	7	234	2	3	Verdana	1	80	0	0	0	WM Stimuli\	1	1058.6	1	873.3	0.9	1060.33333333333	0.9	751.222222222222	1	1153.3	1	806.5	1	978.4	0.9	965.111111111111	13	316173	2	316161	27	40	316200	-999999	316176	0	41	TrialsPROC	PL_022_SCENE_08.png	2	2	92	SessionSelectionList														lure	3	Place	0-Back	80	80	80	0	0	95	3	39	300699	2	14	72	298660	-1	299269	1	609	3	3	2039	53	300713	-54	0																92												
WM080112	113619_fnca	2	1	1	-1116335783	1	75.032	75.031	2.0.10.147	2.0.10.242	2.0.10.242	1.0.0.439	7	234	2	3	Verdana	1	80	0	0	0	WM Stimuli\	1	1058.6	1	873.3	0.9	1060.33333333333	0.9	751.222222222222	1	1153.3	1	806.5	1	978.4	0.9	965.111111111111	13	316173	2	316161	27	40	316200	-999999	316176	0	42	Fix15secPROC	""	2	2	93	SessionSelectionList																																															6	301166	-7	0							93												
