ExperimentName	HCPID	RunNumber	Subject	Session	RandomSeed	Group	Laptop.RefreshRate	ScannerD2.RefreshRate	StudioVersion	RuntimeVersion	RuntimeVersionExpected	ExperimentVersion	triggercode	Allowed	Target	Nontarget	FontStyle	RunTrialNumber[Session]	TrialsPerRun[Session]	TotalRespGreater200[Session]	ConsecRTLess200[Session]	ConsecNonResp[Session]	StimuliDir	ACC_2_Back_Body	Avg_RT_For_Correct_Trials_2_Back_Body	ACC_0_Back_Body	Avg_RT_For_Correct_Trials_0_Back_Body	ACC_2_Back_Face	Avg_RT_For_Correct_Trials_2_Back_Face	ACC_0_Back_Face	Avg_RT_For_Correct_Trials_0_Back_Face	ACC_2_Back_Place	Avg_RT_For_Correct_Trials_2_Back_Place	ACC_0_Back_Place	Avg_RT_For_Correct_Trials_0_Back_Place	ACC_2_Back_Tools	Avg_RT_For_Correct_Trials_2_Back_Tools	ACC_0_Back_Tools	Avg_RT_For_Correct_Trials_0_Back_Tools	ExpInstrucFeelFreeToRest.OnsetDelay	ExpInstrucFeelFreeToRest.OnsetTime	ExpInstrucFeelFreeToRest.DurationError	ExpInstrucFeelFreeToRest.StartTime	ExpInstrucFeelFreeToRest.OnsetToOnsetTime	FeelFreeToRest.OnsetDelay	FeelFreeToRest.OnsetTime	FeelFreeToRest.DurationError	FeelFreeToRest.StartTime	FeelFreeToRest.OnsetToOnsetTime	SessionSelectionList	Procedure[Block]	Stimulus[Block]	RunNumberFilterValue	SessionSelectionList.Cycle	SessionSelectionList.Sample	Running[Block]	IntroButtonMap.OnsetDelay	IntroButtonMap.OnsetTime	IntroButtonMap.DurationError	IntroButtonMap.OnsetToOnsetTime	GetReady.OnsetDelay	GetReady.OnsetTime	GetReady.DurationError	GetReady.OnsetToOnsetTime	Cue2Back.OnsetDelay	Cue2Back.OnsetTime	Cue2Back.DurationError	Cue2Back.OnsetToOnsetTime	Run1Block1	TargetType	CorrectResponse	StimType	BlockType	RunTrialNumber[Block]	TrialsPerRun[Block]	TotalRespGreater200[Block]	ConsecRTLess200[Block]	ConsecNonResp[Block]	ControlAcc	ConsecSameResp	ExperimenterWindow.OnsetDelay	ExperimenterWindow.OnsetTime	ExperimenterWindow.DurationError	ExperimenterWindow.OnsetToOnsetTime	Stim.OnsetDelay	Stim.OnsetTime	Stim.DurationError	Stim.RTTime	Stim.ACC	Stim.RT	Stim.RESP	Stim.CRESP	Stim.OnsetToOnsetTime	Fix.OnsetDelay	Fix.OnsetTime	Fix.DurationError	Fix.OnsetToOnsetTime	CueTarget.OnsetDelay	CueTarget.OnsetTime	CueTarget.DurationError	CueTarget.OnsetToOnsetTime	Run1Block2	Fix15sec.OnsetDelay	Fix15sec.OnsetTime	Fix15sec.DurationError	Fix15sec.OnsetToOnsetTime	Run1Block3	Run1Block4	Run1Block5	Run1Block6	Run1Block7	Run1Block8	Block	Procedure[Trial]	Stimulus[Trial]	ReadyList	Running[Trial]	ReadyList.Cycle	ReadyList.Sample	SyncSlide.OnsetDelay	SyncSlide.OnsetTime	SyncSlide.DurationError	SyncSlide.FinishTime	SyncSlide.OnsetToOnsetTime	Trial
WM080112	108828_fnca	2	1	1	-495567514	1	75.031	75.030	2.0.10.147	2.0.10.242	2.0.10.242	1.0.0.439	7	234	2	3	Verdana	1	80	0	0	0	WM Stimuli\	0.6	1070.16666666667	1	848.2	0.9	1093.77777777778	0.6	1082	0.8	1103	0.6	1290.83333333333	0.9	885.333333333333	0.8	994.375	13	383329	1	383317	13	26	383342	-999999	383331	0	22	TRSyncPROC	""	2	2	1	SessionSelectionList	110	13877	-999999	0	30	75106	-999999	0																																																	1	InitialTR	4	1	ReadyList	1	1	8	90020	-9	92011	0	1
WM080112	108828_fnca	2	1	1	-495567514	1	75.031	75.030	2.0.10.147	2.0.10.242	2.0.10.242	1.0.0.439	7	234	2	3	Verdana	1	80	0	0	0	WM Stimuli\	0.6	1070.16666666667	1	848.2	0.9	1093.77777777778	0.6	1082	0.8	1103	0.6	1290.83333333333	0.9	885.333333333333	0.8	994.375	13	383329	1	383317	13	26	383342	-999999	383331	0	22	TRSyncPROC	""	2	2	1	SessionSelectionList	110	13877	-999999	0	30	75106	-999999	0																																																	1	InitialTR	3	2	ReadyList	1	2	7	92019	-8	94011	0	2
WM080112	108828_fnca	2	1	1	-495567514	1	75.031	75.030	2.0.10.147	2.0.10.242	2.0.10.242	1.0.0.439	7	234	2	3	Verdana	1	80	0	0	0	WM Stimuli\	0.6	1070.16666666667	1	848.2	0.9	1093.77777777778	0.6	1082	0.8	1103	0.6	1290.83333333333	0.9	885.333333333333	0.8	994.375	13	383329	1	383317	13	26	383342	-999999	383331	0	22	TRSyncPROC	""	2	2	1	SessionSelectionList	110	13877	-999999	0	30	75106	-999999	0																																																	1	InitialTR	2	3	ReadyList	1	3	6	94018	-7	96011	0	3
WM080112	108828_fnca	2	1	1	-495567514	1	75.031	75.030	2.0.10.147	2.0.10.242	2.0.10.242	1.0.0.439	7	234	2	3	Verdana	1	80	0	0	0	WM Stimuli\	0.6	1070.16666666667	1	848.2	0.9	1093.77777777778	0.6	1082	0.8	1103	0.6	1290.83333333333	0.9	885.333333333333	0.8	994.375	13	383329	1	383317	13	26	383342	-999999	383331	0	22	TRSyncPROC	""	2	2	1	SessionSelectionList	110	13877	-999999	0	30	75106	-999999	0																																																	1	InitialTR	1	4	ReadyList	1	4	5	96017	-6	98011	0	4
WM080112	108828_fnca	2	1	1	-495567514	1	75.031	75.030	2.0.10.147	2.0.10.242	2.0.10.242	1.0.0.439	7	234	2	3	Verdana	1	80	0	0	0	WM Stimuli\	0.6	1070.16666666667	1	848.2	0.9	1093.77777777778	0.6	1082	0.8	1103	0.6	1290.83333333333	0.9	885.333333333333	0.8	994.375	13	383329	1	383317	13	26	383342	-999999	383331	0	23	Cue2BackPROC	""	2	2	2	SessionSelectionList									5	98017	-6	0																																													2												
WM080112	108828_fnca	2	1	1	-495567514	1	75.031	75.030	2.0.10.147	2.0.10.242	2.0.10.242	1.0.0.439	7	234	2	3	Verdana	1	80	0	0	0	WM Stimuli\	0.6	1070.16666666667	1	848.2	0.9	1093.77777777778	0.6	1082	0.8	1103	0.6	1290.83333333333	0.9	885.333333333333	0.8	994.375	13	383329	1	383317	13	26	383342	-999999	383331	0	24	TrialsPROC	TO_014_TOOL14_BA.png	2	2	3	SessionSelectionList														nonlure	3	Tools	2-Back	2	80	1	0	0	0	1	52	102641	3	14	77	100589	-1	101288	1	699	3	3	2052	66	102655	-67	0																3												
WM080112	108828_fnca	2	1	1	-495567514	1	75.031	75.030	2.0.10.147	2.0.10.242	2.0.10.242	1.0.0.439	7	234	2	3	Verdana	1	80	0	0	0	WM Stimuli\	0.6	1070.16666666667	1	848.2	0.9	1093.77777777778	0.6	1082	0.8	1103	0.6	1290.83333333333	0.9	885.333333333333	0.8	994.375	13	383329	1	383317	13	26	383342	-999999	383331	0	24	TrialsPROC	TO_013_TOOL13_BA.png	2	2	4	SessionSelectionList														nonlure	3	Tools	2-Back	3	80	2	0	0	0	2	39	105187	1	14	59	103148	-1	103682	1	534	3	3	2039	53	105201	-54	0																4												
WM080112	108828_fnca	2	1	1	-495567514	1	75.031	75.030	2.0.10.147	2.0.10.242	2.0.10.242	1.0.0.439	7	234	2	3	Verdana	1	80	0	0	0	WM Stimuli\	0.6	1070.16666666667	1	848.2	0.9	1093.77777777778	0.6	1082	0.8	1103	0.6	1290.83333333333	0.9	885.333333333333	0.8	994.375	13	383329	1	383317	13	26	383342	-999999	383331	0	24	TrialsPROC	TO_016_TOOL16_BA.png	2	2	5	SessionSelectionList														nonlure	3	Tools	2-Back	4	80	3	0	0	0	3	39	107746	1	14	59	105707	-1	106689	1	982	3	3	2039	53	107760	-54	0																5												
WM080112	108828_fnca	2	1	1	-495567514	1	75.031	75.030	2.0.10.147	2.0.10.242	2.0.10.242	1.0.0.439	7	234	2	3	Verdana	1	80	0	0	0	WM Stimuli\	0.6	1070.16666666667	1	848.2	0.9	1093.77777777778	0.6	1082	0.8	1103	0.6	1290.83333333333	0.9	885.333333333333	0.8	994.375	13	383329	1	383317	13	26	383342	-999999	383331	0	24	TrialsPROC	TO_014_TOOL14_BA.png	2	2	6	SessionSelectionList														lure	3	Tools	2-Back	5	80	4	0	0	0	1	39	110318	2	14	72	108279	-1	109085	0	806	2	3	2039	53	110332	-54	0																6												
WM080112	108828_fnca	2	1	1	-495567514	1	75.031	75.030	2.0.10.147	2.0.10.242	2.0.10.242	1.0.0.439	7	234	2	3	Verdana	1	80	0	0	0	WM Stimuli\	0.6	1070.16666666667	1	848.2	0.9	1093.77777777778	0.6	1082	0.8	1103	0.6	1290.83333333333	0.9	885.333333333333	0.8	994.375	13	383329	1	383317	13	26	383342	-999999	383331	0	24	TrialsPROC	TO_016_TOOL16_BA.png	2	2	7	SessionSelectionList														target	2	Tools	2-Back	6	80	5	0	0	0	2	39	112877	2	14	59	110838	-1	112071	1	1233	2	2	2039	53	112891	-54	0																7												
WM080112	108828_fnca	2	1	1	-495567514	1	75.031	75.030	2.0.10.147	2.0.10.242	2.0.10.242	1.0.0.439	7	234	2	3	Verdana	1	80	0	0	0	WM Stimuli\	0.6	1070.16666666667	1	848.2	0.9	1093.77777777778	0.6	1082	0.8	1103	0.6	1290.83333333333	0.9	885.333333333333	0.8	994.375	13	383329	1	383317	13	26	383342	-999999	383331	0	24	TrialsPROC	TO_018_TOOL18_BA.png	2	2	8	SessionSelectionList														nonlure	3	Tools	2-Back	7	80	6	0	0	0	1	39	115436	2	14	59	113397	-1	114041	1	644	3	3	2039	53	115450	-54	0																8												
WM080112	108828_fnca	2	1	1	-495567514	1	75.031	75.030	2.0.10.147	2.0.10.242	2.0.10.242	1.0.0.439	7	234	2	3	Verdana	1	80	0	0	0	WM Stimuli\	0.6	1070.16666666667	1	848.2	0.9	1093.77777777778	0.6	1082	0.8	1103	0.6	1290.83333333333	0.9	885.333333333333	0.8	994.375	13	383329	1	383317	13	26	383342	-999999	383331	0	24	TrialsPROC	TO_017_TOOL17_BA.png	2	2	9	SessionSelectionList														nonlure	3	Tools	2-Back	8	80	7	0	0	0	2	39	117995	2	14	59	115956	-1	116808	1	852	3	3	2039	53	118009	-54	0																9												
WM080112	108828_fnca	2	1	1	-495567514	1	75.031	75.030	2.0.10.147	2.0.10.242	2.0.10.242	1.0.0.439	7	234	2	3	Verdana	1	80	0	0	0	WM Stimuli\	0.6	1070.16666666667	1	848.2	0.9	1093.77777777778	0.6	1082	0.8	1103	0.6	1290.83333333333	0.9	885.333333333333	0.8	994.375	13	383329	1	383317	13	26	383342	-999999	383331	0	24	TrialsPROC	TO_018_TOOL18_BA.png	2	2	10	SessionSelectionList														target	2	Tools	2-Back	9	80	8	0	0	0	1	39	120554	2	14	59	118515	-1	119390	1	875	2	2	2039	53	120568	-54	0																10												
WM080112	108828_fnca	2	1	1	-495567514	1	75.031	75.030	2.0.10.147	2.0.10.242	2.0.10.242	1.0.0.439	7	234	2	3	Verdana	1	80	0	0	0	WM Stimuli\	0.6	1070.16666666667	1	848.2	0.9	1093.77777777778	0.6	1082	0.8	1103	0.6	1290.83333333333	0.9	885.333333333333	0.8	994.375	13	383329	1	383317	13	26	383342	-999999	383331	0	24	TrialsPROC	TO_015_TOOL15_BA.png	2	2	11	SessionSelectionList														nonlure	3	Tools	2-Back	10	80	9	0	0	0	1	39	123113	2	14	59	121074	-1	122005	1	931	3	3	2039	53	123127	-54	0																11												
WM080112	108828_fnca	2	1	1	-495567514	1	75.031	75.030	2.0.10.147	2.0.10.242	2.0.10.242	1.0.0.439	7	234	2	3	Verdana	1	80	0	0	0	WM Stimuli\	0.6	1070.16666666667	1	848.2	0.9	1093.77777777778	0.6	1082	0.8	1103	0.6	1290.83333333333	0.9	885.333333333333	0.8	994.375	13	383329	1	383317	13	26	383342	-999999	383331	0	24	TrialsPROC	TO_017_TOOL17_BA.png	2	2	12	SessionSelectionList														lure	3	Tools	2-Back	11	80	10	0	0	0	2	39	125672	1	14	59	123633	-1	124851	1	1218	3	3	2039	53	125686	-54	0																12												
WM080112	108828_fnca	2	1	1	-495567514	1	75.031	75.030	2.0.10.147	2.0.10.242	2.0.10.242	1.0.0.439	7	234	2	3	Verdana	1	80	0	0	0	WM Stimuli\	0.6	1070.16666666667	1	848.2	0.9	1093.77777777778	0.6	1082	0.8	1103	0.6	1290.83333333333	0.9	885.333333333333	0.8	994.375	13	383329	1	383317	13	26	383342	-999999	383331	0	25	Cue0BackPROC	BP_013_BP7_BA.png	2	2	13	SessionSelectionList																																										19	126152	-20	0												13												
WM080112	108828_fnca	2	1	1	-495567514	1	75.031	75.030	2.0.10.147	2.0.10.242	2.0.10.242	1.0.0.439	7	234	2	3	Verdana	1	80	0	0	0	WM Stimuli\	0.6	1070.16666666667	1	848.2	0.9	1093.77777777778	0.6	1082	0.8	1103	0.6	1290.83333333333	0.9	885.333333333333	0.8	994.375	13	383329	1	383317	13	26	383342	-999999	383331	0	26	TrialsPROC	BP_015_H10-T_BA.png	2	2	14	SessionSelectionList														nonlure	3	Body	0-Back	12	80	11	0	0	100	3	40	130737	1	13	64	128697	-1	129695	1	998	3	3	2040	53	130750	-54	0																14												
WM080112	108828_fnca	2	1	1	-495567514	1	75.031	75.030	2.0.10.147	2.0.10.242	2.0.10.242	1.0.0.439	7	234	2	3	Verdana	1	80	0	0	0	WM Stimuli\	0.6	1070.16666666667	1	848.2	0.9	1093.77777777778	0.6	1082	0.8	1103	0.6	1290.83333333333	0.9	885.333333333333	0.8	994.375	13	383329	1	383317	13	26	383342	-999999	383331	0	26	TrialsPROC	BP_018_H13-T_BA.png	2	2	15	SessionSelectionList														nonlure	3	Body	0-Back	13	80	12	0	0	100	4	39	133296	1	13	60	131257	-1	132057	1	800	3	3	2039	52	133309	-53	0																15												
WM080112	108828_fnca	2	1	1	-495567514	1	75.031	75.030	2.0.10.147	2.0.10.242	2.0.10.242	1.0.0.439	7	234	2	3	Verdana	1	80	0	0	0	WM Stimuli\	0.6	1070.16666666667	1	848.2	0.9	1093.77777777778	0.6	1082	0.8	1103	0.6	1290.83333333333	0.9	885.333333333333	0.8	994.375	13	383329	1	383317	13	26	383342	-999999	383331	0	26	TrialsPROC	BP_014_BP9_BA.png	2	2	16	SessionSelectionList														nonlure	3	Body	0-Back	14	80	13	0	0	100	5	39	135855	1	13	59	133816	-1	135007	1	1191	3	3	2039	52	135868	-53	0																16												
WM080112	108828_fnca	2	1	1	-495567514	1	75.031	75.030	2.0.10.147	2.0.10.242	2.0.10.242	1.0.0.439	7	234	2	3	Verdana	1	80	0	0	0	WM Stimuli\	0.6	1070.16666666667	1	848.2	0.9	1093.77777777778	0.6	1082	0.8	1103	0.6	1290.83333333333	0.9	885.333333333333	0.8	994.375	13	383329	1	383317	13	26	383342	-999999	383331	0	26	TrialsPROC	BP_018_H13-T_BA.png	2	2	17	SessionSelectionList														lure	3	Body	0-Back	15	80	14	0	0	100	6	39	138414	1	13	59	136375	-1	137471	1	1096	3	3	2039	52	138427	-53	0																17												
WM080112	108828_fnca	2	1	1	-495567514	1	75.031	75.030	2.0.10.147	2.0.10.242	2.0.10.242	1.0.0.439	7	234	2	3	Verdana	1	80	0	0	0	WM Stimuli\	0.6	1070.16666666667	1	848.2	0.9	1093.77777777778	0.6	1082	0.8	1103	0.6	1290.83333333333	0.9	885.333333333333	0.8	994.375	13	383329	1	383317	13	26	383342	-999999	383331	0	26	TrialsPROC	BP_013_BP7_BA.png	2	2	18	SessionSelectionList														target	2	Body	0-Back	16	80	15	0	0	100	1	39	140986	1	14	72	138947	-1	139716	1	769	2	2	2039	53	141000	-54	0																18												
WM080112	108828_fnca	2	1	1	-495567514	1	75.031	75.030	2.0.10.147	2.0.10.242	2.0.10.242	1.0.0.439	7	234	2	3	Verdana	1	80	0	0	0	WM Stimuli\	0.6	1070.16666666667	1	848.2	0.9	1093.77777777778	0.6	1082	0.8	1103	0.6	1290.83333333333	0.9	885.333333333333	0.8	994.375	13	383329	1	383317	13	26	383342	-999999	383331	0	26	TrialsPROC	BP_015_H10-T_BA.png	2	2	19	SessionSelectionList														lure	3	Body	0-Back	17	80	16	0	0	100	1	39	143545	1	14	59	141506	-1	142350	1	844	3	3	2039	53	143559	-54	0																19												
WM080112	108828_fnca	2	1	1	-495567514	1	75.031	75.030	2.0.10.147	2.0.10.242	2.0.10.242	1.0.0.439	7	234	2	3	Verdana	1	80	0	0	0	WM Stimuli\	0.6	1070.16666666667	1	848.2	0.9	1093.77777777778	0.6	1082	0.8	1103	0.6	1290.83333333333	0.9	885.333333333333	0.8	994.375	13	383329	1	383317	13	26	383342	-999999	383331	0	26	TrialsPROC	BP_016_H11-T_BA.png	2	2	20	SessionSelectionList														nonlure	3	Body	0-Back	18	80	17	0	0	100	2	39	146117	2	14	72	144078	-1	144724	1	646	3	3	2039	53	146131	-54	0																20												
WM080112	108828_fnca	2	1	1	-495567514	1	75.031	75.030	2.0.10.147	2.0.10.242	2.0.10.242	1.0.0.439	7	234	2	3	Verdana	1	80	0	0	0	WM Stimuli\	0.6	1070.16666666667	1	848.2	0.9	1093.77777777778	0.6	1082	0.8	1103	0.6	1290.83333333333	0.9	885.333333333333	0.8	994.375	13	383329	1	383317	13	26	383342	-999999	383331	0	26	TrialsPROC	BP_013_BP7_BA.png	2	2	21	SessionSelectionList														target	2	Body	0-Back	19	80	18	0	0	100	1	39	148676	2	14	59	146637	-1	147418	1	781	2	2	2039	53	148690	-54	0																21												
WM080112	108828_fnca	2	1	1	-495567514	1	75.031	75.030	2.0.10.147	2.0.10.242	2.0.10.242	1.0.0.439	7	234	2	3	Verdana	1	80	0	0	0	WM Stimuli\	0.6	1070.16666666667	1	848.2	0.9	1093.77777777778	0.6	1082	0.8	1103	0.6	1290.83333333333	0.9	885.333333333333	0.8	994.375	13	383329	1	383317	13	26	383342	-999999	383331	0	26	TrialsPROC	BP_017_H12-T_BA.png	2	2	22	SessionSelectionList														nonlure	3	Body	0-Back	20	80	19	0	0	100	1	39	151235	2	14	59	149196	-1	149637	1	441	3	3	2039	53	151249	-54	0																22												
WM080112	108828_fnca	2	1	1	-495567514	1	75.031	75.030	2.0.10.147	2.0.10.242	2.0.10.242	1.0.0.439	7	234	2	3	Verdana	1	80	0	0	0	WM Stimuli\	0.6	1070.16666666667	1	848.2	0.9	1093.77777777778	0.6	1082	0.8	1103	0.6	1290.83333333333	0.9	885.333333333333	0.8	994.375	13	383329	1	383317	13	26	383342	-999999	383331	0	26	TrialsPROC	BP_014_BP9_BA.png	2	2	23	SessionSelectionList														lure	3	Body	0-Back	21	80	20	0	0	100	2	39	153794	2	14	59	151755	-1	152671	1	916	3	3	2039	53	153808	-54	0																23												
WM080112	108828_fnca	2	1	1	-495567514	1	75.031	75.030	2.0.10.147	2.0.10.242	2.0.10.242	1.0.0.439	7	234	2	3	Verdana	1	80	0	0	0	WM Stimuli\	0.6	1070.16666666667	1	848.2	0.9	1093.77777777778	0.6	1082	0.8	1103	0.6	1290.83333333333	0.9	885.333333333333	0.8	994.375	13	383329	1	383317	13	26	383342	-999999	383331	0	27	Fix15secPROC	""	2	2	24	SessionSelectionList																																															6	154261	-7	0							24												
WM080112	108828_fnca	2	1	1	-495567514	1	75.031	75.030	2.0.10.147	2.0.10.242	2.0.10.242	1.0.0.439	7	234	2	3	Verdana	1	80	0	0	0	WM Stimuli\	0.6	1070.16666666667	1	848.2	0.9	1093.77777777778	0.6	1082	0.8	1103	0.6	1290.83333333333	0.9	885.333333333333	0.8	994.375	13	383329	1	383317	13	26	383342	-999999	383331	0	28	Cue2BackPROC	""	2	2	25	SessionSelectionList									13	169268	-14	0																																													25												
WM080112	108828_fnca	2	1	1	-495567514	1	75.031	75.030	2.0.10.147	2.0.10.242	2.0.10.242	1.0.0.439	7	234	2	3	Verdana	1	80	0	0	0	WM Stimuli\	0.6	1070.16666666667	1	848.2	0.9	1093.77777777778	0.6	1082	0.8	1103	0.6	1290.83333333333	0.9	885.333333333333	0.8	994.375	13	383329	1	383317	13	26	383342	-999999	383331	0	29	TrialsPROC	FC_015_M8.png	2	2	26	SessionSelectionList														nonlure	3	Face	2-Back	22	80	21	0	0	100	3	39	173866	1	14	72	171827	-1	172867	1	1040	3	3	2039	53	173880	-54	0																26												
WM080112	108828_fnca	2	1	1	-495567514	1	75.031	75.030	2.0.10.147	2.0.10.242	2.0.10.242	1.0.0.439	7	234	2	3	Verdana	1	80	0	0	0	WM Stimuli\	0.6	1070.16666666667	1	848.2	0.9	1093.77777777778	0.6	1082	0.8	1103	0.6	1290.83333333333	0.9	885.333333333333	0.8	994.375	13	383329	1	383317	13	26	383342	-999999	383331	0	29	TrialsPROC	FC_018_F9.png	2	2	27	SessionSelectionList														nonlure	3	Face	2-Back	23	80	22	0	0	100	4	39	176438	2	14	72	174399	-1	175335	1	936	3	3	2039	53	176452	-54	0																27												
WM080112	108828_fnca	2	1	1	-495567514	1	75.031	75.030	2.0.10.147	2.0.10.242	2.0.10.242	1.0.0.439	7	234	2	3	Verdana	1	80	0	0	0	WM Stimuli\	0.6	1070.16666666667	1	848.2	0.9	1093.77777777778	0.6	1082	0.8	1103	0.6	1290.83333333333	0.9	885.333333333333	0.8	994.375	13	383329	1	383317	13	26	383342	-999999	383331	0	29	TrialsPROC	FC_018_F9.png	2	2	28	SessionSelectionList														lure	3	Face	2-Back	24	80	23	0	0	100	5	40	179011	1	13	72	176971	-1	178429	1	1458	3	3	2040	53	179024	-54	0																28												
WM080112	108828_fnca	2	1	1	-495567514	1	75.031	75.030	2.0.10.147	2.0.10.242	2.0.10.242	1.0.0.439	7	234	2	3	Verdana	1	80	0	0	0	WM Stimuli\	0.6	1070.16666666667	1	848.2	0.9	1093.77777777778	0.6	1082	0.8	1103	0.6	1290.83333333333	0.9	885.333333333333	0.8	994.375	13	383329	1	383317	13	26	383342	-999999	383331	0	29	TrialsPROC	FC_017_M9.png	2	2	29	SessionSelectionList														nonlure	3	Face	2-Back	25	80	24	0	0	100	6	39	181583	1	14	73	179544	-1	180365	1	821	3	3	2039	53	181597	-54	0																29												
WM080112	108828_fnca	2	1	1	-495567514	1	75.031	75.030	2.0.10.147	2.0.10.242	2.0.10.242	1.0.0.439	7	234	2	3	Verdana	1	80	0	0	0	WM Stimuli\	0.6	1070.16666666667	1	848.2	0.9	1093.77777777778	0.6	1082	0.8	1103	0.6	1290.83333333333	0.9	885.333333333333	0.8	994.375	13	383329	1	383317	13	26	383342	-999999	383331	0	29	TrialsPROC	FC_017_M9.png	2	2	30	SessionSelectionList														lure	3	Face	2-Back	26	80	25	0	0	100	1	39	184155	2	14	72	182116	-1	183931	0	1815	2	3	2039	53	184169	-54	0																30												
WM080112	108828_fnca	2	1	1	-495567514	1	75.031	75.030	2.0.10.147	2.0.10.242	2.0.10.242	1.0.0.439	7	234	2	3	Verdana	1	80	0	0	0	WM Stimuli\	0.6	1070.16666666667	1	848.2	0.9	1093.77777777778	0.6	1082	0.8	1103	0.6	1290.83333333333	0.9	885.333333333333	0.8	994.375	13	383329	1	383317	13	26	383342	-999999	383331	0	29	TrialsPROC	FC_016_F8.png	2	2	31	SessionSelectionList														nonlure	3	Face	2-Back	27	80	26	0	0	100	1	40	186728	1	13	72	184688	-1	185692	1	1004	3	3	2040	53	186741	-54	0																31												
WM080112	108828_fnca	2	1	1	-495567514	1	75.031	75.030	2.0.10.147	2.0.10.242	2.0.10.242	1.0.0.439	7	234	2	3	Verdana	1	80	0	0	0	WM Stimuli\	0.6	1070.16666666667	1	848.2	0.9	1093.77777777778	0.6	1082	0.8	1103	0.6	1290.83333333333	0.9	885.333333333333	0.8	994.375	13	383329	1	383317	13	26	383342	-999999	383331	0	29	TrialsPROC	FC_013_M7.png	2	2	32	SessionSelectionList														nonlure	3	Face	2-Back	28	80	27	0	0	100	2	39	189300	1	14	73	187261	-1	188549	1	1288	3	3	2039	53	189314	-54	0																32												
WM080112	108828_fnca	2	1	1	-495567514	1	75.031	75.030	2.0.10.147	2.0.10.242	2.0.10.242	1.0.0.439	7	234	2	3	Verdana	1	80	0	0	0	WM Stimuli\	0.6	1070.16666666667	1	848.2	0.9	1093.77777777778	0.6	1082	0.8	1103	0.6	1290.83333333333	0.9	885.333333333333	0.8	994.375	13	383329	1	383317	13	26	383342	-999999	383331	0	29	TrialsPROC	FC_014_F7.png	2	2	33	SessionSelectionList														nonlure	3	Face	2-Back	29	80	28	0	0	100	3	39	191872	2	14	72	189833	-1	190842	1	1009	3	3	2039	53	191886	-54	0																33												
WM080112	108828_fnca	2	1	1	-495567514	1	75.031	75.030	2.0.10.147	2.0.10.242	2.0.10.242	1.0.0.439	7	234	2	3	Verdana	1	80	0	0	0	WM Stimuli\	0.6	1070.16666666667	1	848.2	0.9	1093.77777777778	0.6	1082	0.8	1103	0.6	1290.83333333333	0.9	885.333333333333	0.8	994.375	13	383329	1	383317	13	26	383342	-999999	383331	0	29	TrialsPROC	FC_013_M7.png	2	2	34	SessionSelectionList														target	2	Face	2-Back	30	80	29	0	0	100	1	39	194444	2	14	72	192405	-1	193150	1	745	2	2	2039	53	194458	-54	0																34												
WM080112	108828_fnca	2	1	1	-495567514	1	75.031	75.030	2.0.10.147	2.0.10.242	2.0.10.242	1.0.0.439	7	234	2	3	Verdana	1	80	0	0	0	WM Stimuli\	0.6	1070.16666666667	1	848.2	0.9	1093.77777777778	0.6	1082	0.8	1103	0.6	1290.83333333333	0.9	885.333333333333	0.8	994.375	13	383329	1	383317	13	26	383342	-999999	383331	0	29	TrialsPROC	FC_014_F7.png	2	2	35	SessionSelectionList														target	2	Face	2-Back	31	80	30	0	0	100	2	39	197017	1	14	73	194978	-1	196521	1	1543	2	2	2039	53	197031	-54	0																35												
WM080112	108828_fnca	2	1	1	-495567514	1	75.031	75.030	2.0.10.147	2.0.10.242	2.0.10.242	1.0.0.439	7	234	2	3	Verdana	1	80	0	0	0	WM Stimuli\	0.6	1070.16666666667	1	848.2	0.9	1093.77777777778	0.6	1082	0.8	1103	0.6	1290.83333333333	0.9	885.333333333333	0.8	994.375	13	383329	1	383317	13	26	383342	-999999	383331	0	30	Cue0BackPROC	TO_019_TOOL19_BA.png	2	2	36	SessionSelectionList																																										19	197497	-20	0												36												
WM080112	108828_fnca	2	1	1	-495567514	1	75.031	75.030	2.0.10.147	2.0.10.242	2.0.10.242	1.0.0.439	7	234	2	3	Verdana	1	80	0	0	0	WM Stimuli\	0.6	1070.16666666667	1	848.2	0.9	1093.77777777778	0.6	1082	0.8	1103	0.6	1290.83333333333	0.9	885.333333333333	0.8	994.375	13	383329	1	383317	13	26	383342	-999999	383331	0	31	TrialsPROC	TO_019_TOOL19_BA.png	2	2	37	SessionSelectionList														target	2	Tools	0-Back	32	80	30	0	1	91	2	39	202068	1	14	51	200029	-1	0	0	0	""	2	2039	53	202082	-54	0																37												
WM080112	108828_fnca	2	1	1	-495567514	1	75.031	75.030	2.0.10.147	2.0.10.242	2.0.10.242	1.0.0.439	7	234	2	3	Verdana	1	80	0	0	0	WM Stimuli\	0.6	1070.16666666667	1	848.2	0.9	1093.77777777778	0.6	1082	0.8	1103	0.6	1290.83333333333	0.9	885.333333333333	0.8	994.375	13	383329	1	383317	13	26	383342	-999999	383331	0	31	TrialsPROC	TO_024_TOOL24_BA.png	2	2	38	SessionSelectionList														nonlure	3	Tools	0-Back	33	80	31	0	0	92	1	39	204627	1	14	59	202588	-1	203535	1	947	3	3	2039	53	204641	-54	0																38												
WM080112	108828_fnca	2	1	1	-495567514	1	75.031	75.030	2.0.10.147	2.0.10.242	2.0.10.242	1.0.0.439	7	234	2	3	Verdana	1	80	0	0	0	WM Stimuli\	0.6	1070.16666666667	1	848.2	0.9	1093.77777777778	0.6	1082	0.8	1103	0.6	1290.83333333333	0.9	885.333333333333	0.8	994.375	13	383329	1	383317	13	26	383342	-999999	383331	0	31	TrialsPROC	TO_019_TOOL19_BA.png	2	2	39	SessionSelectionList														target	2	Tools	0-Back	34	80	32	0	0	92	1	39	207186	1	14	59	205147	-1	205670	1	523	2	2	2039	53	207200	-54	0																39												
WM080112	108828_fnca	2	1	1	-495567514	1	75.031	75.030	2.0.10.147	2.0.10.242	2.0.10.242	1.0.0.439	7	234	2	3	Verdana	1	80	0	0	0	WM Stimuli\	0.6	1070.16666666667	1	848.2	0.9	1093.77777777778	0.6	1082	0.8	1103	0.6	1290.83333333333	0.9	885.333333333333	0.8	994.375	13	383329	1	383317	13	26	383342	-999999	383331	0	31	TrialsPROC	TO_023_TOOL23_BA.png	2	2	40	SessionSelectionList														nonlure	3	Tools	0-Back	35	80	33	0	0	93	1	39	209745	1	14	59	207706	-1	208428	1	722	3	3	2039	53	209759	-54	0																40												
WM080112	108828_fnca	2	1	1	-495567514	1	75.031	75.030	2.0.10.147	2.0.10.242	2.0.10.242	1.0.0.439	7	234	2	3	Verdana	1	80	0	0	0	WM Stimuli\	0.6	1070.16666666667	1	848.2	0.9	1093.77777777778	0.6	1082	0.8	1103	0.6	1290.83333333333	0.9	885.333333333333	0.8	994.375	13	383329	1	383317	13	26	383342	-999999	383331	0	31	TrialsPROC	TO_020_TOOL20_BA.png	2	2	41	SessionSelectionList														nonlure	3	Tools	0-Back	36	80	34	0	0	93	2	39	212304	1	14	59	210265	-1	211253	1	988	3	3	2039	53	212318	-54	0																41												
WM080112	108828_fnca	2	1	1	-495567514	1	75.031	75.030	2.0.10.147	2.0.10.242	2.0.10.242	1.0.0.439	7	234	2	3	Verdana	1	80	0	0	0	WM Stimuli\	0.6	1070.16666666667	1	848.2	0.9	1093.77777777778	0.6	1082	0.8	1103	0.6	1290.83333333333	0.9	885.333333333333	0.8	994.375	13	383329	1	383317	13	26	383342	-999999	383331	0	31	TrialsPROC	TO_020_TOOL20_BA.png	2	2	42	SessionSelectionList														lure	3	Tools	0-Back	37	80	35	0	0	94	3	39	214863	1	14	59	212824	-1	214030	1	1206	3	3	2039	53	214877	-54	0																42												
WM080112	108828_fnca	2	1	1	-495567514	1	75.031	75.030	2.0.10.147	2.0.10.242	2.0.10.242	1.0.0.439	7	234	2	3	Verdana	1	80	0	0	0	WM Stimuli\	0.6	1070.16666666667	1	848.2	0.9	1093.77777777778	0.6	1082	0.8	1103	0.6	1290.83333333333	0.9	885.333333333333	0.8	994.375	13	383329	1	383317	13	26	383342	-999999	383331	0	31	TrialsPROC	TO_022_TOOL22_BA.png	2	2	43	SessionSelectionList														nonlure	3	Tools	0-Back	38	80	36	0	0	94	4	39	217422	1	14	59	215383	-1	216359	1	976	3	3	2039	53	217436	-54	0																43												
WM080112	108828_fnca	2	1	1	-495567514	1	75.031	75.030	2.0.10.147	2.0.10.242	2.0.10.242	1.0.0.439	7	234	2	3	Verdana	1	80	0	0	0	WM Stimuli\	0.6	1070.16666666667	1	848.2	0.9	1093.77777777778	0.6	1082	0.8	1103	0.6	1290.83333333333	0.9	885.333333333333	0.8	994.375	13	383329	1	383317	13	26	383342	-999999	383331	0	31	TrialsPROC	TO_022_TOOL22_BA.png	2	2	44	SessionSelectionList														lure	3	Tools	0-Back	39	80	37	0	0	94	5	39	219981	1	14	59	217942	-1	218977	1	1035	3	3	2039	53	219995	-54	0																44												
WM080112	108828_fnca	2	1	1	-495567514	1	75.031	75.030	2.0.10.147	2.0.10.242	2.0.10.242	1.0.0.439	7	234	2	3	Verdana	1	80	0	0	0	WM Stimuli\	0.6	1070.16666666667	1	848.2	0.9	1093.77777777778	0.6	1082	0.8	1103	0.6	1290.83333333333	0.9	885.333333333333	0.8	994.375	13	383329	1	383317	13	26	383342	-999999	383331	0	31	TrialsPROC	TO_021_TOOL21_BA.png	2	2	45	SessionSelectionList														nonlure	3	Tools	0-Back	40	80	38	0	0	95	6	39	222540	1	14	59	220501	-1	222059	1	1558	3	3	2039	53	222554	-54	0																45												
WM080112	108828_fnca	2	1	1	-495567514	1	75.031	75.030	2.0.10.147	2.0.10.242	2.0.10.242	1.0.0.439	7	234	2	3	Verdana	1	80	0	0	0	WM Stimuli\	0.6	1070.16666666667	1	848.2	0.9	1093.77777777778	0.6	1082	0.8	1103	0.6	1290.83333333333	0.9	885.333333333333	0.8	994.375	13	383329	1	383317	13	26	383342	-999999	383331	0	31	TrialsPROC	TO_021_TOOL21_BA.png	2	2	46	SessionSelectionList														lure	3	Tools	0-Back	41	80	39	0	0	90	1	39	225099	1	14	59	223060	-1	224014	0	954	2	3	2039	53	225113	-54	0																46												
WM080112	108828_fnca	2	1	1	-495567514	1	75.031	75.030	2.0.10.147	2.0.10.242	2.0.10.242	1.0.0.439	7	234	2	3	Verdana	1	80	0	0	0	WM Stimuli\	0.6	1070.16666666667	1	848.2	0.9	1093.77777777778	0.6	1082	0.8	1103	0.6	1290.83333333333	0.9	885.333333333333	0.8	994.375	13	383329	1	383317	13	26	383342	-999999	383331	0	32	Fix15secPROC	""	2	2	47	SessionSelectionList																																															6	225566	-7	0							47												
WM080112	108828_fnca	2	1	1	-495567514	1	75.031	75.030	2.0.10.147	2.0.10.242	2.0.10.242	1.0.0.439	7	234	2	3	Verdana	1	80	0	0	0	WM Stimuli\	0.6	1070.16666666667	1	848.2	0.9	1093.77777777778	0.6	1082	0.8	1103	0.6	1290.83333333333	0.9	885.333333333333	0.8	994.375	13	383329	1	383317	13	26	383342	-999999	383331	0	33	Cue2BackPROC	""	2	2	48	SessionSelectionList									13	240573	-14	0																																													48												
WM080112	108828_fnca	2	1	1	-495567514	1	75.031	75.030	2.0.10.147	2.0.10.242	2.0.10.242	1.0.0.439	7	234	2	3	Verdana	1	80	0	0	0	WM Stimuli\	0.6	1070.16666666667	1	848.2	0.9	1093.77777777778	0.6	1082	0.8	1103	0.6	1290.83333333333	0.9	885.333333333333	0.8	994.375	13	383329	1	383317	13	26	383342	-999999	383331	0	34	TrialsPROC	BP_020_H17-T_BA.png	2	2	49	SessionSelectionList														nonlure	3	Body	2-Back	42	80	39	0	1	90	1	39	245157	2	14	58	243118	-1	0	0	0	""	3	2039	53	245171	-54	0																49												
WM080112	108828_fnca	2	1	1	-495567514	1	75.031	75.030	2.0.10.147	2.0.10.242	2.0.10.242	1.0.0.439	7	234	2	3	Verdana	1	80	0	0	0	WM Stimuli\	0.6	1070.16666666667	1	848.2	0.9	1093.77777777778	0.6	1082	0.8	1103	0.6	1290.83333333333	0.9	885.333333333333	0.8	994.375	13	383329	1	383317	13	26	383342	-999999	383331	0	34	TrialsPROC	BP_019_H14-T_BA.png	2	2	50	SessionSelectionList														nonlure	3	Body	2-Back	43	80	40	0	0	90	1	39	247730	1	13	73	245691	-1	246637	1	946	3	3	2039	52	247743	-53	0																50												
WM080112	108828_fnca	2	1	1	-495567514	1	75.031	75.030	2.0.10.147	2.0.10.242	2.0.10.242	1.0.0.439	7	234	2	3	Verdana	1	80	0	0	0	WM Stimuli\	0.6	1070.16666666667	1	848.2	0.9	1093.77777777778	0.6	1082	0.8	1103	0.6	1290.83333333333	0.9	885.333333333333	0.8	994.375	13	383329	1	383317	13	26	383342	-999999	383331	0	34	TrialsPROC	BP_020_H17-T_BA.png	2	2	51	SessionSelectionList														target	2	Body	2-Back	44	80	41	0	0	90	1	39	250289	1	13	59	248250	-1	248812	1	562	2	2	2039	52	250302	-53	0																51												
WM080112	108828_fnca	2	1	1	-495567514	1	75.031	75.030	2.0.10.147	2.0.10.242	2.0.10.242	1.0.0.439	7	234	2	3	Verdana	1	80	0	0	0	WM Stimuli\	0.6	1070.16666666667	1	848.2	0.9	1093.77777777778	0.6	1082	0.8	1103	0.6	1290.83333333333	0.9	885.333333333333	0.8	994.375	13	383329	1	383317	13	26	383342	-999999	383331	0	34	TrialsPROC	BP_019_H14-T_BA.png	2	2	52	SessionSelectionList														target	2	Body	2-Back	45	80	42	0	0	90	2	40	252848	1	13	58	250808	-1	252121	1	1313	2	2	2040	53	252861	-54	0																52												
WM080112	108828_fnca	2	1	1	-495567514	1	75.031	75.030	2.0.10.147	2.0.10.242	2.0.10.242	1.0.0.439	7	234	2	3	Verdana	1	80	0	0	0	WM Stimuli\	0.6	1070.16666666667	1	848.2	0.9	1093.77777777778	0.6	1082	0.8	1103	0.6	1290.83333333333	0.9	885.333333333333	0.8	994.375	13	383329	1	383317	13	26	383342	-999999	383331	0	34	TrialsPROC	BP_024_H3-T_BA.png	2	2	53	SessionSelectionList														nonlure	3	Body	2-Back	46	80	43	0	0	90	1	40	255407	1	13	59	253367	-1	254563	1	1196	3	3	2040	53	255420	-54	0																53												
WM080112	108828_fnca	2	1	1	-495567514	1	75.031	75.030	2.0.10.147	2.0.10.242	2.0.10.242	1.0.0.439	7	234	2	3	Verdana	1	80	0	0	0	WM Stimuli\	0.6	1070.16666666667	1	848.2	0.9	1093.77777777778	0.6	1082	0.8	1103	0.6	1290.83333333333	0.9	885.333333333333	0.8	994.375	13	383329	1	383317	13	26	383342	-999999	383331	0	34	TrialsPROC	BP_024_H3-T_BA.png	2	2	54	SessionSelectionList														lure	3	Body	2-Back	47	80	43	0	1	90	1	39	257966	1	13	60	255927	-1	0	0	0	""	3	2039	52	257979	-53	0																54												
WM080112	108828_fnca	2	1	1	-495567514	1	75.031	75.030	2.0.10.147	2.0.10.242	2.0.10.242	1.0.0.439	7	234	2	3	Verdana	1	80	0	0	0	WM Stimuli\	0.6	1070.16666666667	1	848.2	0.9	1093.77777777778	0.6	1082	0.8	1103	0.6	1290.83333333333	0.9	885.333333333333	0.8	994.375	13	383329	1	383317	13	26	383342	-999999	383331	0	34	TrialsPROC	BP_025_H5-T_BA.png	2	2	55	SessionSelectionList														nonlure	3	Body	2-Back	48	80	44	0	0	90	1	39	260525	1	13	59	258486	-1	259310	0	824	2	3	2039	52	260538	-53	0																55												
WM080112	108828_fnca	2	1	1	-495567514	1	75.031	75.030	2.0.10.147	2.0.10.242	2.0.10.242	1.0.0.439	7	234	2	3	Verdana	1	80	0	0	0	WM Stimuli\	0.6	1070.16666666667	1	848.2	0.9	1093.77777777778	0.6	1082	0.8	1103	0.6	1290.83333333333	0.9	885.333333333333	0.8	994.375	13	383329	1	383317	13	26	383342	-999999	383331	0	34	TrialsPROC	BP_023_H25-T_BA.png	2	2	56	SessionSelectionList														nonlure	3	Body	2-Back	49	80	45	0	0	90	1	39	263084	1	13	59	261045	-1	262316	1	1271	3	3	2039	52	263097	-53	0																56												
WM080112	108828_fnca	2	1	1	-495567514	1	75.031	75.030	2.0.10.147	2.0.10.242	2.0.10.242	1.0.0.439	7	234	2	3	Verdana	1	80	0	0	0	WM Stimuli\	0.6	1070.16666666667	1	848.2	0.9	1093.77777777778	0.6	1082	0.8	1103	0.6	1290.83333333333	0.9	885.333333333333	0.8	994.375	13	383329	1	383317	13	26	383342	-999999	383331	0	34	TrialsPROC	BP_022_H24-T_BA.png	2	2	57	SessionSelectionList														nonlure	3	Body	2-Back	50	80	46	0	0	90	2	39	265642	2	14	58	263603	-1	264736	1	1133	3	3	2039	53	265656	-54	0																57												
WM080112	108828_fnca	2	1	1	-495567514	1	75.031	75.030	2.0.10.147	2.0.10.242	2.0.10.242	1.0.0.439	7	234	2	3	Verdana	1	80	0	0	0	WM Stimuli\	0.6	1070.16666666667	1	848.2	0.9	1093.77777777778	0.6	1082	0.8	1103	0.6	1290.83333333333	0.9	885.333333333333	0.8	994.375	13	383329	1	383317	13	26	383342	-999999	383331	0	34	TrialsPROC	BP_022_H24-T_BA.png	2	2	58	SessionSelectionList														lure	3	Body	2-Back	51	80	47	0	0	90	1	39	268201	2	14	59	266162	-1	267297	0	1135	2	3	2039	53	268215	-54	0																58												
WM080112	108828_fnca	2	1	1	-495567514	1	75.031	75.030	2.0.10.147	2.0.10.242	2.0.10.242	1.0.0.439	7	234	2	3	Verdana	1	80	0	0	0	WM Stimuli\	0.6	1070.16666666667	1	848.2	0.9	1093.77777777778	0.6	1082	0.8	1103	0.6	1290.83333333333	0.9	885.333333333333	0.8	994.375	13	383329	1	383317	13	26	383342	-999999	383331	0	35	Cue2BackPROC	""	2	2	59	SessionSelectionList									6	268668	-7	0																																													59												
WM080112	108828_fnca	2	1	1	-495567514	1	75.031	75.030	2.0.10.147	2.0.10.242	2.0.10.242	1.0.0.439	7	234	2	3	Verdana	1	80	0	0	0	WM Stimuli\	0.6	1070.16666666667	1	848.2	0.9	1093.77777777778	0.6	1082	0.8	1103	0.6	1290.83333333333	0.9	885.333333333333	0.8	994.375	13	383329	1	383317	13	26	383342	-999999	383331	0	36	TrialsPROC	PL_019_SCENE_05.png	2	2	60	SessionSelectionList														nonlure	3	Place	2-Back	52	80	48	0	0	90	1	39	273266	2	14	65	271227	-1	272535	1	1308	3	3	2039	53	273280	-54	0																60												
WM080112	108828_fnca	2	1	1	-495567514	1	75.031	75.030	2.0.10.147	2.0.10.242	2.0.10.242	1.0.0.439	7	234	2	3	Verdana	1	80	0	0	0	WM Stimuli\	0.6	1070.16666666667	1	848.2	0.9	1093.77777777778	0.6	1082	0.8	1103	0.6	1290.83333333333	0.9	885.333333333333	0.8	994.375	13	383329	1	383317	13	26	383342	-999999	383331	0	36	TrialsPROC	PL_017_SCENE_03.png	2	2	61	SessionSelectionList														nonlure	3	Place	2-Back	53	80	49	0	0	90	2	39	275838	2	14	72	273799	-1	274522	1	723	3	3	2039	53	275852	-54	0																61												
WM080112	108828_fnca	2	1	1	-495567514	1	75.031	75.030	2.0.10.147	2.0.10.242	2.0.10.242	1.0.0.439	7	234	2	3	Verdana	1	80	0	0	0	WM Stimuli\	0.6	1070.16666666667	1	848.2	0.9	1093.77777777778	0.6	1082	0.8	1103	0.6	1290.83333333333	0.9	885.333333333333	0.8	994.375	13	383329	1	383317	13	26	383342	-999999	383331	0	36	TrialsPROC	PL_017_SCENE_03.png	2	2	62	SessionSelectionList														lure	3	Place	2-Back	54	80	50	0	0	90	1	39	278411	2	13	73	276372	-1	278067	0	1695	2	3	2039	52	278424	-53	0																62												
WM080112	108828_fnca	2	1	1	-495567514	1	75.031	75.030	2.0.10.147	2.0.10.242	2.0.10.242	1.0.0.439	7	234	2	3	Verdana	1	80	0	0	0	WM Stimuli\	0.6	1070.16666666667	1	848.2	0.9	1093.77777777778	0.6	1082	0.8	1103	0.6	1290.83333333333	0.9	885.333333333333	0.8	994.375	13	383329	1	383317	13	26	383342	-999999	383331	0	36	TrialsPROC	PL_016_SCENE_02.png	2	2	63	SessionSelectionList														nonlure	3	Place	2-Back	55	80	51	0	0	90	1	39	280983	2	14	72	278944	-1	280149	1	1205	3	3	2039	53	280997	-54	0																63												
WM080112	108828_fnca	2	1	1	-495567514	1	75.031	75.030	2.0.10.147	2.0.10.242	2.0.10.242	1.0.0.439	7	234	2	3	Verdana	1	80	0	0	0	WM Stimuli\	0.6	1070.16666666667	1	848.2	0.9	1093.77777777778	0.6	1082	0.8	1103	0.6	1290.83333333333	0.9	885.333333333333	0.8	994.375	13	383329	1	383317	13	26	383342	-999999	383331	0	36	TrialsPROC	PL_015_SCENE_01.png	2	2	64	SessionSelectionList														nonlure	3	Place	2-Back	56	80	52	0	0	90	2	39	283555	2	14	72	281516	-1	282788	1	1272	3	3	2039	53	283569	-54	0																64												
WM080112	108828_fnca	2	1	1	-495567514	1	75.031	75.030	2.0.10.147	2.0.10.242	2.0.10.242	1.0.0.439	7	234	2	3	Verdana	1	80	0	0	0	WM Stimuli\	0.6	1070.16666666667	1	848.2	0.9	1093.77777777778	0.6	1082	0.8	1103	0.6	1290.83333333333	0.9	885.333333333333	0.8	994.375	13	383329	1	383317	13	26	383342	-999999	383331	0	36	TrialsPROC	PL_016_SCENE_02.png	2	2	65	SessionSelectionList														target	2	Place	2-Back	57	80	53	0	0	90	1	40	286128	1	13	72	284088	-1	284980	1	892	2	2	2040	53	286141	-54	0																65												
WM080112	108828_fnca	2	1	1	-495567514	1	75.031	75.030	2.0.10.147	2.0.10.242	2.0.10.242	1.0.0.439	7	234	2	3	Verdana	1	80	0	0	0	WM Stimuli\	0.6	1070.16666666667	1	848.2	0.9	1093.77777777778	0.6	1082	0.8	1103	0.6	1290.83333333333	0.9	885.333333333333	0.8	994.375	13	383329	1	383317	13	26	383342	-999999	383331	0	36	TrialsPROC	PL_015_SCENE_01.png	2	2	66	SessionSelectionList														target	2	Place	2-Back	58	80	54	0	0	90	2	39	288700	1	14	73	286661	-1	287899	1	1238	2	2	2039	53	288714	-54	0																66												
WM080112	108828_fnca	2	1	1	-495567514	1	75.031	75.030	2.0.10.147	2.0.10.242	2.0.10.242	1.0.0.439	7	234	2	3	Verdana	1	80	0	0	0	WM Stimuli\	0.6	1070.16666666667	1	848.2	0.9	1093.77777777778	0.6	1082	0.8	1103	0.6	1290.83333333333	0.9	885.333333333333	0.8	994.375	13	383329	1	383317	13	26	383342	-999999	383331	0	36	TrialsPROC	PL_020_SCENE_06.png	2	2	67	SessionSelectionList														nonlure	3	Place	2-Back	59	80	55	0	0	90	1	39	291272	2	14	72	289233	-1	290449	1	1216	3	3	2039	53	291286	-54	0																67												
WM080112	108828_fnca	2	1	1	-495567514	1	75.031	75.030	2.0.10.147	2.0.10.242	2.0.10.242	1.0.0.439	7	234	2	3	Verdana	1	80	0	0	0	WM Stimuli\	0.6	1070.16666666667	1	848.2	0.9	1093.77777777778	0.6	1082	0.8	1103	0.6	1290.83333333333	0.9	885.333333333333	0.8	994.375	13	383329	1	383317	13	26	383342	-999999	383331	0	36	TrialsPROC	PL_020_SCENE_06.png	2	2	68	SessionSelectionList														lure	3	Place	2-Back	60	80	55	0	1	90	1	40	293845	1	13	72	291805	-1	0	0	0	""	3	2040	53	293858	-54	0																68												
WM080112	108828_fnca	2	1	1	-495567514	1	75.031	75.030	2.0.10.147	2.0.10.242	2.0.10.242	1.0.0.439	7	234	2	3	Verdana	1	80	0	0	0	WM Stimuli\	0.6	1070.16666666667	1	848.2	0.9	1093.77777777778	0.6	1082	0.8	1103	0.6	1290.83333333333	0.9	885.333333333333	0.8	994.375	13	383329	1	383317	13	26	383342	-999999	383331	0	36	TrialsPROC	PL_018_SCENE_04.png	2	2	69	SessionSelectionList														nonlure	3	Place	2-Back	61	80	56	0	0	90	1	39	296417	1	14	73	294378	-1	295348	1	970	3	3	2039	53	296431	-54	0																69												
WM080112	108828_fnca	2	1	1	-495567514	1	75.031	75.030	2.0.10.147	2.0.10.242	2.0.10.242	1.0.0.439	7	234	2	3	Verdana	1	80	0	0	0	WM Stimuli\	0.6	1070.16666666667	1	848.2	0.9	1093.77777777778	0.6	1082	0.8	1103	0.6	1290.83333333333	0.9	885.333333333333	0.8	994.375	13	383329	1	383317	13	26	383342	-999999	383331	0	37	Fix15secPROC	""	2	2	70	SessionSelectionList																																															6	296884	-7	0							70												
WM080112	108828_fnca	2	1	1	-495567514	1	75.031	75.030	2.0.10.147	2.0.10.242	2.0.10.242	1.0.0.439	7	234	2	3	Verdana	1	80	0	0	0	WM Stimuli\	0.6	1070.16666666667	1	848.2	0.9	1093.77777777778	0.6	1082	0.8	1103	0.6	1290.83333333333	0.9	885.333333333333	0.8	994.375	13	383329	1	383317	13	26	383342	-999999	383331	0	38	Cue0BackPROC	FC_020_F10.png	2	2	71	SessionSelectionList																																										26	311904	-27	0												71												
WM080112	108828_fnca	2	1	1	-495567514	1	75.031	75.030	2.0.10.147	2.0.10.242	2.0.10.242	1.0.0.439	7	234	2	3	Verdana	1	80	0	0	0	WM Stimuli\	0.6	1070.16666666667	1	848.2	0.9	1093.77777777778	0.6	1082	0.8	1103	0.6	1290.83333333333	0.9	885.333333333333	0.8	994.375	13	383329	1	383317	13	26	383342	-999999	383331	0	39	TrialsPROC	FC_024_F12.png	2	2	72	SessionSelectionList														nonlure	3	Face	0-Back	62	80	56	0	1	86	1	39	316489	1	14	72	314450	-1	0	0	0	""	3	2039	53	316503	-54	0																72												
WM080112	108828_fnca	2	1	1	-495567514	1	75.031	75.030	2.0.10.147	2.0.10.242	2.0.10.242	1.0.0.439	7	234	2	3	Verdana	1	80	0	0	0	WM Stimuli\	0.6	1070.16666666667	1	848.2	0.9	1093.77777777778	0.6	1082	0.8	1103	0.6	1290.83333333333	0.9	885.333333333333	0.8	994.375	13	383329	1	383317	13	26	383342	-999999	383331	0	39	TrialsPROC	FC_023_M12.png	2	2	73	SessionSelectionList														nonlure	3	Face	0-Back	63	80	57	0	0	86	1	39	319061	2	14	72	317022	-1	317877	1	855	3	3	2039	53	319075	-54	0																73												
WM080112	108828_fnca	2	1	1	-495567514	1	75.031	75.030	2.0.10.147	2.0.10.242	2.0.10.242	1.0.0.439	7	234	2	3	Verdana	1	80	0	0	0	WM Stimuli\	0.6	1070.16666666667	1	848.2	0.9	1093.77777777778	0.6	1082	0.8	1103	0.6	1290.83333333333	0.9	885.333333333333	0.8	994.375	13	383329	1	383317	13	26	383342	-999999	383331	0	39	TrialsPROC	FC_020_F10.png	2	2	74	SessionSelectionList														target	2	Face	0-Back	64	80	58	0	0	83	2	39	321633	2	14	72	319594	-1	321148	0	1554	3	2	2039	53	321647	-54	0																74												
WM080112	108828_fnca	2	1	1	-495567514	1	75.031	75.030	2.0.10.147	2.0.10.242	2.0.10.242	1.0.0.439	7	234	2	3	Verdana	1	80	0	0	0	WM Stimuli\	0.6	1070.16666666667	1	848.2	0.9	1093.77777777778	0.6	1082	0.8	1103	0.6	1290.83333333333	0.9	885.333333333333	0.8	994.375	13	383329	1	383317	13	26	383342	-999999	383331	0	39	TrialsPROC	FC_024_F12.png	2	2	75	SessionSelectionList														lure	3	Face	0-Back	65	80	59	0	0	79	1	40	324206	1	13	72	322166	-1	323098	0	932	2	3	2040	53	324219	-54	0																75												
WM080112	108828_fnca	2	1	1	-495567514	1	75.031	75.030	2.0.10.147	2.0.10.242	2.0.10.242	1.0.0.439	7	234	2	3	Verdana	1	80	0	0	0	WM Stimuli\	0.6	1070.16666666667	1	848.2	0.9	1093.77777777778	0.6	1082	0.8	1103	0.6	1290.83333333333	0.9	885.333333333333	0.8	994.375	13	383329	1	383317	13	26	383342	-999999	383331	0	39	TrialsPROC	FC_020_F10.png	2	2	76	SessionSelectionList														target	2	Face	0-Back	66	80	60	0	0	76	1	39	326778	1	14	73	324739	-1	325694	0	955	3	2	2039	53	326792	-54	0																76												
WM080112	108828_fnca	2	1	1	-495567514	1	75.031	75.030	2.0.10.147	2.0.10.242	2.0.10.242	1.0.0.439	7	234	2	3	Verdana	1	80	0	0	0	WM Stimuli\	0.6	1070.16666666667	1	848.2	0.9	1093.77777777778	0.6	1082	0.8	1103	0.6	1290.83333333333	0.9	885.333333333333	0.8	994.375	13	383329	1	383317	13	26	383342	-999999	383331	0	39	TrialsPROC	FC_022_F11.png	2	2	77	SessionSelectionList														nonlure	3	Face	0-Back	67	80	61	0	0	77	2	39	329350	2	14	72	327311	-1	328299	1	988	3	3	2039	53	329364	-54	0																77												
WM080112	108828_fnca	2	1	1	-495567514	1	75.031	75.030	2.0.10.147	2.0.10.242	2.0.10.242	1.0.0.439	7	234	2	3	Verdana	1	80	0	0	0	WM Stimuli\	0.6	1070.16666666667	1	848.2	0.9	1093.77777777778	0.6	1082	0.8	1103	0.6	1290.83333333333	0.9	885.333333333333	0.8	994.375	13	383329	1	383317	13	26	383342	-999999	383331	0	39	TrialsPROC	FC_023_M12.png	2	2	78	SessionSelectionList														lure	3	Face	0-Back	68	80	62	0	0	78	3	40	331923	1	13	72	329883	-1	331140	1	1257	3	3	2040	53	331936	-54	0																78												
WM080112	108828_fnca	2	1	1	-495567514	1	75.031	75.030	2.0.10.147	2.0.10.242	2.0.10.242	1.0.0.439	7	234	2	3	Verdana	1	80	0	0	0	WM Stimuli\	0.6	1070.16666666667	1	848.2	0.9	1093.77777777778	0.6	1082	0.8	1103	0.6	1290.83333333333	0.9	885.333333333333	0.8	994.375	13	383329	1	383317	13	26	383342	-999999	383331	0	39	TrialsPROC	FC_021_M11.png	2	2	79	SessionSelectionList														nonlure	3	Face	0-Back	69	80	63	0	0	79	4	39	334495	1	14	73	332456	-1	333398	1	942	3	3	2039	53	334509	-54	0																79												
WM080112	108828_fnca	2	1	1	-495567514	1	75.031	75.030	2.0.10.147	2.0.10.242	2.0.10.242	1.0.0.439	7	234	2	3	Verdana	1	80	0	0	0	WM Stimuli\	0.6	1070.16666666667	1	848.2	0.9	1093.77777777778	0.6	1082	0.8	1103	0.6	1290.83333333333	0.9	885.333333333333	0.8	994.375	13	383329	1	383317	13	26	383342	-999999	383331	0	39	TrialsPROC	FC_021_M11.png	2	2	80	SessionSelectionList														lure	3	Face	0-Back	70	80	64	0	0	79	5	39	337067	2	14	72	335028	-1	336199	1	1171	3	3	2039	53	337081	-54	0																80												
WM080112	108828_fnca	2	1	1	-495567514	1	75.031	75.030	2.0.10.147	2.0.10.242	2.0.10.242	1.0.0.439	7	234	2	3	Verdana	1	80	0	0	0	WM Stimuli\	0.6	1070.16666666667	1	848.2	0.9	1093.77777777778	0.6	1082	0.8	1103	0.6	1290.83333333333	0.9	885.333333333333	0.8	994.375	13	383329	1	383317	13	26	383342	-999999	383331	0	39	TrialsPROC	FC_019_M10.png	2	2	81	SessionSelectionList														nonlure	3	Face	0-Back	71	80	65	0	0	80	6	39	339639	2	14	72	337600	-1	338879	1	1279	3	3	2039	53	339653	-54	0																81												
WM080112	108828_fnca	2	1	1	-495567514	1	75.031	75.030	2.0.10.147	2.0.10.242	2.0.10.242	1.0.0.439	7	234	2	3	Verdana	1	80	0	0	0	WM Stimuli\	0.6	1070.16666666667	1	848.2	0.9	1093.77777777778	0.6	1082	0.8	1103	0.6	1290.83333333333	0.9	885.333333333333	0.8	994.375	13	383329	1	383317	13	26	383342	-999999	383331	0	40	Cue0BackPROC	PL_021_SCENE_07.png	2	2	82	SessionSelectionList																																										19	340119	-20	0												82												
WM080112	108828_fnca	2	1	1	-495567514	1	75.031	75.030	2.0.10.147	2.0.10.242	2.0.10.242	1.0.0.439	7	234	2	3	Verdana	1	80	0	0	0	WM Stimuli\	0.6	1070.16666666667	1	848.2	0.9	1093.77777777778	0.6	1082	0.8	1103	0.6	1290.83333333333	0.9	885.333333333333	0.8	994.375	13	383329	1	383317	13	26	383342	-999999	383331	0	41	TrialsPROC	PL_025_SCENE_18.png	2	2	83	SessionSelectionList														nonlure	3	Place	0-Back	72	80	65	0	1	77	6	39	344704	1	14	65	342665	-1	0	0	0	""	3	2039	53	344718	-54	0																83												
WM080112	108828_fnca	2	1	1	-495567514	1	75.031	75.030	2.0.10.147	2.0.10.242	2.0.10.242	1.0.0.439	7	234	2	3	Verdana	1	80	0	0	0	WM Stimuli\	0.6	1070.16666666667	1	848.2	0.9	1093.77777777778	0.6	1082	0.8	1103	0.6	1290.83333333333	0.9	885.333333333333	0.8	994.375	13	383329	1	383317	13	26	383342	-999999	383331	0	41	TrialsPROC	PL_026_SCENE_24.png	2	2	84	SessionSelectionList														nonlure	3	Place	0-Back	73	80	66	0	0	78	1	39	347276	2	14	72	345237	-1	346073	1	836	3	3	2039	53	347290	-54	0																84												
WM080112	108828_fnca	2	1	1	-495567514	1	75.031	75.030	2.0.10.147	2.0.10.242	2.0.10.242	1.0.0.439	7	234	2	3	Verdana	1	80	0	0	0	WM Stimuli\	0.6	1070.16666666667	1	848.2	0.9	1093.77777777778	0.6	1082	0.8	1103	0.6	1290.83333333333	0.9	885.333333333333	0.8	994.375	13	383329	1	383317	13	26	383342	-999999	383331	0	41	TrialsPROC	PL_025_SCENE_18.png	2	2	85	SessionSelectionList														lure	3	Place	0-Back	74	80	67	0	0	76	1	40	349849	1	13	72	347809	-1	348580	0	771	2	3	2040	53	349862	-54	0																85												
WM080112	108828_fnca	2	1	1	-495567514	1	75.031	75.030	2.0.10.147	2.0.10.242	2.0.10.242	1.0.0.439	7	234	2	3	Verdana	1	80	0	0	0	WM Stimuli\	0.6	1070.16666666667	1	848.2	0.9	1093.77777777778	0.6	1082	0.8	1103	0.6	1290.83333333333	0.9	885.333333333333	0.8	994.375	13	383329	1	383317	13	26	383342	-999999	383331	0	41	TrialsPROC	PL_022_SCENE_08.png	2	2	86	SessionSelectionList														nonlure	3	Place	0-Back	75	80	68	0	0	76	1	39	352421	1	14	73	350382	-1	351529	1	1147	3	3	2039	53	352435	-54	0																86												
WM080112	108828_fnca	2	1	1	-495567514	1	75.031	75.030	2.0.10.147	2.0.10.242	2.0.10.242	1.0.0.439	7	234	2	3	Verdana	1	80	0	0	0	WM Stimuli\	0.6	1070.16666666667	1	848.2	0.9	1093.77777777778	0.6	1082	0.8	1103	0.6	1290.83333333333	0.9	885.333333333333	0.8	994.375	13	383329	1	383317	13	26	383342	-999999	383331	0	41	TrialsPROC	PL_026_SCENE_24.png	2	2	87	SessionSelectionList														lure	3	Place	0-Back	76	80	69	0	0	77	2	39	354993	2	14	72	352954	-1	354591	1	1637	3	3	2039	53	355007	-54	0																87												
WM080112	108828_fnca	2	1	1	-495567514	1	75.031	75.030	2.0.10.147	2.0.10.242	2.0.10.242	1.0.0.439	7	234	2	3	Verdana	1	80	0	0	0	WM Stimuli\	0.6	1070.16666666667	1	848.2	0.9	1093.77777777778	0.6	1082	0.8	1103	0.6	1290.83333333333	0.9	885.333333333333	0.8	994.375	13	383329	1	383317	13	26	383342	-999999	383331	0	41	TrialsPROC	PL_021_SCENE_07.png	2	2	88	SessionSelectionList														target	2	Place	0-Back	77	80	70	0	0	75	3	40	357566	1	13	72	355526	-1	357294	0	1768	3	2	2040	53	357579	-54	0																88												
WM080112	108828_fnca	2	1	1	-495567514	1	75.031	75.030	2.0.10.147	2.0.10.242	2.0.10.242	1.0.0.439	7	234	2	3	Verdana	1	80	0	0	0	WM Stimuli\	0.6	1070.16666666667	1	848.2	0.9	1093.77777777778	0.6	1082	0.8	1103	0.6	1290.83333333333	0.9	885.333333333333	0.8	994.375	13	383329	1	383317	13	26	383342	-999999	383331	0	41	TrialsPROC	PL_021_SCENE_07.png	2	2	89	SessionSelectionList														target	2	Place	0-Back	78	80	71	0	0	73	4	39	360138	1	14	73	358099	-1	359956	0	1857	3	2	2039	53	360152	-54	0																89												
WM080112	108828_fnca	2	1	1	-495567514	1	75.031	75.030	2.0.10.147	2.0.10.242	2.0.10.242	1.0.0.439	7	234	2	3	Verdana	1	80	0	0	0	WM Stimuli\	0.6	1070.16666666667	1	848.2	0.9	1093.77777777778	0.6	1082	0.8	1103	0.6	1290.83333333333	0.9	885.333333333333	0.8	994.375	13	383329	1	383317	13	26	383342	-999999	383331	0	41	TrialsPROC	PL_023_SCENE_09.png	2	2	90	SessionSelectionList														nonlure	3	Place	0-Back	79	80	72	0	0	74	5	39	362710	2	14	72	360671	-1	362240	1	1569	3	3	2039	53	362724	-54	0																90												
WM080112	108828_fnca	2	1	1	-495567514	1	75.031	75.030	2.0.10.147	2.0.10.242	2.0.10.242	1.0.0.439	7	234	2	3	Verdana	1	80	0	0	0	WM Stimuli\	0.6	1070.16666666667	1	848.2	0.9	1093.77777777778	0.6	1082	0.8	1103	0.6	1290.83333333333	0.9	885.333333333333	0.8	994.375	13	383329	1	383317	13	26	383342	-999999	383331	0	41	TrialsPROC	PL_024_SCENE_10.png	2	2	91	SessionSelectionList														nonlure	3	Place	0-Back	80	80	73	0	0	74	6	39	365282	2	14	72	363243	-1	364660	1	1417	3	3	2039	53	365296	-54	0																91												
WM080112	108828_fnca	2	1	1	-495567514	1	75.031	75.030	2.0.10.147	2.0.10.242	2.0.10.242	1.0.0.439	7	234	2	3	Verdana	1	80	0	0	0	WM Stimuli\	0.6	1070.16666666667	1	848.2	0.9	1093.77777777778	0.6	1082	0.8	1103	0.6	1290.83333333333	0.9	885.333333333333	0.8	994.375	13	383329	1	383317	13	26	383342	-999999	383331	0	41	TrialsPROC	PL_022_SCENE_08.png	2	2	92	SessionSelectionList														lure	3	Place	0-Back	80	80	74	0	0	75	7	39	367855	1	14	73	365816	-1	366955	1	1139	3	3	2039	53	367869	-54	0																92												
WM080112	108828_fnca	2	1	1	-495567514	1	75.031	75.030	2.0.10.147	2.0.10.242	2.0.10.242	1.0.0.439	7	234	2	3	Verdana	1	80	0	0	0	WM Stimuli\	0.6	1070.16666666667	1	848.2	0.9	1093.77777777778	0.6	1082	0.8	1103	0.6	1290.83333333333	0.9	885.333333333333	0.8	994.375	13	383329	1	383317	13	26	383342	-999999	383331	0	42	Fix15secPROC	""	2	2	93	SessionSelectionList																																															6	368322	-7	0							93												
