ExperimentName	HCPID	RunNumber	Subject	Session	RandomSeed	Group	Laptop.RefreshRate	ScannerD2.RefreshRate	StudioVersion	RuntimeVersion	RuntimeVersionExpected	ExperimentVersion	triggercode	Allowed	Target	Nontarget	FontStyle	RunTrialNumber[Session]	TrialsPerRun[Session]	TotalRespGreater200[Session]	ConsecRTLess200[Session]	ConsecNonResp[Session]	StimuliDir	ACC_2_Back_Body	Avg_RT_For_Correct_Trials_2_Back_Body	ACC_0_Back_Body	Avg_RT_For_Correct_Trials_0_Back_Body	ACC_2_Back_Face	Avg_RT_For_Correct_Trials_2_Back_Face	ACC_0_Back_Face	Avg_RT_For_Correct_Trials_0_Back_Face	ACC_2_Back_Place	Avg_RT_For_Correct_Trials_2_Back_Place	ACC_0_Back_Place	Avg_RT_For_Correct_Trials_0_Back_Place	ACC_2_Back_Tools	Avg_RT_For_Correct_Trials_2_Back_Tools	ACC_0_Back_Tools	Avg_RT_For_Correct_Trials_0_Back_Tools	ExpInstrucFeelFreeToRest.OnsetDelay	ExpInstrucFeelFreeToRest.OnsetTime	ExpInstrucFeelFreeToRest.DurationError	ExpInstrucFeelFreeToRest.StartTime	ExpInstrucFeelFreeToRest.OnsetToOnsetTime	FeelFreeToRest.OnsetDelay	FeelFreeToRest.OnsetTime	FeelFreeToRest.DurationError	FeelFreeToRest.StartTime	FeelFreeToRest.OnsetToOnsetTime	SessionSelectionList	Procedure[Block]	Stimulus[Block]	RunNumberFilterValue	SessionSelectionList.Cycle	SessionSelectionList.Sample	Running[Block]	IntroButtonMap.OnsetDelay	IntroButtonMap.OnsetTime	IntroButtonMap.DurationError	IntroButtonMap.OnsetToOnsetTime	GetReady.OnsetDelay	GetReady.OnsetTime	GetReady.DurationError	GetReady.OnsetToOnsetTime	Cue2Back.OnsetDelay	Cue2Back.OnsetTime	Cue2Back.DurationError	Cue2Back.OnsetToOnsetTime	Run1Block1	TargetType	CorrectResponse	StimType	BlockType	RunTrialNumber[Block]	TrialsPerRun[Block]	TotalRespGreater200[Block]	ConsecRTLess200[Block]	ConsecNonResp[Block]	ControlAcc	ConsecSameResp	ExperimenterWindow.OnsetDelay	ExperimenterWindow.OnsetTime	ExperimenterWindow.DurationError	ExperimenterWindow.OnsetToOnsetTime	Stim.OnsetDelay	Stim.OnsetTime	Stim.DurationError	Stim.RTTime	Stim.ACC	Stim.RT	Stim.RESP	Stim.CRESP	Stim.OnsetToOnsetTime	Fix.OnsetDelay	Fix.OnsetTime	Fix.DurationError	Fix.OnsetToOnsetTime	CueTarget.OnsetDelay	CueTarget.OnsetTime	CueTarget.DurationError	CueTarget.OnsetToOnsetTime	Run1Block2	Fix15sec.OnsetDelay	Fix15sec.OnsetTime	Fix15sec.DurationError	Fix15sec.OnsetToOnsetTime	Run1Block3	Run1Block4	Run1Block5	Run1Block6	Run1Block7	Run1Block8	Block	Procedure[Trial]	Stimulus[Trial]	ReadyList	Running[Trial]	ReadyList.Cycle	ReadyList.Sample	SyncSlide.OnsetDelay	SyncSlide.OnsetTime	SyncSlide.DurationError	SyncSlide.FinishTime	SyncSlide.OnsetToOnsetTime	Trial
WM080112	198451_fnca	1	1	1	560465135	1	75.033	75.031	2.0.10.147	2.0.10.242	2.0.10.242	1.0.0.439	7	234	2	3	Verdana	1	80	0	0	0	WM Stimuli\	0.7	1077	0.8	847.625	0.8	896.25	0.6	1020.16666666667	1	908.1	1	734.9	0.6	1041.66666666667	1	816.4	13	480566	2	480554	27	40	480593	-999999	480569	0	1	TRSyncPROC	""	1	2	1	SessionSelectionList	117	125365	-999999	0	38	171426	-999999	0																																																	1	InitialTR	4	1	ReadyList	1	1	12	187166	-13	189153	0	1
WM080112	198451_fnca	1	1	1	560465135	1	75.033	75.031	2.0.10.147	2.0.10.242	2.0.10.242	1.0.0.439	7	234	2	3	Verdana	1	80	0	0	0	WM Stimuli\	0.7	1077	0.8	847.625	0.8	896.25	0.6	1020.16666666667	1	908.1	1	734.9	0.6	1041.66666666667	1	816.4	13	480566	2	480554	27	40	480593	-999999	480569	0	1	TRSyncPROC	""	1	2	1	SessionSelectionList	117	125365	-999999	0	38	171426	-999999	0																																																	1	InitialTR	3	2	ReadyList	1	2	11	189165	-12	191153	0	2
WM080112	198451_fnca	1	1	1	560465135	1	75.033	75.031	2.0.10.147	2.0.10.242	2.0.10.242	1.0.0.439	7	234	2	3	Verdana	1	80	0	0	0	WM Stimuli\	0.7	1077	0.8	847.625	0.8	896.25	0.6	1020.16666666667	1	908.1	1	734.9	0.6	1041.66666666667	1	816.4	13	480566	2	480554	27	40	480593	-999999	480569	0	1	TRSyncPROC	""	1	2	1	SessionSelectionList	117	125365	-999999	0	38	171426	-999999	0																																																	1	InitialTR	2	3	ReadyList	1	3	10	191164	-11	193153	0	3
WM080112	198451_fnca	1	1	1	560465135	1	75.033	75.031	2.0.10.147	2.0.10.242	2.0.10.242	1.0.0.439	7	234	2	3	Verdana	1	80	0	0	0	WM Stimuli\	0.7	1077	0.8	847.625	0.8	896.25	0.6	1020.16666666667	1	908.1	1	734.9	0.6	1041.66666666667	1	816.4	13	480566	2	480554	27	40	480593	-999999	480569	0	1	TRSyncPROC	""	1	2	1	SessionSelectionList	117	125365	-999999	0	38	171426	-999999	0																																																	1	InitialTR	1	4	ReadyList	1	4	10	193164	-11	195153	0	4
WM080112	198451_fnca	1	1	1	560465135	1	75.033	75.031	2.0.10.147	2.0.10.242	2.0.10.242	1.0.0.439	7	234	2	3	Verdana	1	80	0	0	0	WM Stimuli\	0.7	1077	0.8	847.625	0.8	896.25	0.6	1020.16666666667	1	908.1	1	734.9	0.6	1041.66666666667	1	816.4	13	480566	2	480554	27	40	480593	-999999	480569	0	2	Cue2BackPROC	""	1	2	2	SessionSelectionList									9	195163	-10	0																																													2												
WM080112	198451_fnca	1	1	1	560465135	1	75.033	75.031	2.0.10.147	2.0.10.242	2.0.10.242	1.0.0.439	7	234	2	3	Verdana	1	80	0	0	0	WM Stimuli\	0.7	1077	0.8	847.625	0.8	896.25	0.6	1020.16666666667	1	908.1	1	734.9	0.6	1041.66666666667	1	816.4	13	480566	2	480554	27	40	480593	-999999	480569	0	3	TrialsPROC	BP_002_BP10_BA.png	1	2	3	SessionSelectionList													1	nonlure	3	Body	2-Back	2	80	1	0	0	0	1	53	199788	3	13	81	197735	-1	199697	0	1962	2	3	2053	66	199801	-67	0																3												
WM080112	198451_fnca	1	1	1	560465135	1	75.033	75.031	2.0.10.147	2.0.10.242	2.0.10.242	1.0.0.439	7	234	2	3	Verdana	1	80	0	0	0	WM Stimuli\	0.7	1077	0.8	847.625	0.8	896.25	0.6	1020.16666666667	1	908.1	1	734.9	0.6	1041.66666666667	1	816.4	13	480566	2	480554	27	40	480593	-999999	480569	0	3	TrialsPROC	BP_001_BP1_BA.png	1	2	4	SessionSelectionList													2	nonlure	3	Body	2-Back	3	80	2	0	0	0	1	40	202347	2	13	72	200307	-1	201557	1	1250	3	3	2040	53	202360	-54	0																4												
WM080112	198451_fnca	1	1	1	560465135	1	75.033	75.031	2.0.10.147	2.0.10.242	2.0.10.242	1.0.0.439	7	234	2	3	Verdana	1	80	0	0	0	WM Stimuli\	0.7	1077	0.8	847.625	0.8	896.25	0.6	1020.16666666667	1	908.1	1	734.9	0.6	1041.66666666667	1	816.4	13	480566	2	480554	27	40	480593	-999999	480569	0	3	TrialsPROC	BP_006_BP2_BA.png	1	2	5	SessionSelectionList													3	nonlure	3	Body	2-Back	4	80	3	0	0	0	2	39	204905	2	14	59	202866	-1	203829	1	963	3	3	2039	53	204919	-54	0																5												
WM080112	198451_fnca	1	1	1	560465135	1	75.033	75.031	2.0.10.147	2.0.10.242	2.0.10.242	1.0.0.439	7	234	2	3	Verdana	1	80	0	0	0	WM Stimuli\	0.7	1077	0.8	847.625	0.8	896.25	0.6	1020.16666666667	1	908.1	1	734.9	0.6	1041.66666666667	1	816.4	13	480566	2	480554	27	40	480593	-999999	480569	0	3	TrialsPROC	BP_001_BP1_BA.png	1	2	6	SessionSelectionList													4	target	2	Body	2-Back	5	80	4	0	0	0	1	39	207478	1	13	73	205439	-1	207043	1	1604	2	2	2039	52	207491	-53	0																6												
WM080112	198451_fnca	1	1	1	560465135	1	75.033	75.031	2.0.10.147	2.0.10.242	2.0.10.242	1.0.0.439	7	234	2	3	Verdana	1	80	0	0	0	WM Stimuli\	0.7	1077	0.8	847.625	0.8	896.25	0.6	1020.16666666667	1	908.1	1	734.9	0.6	1041.66666666667	1	816.4	13	480566	2	480554	27	40	480593	-999999	480569	0	3	TrialsPROC	BP_005_BP19_BA.png	1	2	7	SessionSelectionList													5	nonlure	3	Body	2-Back	6	80	5	0	0	0	1	39	210050	1	14	72	208011	-1	209139	1	1128	3	3	2039	53	210064	-54	0																7												
WM080112	198451_fnca	1	1	1	560465135	1	75.033	75.031	2.0.10.147	2.0.10.242	2.0.10.242	1.0.0.439	7	234	2	3	Verdana	1	80	0	0	0	WM Stimuli\	0.7	1077	0.8	847.625	0.8	896.25	0.6	1020.16666666667	1	908.1	1	734.9	0.6	1041.66666666667	1	816.4	13	480566	2	480554	27	40	480593	-999999	480569	0	3	TrialsPROC	BP_003_BP16_BA.png	1	2	8	SessionSelectionList													6	nonlure	3	Body	2-Back	7	80	6	0	0	0	2	39	212609	1	14	59	210570	-1	211285	1	715	3	3	2039	53	212623	-54	0																8												
WM080112	198451_fnca	1	1	1	560465135	1	75.033	75.031	2.0.10.147	2.0.10.242	2.0.10.242	1.0.0.439	7	234	2	3	Verdana	1	80	0	0	0	WM Stimuli\	0.7	1077	0.8	847.625	0.8	896.25	0.6	1020.16666666667	1	908.1	1	734.9	0.6	1041.66666666667	1	816.4	13	480566	2	480554	27	40	480593	-999999	480569	0	3	TrialsPROC	BP_006_BP2_BA.png	1	2	9	SessionSelectionList													7	lure	3	Body	2-Back	8	80	7	0	0	0	1	39	215168	1	14	59	213129	-1	214314	0	1185	2	3	2039	53	215182	-54	0																9												
WM080112	198451_fnca	1	1	1	560465135	1	75.033	75.031	2.0.10.147	2.0.10.242	2.0.10.242	1.0.0.439	7	234	2	3	Verdana	1	80	0	0	0	WM Stimuli\	0.7	1077	0.8	847.625	0.8	896.25	0.6	1020.16666666667	1	908.1	1	734.9	0.6	1041.66666666667	1	816.4	13	480566	2	480554	27	40	480593	-999999	480569	0	3	TrialsPROC	BP_004_BP18_BA.png	1	2	10	SessionSelectionList													8	nonlure	3	Body	2-Back	9	80	8	0	0	0	1	39	217727	1	14	59	215688	-1	216719	1	1031	3	3	2039	53	217741	-54	0																10												
WM080112	198451_fnca	1	1	1	560465135	1	75.033	75.031	2.0.10.147	2.0.10.242	2.0.10.242	1.0.0.439	7	234	2	3	Verdana	1	80	0	0	0	WM Stimuli\	0.7	1077	0.8	847.625	0.8	896.25	0.6	1020.16666666667	1	908.1	1	734.9	0.6	1041.66666666667	1	816.4	13	480566	2	480554	27	40	480593	-999999	480569	0	3	TrialsPROC	BP_005_BP19_BA.png	1	2	11	SessionSelectionList													9	lure	3	Body	2-Back	10	80	9	0	0	0	1	39	220286	1	13	59	218247	-1	219198	0	951	2	3	2039	52	220299	-53	0																11												
WM080112	198451_fnca	1	1	1	560465135	1	75.033	75.031	2.0.10.147	2.0.10.242	2.0.10.242	1.0.0.439	7	234	2	3	Verdana	1	80	0	0	0	WM Stimuli\	0.7	1077	0.8	847.625	0.8	896.25	0.6	1020.16666666667	1	908.1	1	734.9	0.6	1041.66666666667	1	816.4	13	480566	2	480554	27	40	480593	-999999	480569	0	3	TrialsPROC	BP_004_BP18_BA.png	1	2	12	SessionSelectionList													10	target	2	Body	2-Back	11	80	10	0	0	0	2	39	222845	1	13	59	220806	-1	221654	1	848	2	2	2039	52	222858	-53	0																12												
WM080112	198451_fnca	1	1	1	560465135	1	75.033	75.031	2.0.10.147	2.0.10.242	2.0.10.242	1.0.0.439	7	234	2	3	Verdana	1	80	0	0	0	WM Stimuli\	0.7	1077	0.8	847.625	0.8	896.25	0.6	1020.16666666667	1	908.1	1	734.9	0.6	1041.66666666667	1	816.4	13	480566	2	480554	27	40	480593	-999999	480569	0	4	Cue0BackPROC	FC_001_M1.png	1	2	13	SessionSelectionList																																										19	223325	-20	0												13												
WM080112	198451_fnca	1	1	1	560465135	1	75.033	75.031	2.0.10.147	2.0.10.242	2.0.10.242	1.0.0.439	7	234	2	3	Verdana	1	80	0	0	0	WM Stimuli\	0.7	1077	0.8	847.625	0.8	896.25	0.6	1020.16666666667	1	908.1	1	734.9	0.6	1041.66666666667	1	816.4	13	480566	2	480554	27	40	480593	-999999	480569	0	5	TrialsPROC	FC_005_M3.png	1	2	14	SessionSelectionList														nonlure	3	Face	0-Back	12	80	11	0	0	100	1	39	227909	2	14	64	225870	-1	227043	1	1173	3	3	2039	53	227923	-54	0					1											14												
WM080112	198451_fnca	1	1	1	560465135	1	75.033	75.031	2.0.10.147	2.0.10.242	2.0.10.242	1.0.0.439	7	234	2	3	Verdana	1	80	0	0	0	WM Stimuli\	0.7	1077	0.8	847.625	0.8	896.25	0.6	1020.16666666667	1	908.1	1	734.9	0.6	1041.66666666667	1	816.4	13	480566	2	480554	27	40	480593	-999999	480569	0	5	TrialsPROC	FC_001_M1.png	1	2	15	SessionSelectionList														target	2	Face	0-Back	13	80	11	0	1	50	1	39	230482	1	13	73	228443	-1	0	0	0	""	2	2039	52	230495	-53	0					2											15												
WM080112	198451_fnca	1	1	1	560465135	1	75.033	75.031	2.0.10.147	2.0.10.242	2.0.10.242	1.0.0.439	7	234	2	3	Verdana	1	80	0	0	0	WM Stimuli\	0.7	1077	0.8	847.625	0.8	896.25	0.6	1020.16666666667	1	908.1	1	734.9	0.6	1041.66666666667	1	816.4	13	480566	2	480554	27	40	480593	-999999	480569	0	5	TrialsPROC	FC_003_M2.png	1	2	16	SessionSelectionList														nonlure	3	Face	0-Back	14	80	12	0	0	67	1	39	233054	1	14	72	231015	-1	232310	1	1295	3	3	2039	53	233068	-54	0					3											16												
WM080112	198451_fnca	1	1	1	560465135	1	75.033	75.031	2.0.10.147	2.0.10.242	2.0.10.242	1.0.0.439	7	234	2	3	Verdana	1	80	0	0	0	WM Stimuli\	0.7	1077	0.8	847.625	0.8	896.25	0.6	1020.16666666667	1	908.1	1	734.9	0.6	1041.66666666667	1	816.4	13	480566	2	480554	27	40	480593	-999999	480569	0	5	TrialsPROC	FC_004_F2.png	1	2	17	SessionSelectionList														nonlure	3	Face	0-Back	15	80	13	0	0	75	2	39	235626	2	14	72	233587	-1	234145	1	558	3	3	2039	53	235640	-54	0					4											17												
WM080112	198451_fnca	1	1	1	560465135	1	75.033	75.031	2.0.10.147	2.0.10.242	2.0.10.242	1.0.0.439	7	234	2	3	Verdana	1	80	0	0	0	WM Stimuli\	0.7	1077	0.8	847.625	0.8	896.25	0.6	1020.16666666667	1	908.1	1	734.9	0.6	1041.66666666667	1	816.4	13	480566	2	480554	27	40	480593	-999999	480569	0	5	TrialsPROC	FC_004_F2.png	1	2	18	SessionSelectionList														lure	3	Face	0-Back	16	80	14	0	0	60	1	40	238199	1	13	72	236159	-1	236956	0	797	2	3	2040	53	238212	-54	0					5											18												
WM080112	198451_fnca	1	1	1	560465135	1	75.033	75.031	2.0.10.147	2.0.10.242	2.0.10.242	1.0.0.439	7	234	2	3	Verdana	1	80	0	0	0	WM Stimuli\	0.7	1077	0.8	847.625	0.8	896.25	0.6	1020.16666666667	1	908.1	1	734.9	0.6	1041.66666666667	1	816.4	13	480566	2	480554	27	40	480593	-999999	480569	0	5	TrialsPROC	FC_001_M1.png	1	2	19	SessionSelectionList														target	2	Face	0-Back	17	80	15	0	0	50	1	39	240771	1	13	73	238732	-1	240291	0	1559	3	2	2039	52	240784	-53	0					6											19												
WM080112	198451_fnca	1	1	1	560465135	1	75.033	75.031	2.0.10.147	2.0.10.242	2.0.10.242	1.0.0.439	7	234	2	3	Verdana	1	80	0	0	0	WM Stimuli\	0.7	1077	0.8	847.625	0.8	896.25	0.6	1020.16666666667	1	908.1	1	734.9	0.6	1041.66666666667	1	816.4	13	480566	2	480554	27	40	480593	-999999	480569	0	5	TrialsPROC	FC_006_F3.png	1	2	20	SessionSelectionList														nonlure	3	Face	0-Back	18	80	16	0	0	57	2	39	243343	2	14	72	241304	-1	242154	1	850	3	3	2039	53	243357	-54	0					7											20												
WM080112	198451_fnca	1	1	1	560465135	1	75.033	75.031	2.0.10.147	2.0.10.242	2.0.10.242	1.0.0.439	7	234	2	3	Verdana	1	80	0	0	0	WM Stimuli\	0.7	1077	0.8	847.625	0.8	896.25	0.6	1020.16666666667	1	908.1	1	734.9	0.6	1041.66666666667	1	816.4	13	480566	2	480554	27	40	480593	-999999	480569	0	5	TrialsPROC	FC_006_F3.png	1	2	21	SessionSelectionList														lure	3	Face	0-Back	19	80	17	0	0	50	1	39	245915	2	14	72	243876	-1	244600	0	724	2	3	2039	53	245929	-54	0					8											21												
WM080112	198451_fnca	1	1	1	560465135	1	75.033	75.031	2.0.10.147	2.0.10.242	2.0.10.242	1.0.0.439	7	234	2	3	Verdana	1	80	0	0	0	WM Stimuli\	0.7	1077	0.8	847.625	0.8	896.25	0.6	1020.16666666667	1	908.1	1	734.9	0.6	1041.66666666667	1	816.4	13	480566	2	480554	27	40	480593	-999999	480569	0	5	TrialsPROC	FC_003_M2.png	1	2	22	SessionSelectionList														lure	3	Face	0-Back	20	80	18	0	0	56	1	39	248488	1	13	73	246449	-1	247491	1	1042	3	3	2039	52	248501	-53	0					9											22												
WM080112	198451_fnca	1	1	1	560465135	1	75.033	75.031	2.0.10.147	2.0.10.242	2.0.10.242	1.0.0.439	7	234	2	3	Verdana	1	80	0	0	0	WM Stimuli\	0.7	1077	0.8	847.625	0.8	896.25	0.6	1020.16666666667	1	908.1	1	734.9	0.6	1041.66666666667	1	816.4	13	480566	2	480554	27	40	480593	-999999	480569	0	5	TrialsPROC	FC_002_F1.png	1	2	23	SessionSelectionList														nonlure	3	Face	0-Back	21	80	19	0	0	60	2	39	251060	1	14	72	249021	-1	250224	1	1203	3	3	2039	53	251074	-54	0					10											23												
WM080112	198451_fnca	1	1	1	560465135	1	75.033	75.031	2.0.10.147	2.0.10.242	2.0.10.242	1.0.0.439	7	234	2	3	Verdana	1	80	0	0	0	WM Stimuli\	0.7	1077	0.8	847.625	0.8	896.25	0.6	1020.16666666667	1	908.1	1	734.9	0.6	1041.66666666667	1	816.4	13	480566	2	480554	27	40	480593	-999999	480569	0	6	Fix15secPROC	""	1	2	24	SessionSelectionList																																															6	251527	-7	0							24												
WM080112	198451_fnca	1	1	1	560465135	1	75.033	75.031	2.0.10.147	2.0.10.242	2.0.10.242	1.0.0.439	7	234	2	3	Verdana	1	80	0	0	0	WM Stimuli\	0.7	1077	0.8	847.625	0.8	896.25	0.6	1020.16666666667	1	908.1	1	734.9	0.6	1041.66666666667	1	816.4	13	480566	2	480554	27	40	480593	-999999	480569	0	7	Cue2BackPROC	""	1	2	25	SessionSelectionList									13	266534	-14	0																																													25												
WM080112	198451_fnca	1	1	1	560465135	1	75.033	75.031	2.0.10.147	2.0.10.242	2.0.10.242	1.0.0.439	7	234	2	3	Verdana	1	80	0	0	0	WM Stimuli\	0.7	1077	0.8	847.625	0.8	896.25	0.6	1020.16666666667	1	908.1	1	734.9	0.6	1041.66666666667	1	816.4	13	480566	2	480554	27	40	480593	-999999	480569	0	8	TrialsPROC	TO_001_TOOL1_BA.png	1	2	26	SessionSelectionList														nonlure	3	Tools	2-Back	22	80	19	0	1	60	2	39	271118	2	14	58	269079	-1	0	0	0	""	3	2039	53	271132	-54	0										1						26												
WM080112	198451_fnca	1	1	1	560465135	1	75.033	75.031	2.0.10.147	2.0.10.242	2.0.10.242	1.0.0.439	7	234	2	3	Verdana	1	80	0	0	0	WM Stimuli\	0.7	1077	0.8	847.625	0.8	896.25	0.6	1020.16666666667	1	908.1	1	734.9	0.6	1041.66666666667	1	816.4	13	480566	2	480554	27	40	480593	-999999	480569	0	8	TrialsPROC	TO_002_TOOL2_BA.png	1	2	27	SessionSelectionList														nonlure	3	Tools	2-Back	23	80	20	0	0	60	1	39	273677	2	14	59	271638	-1	273314	0	1676	2	3	2039	53	273691	-54	0										2						27												
WM080112	198451_fnca	1	1	1	560465135	1	75.033	75.031	2.0.10.147	2.0.10.242	2.0.10.242	1.0.0.439	7	234	2	3	Verdana	1	80	0	0	0	WM Stimuli\	0.7	1077	0.8	847.625	0.8	896.25	0.6	1020.16666666667	1	908.1	1	734.9	0.6	1041.66666666667	1	816.4	13	480566	2	480554	27	40	480593	-999999	480569	0	8	TrialsPROC	TO_004_TOOL4_BA.png	1	2	28	SessionSelectionList														nonlure	3	Tools	2-Back	24	80	21	0	0	60	2	39	276236	2	14	59	274197	-1	275392	0	1195	2	3	2039	53	276250	-54	0										3						28												
WM080112	198451_fnca	1	1	1	560465135	1	75.033	75.031	2.0.10.147	2.0.10.242	2.0.10.242	1.0.0.439	7	234	2	3	Verdana	1	80	0	0	0	WM Stimuli\	0.7	1077	0.8	847.625	0.8	896.25	0.6	1020.16666666667	1	908.1	1	734.9	0.6	1041.66666666667	1	816.4	13	480566	2	480554	27	40	480593	-999999	480569	0	8	TrialsPROC	TO_002_TOOL2_BA.png	1	2	29	SessionSelectionList														target	2	Tools	2-Back	25	80	22	0	0	60	3	39	278795	2	14	59	276756	-1	278644	1	1888	2	2	2039	53	278809	-54	0										4						29												
WM080112	198451_fnca	1	1	1	560465135	1	75.033	75.031	2.0.10.147	2.0.10.242	2.0.10.242	1.0.0.439	7	234	2	3	Verdana	1	80	0	0	0	WM Stimuli\	0.7	1077	0.8	847.625	0.8	896.25	0.6	1020.16666666667	1	908.1	1	734.9	0.6	1041.66666666667	1	816.4	13	480566	2	480554	27	40	480593	-999999	480569	0	8	TrialsPROC	TO_001_TOOL1_BA.png	1	2	30	SessionSelectionList														lure	3	Tools	2-Back	26	80	23	0	0	60	4	39	281354	2	14	59	279315	-1	280203	0	888	2	3	2039	53	281368	-54	0										5						30												
WM080112	198451_fnca	1	1	1	560465135	1	75.033	75.031	2.0.10.147	2.0.10.242	2.0.10.242	1.0.0.439	7	234	2	3	Verdana	1	80	0	0	0	WM Stimuli\	0.7	1077	0.8	847.625	0.8	896.25	0.6	1020.16666666667	1	908.1	1	734.9	0.6	1041.66666666667	1	816.4	13	480566	2	480554	27	40	480593	-999999	480569	0	8	TrialsPROC	TO_004_TOOL4_BA.png	1	2	31	SessionSelectionList														lure	3	Tools	2-Back	27	80	24	0	0	60	1	39	283913	2	14	59	281874	-1	283091	1	1217	3	3	2039	53	283927	-54	0										6						31												
WM080112	198451_fnca	1	1	1	560465135	1	75.033	75.031	2.0.10.147	2.0.10.242	2.0.10.242	1.0.0.439	7	234	2	3	Verdana	1	80	0	0	0	WM Stimuli\	0.7	1077	0.8	847.625	0.8	896.25	0.6	1020.16666666667	1	908.1	1	734.9	0.6	1041.66666666667	1	816.4	13	480566	2	480554	27	40	480593	-999999	480569	0	8	TrialsPROC	TO_006_TOOL6_BA.png	1	2	32	SessionSelectionList														nonlure	3	Tools	2-Back	28	80	25	0	0	60	2	39	286472	2	14	59	284433	-1	285306	1	873	3	3	2039	53	286486	-54	0										7						32												
WM080112	198451_fnca	1	1	1	560465135	1	75.033	75.031	2.0.10.147	2.0.10.242	2.0.10.242	1.0.0.439	7	234	2	3	Verdana	1	80	0	0	0	WM Stimuli\	0.7	1077	0.8	847.625	0.8	896.25	0.6	1020.16666666667	1	908.1	1	734.9	0.6	1041.66666666667	1	816.4	13	480566	2	480554	27	40	480593	-999999	480569	0	8	TrialsPROC	TO_005_TOOL5_BA.png	1	2	33	SessionSelectionList														nonlure	3	Tools	2-Back	29	80	26	0	0	60	3	39	289031	1	14	59	286992	-1	287849	1	857	3	3	2039	53	289045	-54	0										8						33												
WM080112	198451_fnca	1	1	1	560465135	1	75.033	75.031	2.0.10.147	2.0.10.242	2.0.10.242	1.0.0.439	7	234	2	3	Verdana	1	80	0	0	0	WM Stimuli\	0.7	1077	0.8	847.625	0.8	896.25	0.6	1020.16666666667	1	908.1	1	734.9	0.6	1041.66666666667	1	816.4	13	480566	2	480554	27	40	480593	-999999	480569	0	8	TrialsPROC	TO_006_TOOL6_BA.png	1	2	34	SessionSelectionList														target	2	Tools	2-Back	30	80	27	0	0	60	1	39	291590	1	14	59	289551	-1	290271	1	720	2	2	2039	53	291604	-54	0										9						34												
WM080112	198451_fnca	1	1	1	560465135	1	75.033	75.031	2.0.10.147	2.0.10.242	2.0.10.242	1.0.0.439	7	234	2	3	Verdana	1	80	0	0	0	WM Stimuli\	0.7	1077	0.8	847.625	0.8	896.25	0.6	1020.16666666667	1	908.1	1	734.9	0.6	1041.66666666667	1	816.4	13	480566	2	480554	27	40	480593	-999999	480569	0	8	TrialsPROC	TO_003_TOOL3_BA.png	1	2	35	SessionSelectionList														nonlure	3	Tools	2-Back	31	80	28	0	0	60	1	39	294149	1	14	59	292110	-1	292805	1	695	3	3	2039	53	294163	-54	0										10						35												
WM080112	198451_fnca	1	1	1	560465135	1	75.033	75.031	2.0.10.147	2.0.10.242	2.0.10.242	1.0.0.439	7	234	2	3	Verdana	1	80	0	0	0	WM Stimuli\	0.7	1077	0.8	847.625	0.8	896.25	0.6	1020.16666666667	1	908.1	1	734.9	0.6	1041.66666666667	1	816.4	13	480566	2	480554	27	40	480593	-999999	480569	0	9	Cue0BackPROC	BP_007_BP20_BA.png	1	2	36	SessionSelectionList																																										19	294629	-20	0												36												
WM080112	198451_fnca	1	1	1	560465135	1	75.033	75.031	2.0.10.147	2.0.10.242	2.0.10.242	1.0.0.439	7	234	2	3	Verdana	1	80	0	0	0	WM Stimuli\	0.7	1077	0.8	847.625	0.8	896.25	0.6	1020.16666666667	1	908.1	1	734.9	0.6	1041.66666666667	1	816.4	13	480566	2	480554	27	40	480593	-999999	480569	0	10	TrialsPROC	BP_007_BP20_BA.png	1	2	37	SessionSelectionList														target	2	Body	0-Back	32	80	29	0	0	64	1	39	299200	2	14	51	297161	-1	298300	1	1139	2	2	2039	53	299214	-54	0											1					37												
WM080112	198451_fnca	1	1	1	560465135	1	75.033	75.031	2.0.10.147	2.0.10.242	2.0.10.242	1.0.0.439	7	234	2	3	Verdana	1	80	0	0	0	WM Stimuli\	0.7	1077	0.8	847.625	0.8	896.25	0.6	1020.16666666667	1	908.1	1	734.9	0.6	1041.66666666667	1	816.4	13	480566	2	480554	27	40	480593	-999999	480569	0	10	TrialsPROC	BP_011_BP4_BA.png	1	2	38	SessionSelectionList														nonlure	3	Body	0-Back	33	80	30	0	0	67	1	39	301759	2	14	59	299720	-1	300284	1	564	3	3	2039	53	301773	-54	0											2					38												
WM080112	198451_fnca	1	1	1	560465135	1	75.033	75.031	2.0.10.147	2.0.10.242	2.0.10.242	1.0.0.439	7	234	2	3	Verdana	1	80	0	0	0	WM Stimuli\	0.7	1077	0.8	847.625	0.8	896.25	0.6	1020.16666666667	1	908.1	1	734.9	0.6	1041.66666666667	1	816.4	13	480566	2	480554	27	40	480593	-999999	480569	0	10	TrialsPROC	BP_010_BP3_BA.png	1	2	39	SessionSelectionList														nonlure	3	Body	0-Back	34	80	31	0	0	69	2	39	304318	2	14	59	302279	-1	302910	1	631	3	3	2039	53	304332	-54	0											3					39												
WM080112	198451_fnca	1	1	1	560465135	1	75.033	75.031	2.0.10.147	2.0.10.242	2.0.10.242	1.0.0.439	7	234	2	3	Verdana	1	80	0	0	0	WM Stimuli\	0.7	1077	0.8	847.625	0.8	896.25	0.6	1020.16666666667	1	908.1	1	734.9	0.6	1041.66666666667	1	816.4	13	480566	2	480554	27	40	480593	-999999	480569	0	10	TrialsPROC	BP_008_BP21_BA.png	1	2	40	SessionSelectionList														nonlure	3	Body	0-Back	35	80	32	0	0	71	3	39	306877	2	14	59	304838	-1	306237	1	1399	3	3	2039	53	306891	-54	0											4					40												
WM080112	198451_fnca	1	1	1	560465135	1	75.033	75.031	2.0.10.147	2.0.10.242	2.0.10.242	1.0.0.439	7	234	2	3	Verdana	1	80	0	0	0	WM Stimuli\	0.7	1077	0.8	847.625	0.8	896.25	0.6	1020.16666666667	1	908.1	1	734.9	0.6	1041.66666666667	1	816.4	13	480566	2	480554	27	40	480593	-999999	480569	0	10	TrialsPROC	BP_011_BP4_BA.png	1	2	41	SessionSelectionList														lure	3	Body	0-Back	36	80	33	0	0	73	4	39	309436	2	14	59	307397	-1	308172	1	775	3	3	2039	53	309450	-54	0											5					41												
WM080112	198451_fnca	1	1	1	560465135	1	75.033	75.031	2.0.10.147	2.0.10.242	2.0.10.242	1.0.0.439	7	234	2	3	Verdana	1	80	0	0	0	WM Stimuli\	0.7	1077	0.8	847.625	0.8	896.25	0.6	1020.16666666667	1	908.1	1	734.9	0.6	1041.66666666667	1	816.4	13	480566	2	480554	27	40	480593	-999999	480569	0	10	TrialsPROC	BP_009_BP22_BA.png	1	2	42	SessionSelectionList														nonlure	3	Body	0-Back	37	80	34	0	0	75	5	39	311995	1	14	59	309956	-1	310728	1	772	3	3	2039	53	312009	-54	0											6					42												
WM080112	198451_fnca	1	1	1	560465135	1	75.033	75.031	2.0.10.147	2.0.10.242	2.0.10.242	1.0.0.439	7	234	2	3	Verdana	1	80	0	0	0	WM Stimuli\	0.7	1077	0.8	847.625	0.8	896.25	0.6	1020.16666666667	1	908.1	1	734.9	0.6	1041.66666666667	1	816.4	13	480566	2	480554	27	40	480593	-999999	480569	0	10	TrialsPROC	BP_009_BP22_BA.png	1	2	43	SessionSelectionList														lure	3	Body	0-Back	38	80	35	0	0	76	6	39	314554	1	14	59	312515	-1	313208	1	693	3	3	2039	53	314568	-54	0											7					43												
WM080112	198451_fnca	1	1	1	560465135	1	75.033	75.031	2.0.10.147	2.0.10.242	2.0.10.242	1.0.0.439	7	234	2	3	Verdana	1	80	0	0	0	WM Stimuli\	0.7	1077	0.8	847.625	0.8	896.25	0.6	1020.16666666667	1	908.1	1	734.9	0.6	1041.66666666667	1	816.4	13	480566	2	480554	27	40	480593	-999999	480569	0	10	TrialsPROC	BP_008_BP21_BA.png	1	2	44	SessionSelectionList														lure	3	Body	0-Back	39	80	36	0	0	72	1	39	317113	1	14	59	315074	-1	316075	0	1001	2	3	2039	53	317127	-54	0											8					44												
WM080112	198451_fnca	1	1	1	560465135	1	75.033	75.031	2.0.10.147	2.0.10.242	2.0.10.242	1.0.0.439	7	234	2	3	Verdana	1	80	0	0	0	WM Stimuli\	0.7	1077	0.8	847.625	0.8	896.25	0.6	1020.16666666667	1	908.1	1	734.9	0.6	1041.66666666667	1	816.4	13	480566	2	480554	27	40	480593	-999999	480569	0	10	TrialsPROC	BP_007_BP20_BA.png	1	2	45	SessionSelectionList														target	2	Body	0-Back	40	80	37	0	0	68	1	39	319672	1	14	59	317633	-1	318300	0	667	3	2	2039	53	319686	-54	0											9					45												
WM080112	198451_fnca	1	1	1	560465135	1	75.033	75.031	2.0.10.147	2.0.10.242	2.0.10.242	1.0.0.439	7	234	2	3	Verdana	1	80	0	0	0	WM Stimuli\	0.7	1077	0.8	847.625	0.8	896.25	0.6	1020.16666666667	1	908.1	1	734.9	0.6	1041.66666666667	1	816.4	13	480566	2	480554	27	40	480593	-999999	480569	0	10	TrialsPROC	BP_012_BP5_BA.png	1	2	46	SessionSelectionList														nonlure	3	Body	0-Back	41	80	38	0	0	70	2	39	322231	1	13	59	320192	-1	321000	1	808	3	3	2039	52	322244	-53	0											10					46												
WM080112	198451_fnca	1	1	1	560465135	1	75.033	75.031	2.0.10.147	2.0.10.242	2.0.10.242	1.0.0.439	7	234	2	3	Verdana	1	80	0	0	0	WM Stimuli\	0.7	1077	0.8	847.625	0.8	896.25	0.6	1020.16666666667	1	908.1	1	734.9	0.6	1041.66666666667	1	816.4	13	480566	2	480554	27	40	480593	-999999	480569	0	11	Fix15secPROC	""	1	2	47	SessionSelectionList																																															6	322698	-7	0							47												
WM080112	198451_fnca	1	1	1	560465135	1	75.033	75.031	2.0.10.147	2.0.10.242	2.0.10.242	1.0.0.439	7	234	2	3	Verdana	1	80	0	0	0	WM Stimuli\	0.7	1077	0.8	847.625	0.8	896.25	0.6	1020.16666666667	1	908.1	1	734.9	0.6	1041.66666666667	1	816.4	13	480566	2	480554	27	40	480593	-999999	480569	0	12	Cue0BackPROC	PL_001_92012.png	1	2	48	SessionSelectionList																																										13	337705	-14	0												48												
WM080112	198451_fnca	1	1	1	560465135	1	75.033	75.031	2.0.10.147	2.0.10.242	2.0.10.242	1.0.0.439	7	234	2	3	Verdana	1	80	0	0	0	WM Stimuli\	0.7	1077	0.8	847.625	0.8	896.25	0.6	1020.16666666667	1	908.1	1	734.9	0.6	1041.66666666667	1	816.4	13	480566	2	480554	27	40	480593	-999999	480569	0	13	TrialsPROC	PL_003_92016.png	1	2	49	SessionSelectionList														nonlure	3	Place	0-Back	42	80	39	0	0	71	3	40	342303	1	13	71	340263	-1	341773	1	1510	3	3	2040	53	342316	-54	0												1				49												
WM080112	198451_fnca	1	1	1	560465135	1	75.033	75.031	2.0.10.147	2.0.10.242	2.0.10.242	1.0.0.439	7	234	2	3	Verdana	1	80	0	0	0	WM Stimuli\	0.7	1077	0.8	847.625	0.8	896.25	0.6	1020.16666666667	1	908.1	1	734.9	0.6	1041.66666666667	1	816.4	13	480566	2	480554	27	40	480593	-999999	480569	0	13	TrialsPROC	PL_003_92016.png	1	2	50	SessionSelectionList														lure	3	Place	0-Back	43	80	40	0	0	73	4	39	344875	1	14	73	342836	-1	344014	1	1178	3	3	2039	53	344889	-54	0												2				50												
WM080112	198451_fnca	1	1	1	560465135	1	75.033	75.031	2.0.10.147	2.0.10.242	2.0.10.242	1.0.0.439	7	234	2	3	Verdana	1	80	0	0	0	WM Stimuli\	0.7	1077	0.8	847.625	0.8	896.25	0.6	1020.16666666667	1	908.1	1	734.9	0.6	1041.66666666667	1	816.4	13	480566	2	480554	27	40	480593	-999999	480569	0	13	TrialsPROC	PL_006_92025.png	1	2	51	SessionSelectionList														nonlure	3	Place	0-Back	44	80	41	0	0	74	5	39	347447	2	14	72	345408	-1	346083	1	675	3	3	2039	53	347461	-54	0												3				51												
WM080112	198451_fnca	1	1	1	560465135	1	75.033	75.031	2.0.10.147	2.0.10.242	2.0.10.242	1.0.0.439	7	234	2	3	Verdana	1	80	0	0	0	WM Stimuli\	0.7	1077	0.8	847.625	0.8	896.25	0.6	1020.16666666667	1	908.1	1	734.9	0.6	1041.66666666667	1	816.4	13	480566	2	480554	27	40	480593	-999999	480569	0	13	TrialsPROC	PL_001_92012.png	1	2	52	SessionSelectionList														target	2	Place	0-Back	45	80	42	0	0	75	1	39	350006	2	14	59	347967	-1	348657	1	690	2	2	2039	53	350020	-54	0												4				52												
WM080112	198451_fnca	1	1	1	560465135	1	75.033	75.031	2.0.10.147	2.0.10.242	2.0.10.242	1.0.0.439	7	234	2	3	Verdana	1	80	0	0	0	WM Stimuli\	0.7	1077	0.8	847.625	0.8	896.25	0.6	1020.16666666667	1	908.1	1	734.9	0.6	1041.66666666667	1	816.4	13	480566	2	480554	27	40	480593	-999999	480569	0	13	TrialsPROC	PL_004_92023.png	1	2	53	SessionSelectionList														nonlure	3	Place	0-Back	46	80	43	0	0	76	1	39	352565	2	14	59	350526	-1	350966	1	440	3	3	2039	53	352579	-54	0												5				53												
WM080112	198451_fnca	1	1	1	560465135	1	75.033	75.031	2.0.10.147	2.0.10.242	2.0.10.242	1.0.0.439	7	234	2	3	Verdana	1	80	0	0	0	WM Stimuli\	0.7	1077	0.8	847.625	0.8	896.25	0.6	1020.16666666667	1	908.1	1	734.9	0.6	1041.66666666667	1	816.4	13	480566	2	480554	27	40	480593	-999999	480569	0	13	TrialsPROC	PL_005_92024.png	1	2	54	SessionSelectionList														nonlure	3	Place	0-Back	47	80	44	0	0	77	2	39	355124	1	14	59	353085	-1	353629	1	544	3	3	2039	53	355138	-54	0												6				54												
WM080112	198451_fnca	1	1	1	560465135	1	75.033	75.031	2.0.10.147	2.0.10.242	2.0.10.242	1.0.0.439	7	234	2	3	Verdana	1	80	0	0	0	WM Stimuli\	0.7	1077	0.8	847.625	0.8	896.25	0.6	1020.16666666667	1	908.1	1	734.9	0.6	1041.66666666667	1	816.4	13	480566	2	480554	27	40	480593	-999999	480569	0	13	TrialsPROC	PL_001_92012.png	1	2	55	SessionSelectionList														target	2	Place	0-Back	48	80	45	0	0	78	1	39	357696	2	14	72	355657	-1	356321	1	664	2	2	2039	53	357710	-54	0												7				55												
WM080112	198451_fnca	1	1	1	560465135	1	75.033	75.031	2.0.10.147	2.0.10.242	2.0.10.242	1.0.0.439	7	234	2	3	Verdana	1	80	0	0	0	WM Stimuli\	0.7	1077	0.8	847.625	0.8	896.25	0.6	1020.16666666667	1	908.1	1	734.9	0.6	1041.66666666667	1	816.4	13	480566	2	480554	27	40	480593	-999999	480569	0	13	TrialsPROC	PL_002_92014.png	1	2	56	SessionSelectionList														nonlure	3	Place	0-Back	49	80	46	0	0	79	1	40	360269	1	13	72	358229	-1	358785	1	556	3	3	2040	53	360282	-54	0												8				56												
WM080112	198451_fnca	1	1	1	560465135	1	75.033	75.031	2.0.10.147	2.0.10.242	2.0.10.242	1.0.0.439	7	234	2	3	Verdana	1	80	0	0	0	WM Stimuli\	0.7	1077	0.8	847.625	0.8	896.25	0.6	1020.16666666667	1	908.1	1	734.9	0.6	1041.66666666667	1	816.4	13	480566	2	480554	27	40	480593	-999999	480569	0	13	TrialsPROC	PL_004_92023.png	1	2	57	SessionSelectionList														lure	3	Place	0-Back	50	80	47	0	0	79	2	39	362841	1	14	73	360802	-1	361314	1	512	3	3	2039	53	362855	-54	0												9				57												
WM080112	198451_fnca	1	1	1	560465135	1	75.033	75.031	2.0.10.147	2.0.10.242	2.0.10.242	1.0.0.439	7	234	2	3	Verdana	1	80	0	0	0	WM Stimuli\	0.7	1077	0.8	847.625	0.8	896.25	0.6	1020.16666666667	1	908.1	1	734.9	0.6	1041.66666666667	1	816.4	13	480566	2	480554	27	40	480593	-999999	480569	0	13	TrialsPROC	PL_006_92025.png	1	2	58	SessionSelectionList														lure	3	Place	0-Back	51	80	48	0	0	80	3	39	365413	2	14	72	363374	-1	363954	1	580	3	3	2039	53	365427	-54	0												10				58												
WM080112	198451_fnca	1	1	1	560465135	1	75.033	75.031	2.0.10.147	2.0.10.242	2.0.10.242	1.0.0.439	7	234	2	3	Verdana	1	80	0	0	0	WM Stimuli\	0.7	1077	0.8	847.625	0.8	896.25	0.6	1020.16666666667	1	908.1	1	734.9	0.6	1041.66666666667	1	816.4	13	480566	2	480554	27	40	480593	-999999	480569	0	14	Cue2BackPROC	""	1	2	59	SessionSelectionList									6	365880	-7	0																																													59												
WM080112	198451_fnca	1	1	1	560465135	1	75.033	75.031	2.0.10.147	2.0.10.242	2.0.10.242	1.0.0.439	7	234	2	3	Verdana	1	80	0	0	0	WM Stimuli\	0.7	1077	0.8	847.625	0.8	896.25	0.6	1020.16666666667	1	908.1	1	734.9	0.6	1041.66666666667	1	816.4	13	480566	2	480554	27	40	480593	-999999	480569	0	15	TrialsPROC	FC_010_F5.png	1	2	60	SessionSelectionList														nonlure	3	Face	2-Back	52	80	48	0	1	80	3	39	370478	1	13	65	368439	-1	0	0	0	""	3	2039	52	370491	-53	0													1			60												
WM080112	198451_fnca	1	1	1	560465135	1	75.033	75.031	2.0.10.147	2.0.10.242	2.0.10.242	1.0.0.439	7	234	2	3	Verdana	1	80	0	0	0	WM Stimuli\	0.7	1077	0.8	847.625	0.8	896.25	0.6	1020.16666666667	1	908.1	1	734.9	0.6	1041.66666666667	1	816.4	13	480566	2	480554	27	40	480593	-999999	480569	0	15	TrialsPROC	FC_012_F6.png	1	2	61	SessionSelectionList														nonlure	3	Face	2-Back	53	80	49	0	0	80	1	39	373050	1	14	72	371011	-1	372227	1	1216	3	3	2039	53	373064	-54	0													2			61												
WM080112	198451_fnca	1	1	1	560465135	1	75.033	75.031	2.0.10.147	2.0.10.242	2.0.10.242	1.0.0.439	7	234	2	3	Verdana	1	80	0	0	0	WM Stimuli\	0.7	1077	0.8	847.625	0.8	896.25	0.6	1020.16666666667	1	908.1	1	734.9	0.6	1041.66666666667	1	816.4	13	480566	2	480554	27	40	480593	-999999	480569	0	15	TrialsPROC	FC_010_F5.png	1	2	62	SessionSelectionList														target	2	Face	2-Back	54	80	50	0	0	80	1	39	375622	2	14	72	373583	-1	374262	1	679	2	2	2039	53	375636	-54	0													3			62												
WM080112	198451_fnca	1	1	1	560465135	1	75.033	75.031	2.0.10.147	2.0.10.242	2.0.10.242	1.0.0.439	7	234	2	3	Verdana	1	80	0	0	0	WM Stimuli\	0.7	1077	0.8	847.625	0.8	896.25	0.6	1020.16666666667	1	908.1	1	734.9	0.6	1041.66666666667	1	816.4	13	480566	2	480554	27	40	480593	-999999	480569	0	15	TrialsPROC	FC_008_F4.png	1	2	63	SessionSelectionList														nonlure	3	Face	2-Back	55	80	51	0	0	80	1	40	378195	1	13	72	376155	-1	377031	1	876	3	3	2040	53	378208	-54	0													4			63												
WM080112	198451_fnca	1	1	1	560465135	1	75.033	75.031	2.0.10.147	2.0.10.242	2.0.10.242	1.0.0.439	7	234	2	3	Verdana	1	80	0	0	0	WM Stimuli\	0.7	1077	0.8	847.625	0.8	896.25	0.6	1020.16666666667	1	908.1	1	734.9	0.6	1041.66666666667	1	816.4	13	480566	2	480554	27	40	480593	-999999	480569	0	15	TrialsPROC	FC_012_F6.png	1	2	64	SessionSelectionList														lure	3	Face	2-Back	56	80	52	0	0	80	1	39	380767	1	14	73	378728	-1	379733	0	1005	2	3	2039	53	380781	-54	0													5			64												
WM080112	198451_fnca	1	1	1	560465135	1	75.033	75.031	2.0.10.147	2.0.10.242	2.0.10.242	1.0.0.439	7	234	2	3	Verdana	1	80	0	0	0	WM Stimuli\	0.7	1077	0.8	847.625	0.8	896.25	0.6	1020.16666666667	1	908.1	1	734.9	0.6	1041.66666666667	1	816.4	13	480566	2	480554	27	40	480593	-999999	480569	0	15	TrialsPROC	FC_008_F4.png	1	2	65	SessionSelectionList														target	2	Face	2-Back	57	80	53	0	0	80	2	39	383339	2	14	72	381300	-1	382188	1	888	2	2	2039	53	383353	-54	0													6			65												
WM080112	198451_fnca	1	1	1	560465135	1	75.033	75.031	2.0.10.147	2.0.10.242	2.0.10.242	1.0.0.439	7	234	2	3	Verdana	1	80	0	0	0	WM Stimuli\	0.7	1077	0.8	847.625	0.8	896.25	0.6	1020.16666666667	1	908.1	1	734.9	0.6	1041.66666666667	1	816.4	13	480566	2	480554	27	40	480593	-999999	480569	0	15	TrialsPROC	FC_007_M4.png	1	2	66	SessionSelectionList														nonlure	3	Face	2-Back	58	80	54	0	0	80	1	39	385911	2	14	72	383872	-1	384614	1	742	3	3	2039	53	385925	-54	0													7			66												
WM080112	198451_fnca	1	1	1	560465135	1	75.033	75.031	2.0.10.147	2.0.10.242	2.0.10.242	1.0.0.439	7	234	2	3	Verdana	1	80	0	0	0	WM Stimuli\	0.7	1077	0.8	847.625	0.8	896.25	0.6	1020.16666666667	1	908.1	1	734.9	0.6	1041.66666666667	1	816.4	13	480566	2	480554	27	40	480593	-999999	480569	0	15	TrialsPROC	FC_007_M4.png	1	2	67	SessionSelectionList														lure	3	Face	2-Back	59	80	55	0	0	80	2	39	388484	1	13	73	386445	-1	387374	1	929	3	3	2039	52	388497	-53	0													8			67												
WM080112	198451_fnca	1	1	1	560465135	1	75.033	75.031	2.0.10.147	2.0.10.242	2.0.10.242	1.0.0.439	7	234	2	3	Verdana	1	80	0	0	0	WM Stimuli\	0.7	1077	0.8	847.625	0.8	896.25	0.6	1020.16666666667	1	908.1	1	734.9	0.6	1041.66666666667	1	816.4	13	480566	2	480554	27	40	480593	-999999	480569	0	15	TrialsPROC	FC_009_M5.png	1	2	68	SessionSelectionList														nonlure	3	Face	2-Back	60	80	56	0	0	80	3	39	391069	2	14	85	389030	-1	389911	1	881	3	3	2039	53	391083	-54	0													9			68												
WM080112	198451_fnca	1	1	1	560465135	1	75.033	75.031	2.0.10.147	2.0.10.242	2.0.10.242	1.0.0.439	7	234	2	3	Verdana	1	80	0	0	0	WM Stimuli\	0.7	1077	0.8	847.625	0.8	896.25	0.6	1020.16666666667	1	908.1	1	734.9	0.6	1041.66666666667	1	816.4	13	480566	2	480554	27	40	480593	-999999	480569	0	15	TrialsPROC	FC_011_M6.png	1	2	69	SessionSelectionList														nonlure	3	Face	2-Back	61	80	57	0	0	80	4	39	393655	1	14	86	391616	-1	392575	1	959	3	3	2039	53	393669	-54	0													10			69												
WM080112	198451_fnca	1	1	1	560465135	1	75.033	75.031	2.0.10.147	2.0.10.242	2.0.10.242	1.0.0.439	7	234	2	3	Verdana	1	80	0	0	0	WM Stimuli\	0.7	1077	0.8	847.625	0.8	896.25	0.6	1020.16666666667	1	908.1	1	734.9	0.6	1041.66666666667	1	816.4	13	480566	2	480554	27	40	480593	-999999	480569	0	16	Fix15secPROC	""	1	2	70	SessionSelectionList																																															6	394122	-7	0							70												
WM080112	198451_fnca	1	1	1	560465135	1	75.033	75.031	2.0.10.147	2.0.10.242	2.0.10.242	1.0.0.439	7	234	2	3	Verdana	1	80	0	0	0	WM Stimuli\	0.7	1077	0.8	847.625	0.8	896.25	0.6	1020.16666666667	1	908.1	1	734.9	0.6	1041.66666666667	1	816.4	13	480566	2	480554	27	40	480593	-999999	480569	0	17	Cue0BackPROC	TO_007_TOOL7_BA.png	1	2	71	SessionSelectionList																																										39	409155	-40	0												71												
WM080112	198451_fnca	1	1	1	560465135	1	75.033	75.031	2.0.10.147	2.0.10.242	2.0.10.242	1.0.0.439	7	234	2	3	Verdana	1	80	0	0	0	WM Stimuli\	0.7	1077	0.8	847.625	0.8	896.25	0.6	1020.16666666667	1	908.1	1	734.9	0.6	1041.66666666667	1	816.4	13	480566	2	480554	27	40	480593	-999999	480569	0	18	TrialsPROC	TO_010_TOOL10_BA.png	1	2	72	SessionSelectionList														nonlure	3	Tools	0-Back	62	80	58	0	0	81	5	39	413727	1	13	72	411688	-1	413121	1	1433	3	3	2039	52	413740	-53	0														1		72												
WM080112	198451_fnca	1	1	1	560465135	1	75.033	75.031	2.0.10.147	2.0.10.242	2.0.10.242	1.0.0.439	7	234	2	3	Verdana	1	80	0	0	0	WM Stimuli\	0.7	1077	0.8	847.625	0.8	896.25	0.6	1020.16666666667	1	908.1	1	734.9	0.6	1041.66666666667	1	816.4	13	480566	2	480554	27	40	480593	-999999	480569	0	18	TrialsPROC	TO_009_TOOL9_BA.png	1	2	73	SessionSelectionList														nonlure	3	Tools	0-Back	63	80	59	0	0	81	6	39	416312	2	14	85	414273	-1	414924	1	651	3	3	2039	53	416326	-54	0														2		73												
WM080112	198451_fnca	1	1	1	560465135	1	75.033	75.031	2.0.10.147	2.0.10.242	2.0.10.242	1.0.0.439	7	234	2	3	Verdana	1	80	0	0	0	WM Stimuli\	0.7	1077	0.8	847.625	0.8	896.25	0.6	1020.16666666667	1	908.1	1	734.9	0.6	1041.66666666667	1	816.4	13	480566	2	480554	27	40	480593	-999999	480569	0	18	TrialsPROC	TO_009_TOOL9_BA.png	1	2	74	SessionSelectionList														lure	3	Tools	0-Back	64	80	60	0	0	82	7	39	418871	2	14	59	416832	-1	417586	1	754	3	3	2039	53	418885	-54	0														3		74												
WM080112	198451_fnca	1	1	1	560465135	1	75.033	75.031	2.0.10.147	2.0.10.242	2.0.10.242	1.0.0.439	7	234	2	3	Verdana	1	80	0	0	0	WM Stimuli\	0.7	1077	0.8	847.625	0.8	896.25	0.6	1020.16666666667	1	908.1	1	734.9	0.6	1041.66666666667	1	816.4	13	480566	2	480554	27	40	480593	-999999	480569	0	18	TrialsPROC	TO_008_TOOL8_BA.png	1	2	75	SessionSelectionList														nonlure	3	Tools	0-Back	65	80	61	0	0	82	8	39	421457	1	14	86	419418	-1	420036	1	618	3	3	2039	53	421471	-54	0														4		75												
WM080112	198451_fnca	1	1	1	560465135	1	75.033	75.031	2.0.10.147	2.0.10.242	2.0.10.242	1.0.0.439	7	234	2	3	Verdana	1	80	0	0	0	WM Stimuli\	0.7	1077	0.8	847.625	0.8	896.25	0.6	1020.16666666667	1	908.1	1	734.9	0.6	1041.66666666667	1	816.4	13	480566	2	480554	27	40	480593	-999999	480569	0	18	TrialsPROC	TO_011_TOOL11_BA.png	1	2	76	SessionSelectionList														nonlure	3	Tools	0-Back	66	80	62	0	0	83	9	40	424043	1	13	85	422003	-1	422487	1	484	3	3	2040	53	424056	-54	0														5		76												
WM080112	198451_fnca	1	1	1	560465135	1	75.033	75.031	2.0.10.147	2.0.10.242	2.0.10.242	1.0.0.439	7	234	2	3	Verdana	1	80	0	0	0	WM Stimuli\	0.7	1077	0.8	847.625	0.8	896.25	0.6	1020.16666666667	1	908.1	1	734.9	0.6	1041.66666666667	1	816.4	13	480566	2	480554	27	40	480593	-999999	480569	0	18	TrialsPROC	TO_012_TOOL12_BA.png	1	2	77	SessionSelectionList														nonlure	3	Tools	0-Back	67	80	63	0	0	83	10	39	426628	2	14	86	424589	-1	425537	1	948	3	3	2039	53	426642	-54	0														6		77												
WM080112	198451_fnca	1	1	1	560465135	1	75.033	75.031	2.0.10.147	2.0.10.242	2.0.10.242	1.0.0.439	7	234	2	3	Verdana	1	80	0	0	0	WM Stimuli\	0.7	1077	0.8	847.625	0.8	896.25	0.6	1020.16666666667	1	908.1	1	734.9	0.6	1041.66666666667	1	816.4	13	480566	2	480554	27	40	480593	-999999	480569	0	18	TrialsPROC	TO_010_TOOL10_BA.png	1	2	78	SessionSelectionList														lure	3	Tools	0-Back	68	80	64	0	0	84	11	39	429187	1	14	59	427148	-1	428134	1	986	3	3	2039	53	429201	-54	0														7		78												
WM080112	198451_fnca	1	1	1	560465135	1	75.033	75.031	2.0.10.147	2.0.10.242	2.0.10.242	1.0.0.439	7	234	2	3	Verdana	1	80	0	0	0	WM Stimuli\	0.7	1077	0.8	847.625	0.8	896.25	0.6	1020.16666666667	1	908.1	1	734.9	0.6	1041.66666666667	1	816.4	13	480566	2	480554	27	40	480593	-999999	480569	0	18	TrialsPROC	TO_007_TOOL7_BA.png	1	2	79	SessionSelectionList														target	2	Tools	0-Back	69	80	65	0	0	84	1	39	431746	1	14	59	429707	-1	430864	1	1157	2	2	2039	53	431760	-54	0														8		79												
WM080112	198451_fnca	1	1	1	560465135	1	75.033	75.031	2.0.10.147	2.0.10.242	2.0.10.242	1.0.0.439	7	234	2	3	Verdana	1	80	0	0	0	WM Stimuli\	0.7	1077	0.8	847.625	0.8	896.25	0.6	1020.16666666667	1	908.1	1	734.9	0.6	1041.66666666667	1	816.4	13	480566	2	480554	27	40	480593	-999999	480569	0	18	TrialsPROC	TO_008_TOOL8_BA.png	1	2	80	SessionSelectionList														lure	3	Tools	0-Back	70	80	66	0	0	85	1	39	434305	1	14	59	432266	-1	432890	1	624	3	3	2039	53	434319	-54	0														9		80												
WM080112	198451_fnca	1	1	1	560465135	1	75.033	75.031	2.0.10.147	2.0.10.242	2.0.10.242	1.0.0.439	7	234	2	3	Verdana	1	80	0	0	0	WM Stimuli\	0.7	1077	0.8	847.625	0.8	896.25	0.6	1020.16666666667	1	908.1	1	734.9	0.6	1041.66666666667	1	816.4	13	480566	2	480554	27	40	480593	-999999	480569	0	18	TrialsPROC	TO_007_TOOL7_BA.png	1	2	81	SessionSelectionList														target	2	Tools	0-Back	71	80	67	0	0	85	1	39	436864	1	14	59	434825	-1	435334	1	509	2	2	2039	53	436878	-54	0														10		81												
WM080112	198451_fnca	1	1	1	560465135	1	75.033	75.031	2.0.10.147	2.0.10.242	2.0.10.242	1.0.0.439	7	234	2	3	Verdana	1	80	0	0	0	WM Stimuli\	0.7	1077	0.8	847.625	0.8	896.25	0.6	1020.16666666667	1	908.1	1	734.9	0.6	1041.66666666667	1	816.4	13	480566	2	480554	27	40	480593	-999999	480569	0	19	Cue2BackPROC	""	1	2	82	SessionSelectionList									5	437330	-6	0																																													82												
WM080112	198451_fnca	1	1	1	560465135	1	75.033	75.031	2.0.10.147	2.0.10.242	2.0.10.242	1.0.0.439	7	234	2	3	Verdana	1	80	0	0	0	WM Stimuli\	0.7	1077	0.8	847.625	0.8	896.25	0.6	1020.16666666667	1	908.1	1	734.9	0.6	1041.66666666667	1	816.4	13	480566	2	480554	27	40	480593	-999999	480569	0	20	TrialsPROC	PL_007_92026.png	1	2	83	SessionSelectionList														nonlure	3	Place	2-Back	72	80	68	0	0	85	1	39	441942	1	13	78	439903	-1	441402	1	1499	3	3	2039	52	441955	-53	0															1	83												
WM080112	198451_fnca	1	1	1	560465135	1	75.033	75.031	2.0.10.147	2.0.10.242	2.0.10.242	1.0.0.439	7	234	2	3	Verdana	1	80	0	0	0	WM Stimuli\	0.7	1077	0.8	847.625	0.8	896.25	0.6	1020.16666666667	1	908.1	1	734.9	0.6	1041.66666666667	1	816.4	13	480566	2	480554	27	40	480593	-999999	480569	0	20	TrialsPROC	PL_007_92026.png	1	2	84	SessionSelectionList														lure	3	Place	2-Back	73	80	69	0	0	85	2	39	444501	1	13	59	442462	-1	443822	1	1360	3	3	2039	52	444514	-53	0															2	84												
WM080112	198451_fnca	1	1	1	560465135	1	75.033	75.031	2.0.10.147	2.0.10.242	2.0.10.242	1.0.0.439	7	234	2	3	Verdana	1	80	0	0	0	WM Stimuli\	0.7	1077	0.8	847.625	0.8	896.25	0.6	1020.16666666667	1	908.1	1	734.9	0.6	1041.66666666667	1	816.4	13	480566	2	480554	27	40	480593	-999999	480569	0	20	TrialsPROC	PL_010_92038.png	1	2	85	SessionSelectionList														nonlure	3	Place	2-Back	74	80	70	0	0	85	3	39	447073	1	14	72	445034	-1	445739	1	705	3	3	2039	53	447087	-54	0															3	85												
WM080112	198451_fnca	1	1	1	560465135	1	75.033	75.031	2.0.10.147	2.0.10.242	2.0.10.242	1.0.0.439	7	234	2	3	Verdana	1	80	0	0	0	WM Stimuli\	0.7	1077	0.8	847.625	0.8	896.25	0.6	1020.16666666667	1	908.1	1	734.9	0.6	1041.66666666667	1	816.4	13	480566	2	480554	27	40	480593	-999999	480569	0	20	TrialsPROC	PL_009_92037.png	1	2	86	SessionSelectionList														nonlure	3	Place	2-Back	75	80	71	0	0	85	4	39	449645	2	14	72	447606	-1	448453	1	847	3	3	2039	53	449659	-54	0															4	86												
WM080112	198451_fnca	1	1	1	560465135	1	75.033	75.031	2.0.10.147	2.0.10.242	2.0.10.242	1.0.0.439	7	234	2	3	Verdana	1	80	0	0	0	WM Stimuli\	0.7	1077	0.8	847.625	0.8	896.25	0.6	1020.16666666667	1	908.1	1	734.9	0.6	1041.66666666667	1	816.4	13	480566	2	480554	27	40	480593	-999999	480569	0	20	TrialsPROC	PL_010_92038.png	1	2	87	SessionSelectionList														target	2	Place	2-Back	76	80	72	0	0	85	1	39	452204	2	14	59	450165	-1	450633	1	468	2	2	2039	53	452218	-54	0															5	87												
WM080112	198451_fnca	1	1	1	560465135	1	75.033	75.031	2.0.10.147	2.0.10.242	2.0.10.242	1.0.0.439	7	234	2	3	Verdana	1	80	0	0	0	WM Stimuli\	0.7	1077	0.8	847.625	0.8	896.25	0.6	1020.16666666667	1	908.1	1	734.9	0.6	1041.66666666667	1	816.4	13	480566	2	480554	27	40	480593	-999999	480569	0	20	TrialsPROC	PL_009_92037.png	1	2	88	SessionSelectionList														target	2	Place	2-Back	77	80	73	0	0	85	2	39	454763	2	14	59	452724	-1	453897	1	1173	2	2	2039	53	454777	-54	0															6	88												
WM080112	198451_fnca	1	1	1	560465135	1	75.033	75.031	2.0.10.147	2.0.10.242	2.0.10.242	1.0.0.439	7	234	2	3	Verdana	1	80	0	0	0	WM Stimuli\	0.7	1077	0.8	847.625	0.8	896.25	0.6	1020.16666666667	1	908.1	1	734.9	0.6	1041.66666666667	1	816.4	13	480566	2	480554	27	40	480593	-999999	480569	0	20	TrialsPROC	PL_008_92033.png	1	2	89	SessionSelectionList														nonlure	3	Place	2-Back	78	80	74	0	0	85	1	39	457349	1	14	86	455310	-1	456023	1	713	3	3	2039	53	457363	-54	0															7	89												
WM080112	198451_fnca	1	1	1	560465135	1	75.033	75.031	2.0.10.147	2.0.10.242	2.0.10.242	1.0.0.439	7	234	2	3	Verdana	1	80	0	0	0	WM Stimuli\	0.7	1077	0.8	847.625	0.8	896.25	0.6	1020.16666666667	1	908.1	1	734.9	0.6	1041.66666666667	1	816.4	13	480566	2	480554	27	40	480593	-999999	480569	0	20	TrialsPROC	PL_012_92047.png	1	2	90	SessionSelectionList														nonlure	3	Place	2-Back	79	80	75	0	0	85	2	40	459935	1	13	85	457895	-1	458582	1	687	3	3	2040	53	459948	-54	0															8	90												
WM080112	198451_fnca	1	1	1	560465135	1	75.033	75.031	2.0.10.147	2.0.10.242	2.0.10.242	1.0.0.439	7	234	2	3	Verdana	1	80	0	0	0	WM Stimuli\	0.7	1077	0.8	847.625	0.8	896.25	0.6	1020.16666666667	1	908.1	1	734.9	0.6	1041.66666666667	1	816.4	13	480566	2	480554	27	40	480593	-999999	480569	0	20	TrialsPROC	PL_012_92047.png	1	2	91	SessionSelectionList														lure	3	Place	2-Back	80	80	76	0	0	85	3	39	462507	1	13	73	460468	-1	461343	1	875	3	3	2039	52	462520	-53	0															9	91												
WM080112	198451_fnca	1	1	1	560465135	1	75.033	75.031	2.0.10.147	2.0.10.242	2.0.10.242	1.0.0.439	7	234	2	3	Verdana	1	80	0	0	0	WM Stimuli\	0.7	1077	0.8	847.625	0.8	896.25	0.6	1020.16666666667	1	908.1	1	734.9	0.6	1041.66666666667	1	816.4	13	480566	2	480554	27	40	480593	-999999	480569	0	20	TrialsPROC	PL_011_92044.png	1	2	92	SessionSelectionList														nonlure	3	Place	2-Back	80	80	77	0	0	85	4	39	465092	2	14	85	463053	-1	463807	1	754	3	3	2039	53	465106	-54	0															10	92												
WM080112	198451_fnca	1	1	1	560465135	1	75.033	75.031	2.0.10.147	2.0.10.242	2.0.10.242	1.0.0.439	7	234	2	3	Verdana	1	80	0	0	0	WM Stimuli\	0.7	1077	0.8	847.625	0.8	896.25	0.6	1020.16666666667	1	908.1	1	734.9	0.6	1041.66666666667	1	816.4	13	480566	2	480554	27	40	480593	-999999	480569	0	21	Fix15secPROC	""	1	2	93	SessionSelectionList																																															6	465559	-7	0							93												
