ExperimentName	HCPID	RunNumber	Subject	Session	RandomSeed	Group	Laptop.RefreshRate	ScannerD2.RefreshRate	StudioVersion	RuntimeVersion	RuntimeVersionExpected	ExperimentVersion	triggercode	Allowed	Target	Nontarget	FontStyle	RunTrialNumber[Session]	TrialsPerRun[Session]	TotalRespGreater200[Session]	ConsecRTLess200[Session]	ConsecNonResp[Session]	StimuliDir	ACC_2_Back_Body	Avg_RT_For_Correct_Trials_2_Back_Body	ACC_0_Back_Body	Avg_RT_For_Correct_Trials_0_Back_Body	ACC_2_Back_Face	Avg_RT_For_Correct_Trials_2_Back_Face	ACC_0_Back_Face	Avg_RT_For_Correct_Trials_0_Back_Face	ACC_2_Back_Place	Avg_RT_For_Correct_Trials_2_Back_Place	ACC_0_Back_Place	Avg_RT_For_Correct_Trials_0_Back_Place	ACC_2_Back_Tools	Avg_RT_For_Correct_Trials_2_Back_Tools	ACC_0_Back_Tools	Avg_RT_For_Correct_Trials_0_Back_Tools	ExpInstrucFeelFreeToRest.OnsetDelay	ExpInstrucFeelFreeToRest.OnsetTime	ExpInstrucFeelFreeToRest.DurationError	ExpInstrucFeelFreeToRest.StartTime	ExpInstrucFeelFreeToRest.OnsetToOnsetTime	FeelFreeToRest.OnsetDelay	FeelFreeToRest.OnsetTime	FeelFreeToRest.DurationError	FeelFreeToRest.StartTime	FeelFreeToRest.OnsetToOnsetTime	SessionSelectionList	Procedure[Block]	Stimulus[Block]	RunNumberFilterValue	SessionSelectionList.Cycle	SessionSelectionList.Sample	Running[Block]	IntroButtonMap.OnsetDelay	IntroButtonMap.OnsetTime	IntroButtonMap.DurationError	IntroButtonMap.OnsetToOnsetTime	GetReady.OnsetDelay	GetReady.OnsetTime	GetReady.DurationError	GetReady.OnsetToOnsetTime	Cue2Back.OnsetDelay	Cue2Back.OnsetTime	Cue2Back.DurationError	Cue2Back.OnsetToOnsetTime	Run1Block1	TargetType	CorrectResponse	StimType	BlockType	RunTrialNumber[Block]	TrialsPerRun[Block]	TotalRespGreater200[Block]	ConsecRTLess200[Block]	ConsecNonResp[Block]	ControlAcc	ConsecSameResp	ExperimenterWindow.OnsetDelay	ExperimenterWindow.OnsetTime	ExperimenterWindow.DurationError	ExperimenterWindow.OnsetToOnsetTime	Stim.OnsetDelay	Stim.OnsetTime	Stim.DurationError	Stim.RTTime	Stim.ACC	Stim.RT	Stim.RESP	Stim.CRESP	Stim.OnsetToOnsetTime	Fix.OnsetDelay	Fix.OnsetTime	Fix.DurationError	Fix.OnsetToOnsetTime	CueTarget.OnsetDelay	CueTarget.OnsetTime	CueTarget.DurationError	CueTarget.OnsetToOnsetTime	Run1Block2	Fix15sec.OnsetDelay	Fix15sec.OnsetTime	Fix15sec.DurationError	Fix15sec.OnsetToOnsetTime	Run1Block3	Run1Block4	Run1Block5	Run1Block6	Run1Block7	Run1Block8	Block	Procedure[Trial]	Stimulus[Trial]	ReadyList	Running[Trial]	ReadyList.Cycle	ReadyList.Sample	SyncSlide.OnsetDelay	SyncSlide.OnsetTime	SyncSlide.DurationError	SyncSlide.FinishTime	SyncSlide.OnsetToOnsetTime	Trial
WM080112	114419_fnca	1	1	1	-273125725	1	75.031	75.031	2.0.10.147	2.0.10.242	2.0.10.242	1.0.0.439	7	234	2	3	Verdana	1	80	0	0	0	WM Stimuli\	0.5	1207.4	0.5	1514.8	0.8	1325.75	1	934.7	0.9	1319	1	1121.3	0.6	1336.66666666667	0.8	945.25	13	599701	2	599689	27	40	599728	-999999	599704	0	1	TRSyncPROC	""	1	2	1	SessionSelectionList	101	26165	-999999	0	31	292855	-999999	0																																																	1	InitialTR	4	1	ReadyList	1	1	13	306196	-14	308182	0	1
WM080112	114419_fnca	1	1	1	-273125725	1	75.031	75.031	2.0.10.147	2.0.10.242	2.0.10.242	1.0.0.439	7	234	2	3	Verdana	1	80	0	0	0	WM Stimuli\	0.5	1207.4	0.5	1514.8	0.8	1325.75	1	934.7	0.9	1319	1	1121.3	0.6	1336.66666666667	0.8	945.25	13	599701	2	599689	27	40	599728	-999999	599704	0	1	TRSyncPROC	""	1	2	1	SessionSelectionList	101	26165	-999999	0	31	292855	-999999	0																																																	1	InitialTR	3	2	ReadyList	1	2	12	308195	-13	310182	0	2
WM080112	114419_fnca	1	1	1	-273125725	1	75.031	75.031	2.0.10.147	2.0.10.242	2.0.10.242	1.0.0.439	7	234	2	3	Verdana	1	80	0	0	0	WM Stimuli\	0.5	1207.4	0.5	1514.8	0.8	1325.75	1	934.7	0.9	1319	1	1121.3	0.6	1336.66666666667	0.8	945.25	13	599701	2	599689	27	40	599728	-999999	599704	0	1	TRSyncPROC	""	1	2	1	SessionSelectionList	101	26165	-999999	0	31	292855	-999999	0																																																	1	InitialTR	2	3	ReadyList	1	3	11	310194	-12	312182	0	3
WM080112	114419_fnca	1	1	1	-273125725	1	75.031	75.031	2.0.10.147	2.0.10.242	2.0.10.242	1.0.0.439	7	234	2	3	Verdana	1	80	0	0	0	WM Stimuli\	0.5	1207.4	0.5	1514.8	0.8	1325.75	1	934.7	0.9	1319	1	1121.3	0.6	1336.66666666667	0.8	945.25	13	599701	2	599689	27	40	599728	-999999	599704	0	1	TRSyncPROC	""	1	2	1	SessionSelectionList	101	26165	-999999	0	31	292855	-999999	0																																																	1	InitialTR	1	4	ReadyList	1	4	10	312193	-11	314182	0	4
WM080112	114419_fnca	1	1	1	-273125725	1	75.031	75.031	2.0.10.147	2.0.10.242	2.0.10.242	1.0.0.439	7	234	2	3	Verdana	1	80	0	0	0	WM Stimuli\	0.5	1207.4	0.5	1514.8	0.8	1325.75	1	934.7	0.9	1319	1	1121.3	0.6	1336.66666666667	0.8	945.25	13	599701	2	599689	27	40	599728	-999999	599704	0	2	Cue2BackPROC	""	1	2	2	SessionSelectionList									9	314192	-10	0																																													2												
WM080112	114419_fnca	1	1	1	-273125725	1	75.031	75.031	2.0.10.147	2.0.10.242	2.0.10.242	1.0.0.439	7	234	2	3	Verdana	1	80	0	0	0	WM Stimuli\	0.5	1207.4	0.5	1514.8	0.8	1325.75	1	934.7	0.9	1319	1	1121.3	0.6	1336.66666666667	0.8	945.25	13	599701	2	599689	27	40	599728	-999999	599704	0	3	TrialsPROC	BP_002_BP10_BA.png	1	2	3	SessionSelectionList													1	nonlure	3	Body	2-Back	2	80	1	0	0	0	1	53	318831	3	13	95	316778	-1	317637	1	859	3	3	2053	66	318844	-67	0																3												
WM080112	114419_fnca	1	1	1	-273125725	1	75.031	75.031	2.0.10.147	2.0.10.242	2.0.10.242	1.0.0.439	7	234	2	3	Verdana	1	80	0	0	0	WM Stimuli\	0.5	1207.4	0.5	1514.8	0.8	1325.75	1	934.7	0.9	1319	1	1121.3	0.6	1336.66666666667	0.8	945.25	13	599701	2	599689	27	40	599728	-999999	599704	0	3	TrialsPROC	BP_001_BP1_BA.png	1	2	4	SessionSelectionList													2	nonlure	3	Body	2-Back	3	80	2	0	0	0	2	39	321403	1	13	86	319364	-1	320510	1	1146	3	3	2039	52	321416	-53	0																4												
WM080112	114419_fnca	1	1	1	-273125725	1	75.031	75.031	2.0.10.147	2.0.10.242	2.0.10.242	1.0.0.439	7	234	2	3	Verdana	1	80	0	0	0	WM Stimuli\	0.5	1207.4	0.5	1514.8	0.8	1325.75	1	934.7	0.9	1319	1	1121.3	0.6	1336.66666666667	0.8	945.25	13	599701	2	599689	27	40	599728	-999999	599704	0	3	TrialsPROC	BP_006_BP2_BA.png	1	2	5	SessionSelectionList													3	nonlure	3	Body	2-Back	4	80	3	0	0	0	1	39	323962	1	13	59	321923	-1	323180	0	1257	2	3	2039	52	323975	-53	0																5												
WM080112	114419_fnca	1	1	1	-273125725	1	75.031	75.031	2.0.10.147	2.0.10.242	2.0.10.242	1.0.0.439	7	234	2	3	Verdana	1	80	0	0	0	WM Stimuli\	0.5	1207.4	0.5	1514.8	0.8	1325.75	1	934.7	0.9	1319	1	1121.3	0.6	1336.66666666667	0.8	945.25	13	599701	2	599689	27	40	599728	-999999	599704	0	3	TrialsPROC	BP_001_BP1_BA.png	1	2	6	SessionSelectionList													4	target	2	Body	2-Back	5	80	4	0	0	0	1	39	326534	1	13	72	324495	-1	325493	0	998	3	2	2039	52	326547	-53	0																6												
WM080112	114419_fnca	1	1	1	-273125725	1	75.031	75.031	2.0.10.147	2.0.10.242	2.0.10.242	1.0.0.439	7	234	2	3	Verdana	1	80	0	0	0	WM Stimuli\	0.5	1207.4	0.5	1514.8	0.8	1325.75	1	934.7	0.9	1319	1	1121.3	0.6	1336.66666666667	0.8	945.25	13	599701	2	599689	27	40	599728	-999999	599704	0	3	TrialsPROC	BP_005_BP19_BA.png	1	2	7	SessionSelectionList													5	nonlure	3	Body	2-Back	6	80	5	0	0	0	2	39	329106	2	14	72	327067	-1	328395	1	1328	3	3	2039	53	329120	-54	0																7												
WM080112	114419_fnca	1	1	1	-273125725	1	75.031	75.031	2.0.10.147	2.0.10.242	2.0.10.242	1.0.0.439	7	234	2	3	Verdana	1	80	0	0	0	WM Stimuli\	0.5	1207.4	0.5	1514.8	0.8	1325.75	1	934.7	0.9	1319	1	1121.3	0.6	1336.66666666667	0.8	945.25	13	599701	2	599689	27	40	599728	-999999	599704	0	3	TrialsPROC	BP_003_BP16_BA.png	1	2	8	SessionSelectionList													6	nonlure	3	Body	2-Back	7	80	6	0	0	0	3	39	331665	2	14	59	329626	-1	331154	1	1528	3	3	2039	53	331679	-54	0																8												
WM080112	114419_fnca	1	1	1	-273125725	1	75.031	75.031	2.0.10.147	2.0.10.242	2.0.10.242	1.0.0.439	7	234	2	3	Verdana	1	80	0	0	0	WM Stimuli\	0.5	1207.4	0.5	1514.8	0.8	1325.75	1	934.7	0.9	1319	1	1121.3	0.6	1336.66666666667	0.8	945.25	13	599701	2	599689	27	40	599728	-999999	599704	0	3	TrialsPROC	BP_006_BP2_BA.png	1	2	9	SessionSelectionList													7	lure	3	Body	2-Back	8	80	7	0	0	0	1	39	334224	2	14	59	332185	-1	332953	0	768	2	3	2039	53	334238	-54	0																9												
WM080112	114419_fnca	1	1	1	-273125725	1	75.031	75.031	2.0.10.147	2.0.10.242	2.0.10.242	1.0.0.439	7	234	2	3	Verdana	1	80	0	0	0	WM Stimuli\	0.5	1207.4	0.5	1514.8	0.8	1325.75	1	934.7	0.9	1319	1	1121.3	0.6	1336.66666666667	0.8	945.25	13	599701	2	599689	27	40	599728	-999999	599704	0	3	TrialsPROC	BP_004_BP18_BA.png	1	2	10	SessionSelectionList													8	nonlure	3	Body	2-Back	9	80	8	0	0	0	1	39	336783	1	14	59	334744	-1	335920	1	1176	3	3	2039	53	336797	-54	0																10												
WM080112	114419_fnca	1	1	1	-273125725	1	75.031	75.031	2.0.10.147	2.0.10.242	2.0.10.242	1.0.0.439	7	234	2	3	Verdana	1	80	0	0	0	WM Stimuli\	0.5	1207.4	0.5	1514.8	0.8	1325.75	1	934.7	0.9	1319	1	1121.3	0.6	1336.66666666667	0.8	945.25	13	599701	2	599689	27	40	599728	-999999	599704	0	3	TrialsPROC	BP_005_BP19_BA.png	1	2	11	SessionSelectionList													9	lure	3	Body	2-Back	10	80	9	0	0	0	1	39	339342	1	13	59	337303	-1	338389	0	1086	2	3	2039	52	339355	-53	0																11												
WM080112	114419_fnca	1	1	1	-273125725	1	75.031	75.031	2.0.10.147	2.0.10.242	2.0.10.242	1.0.0.439	7	234	2	3	Verdana	1	80	0	0	0	WM Stimuli\	0.5	1207.4	0.5	1514.8	0.8	1325.75	1	934.7	0.9	1319	1	1121.3	0.6	1336.66666666667	0.8	945.25	13	599701	2	599689	27	40	599728	-999999	599704	0	3	TrialsPROC	BP_004_BP18_BA.png	1	2	12	SessionSelectionList													10	target	2	Body	2-Back	11	80	10	0	0	0	1	39	341901	1	13	59	339862	-1	341112	0	1250	3	2	2039	52	341914	-53	0																12												
WM080112	114419_fnca	1	1	1	-273125725	1	75.031	75.031	2.0.10.147	2.0.10.242	2.0.10.242	1.0.0.439	7	234	2	3	Verdana	1	80	0	0	0	WM Stimuli\	0.5	1207.4	0.5	1514.8	0.8	1325.75	1	934.7	0.9	1319	1	1121.3	0.6	1336.66666666667	0.8	945.25	13	599701	2	599689	27	40	599728	-999999	599704	0	4	Cue0BackPROC	FC_001_M1.png	1	2	13	SessionSelectionList																																										45	342407	-46	0												13												
WM080112	114419_fnca	1	1	1	-273125725	1	75.031	75.031	2.0.10.147	2.0.10.242	2.0.10.242	1.0.0.439	7	234	2	3	Verdana	1	80	0	0	0	WM Stimuli\	0.5	1207.4	0.5	1514.8	0.8	1325.75	1	934.7	0.9	1319	1	1121.3	0.6	1336.66666666667	0.8	945.25	13	599701	2	599689	27	40	599728	-999999	599704	0	5	TrialsPROC	FC_005_M3.png	1	2	14	SessionSelectionList														nonlure	3	Face	0-Back	12	80	11	0	0	100	2	39	346979	1	13	78	344940	-1	345775	1	835	3	3	2039	52	346992	-53	0					1											14												
WM080112	114419_fnca	1	1	1	-273125725	1	75.031	75.031	2.0.10.147	2.0.10.242	2.0.10.242	1.0.0.439	7	234	2	3	Verdana	1	80	0	0	0	WM Stimuli\	0.5	1207.4	0.5	1514.8	0.8	1325.75	1	934.7	0.9	1319	1	1121.3	0.6	1336.66666666667	0.8	945.25	13	599701	2	599689	27	40	599728	-999999	599704	0	5	TrialsPROC	FC_001_M1.png	1	2	15	SessionSelectionList														target	2	Face	0-Back	13	80	12	0	0	100	1	39	349551	2	14	72	347512	-1	348213	1	701	2	2	2039	53	349565	-54	0					2											15												
WM080112	114419_fnca	1	1	1	-273125725	1	75.031	75.031	2.0.10.147	2.0.10.242	2.0.10.242	1.0.0.439	7	234	2	3	Verdana	1	80	0	0	0	WM Stimuli\	0.5	1207.4	0.5	1514.8	0.8	1325.75	1	934.7	0.9	1319	1	1121.3	0.6	1336.66666666667	0.8	945.25	13	599701	2	599689	27	40	599728	-999999	599704	0	5	TrialsPROC	FC_003_M2.png	1	2	16	SessionSelectionList														nonlure	3	Face	0-Back	14	80	13	0	0	100	1	39	352123	2	14	72	350084	-1	351166	1	1082	3	3	2039	53	352137	-54	0					3											16												
WM080112	114419_fnca	1	1	1	-273125725	1	75.031	75.031	2.0.10.147	2.0.10.242	2.0.10.242	1.0.0.439	7	234	2	3	Verdana	1	80	0	0	0	WM Stimuli\	0.5	1207.4	0.5	1514.8	0.8	1325.75	1	934.7	0.9	1319	1	1121.3	0.6	1336.66666666667	0.8	945.25	13	599701	2	599689	27	40	599728	-999999	599704	0	5	TrialsPROC	FC_004_F2.png	1	2	17	SessionSelectionList														nonlure	3	Face	0-Back	15	80	14	0	0	100	2	39	354696	1	13	73	352657	-1	353855	1	1198	3	3	2039	52	354709	-53	0					4											17												
WM080112	114419_fnca	1	1	1	-273125725	1	75.031	75.031	2.0.10.147	2.0.10.242	2.0.10.242	1.0.0.439	7	234	2	3	Verdana	1	80	0	0	0	WM Stimuli\	0.5	1207.4	0.5	1514.8	0.8	1325.75	1	934.7	0.9	1319	1	1121.3	0.6	1336.66666666667	0.8	945.25	13	599701	2	599689	27	40	599728	-999999	599704	0	5	TrialsPROC	FC_004_F2.png	1	2	18	SessionSelectionList														lure	3	Face	0-Back	16	80	15	0	0	100	3	39	357268	1	13	72	355229	-1	356233	1	1004	3	3	2039	52	357281	-53	0					5											18												
WM080112	114419_fnca	1	1	1	-273125725	1	75.031	75.031	2.0.10.147	2.0.10.242	2.0.10.242	1.0.0.439	7	234	2	3	Verdana	1	80	0	0	0	WM Stimuli\	0.5	1207.4	0.5	1514.8	0.8	1325.75	1	934.7	0.9	1319	1	1121.3	0.6	1336.66666666667	0.8	945.25	13	599701	2	599689	27	40	599728	-999999	599704	0	5	TrialsPROC	FC_001_M1.png	1	2	19	SessionSelectionList														target	2	Face	0-Back	17	80	16	0	0	100	1	39	359840	2	14	72	357801	-1	358462	1	661	2	2	2039	53	359854	-54	0					6											19												
WM080112	114419_fnca	1	1	1	-273125725	1	75.031	75.031	2.0.10.147	2.0.10.242	2.0.10.242	1.0.0.439	7	234	2	3	Verdana	1	80	0	0	0	WM Stimuli\	0.5	1207.4	0.5	1514.8	0.8	1325.75	1	934.7	0.9	1319	1	1121.3	0.6	1336.66666666667	0.8	945.25	13	599701	2	599689	27	40	599728	-999999	599704	0	5	TrialsPROC	FC_006_F3.png	1	2	20	SessionSelectionList														nonlure	3	Face	0-Back	18	80	17	0	0	100	1	39	362412	2	14	72	360373	-1	361222	1	849	3	3	2039	53	362426	-54	0					7											20												
WM080112	114419_fnca	1	1	1	-273125725	1	75.031	75.031	2.0.10.147	2.0.10.242	2.0.10.242	1.0.0.439	7	234	2	3	Verdana	1	80	0	0	0	WM Stimuli\	0.5	1207.4	0.5	1514.8	0.8	1325.75	1	934.7	0.9	1319	1	1121.3	0.6	1336.66666666667	0.8	945.25	13	599701	2	599689	27	40	599728	-999999	599704	0	5	TrialsPROC	FC_006_F3.png	1	2	21	SessionSelectionList														lure	3	Face	0-Back	19	80	18	0	0	100	2	39	364985	1	13	73	362946	-1	363861	1	915	3	3	2039	52	364998	-53	0					8											21												
WM080112	114419_fnca	1	1	1	-273125725	1	75.031	75.031	2.0.10.147	2.0.10.242	2.0.10.242	1.0.0.439	7	234	2	3	Verdana	1	80	0	0	0	WM Stimuli\	0.5	1207.4	0.5	1514.8	0.8	1325.75	1	934.7	0.9	1319	1	1121.3	0.6	1336.66666666667	0.8	945.25	13	599701	2	599689	27	40	599728	-999999	599704	0	5	TrialsPROC	FC_003_M2.png	1	2	22	SessionSelectionList														lure	3	Face	0-Back	20	80	19	0	0	100	3	39	367557	1	13	72	365518	-1	366672	1	1154	3	3	2039	52	367570	-53	0					9											22												
WM080112	114419_fnca	1	1	1	-273125725	1	75.031	75.031	2.0.10.147	2.0.10.242	2.0.10.242	1.0.0.439	7	234	2	3	Verdana	1	80	0	0	0	WM Stimuli\	0.5	1207.4	0.5	1514.8	0.8	1325.75	1	934.7	0.9	1319	1	1121.3	0.6	1336.66666666667	0.8	945.25	13	599701	2	599689	27	40	599728	-999999	599704	0	5	TrialsPROC	FC_002_F1.png	1	2	23	SessionSelectionList														nonlure	3	Face	0-Back	21	80	20	0	0	100	4	40	370143	1	13	85	368103	-1	369051	1	948	3	3	2040	53	370156	-54	0					10											23												
WM080112	114419_fnca	1	1	1	-273125725	1	75.031	75.031	2.0.10.147	2.0.10.242	2.0.10.242	1.0.0.439	7	234	2	3	Verdana	1	80	0	0	0	WM Stimuli\	0.5	1207.4	0.5	1514.8	0.8	1325.75	1	934.7	0.9	1319	1	1121.3	0.6	1336.66666666667	0.8	945.25	13	599701	2	599689	27	40	599728	-999999	599704	0	6	Fix15secPROC	""	1	2	24	SessionSelectionList																																															6	370609	-7	0							24												
WM080112	114419_fnca	1	1	1	-273125725	1	75.031	75.031	2.0.10.147	2.0.10.242	2.0.10.242	1.0.0.439	7	234	2	3	Verdana	1	80	0	0	0	WM Stimuli\	0.5	1207.4	0.5	1514.8	0.8	1325.75	1	934.7	0.9	1319	1	1121.3	0.6	1336.66666666667	0.8	945.25	13	599701	2	599689	27	40	599728	-999999	599704	0	7	Cue2BackPROC	""	1	2	25	SessionSelectionList									13	385616	-14	0																																													25												
WM080112	114419_fnca	1	1	1	-273125725	1	75.031	75.031	2.0.10.147	2.0.10.242	2.0.10.242	1.0.0.439	7	234	2	3	Verdana	1	80	0	0	0	WM Stimuli\	0.5	1207.4	0.5	1514.8	0.8	1325.75	1	934.7	0.9	1319	1	1121.3	0.6	1336.66666666667	0.8	945.25	13	599701	2	599689	27	40	599728	-999999	599704	0	8	TrialsPROC	TO_001_TOOL1_BA.png	1	2	26	SessionSelectionList														nonlure	3	Tools	2-Back	22	80	21	0	0	100	5	39	390214	2	14	72	388175	-1	389055	1	880	3	3	2039	53	390228	-54	0										1						26												
WM080112	114419_fnca	1	1	1	-273125725	1	75.031	75.031	2.0.10.147	2.0.10.242	2.0.10.242	1.0.0.439	7	234	2	3	Verdana	1	80	0	0	0	WM Stimuli\	0.5	1207.4	0.5	1514.8	0.8	1325.75	1	934.7	0.9	1319	1	1121.3	0.6	1336.66666666667	0.8	945.25	13	599701	2	599689	27	40	599728	-999999	599704	0	8	TrialsPROC	TO_002_TOOL2_BA.png	1	2	27	SessionSelectionList														nonlure	3	Tools	2-Back	23	80	22	0	0	100	6	39	392773	2	14	59	390734	-1	391746	1	1012	3	3	2039	53	392787	-54	0										2						27												
WM080112	114419_fnca	1	1	1	-273125725	1	75.031	75.031	2.0.10.147	2.0.10.242	2.0.10.242	1.0.0.439	7	234	2	3	Verdana	1	80	0	0	0	WM Stimuli\	0.5	1207.4	0.5	1514.8	0.8	1325.75	1	934.7	0.9	1319	1	1121.3	0.6	1336.66666666667	0.8	945.25	13	599701	2	599689	27	40	599728	-999999	599704	0	8	TrialsPROC	TO_004_TOOL4_BA.png	1	2	28	SessionSelectionList														nonlure	3	Tools	2-Back	24	80	23	0	0	100	7	39	395332	2	14	59	393293	-1	394701	1	1408	3	3	2039	53	395346	-54	0										3						28												
WM080112	114419_fnca	1	1	1	-273125725	1	75.031	75.031	2.0.10.147	2.0.10.242	2.0.10.242	1.0.0.439	7	234	2	3	Verdana	1	80	0	0	0	WM Stimuli\	0.5	1207.4	0.5	1514.8	0.8	1325.75	1	934.7	0.9	1319	1	1121.3	0.6	1336.66666666667	0.8	945.25	13	599701	2	599689	27	40	599728	-999999	599704	0	8	TrialsPROC	TO_002_TOOL2_BA.png	1	2	29	SessionSelectionList														target	2	Tools	2-Back	25	80	24	0	0	100	1	39	397891	2	14	59	395852	-1	397007	1	1155	2	2	2039	53	397905	-54	0										4						29												
WM080112	114419_fnca	1	1	1	-273125725	1	75.031	75.031	2.0.10.147	2.0.10.242	2.0.10.242	1.0.0.439	7	234	2	3	Verdana	1	80	0	0	0	WM Stimuli\	0.5	1207.4	0.5	1514.8	0.8	1325.75	1	934.7	0.9	1319	1	1121.3	0.6	1336.66666666667	0.8	945.25	13	599701	2	599689	27	40	599728	-999999	599704	0	8	TrialsPROC	TO_001_TOOL1_BA.png	1	2	30	SessionSelectionList														lure	3	Tools	2-Back	26	80	25	0	0	100	1	39	400450	1	14	59	398411	-1	399990	1	1579	3	3	2039	53	400464	-54	0										5						30												
WM080112	114419_fnca	1	1	1	-273125725	1	75.031	75.031	2.0.10.147	2.0.10.242	2.0.10.242	1.0.0.439	7	234	2	3	Verdana	1	80	0	0	0	WM Stimuli\	0.5	1207.4	0.5	1514.8	0.8	1325.75	1	934.7	0.9	1319	1	1121.3	0.6	1336.66666666667	0.8	945.25	13	599701	2	599689	27	40	599728	-999999	599704	0	8	TrialsPROC	TO_004_TOOL4_BA.png	1	2	31	SessionSelectionList														lure	3	Tools	2-Back	27	80	26	0	0	100	1	39	403009	1	13	59	400970	-1	402233	0	1263	2	3	2039	52	403022	-53	0										6						31												
WM080112	114419_fnca	1	1	1	-273125725	1	75.031	75.031	2.0.10.147	2.0.10.242	2.0.10.242	1.0.0.439	7	234	2	3	Verdana	1	80	0	0	0	WM Stimuli\	0.5	1207.4	0.5	1514.8	0.8	1325.75	1	934.7	0.9	1319	1	1121.3	0.6	1336.66666666667	0.8	945.25	13	599701	2	599689	27	40	599728	-999999	599704	0	8	TrialsPROC	TO_006_TOOL6_BA.png	1	2	32	SessionSelectionList														nonlure	3	Tools	2-Back	28	80	27	0	0	100	1	39	405581	2	14	72	403542	-1	405528	1	1986	3	3	2039	53	405595	-54	0										7						32												
WM080112	114419_fnca	1	1	1	-273125725	1	75.031	75.031	2.0.10.147	2.0.10.242	2.0.10.242	1.0.0.439	7	234	2	3	Verdana	1	80	0	0	0	WM Stimuli\	0.5	1207.4	0.5	1514.8	0.8	1325.75	1	934.7	0.9	1319	1	1121.3	0.6	1336.66666666667	0.8	945.25	13	599701	2	599689	27	40	599728	-999999	599704	0	8	TrialsPROC	TO_005_TOOL5_BA.png	1	2	33	SessionSelectionList														nonlure	3	Tools	2-Back	29	80	28	0	0	100	1	39	408140	2	14	59	406101	-1	407513	0	1412	2	3	2039	53	408154	-54	0										8						33												
WM080112	114419_fnca	1	1	1	-273125725	1	75.031	75.031	2.0.10.147	2.0.10.242	2.0.10.242	1.0.0.439	7	234	2	3	Verdana	1	80	0	0	0	WM Stimuli\	0.5	1207.4	0.5	1514.8	0.8	1325.75	1	934.7	0.9	1319	1	1121.3	0.6	1336.66666666667	0.8	945.25	13	599701	2	599689	27	40	599728	-999999	599704	0	8	TrialsPROC	TO_006_TOOL6_BA.png	1	2	34	SessionSelectionList														target	2	Tools	2-Back	30	80	29	0	0	100	1	39	410699	2	14	59	408660	-1	410498	0	1838	3	2	2039	53	410713	-54	0										9						34												
WM080112	114419_fnca	1	1	1	-273125725	1	75.031	75.031	2.0.10.147	2.0.10.242	2.0.10.242	1.0.0.439	7	234	2	3	Verdana	1	80	0	0	0	WM Stimuli\	0.5	1207.4	0.5	1514.8	0.8	1325.75	1	934.7	0.9	1319	1	1121.3	0.6	1336.66666666667	0.8	945.25	13	599701	2	599689	27	40	599728	-999999	599704	0	8	TrialsPROC	TO_003_TOOL3_BA.png	1	2	35	SessionSelectionList														nonlure	3	Tools	2-Back	31	80	30	0	0	100	1	39	413271	2	14	72	411232	-1	412474	0	1242	2	3	2039	53	413285	-54	0										10						35												
WM080112	114419_fnca	1	1	1	-273125725	1	75.031	75.031	2.0.10.147	2.0.10.242	2.0.10.242	1.0.0.439	7	234	2	3	Verdana	1	80	0	0	0	WM Stimuli\	0.5	1207.4	0.5	1514.8	0.8	1325.75	1	934.7	0.9	1319	1	1121.3	0.6	1336.66666666667	0.8	945.25	13	599701	2	599689	27	40	599728	-999999	599704	0	9	Cue0BackPROC	BP_007_BP20_BA.png	1	2	36	SessionSelectionList																																										19	413751	-20	0												36												
WM080112	114419_fnca	1	1	1	-273125725	1	75.031	75.031	2.0.10.147	2.0.10.242	2.0.10.242	1.0.0.439	7	234	2	3	Verdana	1	80	0	0	0	WM Stimuli\	0.5	1207.4	0.5	1514.8	0.8	1325.75	1	934.7	0.9	1319	1	1121.3	0.6	1336.66666666667	0.8	945.25	13	599701	2	599689	27	40	599728	-999999	599704	0	10	TrialsPROC	BP_007_BP20_BA.png	1	2	37	SessionSelectionList														target	2	Body	0-Back	32	80	31	0	0	91	1	39	418323	1	13	52	416284	-1	418242	0	1958	3	2	2039	52	418336	-53	0											1					37												
WM080112	114419_fnca	1	1	1	-273125725	1	75.031	75.031	2.0.10.147	2.0.10.242	2.0.10.242	1.0.0.439	7	234	2	3	Verdana	1	80	0	0	0	WM Stimuli\	0.5	1207.4	0.5	1514.8	0.8	1325.75	1	934.7	0.9	1319	1	1121.3	0.6	1336.66666666667	0.8	945.25	13	599701	2	599689	27	40	599728	-999999	599704	0	10	TrialsPROC	BP_011_BP4_BA.png	1	2	38	SessionSelectionList														nonlure	3	Body	0-Back	33	80	32	0	0	92	2	39	420882	1	13	59	418843	-1	420570	1	1727	3	3	2039	52	420895	-53	0											2					38												
WM080112	114419_fnca	1	1	1	-273125725	1	75.031	75.031	2.0.10.147	2.0.10.242	2.0.10.242	1.0.0.439	7	234	2	3	Verdana	1	80	0	0	0	WM Stimuli\	0.5	1207.4	0.5	1514.8	0.8	1325.75	1	934.7	0.9	1319	1	1121.3	0.6	1336.66666666667	0.8	945.25	13	599701	2	599689	27	40	599728	-999999	599704	0	10	TrialsPROC	BP_010_BP3_BA.png	1	2	39	SessionSelectionList														nonlure	3	Body	0-Back	34	80	33	0	0	92	3	40	423441	1	13	58	421401	-1	422646	1	1245	3	3	2040	53	423454	-54	0											3					39												
WM080112	114419_fnca	1	1	1	-273125725	1	75.031	75.031	2.0.10.147	2.0.10.242	2.0.10.242	1.0.0.439	7	234	2	3	Verdana	1	80	0	0	0	WM Stimuli\	0.5	1207.4	0.5	1514.8	0.8	1325.75	1	934.7	0.9	1319	1	1121.3	0.6	1336.66666666667	0.8	945.25	13	599701	2	599689	27	40	599728	-999999	599704	0	10	TrialsPROC	BP_008_BP21_BA.png	1	2	40	SessionSelectionList														nonlure	3	Body	0-Back	35	80	34	0	0	93	4	40	426000	1	13	59	423960	-1	425369	1	1409	3	3	2040	53	426013	-54	0											4					40												
WM080112	114419_fnca	1	1	1	-273125725	1	75.031	75.031	2.0.10.147	2.0.10.242	2.0.10.242	1.0.0.439	7	234	2	3	Verdana	1	80	0	0	0	WM Stimuli\	0.5	1207.4	0.5	1514.8	0.8	1325.75	1	934.7	0.9	1319	1	1121.3	0.6	1336.66666666667	0.8	945.25	13	599701	2	599689	27	40	599728	-999999	599704	0	10	TrialsPROC	BP_011_BP4_BA.png	1	2	41	SessionSelectionList														lure	3	Body	0-Back	36	80	35	0	0	87	1	39	428558	2	14	59	426519	-1	427326	0	807	2	3	2039	53	428572	-54	0											5					41												
WM080112	114419_fnca	1	1	1	-273125725	1	75.031	75.031	2.0.10.147	2.0.10.242	2.0.10.242	1.0.0.439	7	234	2	3	Verdana	1	80	0	0	0	WM Stimuli\	0.5	1207.4	0.5	1514.8	0.8	1325.75	1	934.7	0.9	1319	1	1121.3	0.6	1336.66666666667	0.8	945.25	13	599701	2	599689	27	40	599728	-999999	599704	0	10	TrialsPROC	BP_009_BP22_BA.png	1	2	42	SessionSelectionList														nonlure	3	Body	0-Back	37	80	36	0	0	88	1	39	431144	1	14	86	429105	-1	430416	1	1311	3	3	2039	53	431158	-54	0											6					42												
WM080112	114419_fnca	1	1	1	-273125725	1	75.031	75.031	2.0.10.147	2.0.10.242	2.0.10.242	1.0.0.439	7	234	2	3	Verdana	1	80	0	0	0	WM Stimuli\	0.5	1207.4	0.5	1514.8	0.8	1325.75	1	934.7	0.9	1319	1	1121.3	0.6	1336.66666666667	0.8	945.25	13	599701	2	599689	27	40	599728	-999999	599704	0	10	TrialsPROC	BP_009_BP22_BA.png	1	2	43	SessionSelectionList														lure	3	Body	0-Back	38	80	37	0	0	82	1	39	433703	1	13	59	431664	-1	433027	0	1363	2	3	2039	52	433716	-53	0											7					43												
WM080112	114419_fnca	1	1	1	-273125725	1	75.031	75.031	2.0.10.147	2.0.10.242	2.0.10.242	1.0.0.439	7	234	2	3	Verdana	1	80	0	0	0	WM Stimuli\	0.5	1207.4	0.5	1514.8	0.8	1325.75	1	934.7	0.9	1319	1	1121.3	0.6	1336.66666666667	0.8	945.25	13	599701	2	599689	27	40	599728	-999999	599704	0	10	TrialsPROC	BP_008_BP21_BA.png	1	2	44	SessionSelectionList														lure	3	Body	0-Back	39	80	37	0	1	78	1	39	436262	1	13	59	434223	-1	0	0	0	""	3	2039	52	436275	-53	0											8					44												
WM080112	114419_fnca	1	1	1	-273125725	1	75.031	75.031	2.0.10.147	2.0.10.242	2.0.10.242	1.0.0.439	7	234	2	3	Verdana	1	80	0	0	0	WM Stimuli\	0.5	1207.4	0.5	1514.8	0.8	1325.75	1	934.7	0.9	1319	1	1121.3	0.6	1336.66666666667	0.8	945.25	13	599701	2	599689	27	40	599728	-999999	599704	0	10	TrialsPROC	BP_007_BP20_BA.png	1	2	45	SessionSelectionList														target	2	Body	0-Back	40	80	38	0	0	74	1	39	438821	1	13	59	436782	-1	437718	0	936	3	2	2039	52	438834	-53	0											9					45												
WM080112	114419_fnca	1	1	1	-273125725	1	75.031	75.031	2.0.10.147	2.0.10.242	2.0.10.242	1.0.0.439	7	234	2	3	Verdana	1	80	0	0	0	WM Stimuli\	0.5	1207.4	0.5	1514.8	0.8	1325.75	1	934.7	0.9	1319	1	1121.3	0.6	1336.66666666667	0.8	945.25	13	599701	2	599689	27	40	599728	-999999	599704	0	10	TrialsPROC	BP_012_BP5_BA.png	1	2	46	SessionSelectionList														nonlure	3	Body	0-Back	41	80	39	0	0	75	2	39	441380	1	13	59	439341	-1	441223	1	1882	3	3	2039	52	441393	-53	0											10					46												
WM080112	114419_fnca	1	1	1	-273125725	1	75.031	75.031	2.0.10.147	2.0.10.242	2.0.10.242	1.0.0.439	7	234	2	3	Verdana	1	80	0	0	0	WM Stimuli\	0.5	1207.4	0.5	1514.8	0.8	1325.75	1	934.7	0.9	1319	1	1121.3	0.6	1336.66666666667	0.8	945.25	13	599701	2	599689	27	40	599728	-999999	599704	0	11	Fix15secPROC	""	1	2	47	SessionSelectionList																																															5	441846	-6	0							47												
WM080112	114419_fnca	1	1	1	-273125725	1	75.031	75.031	2.0.10.147	2.0.10.242	2.0.10.242	1.0.0.439	7	234	2	3	Verdana	1	80	0	0	0	WM Stimuli\	0.5	1207.4	0.5	1514.8	0.8	1325.75	1	934.7	0.9	1319	1	1121.3	0.6	1336.66666666667	0.8	945.25	13	599701	2	599689	27	40	599728	-999999	599704	0	12	Cue0BackPROC	PL_001_92012.png	1	2	48	SessionSelectionList																																										39	456880	-40	0												48												
WM080112	114419_fnca	1	1	1	-273125725	1	75.031	75.031	2.0.10.147	2.0.10.242	2.0.10.242	1.0.0.439	7	234	2	3	Verdana	1	80	0	0	0	WM Stimuli\	0.5	1207.4	0.5	1514.8	0.8	1325.75	1	934.7	0.9	1319	1	1121.3	0.6	1336.66666666667	0.8	945.25	13	599701	2	599689	27	40	599728	-999999	599704	0	13	TrialsPROC	PL_003_92016.png	1	2	49	SessionSelectionList														nonlure	3	Place	0-Back	42	80	40	0	0	76	3	40	461452	1	13	71	459412	-1	460526	1	1114	3	3	2040	53	461465	-54	0												1				49												
WM080112	114419_fnca	1	1	1	-273125725	1	75.031	75.031	2.0.10.147	2.0.10.242	2.0.10.242	1.0.0.439	7	234	2	3	Verdana	1	80	0	0	0	WM Stimuli\	0.5	1207.4	0.5	1514.8	0.8	1325.75	1	934.7	0.9	1319	1	1121.3	0.6	1336.66666666667	0.8	945.25	13	599701	2	599689	27	40	599728	-999999	599704	0	13	TrialsPROC	PL_003_92016.png	1	2	50	SessionSelectionList														lure	3	Place	0-Back	43	80	41	0	0	77	4	39	464010	2	14	59	461971	-1	463614	1	1643	3	3	2039	53	464024	-54	0												2				50												
WM080112	114419_fnca	1	1	1	-273125725	1	75.031	75.031	2.0.10.147	2.0.10.242	2.0.10.242	1.0.0.439	7	234	2	3	Verdana	1	80	0	0	0	WM Stimuli\	0.5	1207.4	0.5	1514.8	0.8	1325.75	1	934.7	0.9	1319	1	1121.3	0.6	1336.66666666667	0.8	945.25	13	599701	2	599689	27	40	599728	-999999	599704	0	13	TrialsPROC	PL_006_92025.png	1	2	51	SessionSelectionList														nonlure	3	Place	0-Back	44	80	42	0	0	78	5	39	466583	1	13	73	464544	-1	465851	1	1307	3	3	2039	52	466596	-53	0												3				51												
WM080112	114419_fnca	1	1	1	-273125725	1	75.031	75.031	2.0.10.147	2.0.10.242	2.0.10.242	1.0.0.439	7	234	2	3	Verdana	1	80	0	0	0	WM Stimuli\	0.5	1207.4	0.5	1514.8	0.8	1325.75	1	934.7	0.9	1319	1	1121.3	0.6	1336.66666666667	0.8	945.25	13	599701	2	599689	27	40	599728	-999999	599704	0	13	TrialsPROC	PL_001_92012.png	1	2	52	SessionSelectionList														target	2	Place	0-Back	45	80	43	0	0	79	1	39	469142	1	13	59	467103	-1	467931	1	828	2	2	2039	52	469155	-53	0												4				52												
WM080112	114419_fnca	1	1	1	-273125725	1	75.031	75.031	2.0.10.147	2.0.10.242	2.0.10.242	1.0.0.439	7	234	2	3	Verdana	1	80	0	0	0	WM Stimuli\	0.5	1207.4	0.5	1514.8	0.8	1325.75	1	934.7	0.9	1319	1	1121.3	0.6	1336.66666666667	0.8	945.25	13	599701	2	599689	27	40	599728	-999999	599704	0	13	TrialsPROC	PL_004_92023.png	1	2	53	SessionSelectionList														nonlure	3	Place	0-Back	46	80	44	0	0	80	1	39	471727	2	14	85	469688	-1	470649	1	961	3	3	2039	53	471741	-54	0												5				53												
WM080112	114419_fnca	1	1	1	-273125725	1	75.031	75.031	2.0.10.147	2.0.10.242	2.0.10.242	1.0.0.439	7	234	2	3	Verdana	1	80	0	0	0	WM Stimuli\	0.5	1207.4	0.5	1514.8	0.8	1325.75	1	934.7	0.9	1319	1	1121.3	0.6	1336.66666666667	0.8	945.25	13	599701	2	599689	27	40	599728	-999999	599704	0	13	TrialsPROC	PL_005_92024.png	1	2	54	SessionSelectionList														nonlure	3	Place	0-Back	47	80	45	0	0	81	2	40	474300	1	13	72	472260	-1	473669	1	1409	3	3	2040	53	474313	-54	0												6				54												
WM080112	114419_fnca	1	1	1	-273125725	1	75.031	75.031	2.0.10.147	2.0.10.242	2.0.10.242	1.0.0.439	7	234	2	3	Verdana	1	80	0	0	0	WM Stimuli\	0.5	1207.4	0.5	1514.8	0.8	1325.75	1	934.7	0.9	1319	1	1121.3	0.6	1336.66666666667	0.8	945.25	13	599701	2	599689	27	40	599728	-999999	599704	0	13	TrialsPROC	PL_001_92012.png	1	2	55	SessionSelectionList														target	2	Place	0-Back	48	80	46	0	0	81	1	39	476858	2	14	59	474819	-1	475428	1	609	2	2	2039	53	476872	-54	0												7				55												
WM080112	114419_fnca	1	1	1	-273125725	1	75.031	75.031	2.0.10.147	2.0.10.242	2.0.10.242	1.0.0.439	7	234	2	3	Verdana	1	80	0	0	0	WM Stimuli\	0.5	1207.4	0.5	1514.8	0.8	1325.75	1	934.7	0.9	1319	1	1121.3	0.6	1336.66666666667	0.8	945.25	13	599701	2	599689	27	40	599728	-999999	599704	0	13	TrialsPROC	PL_002_92014.png	1	2	56	SessionSelectionList														nonlure	3	Place	0-Back	49	80	47	0	0	82	1	39	479431	1	13	73	477392	-1	478549	1	1157	3	3	2039	52	479444	-53	0												8				56												
WM080112	114419_fnca	1	1	1	-273125725	1	75.031	75.031	2.0.10.147	2.0.10.242	2.0.10.242	1.0.0.439	7	234	2	3	Verdana	1	80	0	0	0	WM Stimuli\	0.5	1207.4	0.5	1514.8	0.8	1325.75	1	934.7	0.9	1319	1	1121.3	0.6	1336.66666666667	0.8	945.25	13	599701	2	599689	27	40	599728	-999999	599704	0	13	TrialsPROC	PL_004_92023.png	1	2	57	SessionSelectionList														lure	3	Place	0-Back	50	80	48	0	0	83	2	39	481990	1	13	59	479951	-1	481008	1	1057	3	3	2039	52	482003	-53	0												9				57												
WM080112	114419_fnca	1	1	1	-273125725	1	75.031	75.031	2.0.10.147	2.0.10.242	2.0.10.242	1.0.0.439	7	234	2	3	Verdana	1	80	0	0	0	WM Stimuli\	0.5	1207.4	0.5	1514.8	0.8	1325.75	1	934.7	0.9	1319	1	1121.3	0.6	1336.66666666667	0.8	945.25	13	599701	2	599689	27	40	599728	-999999	599704	0	13	TrialsPROC	PL_006_92025.png	1	2	58	SessionSelectionList														lure	3	Place	0-Back	51	80	49	0	0	83	3	39	484562	1	13	72	482523	-1	483651	1	1128	3	3	2039	52	484575	-53	0												10				58												
WM080112	114419_fnca	1	1	1	-273125725	1	75.031	75.031	2.0.10.147	2.0.10.242	2.0.10.242	1.0.0.439	7	234	2	3	Verdana	1	80	0	0	0	WM Stimuli\	0.5	1207.4	0.5	1514.8	0.8	1325.75	1	934.7	0.9	1319	1	1121.3	0.6	1336.66666666667	0.8	945.25	13	599701	2	599689	27	40	599728	-999999	599704	0	14	Cue2BackPROC	""	1	2	59	SessionSelectionList									5	485028	-6	0																																													59												
WM080112	114419_fnca	1	1	1	-273125725	1	75.031	75.031	2.0.10.147	2.0.10.242	2.0.10.242	1.0.0.439	7	234	2	3	Verdana	1	80	0	0	0	WM Stimuli\	0.5	1207.4	0.5	1514.8	0.8	1325.75	1	934.7	0.9	1319	1	1121.3	0.6	1336.66666666667	0.8	945.25	13	599701	2	599689	27	40	599728	-999999	599704	0	15	TrialsPROC	FC_010_F5.png	1	2	60	SessionSelectionList														nonlure	3	Face	2-Back	52	80	50	0	0	83	4	39	489640	1	13	78	487601	-1	489123	1	1522	3	3	2039	52	489653	-53	0													1			60												
WM080112	114419_fnca	1	1	1	-273125725	1	75.031	75.031	2.0.10.147	2.0.10.242	2.0.10.242	1.0.0.439	7	234	2	3	Verdana	1	80	0	0	0	WM Stimuli\	0.5	1207.4	0.5	1514.8	0.8	1325.75	1	934.7	0.9	1319	1	1121.3	0.6	1336.66666666667	0.8	945.25	13	599701	2	599689	27	40	599728	-999999	599704	0	15	TrialsPROC	FC_012_F6.png	1	2	61	SessionSelectionList														nonlure	3	Face	2-Back	53	80	51	0	0	83	5	39	492212	2	14	72	490173	-1	491992	1	1819	3	3	2039	53	492226	-54	0													2			61												
WM080112	114419_fnca	1	1	1	-273125725	1	75.031	75.031	2.0.10.147	2.0.10.242	2.0.10.242	1.0.0.439	7	234	2	3	Verdana	1	80	0	0	0	WM Stimuli\	0.5	1207.4	0.5	1514.8	0.8	1325.75	1	934.7	0.9	1319	1	1121.3	0.6	1336.66666666667	0.8	945.25	13	599701	2	599689	27	40	599728	-999999	599704	0	15	TrialsPROC	FC_010_F5.png	1	2	62	SessionSelectionList														target	2	Face	2-Back	54	80	52	0	0	83	1	39	494784	2	14	72	492745	-1	493382	1	637	2	2	2039	53	494798	-54	0													3			62												
WM080112	114419_fnca	1	1	1	-273125725	1	75.031	75.031	2.0.10.147	2.0.10.242	2.0.10.242	1.0.0.439	7	234	2	3	Verdana	1	80	0	0	0	WM Stimuli\	0.5	1207.4	0.5	1514.8	0.8	1325.75	1	934.7	0.9	1319	1	1121.3	0.6	1336.66666666667	0.8	945.25	13	599701	2	599689	27	40	599728	-999999	599704	0	15	TrialsPROC	FC_008_F4.png	1	2	63	SessionSelectionList														nonlure	3	Face	2-Back	55	80	53	0	0	83	1	39	497370	1	13	86	495331	-1	496372	1	1041	3	3	2039	52	497383	-53	0													4			63												
WM080112	114419_fnca	1	1	1	-273125725	1	75.031	75.031	2.0.10.147	2.0.10.242	2.0.10.242	1.0.0.439	7	234	2	3	Verdana	1	80	0	0	0	WM Stimuli\	0.5	1207.4	0.5	1514.8	0.8	1325.75	1	934.7	0.9	1319	1	1121.3	0.6	1336.66666666667	0.8	945.25	13	599701	2	599689	27	40	599728	-999999	599704	0	15	TrialsPROC	FC_012_F6.png	1	2	64	SessionSelectionList														lure	3	Face	2-Back	56	80	54	0	0	83	1	39	499942	2	14	72	497903	-1	499871	0	1968	2	3	2039	53	499956	-54	0													5			64												
WM080112	114419_fnca	1	1	1	-273125725	1	75.031	75.031	2.0.10.147	2.0.10.242	2.0.10.242	1.0.0.439	7	234	2	3	Verdana	1	80	0	0	0	WM Stimuli\	0.5	1207.4	0.5	1514.8	0.8	1325.75	1	934.7	0.9	1319	1	1121.3	0.6	1336.66666666667	0.8	945.25	13	599701	2	599689	27	40	599728	-999999	599704	0	15	TrialsPROC	FC_008_F4.png	1	2	65	SessionSelectionList														target	2	Face	2-Back	57	80	55	0	0	83	2	40	502515	1	13	72	500475	-1	502168	1	1693	2	2	2040	53	502528	-54	0													6			65												
WM080112	114419_fnca	1	1	1	-273125725	1	75.031	75.031	2.0.10.147	2.0.10.242	2.0.10.242	1.0.0.439	7	234	2	3	Verdana	1	80	0	0	0	WM Stimuli\	0.5	1207.4	0.5	1514.8	0.8	1325.75	1	934.7	0.9	1319	1	1121.3	0.6	1336.66666666667	0.8	945.25	13	599701	2	599689	27	40	599728	-999999	599704	0	15	TrialsPROC	FC_007_M4.png	1	2	66	SessionSelectionList														nonlure	3	Face	2-Back	58	80	56	0	0	83	1	39	505087	1	13	73	503048	-1	504076	1	1028	3	3	2039	52	505100	-53	0													7			66												
WM080112	114419_fnca	1	1	1	-273125725	1	75.031	75.031	2.0.10.147	2.0.10.242	2.0.10.242	1.0.0.439	7	234	2	3	Verdana	1	80	0	0	0	WM Stimuli\	0.5	1207.4	0.5	1514.8	0.8	1325.75	1	934.7	0.9	1319	1	1121.3	0.6	1336.66666666667	0.8	945.25	13	599701	2	599689	27	40	599728	-999999	599704	0	15	TrialsPROC	FC_007_M4.png	1	2	67	SessionSelectionList														lure	3	Face	2-Back	59	80	57	0	0	83	2	39	507659	1	14	72	505620	-1	507380	1	1760	3	3	2039	53	507673	-54	0													8			67												
WM080112	114419_fnca	1	1	1	-273125725	1	75.031	75.031	2.0.10.147	2.0.10.242	2.0.10.242	1.0.0.439	7	234	2	3	Verdana	1	80	0	0	0	WM Stimuli\	0.5	1207.4	0.5	1514.8	0.8	1325.75	1	934.7	0.9	1319	1	1121.3	0.6	1336.66666666667	0.8	945.25	13	599701	2	599689	27	40	599728	-999999	599704	0	15	TrialsPROC	FC_009_M5.png	1	2	68	SessionSelectionList														nonlure	3	Face	2-Back	60	80	58	0	0	83	1	39	510245	1	13	86	508206	-1	509233	0	1027	2	3	2039	52	510258	-53	0													9			68												
WM080112	114419_fnca	1	1	1	-273125725	1	75.031	75.031	2.0.10.147	2.0.10.242	2.0.10.242	1.0.0.439	7	234	2	3	Verdana	1	80	0	0	0	WM Stimuli\	0.5	1207.4	0.5	1514.8	0.8	1325.75	1	934.7	0.9	1319	1	1121.3	0.6	1336.66666666667	0.8	945.25	13	599701	2	599689	27	40	599728	-999999	599704	0	15	TrialsPROC	FC_011_M6.png	1	2	69	SessionSelectionList														nonlure	3	Face	2-Back	61	80	59	0	0	83	1	39	512817	1	13	72	510778	-1	511884	1	1106	3	3	2039	52	512830	-53	0													10			69												
WM080112	114419_fnca	1	1	1	-273125725	1	75.031	75.031	2.0.10.147	2.0.10.242	2.0.10.242	1.0.0.439	7	234	2	3	Verdana	1	80	0	0	0	WM Stimuli\	0.5	1207.4	0.5	1514.8	0.8	1325.75	1	934.7	0.9	1319	1	1121.3	0.6	1336.66666666667	0.8	945.25	13	599701	2	599689	27	40	599728	-999999	599704	0	16	Fix15secPROC	""	1	2	70	SessionSelectionList																																															6	513284	-7	0							70												
WM080112	114419_fnca	1	1	1	-273125725	1	75.031	75.031	2.0.10.147	2.0.10.242	2.0.10.242	1.0.0.439	7	234	2	3	Verdana	1	80	0	0	0	WM Stimuli\	0.5	1207.4	0.5	1514.8	0.8	1325.75	1	934.7	0.9	1319	1	1121.3	0.6	1336.66666666667	0.8	945.25	13	599701	2	599689	27	40	599728	-999999	599704	0	17	Cue0BackPROC	TO_007_TOOL7_BA.png	1	2	71	SessionSelectionList																																										39	528317	-40	0												71												
WM080112	114419_fnca	1	1	1	-273125725	1	75.031	75.031	2.0.10.147	2.0.10.242	2.0.10.242	1.0.0.439	7	234	2	3	Verdana	1	80	0	0	0	WM Stimuli\	0.5	1207.4	0.5	1514.8	0.8	1325.75	1	934.7	0.9	1319	1	1121.3	0.6	1336.66666666667	0.8	945.25	13	599701	2	599689	27	40	599728	-999999	599704	0	18	TrialsPROC	TO_010_TOOL10_BA.png	1	2	72	SessionSelectionList														nonlure	3	Tools	0-Back	62	80	60	0	0	84	2	40	532889	1	13	71	530849	-1	532202	1	1353	3	3	2040	53	532902	-54	0														1		72												
WM080112	114419_fnca	1	1	1	-273125725	1	75.031	75.031	2.0.10.147	2.0.10.242	2.0.10.242	1.0.0.439	7	234	2	3	Verdana	1	80	0	0	0	WM Stimuli\	0.5	1207.4	0.5	1514.8	0.8	1325.75	1	934.7	0.9	1319	1	1121.3	0.6	1336.66666666667	0.8	945.25	13	599701	2	599689	27	40	599728	-999999	599704	0	18	TrialsPROC	TO_009_TOOL9_BA.png	1	2	73	SessionSelectionList														nonlure	3	Tools	0-Back	63	80	61	0	0	84	3	39	535474	2	14	86	533435	-1	534518	1	1083	3	3	2039	53	535488	-54	0														2		73												
WM080112	114419_fnca	1	1	1	-273125725	1	75.031	75.031	2.0.10.147	2.0.10.242	2.0.10.242	1.0.0.439	7	234	2	3	Verdana	1	80	0	0	0	WM Stimuli\	0.5	1207.4	0.5	1514.8	0.8	1325.75	1	934.7	0.9	1319	1	1121.3	0.6	1336.66666666667	0.8	945.25	13	599701	2	599689	27	40	599728	-999999	599704	0	18	TrialsPROC	TO_009_TOOL9_BA.png	1	2	74	SessionSelectionList														lure	3	Tools	0-Back	64	80	61	0	1	82	3	39	538033	2	14	59	535994	-1	0	0	0	""	3	2039	53	538047	-54	0														3		74												
WM080112	114419_fnca	1	1	1	-273125725	1	75.031	75.031	2.0.10.147	2.0.10.242	2.0.10.242	1.0.0.439	7	234	2	3	Verdana	1	80	0	0	0	WM Stimuli\	0.5	1207.4	0.5	1514.8	0.8	1325.75	1	934.7	0.9	1319	1	1121.3	0.6	1336.66666666667	0.8	945.25	13	599701	2	599689	27	40	599728	-999999	599704	0	18	TrialsPROC	TO_008_TOOL8_BA.png	1	2	75	SessionSelectionList														nonlure	3	Tools	0-Back	65	80	62	0	0	82	1	39	540632	2	14	99	538593	-1	539619	1	1026	3	3	2039	53	540646	-54	0														4		75												
WM080112	114419_fnca	1	1	1	-273125725	1	75.031	75.031	2.0.10.147	2.0.10.242	2.0.10.242	1.0.0.439	7	234	2	3	Verdana	1	80	0	0	0	WM Stimuli\	0.5	1207.4	0.5	1514.8	0.8	1325.75	1	934.7	0.9	1319	1	1121.3	0.6	1336.66666666667	0.8	945.25	13	599701	2	599689	27	40	599728	-999999	599704	0	18	TrialsPROC	TO_011_TOOL11_BA.png	1	2	76	SessionSelectionList														nonlure	3	Tools	0-Back	66	80	63	0	0	83	2	39	543218	1	13	86	541179	-1	542048	1	869	3	3	2039	52	543231	-53	0														5		76												
WM080112	114419_fnca	1	1	1	-273125725	1	75.031	75.031	2.0.10.147	2.0.10.242	2.0.10.242	1.0.0.439	7	234	2	3	Verdana	1	80	0	0	0	WM Stimuli\	0.5	1207.4	0.5	1514.8	0.8	1325.75	1	934.7	0.9	1319	1	1121.3	0.6	1336.66666666667	0.8	945.25	13	599701	2	599689	27	40	599728	-999999	599704	0	18	TrialsPROC	TO_012_TOOL12_BA.png	1	2	77	SessionSelectionList														nonlure	3	Tools	0-Back	67	80	64	0	0	83	3	39	545803	2	14	85	543764	-1	544640	1	876	3	3	2039	53	545817	-54	0														6		77												
WM080112	114419_fnca	1	1	1	-273125725	1	75.031	75.031	2.0.10.147	2.0.10.242	2.0.10.242	1.0.0.439	7	234	2	3	Verdana	1	80	0	0	0	WM Stimuli\	0.5	1207.4	0.5	1514.8	0.8	1325.75	1	934.7	0.9	1319	1	1121.3	0.6	1336.66666666667	0.8	945.25	13	599701	2	599689	27	40	599728	-999999	599704	0	18	TrialsPROC	TO_010_TOOL10_BA.png	1	2	78	SessionSelectionList														lure	3	Tools	0-Back	68	80	65	0	0	81	1	39	548362	2	14	59	546323	-1	547202	0	879	2	3	2039	53	548376	-54	0														7		78												
WM080112	114419_fnca	1	1	1	-273125725	1	75.031	75.031	2.0.10.147	2.0.10.242	2.0.10.242	1.0.0.439	7	234	2	3	Verdana	1	80	0	0	0	WM Stimuli\	0.5	1207.4	0.5	1514.8	0.8	1325.75	1	934.7	0.9	1319	1	1121.3	0.6	1336.66666666667	0.8	945.25	13	599701	2	599689	27	40	599728	-999999	599704	0	18	TrialsPROC	TO_007_TOOL7_BA.png	1	2	79	SessionSelectionList														target	2	Tools	0-Back	69	80	66	0	0	82	2	39	550921	2	14	59	548882	-1	549752	1	870	2	2	2039	53	550935	-54	0														8		79												
WM080112	114419_fnca	1	1	1	-273125725	1	75.031	75.031	2.0.10.147	2.0.10.242	2.0.10.242	1.0.0.439	7	234	2	3	Verdana	1	80	0	0	0	WM Stimuli\	0.5	1207.4	0.5	1514.8	0.8	1325.75	1	934.7	0.9	1319	1	1121.3	0.6	1336.66666666667	0.8	945.25	13	599701	2	599689	27	40	599728	-999999	599704	0	18	TrialsPROC	TO_008_TOOL8_BA.png	1	2	80	SessionSelectionList														lure	3	Tools	0-Back	70	80	67	0	0	82	1	39	553480	2	14	59	551441	-1	552091	1	650	3	3	2039	53	553494	-54	0														9		80												
WM080112	114419_fnca	1	1	1	-273125725	1	75.031	75.031	2.0.10.147	2.0.10.242	2.0.10.242	1.0.0.439	7	234	2	3	Verdana	1	80	0	0	0	WM Stimuli\	0.5	1207.4	0.5	1514.8	0.8	1325.75	1	934.7	0.9	1319	1	1121.3	0.6	1336.66666666667	0.8	945.25	13	599701	2	599689	27	40	599728	-999999	599704	0	18	TrialsPROC	TO_007_TOOL7_BA.png	1	2	81	SessionSelectionList														target	2	Tools	0-Back	71	80	68	0	0	82	1	39	556039	1	14	59	554000	-1	554835	1	835	2	2	2039	53	556053	-54	0														10		81												
WM080112	114419_fnca	1	1	1	-273125725	1	75.031	75.031	2.0.10.147	2.0.10.242	2.0.10.242	1.0.0.439	7	234	2	3	Verdana	1	80	0	0	0	WM Stimuli\	0.5	1207.4	0.5	1514.8	0.8	1325.75	1	934.7	0.9	1319	1	1121.3	0.6	1336.66666666667	0.8	945.25	13	599701	2	599689	27	40	599728	-999999	599704	0	19	Cue2BackPROC	""	1	2	82	SessionSelectionList									6	556506	-7	0																																													82												
WM080112	114419_fnca	1	1	1	-273125725	1	75.031	75.031	2.0.10.147	2.0.10.242	2.0.10.242	1.0.0.439	7	234	2	3	Verdana	1	80	0	0	0	WM Stimuli\	0.5	1207.4	0.5	1514.8	0.8	1325.75	1	934.7	0.9	1319	1	1121.3	0.6	1336.66666666667	0.8	945.25	13	599701	2	599689	27	40	599728	-999999	599704	0	20	TrialsPROC	PL_007_92026.png	1	2	83	SessionSelectionList														nonlure	3	Place	2-Back	72	80	69	0	0	82	1	40	561104	1	13	64	559064	-1	560592	1	1528	3	3	2040	53	561117	-54	0															1	83												
WM080112	114419_fnca	1	1	1	-273125725	1	75.031	75.031	2.0.10.147	2.0.10.242	2.0.10.242	1.0.0.439	7	234	2	3	Verdana	1	80	0	0	0	WM Stimuli\	0.5	1207.4	0.5	1514.8	0.8	1325.75	1	934.7	0.9	1319	1	1121.3	0.6	1336.66666666667	0.8	945.25	13	599701	2	599689	27	40	599728	-999999	599704	0	20	TrialsPROC	PL_007_92026.png	1	2	84	SessionSelectionList														lure	3	Place	2-Back	73	80	70	0	0	82	2	40	563663	1	13	59	561623	-1	563374	1	1751	3	3	2040	53	563676	-54	0															2	84												
WM080112	114419_fnca	1	1	1	-273125725	1	75.031	75.031	2.0.10.147	2.0.10.242	2.0.10.242	1.0.0.439	7	234	2	3	Verdana	1	80	0	0	0	WM Stimuli\	0.5	1207.4	0.5	1514.8	0.8	1325.75	1	934.7	0.9	1319	1	1121.3	0.6	1336.66666666667	0.8	945.25	13	599701	2	599689	27	40	599728	-999999	599704	0	20	TrialsPROC	PL_010_92038.png	1	2	85	SessionSelectionList														nonlure	3	Place	2-Back	74	80	71	0	0	82	3	39	566235	1	13	73	564196	-1	565813	1	1617	3	3	2039	52	566248	-53	0															3	85												
WM080112	114419_fnca	1	1	1	-273125725	1	75.031	75.031	2.0.10.147	2.0.10.242	2.0.10.242	1.0.0.439	7	234	2	3	Verdana	1	80	0	0	0	WM Stimuli\	0.5	1207.4	0.5	1514.8	0.8	1325.75	1	934.7	0.9	1319	1	1121.3	0.6	1336.66666666667	0.8	945.25	13	599701	2	599689	27	40	599728	-999999	599704	0	20	TrialsPROC	PL_009_92037.png	1	2	86	SessionSelectionList														nonlure	3	Place	2-Back	75	80	72	0	0	82	4	39	568807	2	14	72	566768	-1	568385	1	1617	3	3	2039	53	568821	-54	0															4	86												
WM080112	114419_fnca	1	1	1	-273125725	1	75.031	75.031	2.0.10.147	2.0.10.242	2.0.10.242	1.0.0.439	7	234	2	3	Verdana	1	80	0	0	0	WM Stimuli\	0.5	1207.4	0.5	1514.8	0.8	1325.75	1	934.7	0.9	1319	1	1121.3	0.6	1336.66666666667	0.8	945.25	13	599701	2	599689	27	40	599728	-999999	599704	0	20	TrialsPROC	PL_010_92038.png	1	2	87	SessionSelectionList														target	2	Place	2-Back	76	80	73	0	0	82	1	39	571379	2	14	72	569340	-1	570149	1	809	2	2	2039	53	571393	-54	0															5	87												
WM080112	114419_fnca	1	1	1	-273125725	1	75.031	75.031	2.0.10.147	2.0.10.242	2.0.10.242	1.0.0.439	7	234	2	3	Verdana	1	80	0	0	0	WM Stimuli\	0.5	1207.4	0.5	1514.8	0.8	1325.75	1	934.7	0.9	1319	1	1121.3	0.6	1336.66666666667	0.8	945.25	13	599701	2	599689	27	40	599728	-999999	599704	0	20	TrialsPROC	PL_009_92037.png	1	2	88	SessionSelectionList														target	2	Place	2-Back	77	80	74	0	0	82	1	39	573952	1	13	73	571913	-1	572644	0	731	3	2	2039	52	573965	-53	0															6	88												
WM080112	114419_fnca	1	1	1	-273125725	1	75.031	75.031	2.0.10.147	2.0.10.242	2.0.10.242	1.0.0.439	7	234	2	3	Verdana	1	80	0	0	0	WM Stimuli\	0.5	1207.4	0.5	1514.8	0.8	1325.75	1	934.7	0.9	1319	1	1121.3	0.6	1336.66666666667	0.8	945.25	13	599701	2	599689	27	40	599728	-999999	599704	0	20	TrialsPROC	PL_008_92033.png	1	2	89	SessionSelectionList														nonlure	3	Place	2-Back	78	80	75	0	0	82	2	39	576524	1	13	72	574485	-1	575328	1	843	3	3	2039	52	576537	-53	0															7	89												
WM080112	114419_fnca	1	1	1	-273125725	1	75.031	75.031	2.0.10.147	2.0.10.242	2.0.10.242	1.0.0.439	7	234	2	3	Verdana	1	80	0	0	0	WM Stimuli\	0.5	1207.4	0.5	1514.8	0.8	1325.75	1	934.7	0.9	1319	1	1121.3	0.6	1336.66666666667	0.8	945.25	13	599701	2	599689	27	40	599728	-999999	599704	0	20	TrialsPROC	PL_012_92047.png	1	2	90	SessionSelectionList														nonlure	3	Place	2-Back	79	80	76	0	0	82	3	39	579096	2	14	72	577057	-1	578180	1	1123	3	3	2039	53	579110	-54	0															8	90												
WM080112	114419_fnca	1	1	1	-273125725	1	75.031	75.031	2.0.10.147	2.0.10.242	2.0.10.242	1.0.0.439	7	234	2	3	Verdana	1	80	0	0	0	WM Stimuli\	0.5	1207.4	0.5	1514.8	0.8	1325.75	1	934.7	0.9	1319	1	1121.3	0.6	1336.66666666667	0.8	945.25	13	599701	2	599689	27	40	599728	-999999	599704	0	20	TrialsPROC	PL_012_92047.png	1	2	91	SessionSelectionList														lure	3	Place	2-Back	80	80	77	0	0	82	4	39	581655	2	14	59	579616	-1	580745	1	1129	3	3	2039	53	581669	-54	0															9	91												
WM080112	114419_fnca	1	1	1	-273125725	1	75.031	75.031	2.0.10.147	2.0.10.242	2.0.10.242	1.0.0.439	7	234	2	3	Verdana	1	80	0	0	0	WM Stimuli\	0.5	1207.4	0.5	1514.8	0.8	1325.75	1	934.7	0.9	1319	1	1121.3	0.6	1336.66666666667	0.8	945.25	13	599701	2	599689	27	40	599728	-999999	599704	0	20	TrialsPROC	PL_011_92044.png	1	2	92	SessionSelectionList														nonlure	3	Place	2-Back	80	80	78	0	0	82	5	39	584227	2	14	72	582188	-1	583642	1	1454	3	3	2039	53	584241	-54	0															10	92												
WM080112	114419_fnca	1	1	1	-273125725	1	75.031	75.031	2.0.10.147	2.0.10.242	2.0.10.242	1.0.0.439	7	234	2	3	Verdana	1	80	0	0	0	WM Stimuli\	0.5	1207.4	0.5	1514.8	0.8	1325.75	1	934.7	0.9	1319	1	1121.3	0.6	1336.66666666667	0.8	945.25	13	599701	2	599689	27	40	599728	-999999	599704	0	21	Fix15secPROC	""	1	2	93	SessionSelectionList																																															6	584694	-7	0							93												
