ExperimentName	HCPID	RunNumber	Subject	Session	RandomSeed	Group	Laptop.RefreshRate	ScannerD2.RefreshRate	StudioVersion	RuntimeVersion	RuntimeVersionExpected	ExperimentVersion	triggercode	Allowed	Target	Nontarget	FontStyle	RunTrialNumber[Session]	TrialsPerRun[Session]	TotalRespGreater200[Session]	ConsecRTLess200[Session]	ConsecNonResp[Session]	StimuliDir	ACC_2_Back_Body	Avg_RT_For_Correct_Trials_2_Back_Body	ACC_0_Back_Body	Avg_RT_For_Correct_Trials_0_Back_Body	ACC_2_Back_Face	Avg_RT_For_Correct_Trials_2_Back_Face	ACC_0_Back_Face	Avg_RT_For_Correct_Trials_0_Back_Face	ACC_2_Back_Place	Avg_RT_For_Correct_Trials_2_Back_Place	ACC_0_Back_Place	Avg_RT_For_Correct_Trials_0_Back_Place	ACC_2_Back_Tools	Avg_RT_For_Correct_Trials_2_Back_Tools	ACC_0_Back_Tools	Avg_RT_For_Correct_Trials_0_Back_Tools	ExpInstrucFeelFreeToRest.OnsetDelay	ExpInstrucFeelFreeToRest.OnsetTime	ExpInstrucFeelFreeToRest.DurationError	ExpInstrucFeelFreeToRest.StartTime	ExpInstrucFeelFreeToRest.OnsetToOnsetTime	FeelFreeToRest.OnsetDelay	FeelFreeToRest.OnsetTime	FeelFreeToRest.DurationError	FeelFreeToRest.StartTime	FeelFreeToRest.OnsetToOnsetTime	SessionSelectionList	Procedure[Block]	Stimulus[Block]	RunNumberFilterValue	SessionSelectionList.Cycle	SessionSelectionList.Sample	Running[Block]	IntroButtonMap.OnsetDelay	IntroButtonMap.OnsetTime	IntroButtonMap.DurationError	IntroButtonMap.OnsetToOnsetTime	GetReady.OnsetDelay	GetReady.OnsetTime	GetReady.DurationError	GetReady.OnsetToOnsetTime	Cue2Back.OnsetDelay	Cue2Back.OnsetTime	Cue2Back.DurationError	Cue2Back.OnsetToOnsetTime	Run1Block1	TargetType	CorrectResponse	StimType	BlockType	RunTrialNumber[Block]	TrialsPerRun[Block]	TotalRespGreater200[Block]	ConsecRTLess200[Block]	ConsecNonResp[Block]	ControlAcc	ConsecSameResp	ExperimenterWindow.OnsetDelay	ExperimenterWindow.OnsetTime	ExperimenterWindow.DurationError	ExperimenterWindow.OnsetToOnsetTime	Stim.OnsetDelay	Stim.OnsetTime	Stim.DurationError	Stim.RTTime	Stim.ACC	Stim.RT	Stim.RESP	Stim.CRESP	Stim.OnsetToOnsetTime	Fix.OnsetDelay	Fix.OnsetTime	Fix.DurationError	Fix.OnsetToOnsetTime	CueTarget.OnsetDelay	CueTarget.OnsetTime	CueTarget.DurationError	CueTarget.OnsetToOnsetTime	Run1Block2	Fix15sec.OnsetDelay	Fix15sec.OnsetTime	Fix15sec.DurationError	Fix15sec.OnsetToOnsetTime	Run1Block3	Run1Block4	Run1Block5	Run1Block6	Run1Block7	Run1Block8	Block	Procedure[Trial]	Stimulus[Trial]	ReadyList	Running[Trial]	ReadyList.Cycle	ReadyList.Sample	SyncSlide.OnsetDelay	SyncSlide.OnsetTime	SyncSlide.DurationError	SyncSlide.FinishTime	SyncSlide.OnsetToOnsetTime	Trial
WM080112	115320_fnca	2	1	1	1348165221	1	75.031	75.030	2.0.10.147	2.0.10.242	2.0.10.242	1.0.0.439	7	234	2	3	Verdana	1	80	0	0	0	WM Stimuli\	1	1085.3	1	858.6	1	1162.9	1	775.4	0.9	1231.77777777778	0.5	973.6	0.7	688	0.9	788.777777777778	13	321484	2	321472	27	40	321511	-999999	321487	0	22	TRSyncPROC	""	2	2	1	SessionSelectionList	101	5944	-999999	0	40	13568	-999999	0																																																	1	InitialTR	4	1	ReadyList	1	1	13	28215	-14	30201	0	1
WM080112	115320_fnca	2	1	1	1348165221	1	75.031	75.030	2.0.10.147	2.0.10.242	2.0.10.242	1.0.0.439	7	234	2	3	Verdana	1	80	0	0	0	WM Stimuli\	1	1085.3	1	858.6	1	1162.9	1	775.4	0.9	1231.77777777778	0.5	973.6	0.7	688	0.9	788.777777777778	13	321484	2	321472	27	40	321511	-999999	321487	0	22	TRSyncPROC	""	2	2	1	SessionSelectionList	101	5944	-999999	0	40	13568	-999999	0																																																	1	InitialTR	3	2	ReadyList	1	2	13	30215	-14	32201	0	2
WM080112	115320_fnca	2	1	1	1348165221	1	75.031	75.030	2.0.10.147	2.0.10.242	2.0.10.242	1.0.0.439	7	234	2	3	Verdana	1	80	0	0	0	WM Stimuli\	1	1085.3	1	858.6	1	1162.9	1	775.4	0.9	1231.77777777778	0.5	973.6	0.7	688	0.9	788.777777777778	13	321484	2	321472	27	40	321511	-999999	321487	0	22	TRSyncPROC	""	2	2	1	SessionSelectionList	101	5944	-999999	0	40	13568	-999999	0																																																	1	InitialTR	2	3	ReadyList	1	3	12	32214	-13	34201	0	3
WM080112	115320_fnca	2	1	1	1348165221	1	75.031	75.030	2.0.10.147	2.0.10.242	2.0.10.242	1.0.0.439	7	234	2	3	Verdana	1	80	0	0	0	WM Stimuli\	1	1085.3	1	858.6	1	1162.9	1	775.4	0.9	1231.77777777778	0.5	973.6	0.7	688	0.9	788.777777777778	13	321484	2	321472	27	40	321511	-999999	321487	0	22	TRSyncPROC	""	2	2	1	SessionSelectionList	101	5944	-999999	0	40	13568	-999999	0																																																	1	InitialTR	1	4	ReadyList	1	4	11	34213	-12	36201	0	4
WM080112	115320_fnca	2	1	1	1348165221	1	75.031	75.030	2.0.10.147	2.0.10.242	2.0.10.242	1.0.0.439	7	234	2	3	Verdana	1	80	0	0	0	WM Stimuli\	1	1085.3	1	858.6	1	1162.9	1	775.4	0.9	1231.77777777778	0.5	973.6	0.7	688	0.9	788.777777777778	13	321484	2	321472	27	40	321511	-999999	321487	0	23	Cue2BackPROC	""	2	2	2	SessionSelectionList									10	36212	-11	0																																													2												
WM080112	115320_fnca	2	1	1	1348165221	1	75.031	75.030	2.0.10.147	2.0.10.242	2.0.10.242	1.0.0.439	7	234	2	3	Verdana	1	80	0	0	0	WM Stimuli\	1	1085.3	1	858.6	1	1162.9	1	775.4	0.9	1231.77777777778	0.5	973.6	0.7	688	0.9	788.777777777778	13	321484	2	321472	27	40	321511	-999999	321487	0	24	TrialsPROC	TO_014_TOOL14_BA.png	2	2	3	SessionSelectionList														nonlure	3	Tools	2-Back	2	80	1	0	0	0	1	53	40837	3	14	82	38784	-1	39258	1	474	3	3	2053	67	40851	-68	0																3												
WM080112	115320_fnca	2	1	1	1348165221	1	75.031	75.030	2.0.10.147	2.0.10.242	2.0.10.242	1.0.0.439	7	234	2	3	Verdana	1	80	0	0	0	WM Stimuli\	1	1085.3	1	858.6	1	1162.9	1	775.4	0.9	1231.77777777778	0.5	973.6	0.7	688	0.9	788.777777777778	13	321484	2	321472	27	40	321511	-999999	321487	0	24	TrialsPROC	TO_013_TOOL13_BA.png	2	2	4	SessionSelectionList														nonlure	3	Tools	2-Back	3	80	2	0	0	0	2	40	43383	1	13	59	41343	-1	41912	1	569	3	3	2040	53	43396	-54	0																4												
WM080112	115320_fnca	2	1	1	1348165221	1	75.031	75.030	2.0.10.147	2.0.10.242	2.0.10.242	1.0.0.439	7	234	2	3	Verdana	1	80	0	0	0	WM Stimuli\	1	1085.3	1	858.6	1	1162.9	1	775.4	0.9	1231.77777777778	0.5	973.6	0.7	688	0.9	788.777777777778	13	321484	2	321472	27	40	321511	-999999	321487	0	24	TrialsPROC	TO_016_TOOL16_BA.png	2	2	5	SessionSelectionList														nonlure	3	Tools	2-Back	4	80	3	0	0	0	3	39	45942	1	13	60	43903	-1	44524	1	621	3	3	2039	52	45955	-53	0																5												
WM080112	115320_fnca	2	1	1	1348165221	1	75.031	75.030	2.0.10.147	2.0.10.242	2.0.10.242	1.0.0.439	7	234	2	3	Verdana	1	80	0	0	0	WM Stimuli\	1	1085.3	1	858.6	1	1162.9	1	775.4	0.9	1231.77777777778	0.5	973.6	0.7	688	0.9	788.777777777778	13	321484	2	321472	27	40	321511	-999999	321487	0	24	TrialsPROC	TO_014_TOOL14_BA.png	2	2	6	SessionSelectionList														lure	3	Tools	2-Back	5	80	4	0	0	0	1	39	48514	1	14	72	46475	-1	47644	0	1169	2	3	2039	53	48528	-54	0																6												
WM080112	115320_fnca	2	1	1	1348165221	1	75.031	75.030	2.0.10.147	2.0.10.242	2.0.10.242	1.0.0.439	7	234	2	3	Verdana	1	80	0	0	0	WM Stimuli\	1	1085.3	1	858.6	1	1162.9	1	775.4	0.9	1231.77777777778	0.5	973.6	0.7	688	0.9	788.777777777778	13	321484	2	321472	27	40	321511	-999999	321487	0	24	TrialsPROC	TO_016_TOOL16_BA.png	2	2	7	SessionSelectionList														target	2	Tools	2-Back	6	80	5	0	0	0	1	39	51073	1	14	59	49034	-1	50479	0	1445	3	2	2039	53	51087	-54	0																7												
WM080112	115320_fnca	2	1	1	1348165221	1	75.031	75.030	2.0.10.147	2.0.10.242	2.0.10.242	1.0.0.439	7	234	2	3	Verdana	1	80	0	0	0	WM Stimuli\	1	1085.3	1	858.6	1	1162.9	1	775.4	0.9	1231.77777777778	0.5	973.6	0.7	688	0.9	788.777777777778	13	321484	2	321472	27	40	321511	-999999	321487	0	24	TrialsPROC	TO_018_TOOL18_BA.png	2	2	8	SessionSelectionList														nonlure	3	Tools	2-Back	7	80	6	0	0	0	2	39	53632	1	14	59	51593	-1	52741	1	1148	3	3	2039	53	53646	-54	0																8												
WM080112	115320_fnca	2	1	1	1348165221	1	75.031	75.030	2.0.10.147	2.0.10.242	2.0.10.242	1.0.0.439	7	234	2	3	Verdana	1	80	0	0	0	WM Stimuli\	1	1085.3	1	858.6	1	1162.9	1	775.4	0.9	1231.77777777778	0.5	973.6	0.7	688	0.9	788.777777777778	13	321484	2	321472	27	40	321511	-999999	321487	0	24	TrialsPROC	TO_017_TOOL17_BA.png	2	2	9	SessionSelectionList														nonlure	3	Tools	2-Back	8	80	7	0	0	0	3	39	56191	1	14	59	54152	-1	54962	1	810	3	3	2039	53	56205	-54	0																9												
WM080112	115320_fnca	2	1	1	1348165221	1	75.031	75.030	2.0.10.147	2.0.10.242	2.0.10.242	1.0.0.439	7	234	2	3	Verdana	1	80	0	0	0	WM Stimuli\	1	1085.3	1	858.6	1	1162.9	1	775.4	0.9	1231.77777777778	0.5	973.6	0.7	688	0.9	788.777777777778	13	321484	2	321472	27	40	321511	-999999	321487	0	24	TrialsPROC	TO_018_TOOL18_BA.png	2	2	10	SessionSelectionList														target	2	Tools	2-Back	9	80	8	0	0	0	1	39	58750	1	14	59	56711	-1	57185	1	474	2	2	2039	53	58764	-54	0																10												
WM080112	115320_fnca	2	1	1	1348165221	1	75.031	75.030	2.0.10.147	2.0.10.242	2.0.10.242	1.0.0.439	7	234	2	3	Verdana	1	80	0	0	0	WM Stimuli\	1	1085.3	1	858.6	1	1162.9	1	775.4	0.9	1231.77777777778	0.5	973.6	0.7	688	0.9	788.777777777778	13	321484	2	321472	27	40	321511	-999999	321487	0	24	TrialsPROC	TO_015_TOOL15_BA.png	2	2	11	SessionSelectionList														nonlure	3	Tools	2-Back	10	80	9	0	0	0	1	39	61309	1	13	59	59270	-1	59990	1	720	3	3	2039	52	61322	-53	0																11												
WM080112	115320_fnca	2	1	1	1348165221	1	75.031	75.030	2.0.10.147	2.0.10.242	2.0.10.242	1.0.0.439	7	234	2	3	Verdana	1	80	0	0	0	WM Stimuli\	1	1085.3	1	858.6	1	1162.9	1	775.4	0.9	1231.77777777778	0.5	973.6	0.7	688	0.9	788.777777777778	13	321484	2	321472	27	40	321511	-999999	321487	0	24	TrialsPROC	TO_017_TOOL17_BA.png	2	2	12	SessionSelectionList														lure	3	Tools	2-Back	11	80	10	0	0	0	1	40	63868	1	13	58	61828	-1	62578	0	750	2	3	2040	53	63881	-54	0																12												
WM080112	115320_fnca	2	1	1	1348165221	1	75.031	75.030	2.0.10.147	2.0.10.242	2.0.10.242	1.0.0.439	7	234	2	3	Verdana	1	80	0	0	0	WM Stimuli\	1	1085.3	1	858.6	1	1162.9	1	775.4	0.9	1231.77777777778	0.5	973.6	0.7	688	0.9	788.777777777778	13	321484	2	321472	27	40	321511	-999999	321487	0	25	Cue0BackPROC	BP_013_BP7_BA.png	2	2	13	SessionSelectionList																																										19	64347	-20	0												13												
WM080112	115320_fnca	2	1	1	1348165221	1	75.031	75.030	2.0.10.147	2.0.10.242	2.0.10.242	1.0.0.439	7	234	2	3	Verdana	1	80	0	0	0	WM Stimuli\	1	1085.3	1	858.6	1	1162.9	1	775.4	0.9	1231.77777777778	0.5	973.6	0.7	688	0.9	788.777777777778	13	321484	2	321472	27	40	321511	-999999	321487	0	26	TrialsPROC	BP_015_H10-T_BA.png	2	2	14	SessionSelectionList														nonlure	3	Body	0-Back	12	80	11	0	0	100	1	39	68919	1	14	52	66880	-1	67577	1	697	3	3	2039	53	68933	-54	0																14												
WM080112	115320_fnca	2	1	1	1348165221	1	75.031	75.030	2.0.10.147	2.0.10.242	2.0.10.242	1.0.0.439	7	234	2	3	Verdana	1	80	0	0	0	WM Stimuli\	1	1085.3	1	858.6	1	1162.9	1	775.4	0.9	1231.77777777778	0.5	973.6	0.7	688	0.9	788.777777777778	13	321484	2	321472	27	40	321511	-999999	321487	0	26	TrialsPROC	BP_018_H13-T_BA.png	2	2	15	SessionSelectionList														nonlure	3	Body	0-Back	13	80	12	0	0	100	2	39	71478	1	14	59	69439	-1	70092	1	653	3	3	2039	53	71492	-54	0																15												
WM080112	115320_fnca	2	1	1	1348165221	1	75.031	75.030	2.0.10.147	2.0.10.242	2.0.10.242	1.0.0.439	7	234	2	3	Verdana	1	80	0	0	0	WM Stimuli\	1	1085.3	1	858.6	1	1162.9	1	775.4	0.9	1231.77777777778	0.5	973.6	0.7	688	0.9	788.777777777778	13	321484	2	321472	27	40	321511	-999999	321487	0	26	TrialsPROC	BP_014_BP9_BA.png	2	2	16	SessionSelectionList														nonlure	3	Body	0-Back	14	80	13	0	0	100	3	39	74037	1	14	59	71998	-1	73137	1	1139	3	3	2039	53	74051	-54	0																16												
WM080112	115320_fnca	2	1	1	1348165221	1	75.031	75.030	2.0.10.147	2.0.10.242	2.0.10.242	1.0.0.439	7	234	2	3	Verdana	1	80	0	0	0	WM Stimuli\	1	1085.3	1	858.6	1	1162.9	1	775.4	0.9	1231.77777777778	0.5	973.6	0.7	688	0.9	788.777777777778	13	321484	2	321472	27	40	321511	-999999	321487	0	26	TrialsPROC	BP_018_H13-T_BA.png	2	2	17	SessionSelectionList														lure	3	Body	0-Back	15	80	14	0	0	100	4	39	76596	1	14	59	74557	-1	75368	1	811	3	3	2039	53	76610	-54	0																17												
WM080112	115320_fnca	2	1	1	1348165221	1	75.031	75.030	2.0.10.147	2.0.10.242	2.0.10.242	1.0.0.439	7	234	2	3	Verdana	1	80	0	0	0	WM Stimuli\	1	1085.3	1	858.6	1	1162.9	1	775.4	0.9	1231.77777777778	0.5	973.6	0.7	688	0.9	788.777777777778	13	321484	2	321472	27	40	321511	-999999	321487	0	26	TrialsPROC	BP_013_BP7_BA.png	2	2	18	SessionSelectionList														target	2	Body	0-Back	16	80	15	0	0	100	1	39	79155	1	14	59	77116	-1	78202	1	1086	2	2	2039	53	79169	-54	0																18												
WM080112	115320_fnca	2	1	1	1348165221	1	75.031	75.030	2.0.10.147	2.0.10.242	2.0.10.242	1.0.0.439	7	234	2	3	Verdana	1	80	0	0	0	WM Stimuli\	1	1085.3	1	858.6	1	1162.9	1	775.4	0.9	1231.77777777778	0.5	973.6	0.7	688	0.9	788.777777777778	13	321484	2	321472	27	40	321511	-999999	321487	0	26	TrialsPROC	BP_015_H10-T_BA.png	2	2	19	SessionSelectionList														lure	3	Body	0-Back	17	80	16	0	0	100	1	39	81714	1	14	59	79675	-1	80519	1	844	3	3	2039	53	81728	-54	0																19												
WM080112	115320_fnca	2	1	1	1348165221	1	75.031	75.030	2.0.10.147	2.0.10.242	2.0.10.242	1.0.0.439	7	234	2	3	Verdana	1	80	0	0	0	WM Stimuli\	1	1085.3	1	858.6	1	1162.9	1	775.4	0.9	1231.77777777778	0.5	973.6	0.7	688	0.9	788.777777777778	13	321484	2	321472	27	40	321511	-999999	321487	0	26	TrialsPROC	BP_016_H11-T_BA.png	2	2	20	SessionSelectionList														nonlure	3	Body	0-Back	18	80	17	0	0	100	2	39	84273	1	14	59	82234	-1	82953	1	719	3	3	2039	53	84287	-54	0																20												
WM080112	115320_fnca	2	1	1	1348165221	1	75.031	75.030	2.0.10.147	2.0.10.242	2.0.10.242	1.0.0.439	7	234	2	3	Verdana	1	80	0	0	0	WM Stimuli\	1	1085.3	1	858.6	1	1162.9	1	775.4	0.9	1231.77777777778	0.5	973.6	0.7	688	0.9	788.777777777778	13	321484	2	321472	27	40	321511	-999999	321487	0	26	TrialsPROC	BP_013_BP7_BA.png	2	2	21	SessionSelectionList														target	2	Body	0-Back	19	80	18	0	0	100	1	39	86832	1	14	59	84793	-1	85522	1	729	2	2	2039	53	86846	-54	0																21												
WM080112	115320_fnca	2	1	1	1348165221	1	75.031	75.030	2.0.10.147	2.0.10.242	2.0.10.242	1.0.0.439	7	234	2	3	Verdana	1	80	0	0	0	WM Stimuli\	1	1085.3	1	858.6	1	1162.9	1	775.4	0.9	1231.77777777778	0.5	973.6	0.7	688	0.9	788.777777777778	13	321484	2	321472	27	40	321511	-999999	321487	0	26	TrialsPROC	BP_017_H12-T_BA.png	2	2	22	SessionSelectionList														nonlure	3	Body	0-Back	20	80	19	0	0	100	1	39	89391	1	13	59	87352	-1	88031	1	679	3	3	2039	52	89404	-53	0																22												
WM080112	115320_fnca	2	1	1	1348165221	1	75.031	75.030	2.0.10.147	2.0.10.242	2.0.10.242	1.0.0.439	7	234	2	3	Verdana	1	80	0	0	0	WM Stimuli\	1	1085.3	1	858.6	1	1162.9	1	775.4	0.9	1231.77777777778	0.5	973.6	0.7	688	0.9	788.777777777778	13	321484	2	321472	27	40	321511	-999999	321487	0	26	TrialsPROC	BP_014_BP9_BA.png	2	2	23	SessionSelectionList														lure	3	Body	0-Back	21	80	20	0	0	100	2	39	91950	1	13	59	89911	-1	91140	1	1229	3	3	2039	52	91963	-53	0																23												
WM080112	115320_fnca	2	1	1	1348165221	1	75.031	75.030	2.0.10.147	2.0.10.242	2.0.10.242	1.0.0.439	7	234	2	3	Verdana	1	80	0	0	0	WM Stimuli\	1	1085.3	1	858.6	1	1162.9	1	775.4	0.9	1231.77777777778	0.5	973.6	0.7	688	0.9	788.777777777778	13	321484	2	321472	27	40	321511	-999999	321487	0	27	Fix15secPROC	""	2	2	24	SessionSelectionList																																															6	92417	-7	0							24												
WM080112	115320_fnca	2	1	1	1348165221	1	75.031	75.030	2.0.10.147	2.0.10.242	2.0.10.242	1.0.0.439	7	234	2	3	Verdana	1	80	0	0	0	WM Stimuli\	1	1085.3	1	858.6	1	1162.9	1	775.4	0.9	1231.77777777778	0.5	973.6	0.7	688	0.9	788.777777777778	13	321484	2	321472	27	40	321511	-999999	321487	0	28	Cue2BackPROC	""	2	2	25	SessionSelectionList									12	107423	-13	0																																													25												
WM080112	115320_fnca	2	1	1	1348165221	1	75.031	75.030	2.0.10.147	2.0.10.242	2.0.10.242	1.0.0.439	7	234	2	3	Verdana	1	80	0	0	0	WM Stimuli\	1	1085.3	1	858.6	1	1162.9	1	775.4	0.9	1231.77777777778	0.5	973.6	0.7	688	0.9	788.777777777778	13	321484	2	321472	27	40	321511	-999999	321487	0	29	TrialsPROC	FC_015_M8.png	2	2	26	SessionSelectionList														nonlure	3	Face	2-Back	22	80	21	0	0	100	3	40	112022	1	13	71	109982	-1	111192	1	1210	3	3	2040	53	112035	-54	0																26												
WM080112	115320_fnca	2	1	1	1348165221	1	75.031	75.030	2.0.10.147	2.0.10.242	2.0.10.242	1.0.0.439	7	234	2	3	Verdana	1	80	0	0	0	WM Stimuli\	1	1085.3	1	858.6	1	1162.9	1	775.4	0.9	1231.77777777778	0.5	973.6	0.7	688	0.9	788.777777777778	13	321484	2	321472	27	40	321511	-999999	321487	0	29	TrialsPROC	FC_018_F9.png	2	2	27	SessionSelectionList														nonlure	3	Face	2-Back	23	80	22	0	0	100	4	39	114594	1	14	73	112555	-1	113365	1	810	3	3	2039	53	114608	-54	0																27												
WM080112	115320_fnca	2	1	1	1348165221	1	75.031	75.030	2.0.10.147	2.0.10.242	2.0.10.242	1.0.0.439	7	234	2	3	Verdana	1	80	0	0	0	WM Stimuli\	1	1085.3	1	858.6	1	1162.9	1	775.4	0.9	1231.77777777778	0.5	973.6	0.7	688	0.9	788.777777777778	13	321484	2	321472	27	40	321511	-999999	321487	0	29	TrialsPROC	FC_018_F9.png	2	2	28	SessionSelectionList														lure	3	Face	2-Back	24	80	23	0	0	100	5	39	117166	2	14	72	115127	-1	116190	1	1063	3	3	2039	53	117180	-54	0																28												
WM080112	115320_fnca	2	1	1	1348165221	1	75.031	75.030	2.0.10.147	2.0.10.242	2.0.10.242	1.0.0.439	7	234	2	3	Verdana	1	80	0	0	0	WM Stimuli\	1	1085.3	1	858.6	1	1162.9	1	775.4	0.9	1231.77777777778	0.5	973.6	0.7	688	0.9	788.777777777778	13	321484	2	321472	27	40	321511	-999999	321487	0	29	TrialsPROC	FC_017_M9.png	2	2	29	SessionSelectionList														nonlure	3	Face	2-Back	25	80	24	0	0	100	6	39	119738	2	14	72	117699	-1	118711	1	1012	3	3	2039	53	119752	-54	0																29												
WM080112	115320_fnca	2	1	1	1348165221	1	75.031	75.030	2.0.10.147	2.0.10.242	2.0.10.242	1.0.0.439	7	234	2	3	Verdana	1	80	0	0	0	WM Stimuli\	1	1085.3	1	858.6	1	1162.9	1	775.4	0.9	1231.77777777778	0.5	973.6	0.7	688	0.9	788.777777777778	13	321484	2	321472	27	40	321511	-999999	321487	0	29	TrialsPROC	FC_017_M9.png	2	2	30	SessionSelectionList														lure	3	Face	2-Back	26	80	25	0	0	100	7	39	122311	1	14	73	120272	-1	121670	1	1398	3	3	2039	53	122325	-54	0																30												
WM080112	115320_fnca	2	1	1	1348165221	1	75.031	75.030	2.0.10.147	2.0.10.242	2.0.10.242	1.0.0.439	7	234	2	3	Verdana	1	80	0	0	0	WM Stimuli\	1	1085.3	1	858.6	1	1162.9	1	775.4	0.9	1231.77777777778	0.5	973.6	0.7	688	0.9	788.777777777778	13	321484	2	321472	27	40	321511	-999999	321487	0	29	TrialsPROC	FC_016_F8.png	2	2	31	SessionSelectionList														nonlure	3	Face	2-Back	27	80	26	0	0	100	8	39	124883	1	14	72	122844	-1	123695	1	851	3	3	2039	53	124897	-54	0																31												
WM080112	115320_fnca	2	1	1	1348165221	1	75.031	75.030	2.0.10.147	2.0.10.242	2.0.10.242	1.0.0.439	7	234	2	3	Verdana	1	80	0	0	0	WM Stimuli\	1	1085.3	1	858.6	1	1162.9	1	775.4	0.9	1231.77777777778	0.5	973.6	0.7	688	0.9	788.777777777778	13	321484	2	321472	27	40	321511	-999999	321487	0	29	TrialsPROC	FC_013_M7.png	2	2	32	SessionSelectionList														nonlure	3	Face	2-Back	28	80	27	0	0	100	9	39	127455	2	14	72	125416	-1	126737	1	1321	3	3	2039	53	127469	-54	0																32												
WM080112	115320_fnca	2	1	1	1348165221	1	75.031	75.030	2.0.10.147	2.0.10.242	2.0.10.242	1.0.0.439	7	234	2	3	Verdana	1	80	0	0	0	WM Stimuli\	1	1085.3	1	858.6	1	1162.9	1	775.4	0.9	1231.77777777778	0.5	973.6	0.7	688	0.9	788.777777777778	13	321484	2	321472	27	40	321511	-999999	321487	0	29	TrialsPROC	FC_014_F7.png	2	2	33	SessionSelectionList														nonlure	3	Face	2-Back	29	80	28	0	0	100	10	40	130028	1	13	72	127988	-1	129856	1	1868	3	3	2040	53	130041	-54	0																33												
WM080112	115320_fnca	2	1	1	1348165221	1	75.031	75.030	2.0.10.147	2.0.10.242	2.0.10.242	1.0.0.439	7	234	2	3	Verdana	1	80	0	0	0	WM Stimuli\	1	1085.3	1	858.6	1	1162.9	1	775.4	0.9	1231.77777777778	0.5	973.6	0.7	688	0.9	788.777777777778	13	321484	2	321472	27	40	321511	-999999	321487	0	29	TrialsPROC	FC_013_M7.png	2	2	34	SessionSelectionList														target	2	Face	2-Back	30	80	29	0	0	100	1	39	132600	1	14	73	130561	-1	131406	1	845	2	2	2039	53	132614	-54	0																34												
WM080112	115320_fnca	2	1	1	1348165221	1	75.031	75.030	2.0.10.147	2.0.10.242	2.0.10.242	1.0.0.439	7	234	2	3	Verdana	1	80	0	0	0	WM Stimuli\	1	1085.3	1	858.6	1	1162.9	1	775.4	0.9	1231.77777777778	0.5	973.6	0.7	688	0.9	788.777777777778	13	321484	2	321472	27	40	321511	-999999	321487	0	29	TrialsPROC	FC_014_F7.png	2	2	35	SessionSelectionList														target	2	Face	2-Back	31	80	30	0	0	100	2	39	135172	2	14	72	133133	-1	134384	1	1251	2	2	2039	53	135186	-54	0																35												
WM080112	115320_fnca	2	1	1	1348165221	1	75.031	75.030	2.0.10.147	2.0.10.242	2.0.10.242	1.0.0.439	7	234	2	3	Verdana	1	80	0	0	0	WM Stimuli\	1	1085.3	1	858.6	1	1162.9	1	775.4	0.9	1231.77777777778	0.5	973.6	0.7	688	0.9	788.777777777778	13	321484	2	321472	27	40	321511	-999999	321487	0	30	Cue0BackPROC	TO_019_TOOL19_BA.png	2	2	36	SessionSelectionList																																										19	135652	-20	0												36												
WM080112	115320_fnca	2	1	1	1348165221	1	75.031	75.030	2.0.10.147	2.0.10.242	2.0.10.242	1.0.0.439	7	234	2	3	Verdana	1	80	0	0	0	WM Stimuli\	1	1085.3	1	858.6	1	1162.9	1	775.4	0.9	1231.77777777778	0.5	973.6	0.7	688	0.9	788.777777777778	13	321484	2	321472	27	40	321511	-999999	321487	0	31	TrialsPROC	TO_019_TOOL19_BA.png	2	2	37	SessionSelectionList														target	2	Tools	0-Back	32	80	30	0	1	91	2	39	140223	2	14	51	138184	-1	0	0	0	""	2	2039	53	140237	-54	0																37												
WM080112	115320_fnca	2	1	1	1348165221	1	75.031	75.030	2.0.10.147	2.0.10.242	2.0.10.242	1.0.0.439	7	234	2	3	Verdana	1	80	0	0	0	WM Stimuli\	1	1085.3	1	858.6	1	1162.9	1	775.4	0.9	1231.77777777778	0.5	973.6	0.7	688	0.9	788.777777777778	13	321484	2	321472	27	40	321511	-999999	321487	0	31	TrialsPROC	TO_024_TOOL24_BA.png	2	2	38	SessionSelectionList														nonlure	3	Tools	0-Back	33	80	31	0	0	92	1	39	142782	2	14	59	140743	-1	141361	1	618	3	3	2039	53	142796	-54	0																38												
WM080112	115320_fnca	2	1	1	1348165221	1	75.031	75.030	2.0.10.147	2.0.10.242	2.0.10.242	1.0.0.439	7	234	2	3	Verdana	1	80	0	0	0	WM Stimuli\	1	1085.3	1	858.6	1	1162.9	1	775.4	0.9	1231.77777777778	0.5	973.6	0.7	688	0.9	788.777777777778	13	321484	2	321472	27	40	321511	-999999	321487	0	31	TrialsPROC	TO_019_TOOL19_BA.png	2	2	39	SessionSelectionList														target	2	Tools	0-Back	34	80	32	0	0	92	1	39	145341	2	14	59	143302	-1	144571	1	1269	2	2	2039	53	145355	-54	0																39												
WM080112	115320_fnca	2	1	1	1348165221	1	75.031	75.030	2.0.10.147	2.0.10.242	2.0.10.242	1.0.0.439	7	234	2	3	Verdana	1	80	0	0	0	WM Stimuli\	1	1085.3	1	858.6	1	1162.9	1	775.4	0.9	1231.77777777778	0.5	973.6	0.7	688	0.9	788.777777777778	13	321484	2	321472	27	40	321511	-999999	321487	0	31	TrialsPROC	TO_023_TOOL23_BA.png	2	2	40	SessionSelectionList														nonlure	3	Tools	0-Back	35	80	33	0	0	93	1	39	147900	2	14	59	145861	-1	146502	1	641	3	3	2039	53	147914	-54	0																40												
WM080112	115320_fnca	2	1	1	1348165221	1	75.031	75.030	2.0.10.147	2.0.10.242	2.0.10.242	1.0.0.439	7	234	2	3	Verdana	1	80	0	0	0	WM Stimuli\	1	1085.3	1	858.6	1	1162.9	1	775.4	0.9	1231.77777777778	0.5	973.6	0.7	688	0.9	788.777777777778	13	321484	2	321472	27	40	321511	-999999	321487	0	31	TrialsPROC	TO_020_TOOL20_BA.png	2	2	41	SessionSelectionList														nonlure	3	Tools	0-Back	36	80	34	0	0	93	2	39	150459	2	14	59	148420	-1	149055	1	635	3	3	2039	53	150473	-54	0																41												
WM080112	115320_fnca	2	1	1	1348165221	1	75.031	75.030	2.0.10.147	2.0.10.242	2.0.10.242	1.0.0.439	7	234	2	3	Verdana	1	80	0	0	0	WM Stimuli\	1	1085.3	1	858.6	1	1162.9	1	775.4	0.9	1231.77777777778	0.5	973.6	0.7	688	0.9	788.777777777778	13	321484	2	321472	27	40	321511	-999999	321487	0	31	TrialsPROC	TO_020_TOOL20_BA.png	2	2	42	SessionSelectionList														lure	3	Tools	0-Back	37	80	35	0	0	94	3	39	153018	2	14	59	150979	-1	151616	1	637	3	3	2039	53	153032	-54	0																42												
WM080112	115320_fnca	2	1	1	1348165221	1	75.031	75.030	2.0.10.147	2.0.10.242	2.0.10.242	1.0.0.439	7	234	2	3	Verdana	1	80	0	0	0	WM Stimuli\	1	1085.3	1	858.6	1	1162.9	1	775.4	0.9	1231.77777777778	0.5	973.6	0.7	688	0.9	788.777777777778	13	321484	2	321472	27	40	321511	-999999	321487	0	31	TrialsPROC	TO_022_TOOL22_BA.png	2	2	43	SessionSelectionList														nonlure	3	Tools	0-Back	38	80	36	0	0	94	4	39	155577	2	14	59	153538	-1	154285	1	747	3	3	2039	53	155591	-54	0																43												
WM080112	115320_fnca	2	1	1	1348165221	1	75.031	75.030	2.0.10.147	2.0.10.242	2.0.10.242	1.0.0.439	7	234	2	3	Verdana	1	80	0	0	0	WM Stimuli\	1	1085.3	1	858.6	1	1162.9	1	775.4	0.9	1231.77777777778	0.5	973.6	0.7	688	0.9	788.777777777778	13	321484	2	321472	27	40	321511	-999999	321487	0	31	TrialsPROC	TO_022_TOOL22_BA.png	2	2	44	SessionSelectionList														lure	3	Tools	0-Back	39	80	37	0	0	94	5	39	158136	2	14	59	156097	-1	156899	1	802	3	3	2039	53	158150	-54	0																44												
WM080112	115320_fnca	2	1	1	1348165221	1	75.031	75.030	2.0.10.147	2.0.10.242	2.0.10.242	1.0.0.439	7	234	2	3	Verdana	1	80	0	0	0	WM Stimuli\	1	1085.3	1	858.6	1	1162.9	1	775.4	0.9	1231.77777777778	0.5	973.6	0.7	688	0.9	788.777777777778	13	321484	2	321472	27	40	321511	-999999	321487	0	31	TrialsPROC	TO_021_TOOL21_BA.png	2	2	45	SessionSelectionList														nonlure	3	Tools	0-Back	40	80	38	0	0	95	6	39	160695	2	14	59	158656	-1	159429	1	773	3	3	2039	53	160709	-54	0																45												
WM080112	115320_fnca	2	1	1	1348165221	1	75.031	75.030	2.0.10.147	2.0.10.242	2.0.10.242	1.0.0.439	7	234	2	3	Verdana	1	80	0	0	0	WM Stimuli\	1	1085.3	1	858.6	1	1162.9	1	775.4	0.9	1231.77777777778	0.5	973.6	0.7	688	0.9	788.777777777778	13	321484	2	321472	27	40	321511	-999999	321487	0	31	TrialsPROC	TO_021_TOOL21_BA.png	2	2	46	SessionSelectionList														lure	3	Tools	0-Back	41	80	39	0	0	95	7	39	163254	2	14	59	161215	-1	162192	1	977	3	3	2039	53	163268	-54	0																46												
WM080112	115320_fnca	2	1	1	1348165221	1	75.031	75.030	2.0.10.147	2.0.10.242	2.0.10.242	1.0.0.439	7	234	2	3	Verdana	1	80	0	0	0	WM Stimuli\	1	1085.3	1	858.6	1	1162.9	1	775.4	0.9	1231.77777777778	0.5	973.6	0.7	688	0.9	788.777777777778	13	321484	2	321472	27	40	321511	-999999	321487	0	32	Fix15secPROC	""	2	2	47	SessionSelectionList																																															6	163721	-7	0							47												
WM080112	115320_fnca	2	1	1	1348165221	1	75.031	75.030	2.0.10.147	2.0.10.242	2.0.10.242	1.0.0.439	7	234	2	3	Verdana	1	80	0	0	0	WM Stimuli\	1	1085.3	1	858.6	1	1162.9	1	775.4	0.9	1231.77777777778	0.5	973.6	0.7	688	0.9	788.777777777778	13	321484	2	321472	27	40	321511	-999999	321487	0	33	Cue2BackPROC	""	2	2	48	SessionSelectionList									13	178728	-14	0																																													48												
WM080112	115320_fnca	2	1	1	1348165221	1	75.031	75.030	2.0.10.147	2.0.10.242	2.0.10.242	1.0.0.439	7	234	2	3	Verdana	1	80	0	0	0	WM Stimuli\	1	1085.3	1	858.6	1	1162.9	1	775.4	0.9	1231.77777777778	0.5	973.6	0.7	688	0.9	788.777777777778	13	321484	2	321472	27	40	321511	-999999	321487	0	34	TrialsPROC	BP_020_H17-T_BA.png	2	2	49	SessionSelectionList														nonlure	3	Body	2-Back	42	80	40	0	0	95	8	39	183313	1	14	59	181274	-1	182167	1	893	3	3	2039	53	183327	-54	0																49												
WM080112	115320_fnca	2	1	1	1348165221	1	75.031	75.030	2.0.10.147	2.0.10.242	2.0.10.242	1.0.0.439	7	234	2	3	Verdana	1	80	0	0	0	WM Stimuli\	1	1085.3	1	858.6	1	1162.9	1	775.4	0.9	1231.77777777778	0.5	973.6	0.7	688	0.9	788.777777777778	13	321484	2	321472	27	40	321511	-999999	321487	0	34	TrialsPROC	BP_019_H14-T_BA.png	2	2	50	SessionSelectionList														nonlure	3	Body	2-Back	43	80	41	0	0	95	9	39	185872	1	14	59	183833	-1	184492	1	659	3	3	2039	53	185886	-54	0																50												
WM080112	115320_fnca	2	1	1	1348165221	1	75.031	75.030	2.0.10.147	2.0.10.242	2.0.10.242	1.0.0.439	7	234	2	3	Verdana	1	80	0	0	0	WM Stimuli\	1	1085.3	1	858.6	1	1162.9	1	775.4	0.9	1231.77777777778	0.5	973.6	0.7	688	0.9	788.777777777778	13	321484	2	321472	27	40	321511	-999999	321487	0	34	TrialsPROC	BP_020_H17-T_BA.png	2	2	51	SessionSelectionList														target	2	Body	2-Back	44	80	42	0	0	95	1	39	188431	1	13	59	186392	-1	187162	1	770	2	2	2039	52	188444	-53	0																51												
WM080112	115320_fnca	2	1	1	1348165221	1	75.031	75.030	2.0.10.147	2.0.10.242	2.0.10.242	1.0.0.439	7	234	2	3	Verdana	1	80	0	0	0	WM Stimuli\	1	1085.3	1	858.6	1	1162.9	1	775.4	0.9	1231.77777777778	0.5	973.6	0.7	688	0.9	788.777777777778	13	321484	2	321472	27	40	321511	-999999	321487	0	34	TrialsPROC	BP_019_H14-T_BA.png	2	2	52	SessionSelectionList														target	2	Body	2-Back	45	80	43	0	0	95	2	39	191003	1	14	72	188964	-1	189900	1	936	2	2	2039	53	191017	-54	0																52												
WM080112	115320_fnca	2	1	1	1348165221	1	75.031	75.030	2.0.10.147	2.0.10.242	2.0.10.242	1.0.0.439	7	234	2	3	Verdana	1	80	0	0	0	WM Stimuli\	1	1085.3	1	858.6	1	1162.9	1	775.4	0.9	1231.77777777778	0.5	973.6	0.7	688	0.9	788.777777777778	13	321484	2	321472	27	40	321511	-999999	321487	0	34	TrialsPROC	BP_024_H3-T_BA.png	2	2	53	SessionSelectionList														nonlure	3	Body	2-Back	46	80	44	0	0	95	1	39	193562	2	14	59	191523	-1	192727	1	1204	3	3	2039	53	193576	-54	0																53												
WM080112	115320_fnca	2	1	1	1348165221	1	75.031	75.030	2.0.10.147	2.0.10.242	2.0.10.242	1.0.0.439	7	234	2	3	Verdana	1	80	0	0	0	WM Stimuli\	1	1085.3	1	858.6	1	1162.9	1	775.4	0.9	1231.77777777778	0.5	973.6	0.7	688	0.9	788.777777777778	13	321484	2	321472	27	40	321511	-999999	321487	0	34	TrialsPROC	BP_024_H3-T_BA.png	2	2	54	SessionSelectionList														lure	3	Body	2-Back	47	80	45	0	0	95	2	39	196121	1	14	59	194082	-1	195598	1	1516	3	3	2039	53	196135	-54	0																54												
WM080112	115320_fnca	2	1	1	1348165221	1	75.031	75.030	2.0.10.147	2.0.10.242	2.0.10.242	1.0.0.439	7	234	2	3	Verdana	1	80	0	0	0	WM Stimuli\	1	1085.3	1	858.6	1	1162.9	1	775.4	0.9	1231.77777777778	0.5	973.6	0.7	688	0.9	788.777777777778	13	321484	2	321472	27	40	321511	-999999	321487	0	34	TrialsPROC	BP_025_H5-T_BA.png	2	2	55	SessionSelectionList														nonlure	3	Body	2-Back	48	80	46	0	0	95	3	39	198680	1	14	59	196641	-1	198078	1	1437	3	3	2039	53	198694	-54	0																55												
WM080112	115320_fnca	2	1	1	1348165221	1	75.031	75.030	2.0.10.147	2.0.10.242	2.0.10.242	1.0.0.439	7	234	2	3	Verdana	1	80	0	0	0	WM Stimuli\	1	1085.3	1	858.6	1	1162.9	1	775.4	0.9	1231.77777777778	0.5	973.6	0.7	688	0.9	788.777777777778	13	321484	2	321472	27	40	321511	-999999	321487	0	34	TrialsPROC	BP_023_H25-T_BA.png	2	2	56	SessionSelectionList														nonlure	3	Body	2-Back	49	80	47	0	0	95	4	39	201239	1	14	59	199200	-1	200153	1	953	3	3	2039	53	201253	-54	0																56												
WM080112	115320_fnca	2	1	1	1348165221	1	75.031	75.030	2.0.10.147	2.0.10.242	2.0.10.242	1.0.0.439	7	234	2	3	Verdana	1	80	0	0	0	WM Stimuli\	1	1085.3	1	858.6	1	1162.9	1	775.4	0.9	1231.77777777778	0.5	973.6	0.7	688	0.9	788.777777777778	13	321484	2	321472	27	40	321511	-999999	321487	0	34	TrialsPROC	BP_022_H24-T_BA.png	2	2	57	SessionSelectionList														nonlure	3	Body	2-Back	50	80	48	0	0	95	5	39	203798	1	14	59	201759	-1	202696	1	937	3	3	2039	53	203812	-54	0																57												
WM080112	115320_fnca	2	1	1	1348165221	1	75.031	75.030	2.0.10.147	2.0.10.242	2.0.10.242	1.0.0.439	7	234	2	3	Verdana	1	80	0	0	0	WM Stimuli\	1	1085.3	1	858.6	1	1162.9	1	775.4	0.9	1231.77777777778	0.5	973.6	0.7	688	0.9	788.777777777778	13	321484	2	321472	27	40	321511	-999999	321487	0	34	TrialsPROC	BP_022_H24-T_BA.png	2	2	58	SessionSelectionList														lure	3	Body	2-Back	51	80	49	0	0	95	6	39	206357	1	14	59	204318	-1	205866	1	1548	3	3	2039	53	206371	-54	0																58												
WM080112	115320_fnca	2	1	1	1348165221	1	75.031	75.030	2.0.10.147	2.0.10.242	2.0.10.242	1.0.0.439	7	234	2	3	Verdana	1	80	0	0	0	WM Stimuli\	1	1085.3	1	858.6	1	1162.9	1	775.4	0.9	1231.77777777778	0.5	973.6	0.7	688	0.9	788.777777777778	13	321484	2	321472	27	40	321511	-999999	321487	0	35	Cue2BackPROC	""	2	2	59	SessionSelectionList									5	206823	-6	0																																													59												
WM080112	115320_fnca	2	1	1	1348165221	1	75.031	75.030	2.0.10.147	2.0.10.242	2.0.10.242	1.0.0.439	7	234	2	3	Verdana	1	80	0	0	0	WM Stimuli\	1	1085.3	1	858.6	1	1162.9	1	775.4	0.9	1231.77777777778	0.5	973.6	0.7	688	0.9	788.777777777778	13	321484	2	321472	27	40	321511	-999999	321487	0	36	TrialsPROC	PL_019_SCENE_05.png	2	2	60	SessionSelectionList														nonlure	3	Place	2-Back	52	80	49	0	1	95	6	39	211421	2	14	64	209382	-1	0	0	0	""	3	2039	53	211435	-54	0																60												
WM080112	115320_fnca	2	1	1	1348165221	1	75.031	75.030	2.0.10.147	2.0.10.242	2.0.10.242	1.0.0.439	7	234	2	3	Verdana	1	80	0	0	0	WM Stimuli\	1	1085.3	1	858.6	1	1162.9	1	775.4	0.9	1231.77777777778	0.5	973.6	0.7	688	0.9	788.777777777778	13	321484	2	321472	27	40	321511	-999999	321487	0	36	TrialsPROC	PL_017_SCENE_03.png	2	2	61	SessionSelectionList														nonlure	3	Place	2-Back	53	80	50	0	0	95	1	39	213994	1	14	73	211955	-1	212818	1	863	3	3	2039	53	214008	-54	0																61												
WM080112	115320_fnca	2	1	1	1348165221	1	75.031	75.030	2.0.10.147	2.0.10.242	2.0.10.242	1.0.0.439	7	234	2	3	Verdana	1	80	0	0	0	WM Stimuli\	1	1085.3	1	858.6	1	1162.9	1	775.4	0.9	1231.77777777778	0.5	973.6	0.7	688	0.9	788.777777777778	13	321484	2	321472	27	40	321511	-999999	321487	0	36	TrialsPROC	PL_017_SCENE_03.png	2	2	62	SessionSelectionList														lure	3	Place	2-Back	54	80	51	0	0	95	2	39	216566	1	14	72	214527	-1	215691	1	1164	3	3	2039	53	216580	-54	0																62												
WM080112	115320_fnca	2	1	1	1348165221	1	75.031	75.030	2.0.10.147	2.0.10.242	2.0.10.242	1.0.0.439	7	234	2	3	Verdana	1	80	0	0	0	WM Stimuli\	1	1085.3	1	858.6	1	1162.9	1	775.4	0.9	1231.77777777778	0.5	973.6	0.7	688	0.9	788.777777777778	13	321484	2	321472	27	40	321511	-999999	321487	0	36	TrialsPROC	PL_016_SCENE_02.png	2	2	63	SessionSelectionList														nonlure	3	Place	2-Back	55	80	52	0	0	95	3	39	219138	2	14	72	217099	-1	218362	1	1263	3	3	2039	53	219152	-54	0																63												
WM080112	115320_fnca	2	1	1	1348165221	1	75.031	75.030	2.0.10.147	2.0.10.242	2.0.10.242	1.0.0.439	7	234	2	3	Verdana	1	80	0	0	0	WM Stimuli\	1	1085.3	1	858.6	1	1162.9	1	775.4	0.9	1231.77777777778	0.5	973.6	0.7	688	0.9	788.777777777778	13	321484	2	321472	27	40	321511	-999999	321487	0	36	TrialsPROC	PL_015_SCENE_01.png	2	2	64	SessionSelectionList														nonlure	3	Place	2-Back	56	80	53	0	0	95	4	40	221711	1	13	72	219671	-1	221024	1	1353	3	3	2040	53	221724	-54	0																64												
WM080112	115320_fnca	2	1	1	1348165221	1	75.031	75.030	2.0.10.147	2.0.10.242	2.0.10.242	1.0.0.439	7	234	2	3	Verdana	1	80	0	0	0	WM Stimuli\	1	1085.3	1	858.6	1	1162.9	1	775.4	0.9	1231.77777777778	0.5	973.6	0.7	688	0.9	788.777777777778	13	321484	2	321472	27	40	321511	-999999	321487	0	36	TrialsPROC	PL_016_SCENE_02.png	2	2	65	SessionSelectionList														target	2	Place	2-Back	57	80	54	0	0	95	1	39	224283	2	14	73	222244	-1	223237	1	993	2	2	2039	53	224297	-54	0																65												
WM080112	115320_fnca	2	1	1	1348165221	1	75.031	75.030	2.0.10.147	2.0.10.242	2.0.10.242	1.0.0.439	7	234	2	3	Verdana	1	80	0	0	0	WM Stimuli\	1	1085.3	1	858.6	1	1162.9	1	775.4	0.9	1231.77777777778	0.5	973.6	0.7	688	0.9	788.777777777778	13	321484	2	321472	27	40	321511	-999999	321487	0	36	TrialsPROC	PL_015_SCENE_01.png	2	2	66	SessionSelectionList														target	2	Place	2-Back	58	80	55	0	0	95	2	39	226855	2	14	72	224816	-1	226185	1	1369	2	2	2039	53	226869	-54	0																66												
WM080112	115320_fnca	2	1	1	1348165221	1	75.031	75.030	2.0.10.147	2.0.10.242	2.0.10.242	1.0.0.439	7	234	2	3	Verdana	1	80	0	0	0	WM Stimuli\	1	1085.3	1	858.6	1	1162.9	1	775.4	0.9	1231.77777777778	0.5	973.6	0.7	688	0.9	788.777777777778	13	321484	2	321472	27	40	321511	-999999	321487	0	36	TrialsPROC	PL_020_SCENE_06.png	2	2	67	SessionSelectionList														nonlure	3	Place	2-Back	59	80	56	0	0	95	1	39	229427	2	14	72	227388	-1	228668	1	1280	3	3	2039	53	229441	-54	0																67												
WM080112	115320_fnca	2	1	1	1348165221	1	75.031	75.030	2.0.10.147	2.0.10.242	2.0.10.242	1.0.0.439	7	234	2	3	Verdana	1	80	0	0	0	WM Stimuli\	1	1085.3	1	858.6	1	1162.9	1	775.4	0.9	1231.77777777778	0.5	973.6	0.7	688	0.9	788.777777777778	13	321484	2	321472	27	40	321511	-999999	321487	0	36	TrialsPROC	PL_020_SCENE_06.png	2	2	68	SessionSelectionList														lure	3	Place	2-Back	60	80	57	0	0	95	2	39	232000	1	14	73	229961	-1	231566	1	1605	3	3	2039	53	232014	-54	0																68												
WM080112	115320_fnca	2	1	1	1348165221	1	75.031	75.030	2.0.10.147	2.0.10.242	2.0.10.242	1.0.0.439	7	234	2	3	Verdana	1	80	0	0	0	WM Stimuli\	1	1085.3	1	858.6	1	1162.9	1	775.4	0.9	1231.77777777778	0.5	973.6	0.7	688	0.9	788.777777777778	13	321484	2	321472	27	40	321511	-999999	321487	0	36	TrialsPROC	PL_018_SCENE_04.png	2	2	69	SessionSelectionList														nonlure	3	Place	2-Back	61	80	58	0	0	95	3	39	234572	1	14	72	232533	-1	233729	1	1196	3	3	2039	53	234586	-54	0																69												
WM080112	115320_fnca	2	1	1	1348165221	1	75.031	75.030	2.0.10.147	2.0.10.242	2.0.10.242	1.0.0.439	7	234	2	3	Verdana	1	80	0	0	0	WM Stimuli\	1	1085.3	1	858.6	1	1162.9	1	775.4	0.9	1231.77777777778	0.5	973.6	0.7	688	0.9	788.777777777778	13	321484	2	321472	27	40	321511	-999999	321487	0	37	Fix15secPROC	""	2	2	70	SessionSelectionList																																															6	235039	-7	0							70												
WM080112	115320_fnca	2	1	1	1348165221	1	75.031	75.030	2.0.10.147	2.0.10.242	2.0.10.242	1.0.0.439	7	234	2	3	Verdana	1	80	0	0	0	WM Stimuli\	1	1085.3	1	858.6	1	1162.9	1	775.4	0.9	1231.77777777778	0.5	973.6	0.7	688	0.9	788.777777777778	13	321484	2	321472	27	40	321511	-999999	321487	0	38	Cue0BackPROC	FC_020_F10.png	2	2	71	SessionSelectionList																																										26	250059	-27	0												71												
WM080112	115320_fnca	2	1	1	1348165221	1	75.031	75.030	2.0.10.147	2.0.10.242	2.0.10.242	1.0.0.439	7	234	2	3	Verdana	1	80	0	0	0	WM Stimuli\	1	1085.3	1	858.6	1	1162.9	1	775.4	0.9	1231.77777777778	0.5	973.6	0.7	688	0.9	788.777777777778	13	321484	2	321472	27	40	321511	-999999	321487	0	39	TrialsPROC	FC_024_F12.png	2	2	72	SessionSelectionList														nonlure	3	Face	0-Back	62	80	59	0	0	95	4	39	254644	1	14	72	252605	-1	253625	1	1020	3	3	2039	53	254658	-54	0																72												
WM080112	115320_fnca	2	1	1	1348165221	1	75.031	75.030	2.0.10.147	2.0.10.242	2.0.10.242	1.0.0.439	7	234	2	3	Verdana	1	80	0	0	0	WM Stimuli\	1	1085.3	1	858.6	1	1162.9	1	775.4	0.9	1231.77777777778	0.5	973.6	0.7	688	0.9	788.777777777778	13	321484	2	321472	27	40	321511	-999999	321487	0	39	TrialsPROC	FC_023_M12.png	2	2	73	SessionSelectionList														nonlure	3	Face	0-Back	63	80	60	0	0	95	5	39	257216	2	14	72	255177	-1	255810	1	633	3	3	2039	53	257230	-54	0																73												
WM080112	115320_fnca	2	1	1	1348165221	1	75.031	75.030	2.0.10.147	2.0.10.242	2.0.10.242	1.0.0.439	7	234	2	3	Verdana	1	80	0	0	0	WM Stimuli\	1	1085.3	1	858.6	1	1162.9	1	775.4	0.9	1231.77777777778	0.5	973.6	0.7	688	0.9	788.777777777778	13	321484	2	321472	27	40	321511	-999999	321487	0	39	TrialsPROC	FC_020_F10.png	2	2	74	SessionSelectionList														target	2	Face	0-Back	64	80	61	0	0	96	1	40	259789	1	13	72	257749	-1	258266	1	517	2	2	2040	53	259802	-54	0																74												
WM080112	115320_fnca	2	1	1	1348165221	1	75.031	75.030	2.0.10.147	2.0.10.242	2.0.10.242	1.0.0.439	7	234	2	3	Verdana	1	80	0	0	0	WM Stimuli\	1	1085.3	1	858.6	1	1162.9	1	775.4	0.9	1231.77777777778	0.5	973.6	0.7	688	0.9	788.777777777778	13	321484	2	321472	27	40	321511	-999999	321487	0	39	TrialsPROC	FC_024_F12.png	2	2	75	SessionSelectionList														lure	3	Face	0-Back	65	80	62	0	0	96	1	39	262361	1	14	73	260322	-1	260921	1	599	3	3	2039	53	262375	-54	0																75												
WM080112	115320_fnca	2	1	1	1348165221	1	75.031	75.030	2.0.10.147	2.0.10.242	2.0.10.242	1.0.0.439	7	234	2	3	Verdana	1	80	0	0	0	WM Stimuli\	1	1085.3	1	858.6	1	1162.9	1	775.4	0.9	1231.77777777778	0.5	973.6	0.7	688	0.9	788.777777777778	13	321484	2	321472	27	40	321511	-999999	321487	0	39	TrialsPROC	FC_020_F10.png	2	2	76	SessionSelectionList														target	2	Face	0-Back	66	80	63	0	0	96	1	39	264933	2	14	72	262894	-1	263464	1	570	2	2	2039	53	264947	-54	0																76												
WM080112	115320_fnca	2	1	1	1348165221	1	75.031	75.030	2.0.10.147	2.0.10.242	2.0.10.242	1.0.0.439	7	234	2	3	Verdana	1	80	0	0	0	WM Stimuli\	1	1085.3	1	858.6	1	1162.9	1	775.4	0.9	1231.77777777778	0.5	973.6	0.7	688	0.9	788.777777777778	13	321484	2	321472	27	40	321511	-999999	321487	0	39	TrialsPROC	FC_022_F11.png	2	2	77	SessionSelectionList														nonlure	3	Face	0-Back	67	80	64	0	0	96	1	39	267505	2	14	72	265466	-1	266088	1	622	3	3	2039	53	267519	-54	0																77												
WM080112	115320_fnca	2	1	1	1348165221	1	75.031	75.030	2.0.10.147	2.0.10.242	2.0.10.242	1.0.0.439	7	234	2	3	Verdana	1	80	0	0	0	WM Stimuli\	1	1085.3	1	858.6	1	1162.9	1	775.4	0.9	1231.77777777778	0.5	973.6	0.7	688	0.9	788.777777777778	13	321484	2	321472	27	40	321511	-999999	321487	0	39	TrialsPROC	FC_023_M12.png	2	2	78	SessionSelectionList														lure	3	Face	0-Back	68	80	65	0	0	96	2	39	270078	1	14	73	268039	-1	268841	1	802	3	3	2039	53	270092	-54	0																78												
WM080112	115320_fnca	2	1	1	1348165221	1	75.031	75.030	2.0.10.147	2.0.10.242	2.0.10.242	1.0.0.439	7	234	2	3	Verdana	1	80	0	0	0	WM Stimuli\	1	1085.3	1	858.6	1	1162.9	1	775.4	0.9	1231.77777777778	0.5	973.6	0.7	688	0.9	788.777777777778	13	321484	2	321472	27	40	321511	-999999	321487	0	39	TrialsPROC	FC_021_M11.png	2	2	79	SessionSelectionList														nonlure	3	Face	0-Back	69	80	66	0	0	96	3	39	272650	1	14	72	270611	-1	271261	1	650	3	3	2039	53	272664	-54	0																79												
WM080112	115320_fnca	2	1	1	1348165221	1	75.031	75.030	2.0.10.147	2.0.10.242	2.0.10.242	1.0.0.439	7	234	2	3	Verdana	1	80	0	0	0	WM Stimuli\	1	1085.3	1	858.6	1	1162.9	1	775.4	0.9	1231.77777777778	0.5	973.6	0.7	688	0.9	788.777777777778	13	321484	2	321472	27	40	321511	-999999	321487	0	39	TrialsPROC	FC_021_M11.png	2	2	80	SessionSelectionList														lure	3	Face	0-Back	70	80	67	0	0	97	4	39	275222	2	14	72	273183	-1	273819	1	636	3	3	2039	53	275236	-54	0																80												
WM080112	115320_fnca	2	1	1	1348165221	1	75.031	75.030	2.0.10.147	2.0.10.242	2.0.10.242	1.0.0.439	7	234	2	3	Verdana	1	80	0	0	0	WM Stimuli\	1	1085.3	1	858.6	1	1162.9	1	775.4	0.9	1231.77777777778	0.5	973.6	0.7	688	0.9	788.777777777778	13	321484	2	321472	27	40	321511	-999999	321487	0	39	TrialsPROC	FC_019_M10.png	2	2	81	SessionSelectionList														nonlure	3	Face	0-Back	71	80	68	0	0	97	5	40	277795	1	13	72	275755	-1	277460	1	1705	3	3	2040	53	277808	-54	0																81												
WM080112	115320_fnca	2	1	1	1348165221	1	75.031	75.030	2.0.10.147	2.0.10.242	2.0.10.242	1.0.0.439	7	234	2	3	Verdana	1	80	0	0	0	WM Stimuli\	1	1085.3	1	858.6	1	1162.9	1	775.4	0.9	1231.77777777778	0.5	973.6	0.7	688	0.9	788.777777777778	13	321484	2	321472	27	40	321511	-999999	321487	0	40	Cue0BackPROC	PL_021_SCENE_07.png	2	2	82	SessionSelectionList																																										19	278274	-20	0												82												
WM080112	115320_fnca	2	1	1	1348165221	1	75.031	75.030	2.0.10.147	2.0.10.242	2.0.10.242	1.0.0.439	7	234	2	3	Verdana	1	80	0	0	0	WM Stimuli\	1	1085.3	1	858.6	1	1162.9	1	775.4	0.9	1231.77777777778	0.5	973.6	0.7	688	0.9	788.777777777778	13	321484	2	321472	27	40	321511	-999999	321487	0	41	TrialsPROC	PL_025_SCENE_18.png	2	2	83	SessionSelectionList														nonlure	3	Place	0-Back	72	80	69	0	0	97	6	39	282859	2	14	65	280820	-1	282577	1	1757	3	3	2039	53	282873	-54	0																83												
WM080112	115320_fnca	2	1	1	1348165221	1	75.031	75.030	2.0.10.147	2.0.10.242	2.0.10.242	1.0.0.439	7	234	2	3	Verdana	1	80	0	0	0	WM Stimuli\	1	1085.3	1	858.6	1	1162.9	1	775.4	0.9	1231.77777777778	0.5	973.6	0.7	688	0.9	788.777777777778	13	321484	2	321472	27	40	321511	-999999	321487	0	41	TrialsPROC	PL_026_SCENE_24.png	2	2	84	SessionSelectionList														nonlure	3	Place	0-Back	73	80	70	0	0	97	7	40	285432	1	13	72	283392	-1	284052	1	660	3	3	2040	53	285445	-54	0																84												
WM080112	115320_fnca	2	1	1	1348165221	1	75.031	75.030	2.0.10.147	2.0.10.242	2.0.10.242	1.0.0.439	7	234	2	3	Verdana	1	80	0	0	0	WM Stimuli\	1	1085.3	1	858.6	1	1162.9	1	775.4	0.9	1231.77777777778	0.5	973.6	0.7	688	0.9	788.777777777778	13	321484	2	321472	27	40	321511	-999999	321487	0	41	TrialsPROC	PL_025_SCENE_18.png	2	2	85	SessionSelectionList														lure	3	Place	0-Back	74	80	71	0	0	94	1	39	288004	2	14	73	285965	-1	286621	0	656	2	3	2039	53	288018	-54	0																85												
WM080112	115320_fnca	2	1	1	1348165221	1	75.031	75.030	2.0.10.147	2.0.10.242	2.0.10.242	1.0.0.439	7	234	2	3	Verdana	1	80	0	0	0	WM Stimuli\	1	1085.3	1	858.6	1	1162.9	1	775.4	0.9	1231.77777777778	0.5	973.6	0.7	688	0.9	788.777777777778	13	321484	2	321472	27	40	321511	-999999	321487	0	41	TrialsPROC	PL_022_SCENE_08.png	2	2	86	SessionSelectionList														nonlure	3	Place	0-Back	75	80	72	0	0	94	1	39	290576	2	14	72	288537	-1	289142	1	605	3	3	2039	53	290590	-54	0																86												
WM080112	115320_fnca	2	1	1	1348165221	1	75.031	75.030	2.0.10.147	2.0.10.242	2.0.10.242	1.0.0.439	7	234	2	3	Verdana	1	80	0	0	0	WM Stimuli\	1	1085.3	1	858.6	1	1162.9	1	775.4	0.9	1231.77777777778	0.5	973.6	0.7	688	0.9	788.777777777778	13	321484	2	321472	27	40	321511	-999999	321487	0	41	TrialsPROC	PL_026_SCENE_24.png	2	2	87	SessionSelectionList														lure	3	Place	0-Back	76	80	73	0	0	91	1	39	293148	2	14	72	291109	-1	292234	0	1125	2	3	2039	53	293162	-54	0																87												
WM080112	115320_fnca	2	1	1	1348165221	1	75.031	75.030	2.0.10.147	2.0.10.242	2.0.10.242	1.0.0.439	7	234	2	3	Verdana	1	80	0	0	0	WM Stimuli\	1	1085.3	1	858.6	1	1162.9	1	775.4	0.9	1231.77777777778	0.5	973.6	0.7	688	0.9	788.777777777778	13	321484	2	321472	27	40	321511	-999999	321487	0	41	TrialsPROC	PL_021_SCENE_07.png	2	2	88	SessionSelectionList														target	2	Place	0-Back	77	80	74	0	0	89	1	39	295721	1	14	73	293682	-1	294688	0	1006	3	2	2039	53	295735	-54	0																88												
WM080112	115320_fnca	2	1	1	1348165221	1	75.031	75.030	2.0.10.147	2.0.10.242	2.0.10.242	1.0.0.439	7	234	2	3	Verdana	1	80	0	0	0	WM Stimuli\	1	1085.3	1	858.6	1	1162.9	1	775.4	0.9	1231.77777777778	0.5	973.6	0.7	688	0.9	788.777777777778	13	321484	2	321472	27	40	321511	-999999	321487	0	41	TrialsPROC	PL_021_SCENE_07.png	2	2	89	SessionSelectionList														target	2	Place	0-Back	78	80	75	0	0	86	2	39	298293	1	14	72	296254	-1	297325	0	1071	3	2	2039	53	298307	-54	0																89												
WM080112	115320_fnca	2	1	1	1348165221	1	75.031	75.030	2.0.10.147	2.0.10.242	2.0.10.242	1.0.0.439	7	234	2	3	Verdana	1	80	0	0	0	WM Stimuli\	1	1085.3	1	858.6	1	1162.9	1	775.4	0.9	1231.77777777778	0.5	973.6	0.7	688	0.9	788.777777777778	13	321484	2	321472	27	40	321511	-999999	321487	0	41	TrialsPROC	PL_023_SCENE_09.png	2	2	90	SessionSelectionList														nonlure	3	Place	0-Back	79	80	76	0	0	87	3	39	300865	2	14	72	298826	-1	299703	1	877	3	3	2039	53	300879	-54	0																90												
WM080112	115320_fnca	2	1	1	1348165221	1	75.031	75.030	2.0.10.147	2.0.10.242	2.0.10.242	1.0.0.439	7	234	2	3	Verdana	1	80	0	0	0	WM Stimuli\	1	1085.3	1	858.6	1	1162.9	1	775.4	0.9	1231.77777777778	0.5	973.6	0.7	688	0.9	788.777777777778	13	321484	2	321472	27	40	321511	-999999	321487	0	41	TrialsPROC	PL_024_SCENE_10.png	2	2	91	SessionSelectionList														nonlure	3	Place	0-Back	80	80	77	0	0	87	4	40	303438	1	13	72	301398	-1	302367	1	969	3	3	2040	53	303451	-54	0																91												
WM080112	115320_fnca	2	1	1	1348165221	1	75.031	75.030	2.0.10.147	2.0.10.242	2.0.10.242	1.0.0.439	7	234	2	3	Verdana	1	80	0	0	0	WM Stimuli\	1	1085.3	1	858.6	1	1162.9	1	775.4	0.9	1231.77777777778	0.5	973.6	0.7	688	0.9	788.777777777778	13	321484	2	321472	27	40	321511	-999999	321487	0	41	TrialsPROC	PL_022_SCENE_08.png	2	2	92	SessionSelectionList														lure	3	Place	0-Back	80	80	78	0	0	85	1	39	306010	1	14	73	303971	-1	305722	0	1751	2	3	2039	53	306024	-54	0																92												
WM080112	115320_fnca	2	1	1	1348165221	1	75.031	75.030	2.0.10.147	2.0.10.242	2.0.10.242	1.0.0.439	7	234	2	3	Verdana	1	80	0	0	0	WM Stimuli\	1	1085.3	1	858.6	1	1162.9	1	775.4	0.9	1231.77777777778	0.5	973.6	0.7	688	0.9	788.777777777778	13	321484	2	321472	27	40	321511	-999999	321487	0	42	Fix15secPROC	""	2	2	93	SessionSelectionList																																															6	306477	-7	0							93												
