ExperimentName	HCPID	RunNumber	Subject	Session	RandomSeed	Group	Laptop.RefreshRate	ScannerD2.RefreshRate	StudioVersion	RuntimeVersion	RuntimeVersionExpected	ExperimentVersion	triggercode	Allowed	Target	Nontarget	FontStyle	RunTrialNumber[Session]	TrialsPerRun[Session]	TotalRespGreater200[Session]	ConsecRTLess200[Session]	ConsecNonResp[Session]	StimuliDir	ACC_2_Back_Body	Avg_RT_For_Correct_Trials_2_Back_Body	ACC_0_Back_Body	Avg_RT_For_Correct_Trials_0_Back_Body	ACC_2_Back_Face	Avg_RT_For_Correct_Trials_2_Back_Face	ACC_0_Back_Face	Avg_RT_For_Correct_Trials_0_Back_Face	ACC_2_Back_Place	Avg_RT_For_Correct_Trials_2_Back_Place	ACC_0_Back_Place	Avg_RT_For_Correct_Trials_0_Back_Place	ACC_2_Back_Tools	Avg_RT_For_Correct_Trials_2_Back_Tools	ACC_0_Back_Tools	Avg_RT_For_Correct_Trials_0_Back_Tools	ExpInstrucFeelFreeToRest.OnsetDelay	ExpInstrucFeelFreeToRest.OnsetTime	ExpInstrucFeelFreeToRest.DurationError	ExpInstrucFeelFreeToRest.StartTime	ExpInstrucFeelFreeToRest.OnsetToOnsetTime	FeelFreeToRest.OnsetDelay	FeelFreeToRest.OnsetTime	FeelFreeToRest.DurationError	FeelFreeToRest.StartTime	FeelFreeToRest.OnsetToOnsetTime	SessionSelectionList	Procedure[Block]	Stimulus[Block]	RunNumberFilterValue	SessionSelectionList.Cycle	SessionSelectionList.Sample	Running[Block]	IntroButtonMap.OnsetDelay	IntroButtonMap.OnsetTime	IntroButtonMap.DurationError	IntroButtonMap.OnsetToOnsetTime	GetReady.OnsetDelay	GetReady.OnsetTime	GetReady.DurationError	GetReady.OnsetToOnsetTime	Cue2Back.OnsetDelay	Cue2Back.OnsetTime	Cue2Back.DurationError	Cue2Back.OnsetToOnsetTime	Run1Block1	TargetType	CorrectResponse	StimType	BlockType	RunTrialNumber[Block]	TrialsPerRun[Block]	TotalRespGreater200[Block]	ConsecRTLess200[Block]	ConsecNonResp[Block]	ControlAcc	ConsecSameResp	ExperimenterWindow.OnsetDelay	ExperimenterWindow.OnsetTime	ExperimenterWindow.DurationError	ExperimenterWindow.OnsetToOnsetTime	Stim.OnsetDelay	Stim.OnsetTime	Stim.DurationError	Stim.RTTime	Stim.ACC	Stim.RT	Stim.RESP	Stim.CRESP	Stim.OnsetToOnsetTime	Fix.OnsetDelay	Fix.OnsetTime	Fix.DurationError	Fix.OnsetToOnsetTime	CueTarget.OnsetDelay	CueTarget.OnsetTime	CueTarget.DurationError	CueTarget.OnsetToOnsetTime	Run1Block2	Fix15sec.OnsetDelay	Fix15sec.OnsetTime	Fix15sec.DurationError	Fix15sec.OnsetToOnsetTime	Run1Block3	Run1Block4	Run1Block5	Run1Block6	Run1Block7	Run1Block8	Block	Procedure[Trial]	Stimulus[Trial]	ReadyList	Running[Trial]	ReadyList.Cycle	ReadyList.Sample	SyncSlide.OnsetDelay	SyncSlide.OnsetTime	SyncSlide.DurationError	SyncSlide.FinishTime	SyncSlide.OnsetToOnsetTime	Trial
WM080112	106016_fnca	1	1	1	1608727263	1	75.031	75.031	2.0.10.147	2.0.10.242	2.0.10.242	1.0.0.439	7	234	2	3	Verdana	1	80	0	0	0	WM Stimuli\	0.7	1384.57142857143	0.7	1035.71428571429	1	1053.3	0.9	917.666666666667	0.9	920.333333333333	1	688.2	0.9	1044.66666666667	0.9	626.666666666667	13	553218	1	553206	27	40	553245	-999999	553220	0	1	TRSyncPROC	""	1	2	1	SessionSelectionList	103	35538	-999999	0	28	245998	-999999	0																																																	1	InitialTR	4	1	ReadyList	1	1	19	260085	-20	262065	0	1
WM080112	106016_fnca	1	1	1	1608727263	1	75.031	75.031	2.0.10.147	2.0.10.242	2.0.10.242	1.0.0.439	7	234	2	3	Verdana	1	80	0	0	0	WM Stimuli\	0.7	1384.57142857143	0.7	1035.71428571429	1	1053.3	0.9	917.666666666667	0.9	920.333333333333	1	688.2	0.9	1044.66666666667	0.9	626.666666666667	13	553218	1	553206	27	40	553245	-999999	553220	0	1	TRSyncPROC	""	1	2	1	SessionSelectionList	103	35538	-999999	0	28	245998	-999999	0																																																	1	InitialTR	3	2	ReadyList	1	2	19	262085	-20	264065	0	2
WM080112	106016_fnca	1	1	1	1608727263	1	75.031	75.031	2.0.10.147	2.0.10.242	2.0.10.242	1.0.0.439	7	234	2	3	Verdana	1	80	0	0	0	WM Stimuli\	0.7	1384.57142857143	0.7	1035.71428571429	1	1053.3	0.9	917.666666666667	0.9	920.333333333333	1	688.2	0.9	1044.66666666667	0.9	626.666666666667	13	553218	1	553206	27	40	553245	-999999	553220	0	1	TRSyncPROC	""	1	2	1	SessionSelectionList	103	35538	-999999	0	28	245998	-999999	0																																																	1	InitialTR	2	3	ReadyList	1	3	4	264070	-5	266065	0	3
WM080112	106016_fnca	1	1	1	1608727263	1	75.031	75.031	2.0.10.147	2.0.10.242	2.0.10.242	1.0.0.439	7	234	2	3	Verdana	1	80	0	0	0	WM Stimuli\	0.7	1384.57142857143	0.7	1035.71428571429	1	1053.3	0.9	917.666666666667	0.9	920.333333333333	1	688.2	0.9	1044.66666666667	0.9	626.666666666667	13	553218	1	553206	27	40	553245	-999999	553220	0	1	TRSyncPROC	""	1	2	1	SessionSelectionList	103	35538	-999999	0	28	245998	-999999	0																																																	1	InitialTR	1	4	ReadyList	1	4	4	266070	-5	268065	0	4
WM080112	106016_fnca	1	1	1	1608727263	1	75.031	75.031	2.0.10.147	2.0.10.242	2.0.10.242	1.0.0.439	7	234	2	3	Verdana	1	80	0	0	0	WM Stimuli\	0.7	1384.57142857143	0.7	1035.71428571429	1	1053.3	0.9	917.666666666667	0.9	920.333333333333	1	688.2	0.9	1044.66666666667	0.9	626.666666666667	13	553218	1	553206	27	40	553245	-999999	553220	0	2	Cue2BackPROC	""	1	2	2	SessionSelectionList									16	268082	-17	0																																													2												
WM080112	106016_fnca	1	1	1	1608727263	1	75.031	75.031	2.0.10.147	2.0.10.242	2.0.10.242	1.0.0.439	7	234	2	3	Verdana	1	80	0	0	0	WM Stimuli\	0.7	1384.57142857143	0.7	1035.71428571429	1	1053.3	0.9	917.666666666667	0.9	920.333333333333	1	688.2	0.9	1044.66666666667	0.9	626.666666666667	13	553218	1	553206	27	40	553245	-999999	553220	0	3	TrialsPROC	BP_002_BP10_BA.png	1	2	3	SessionSelectionList													1	nonlure	3	Body	2-Back	2	80	1	0	0	0	1	53	272694	2	13	75	270641	-1	271958	1	1317	3	3	2053	66	272707	-67	0																3												
WM080112	106016_fnca	1	1	1	1608727263	1	75.031	75.031	2.0.10.147	2.0.10.242	2.0.10.242	1.0.0.439	7	234	2	3	Verdana	1	80	0	0	0	WM Stimuli\	0.7	1384.57142857143	0.7	1035.71428571429	1	1053.3	0.9	917.666666666667	0.9	920.333333333333	1	688.2	0.9	1044.66666666667	0.9	626.666666666667	13	553218	1	553206	27	40	553245	-999999	553220	0	3	TrialsPROC	BP_001_BP1_BA.png	1	2	4	SessionSelectionList													2	nonlure	3	Body	2-Back	3	80	2	0	0	0	2	39	275252	2	14	72	273213	-1	274613	1	1400	3	3	2039	53	275266	-54	0																4												
WM080112	106016_fnca	1	1	1	1608727263	1	75.031	75.031	2.0.10.147	2.0.10.242	2.0.10.242	1.0.0.439	7	234	2	3	Verdana	1	80	0	0	0	WM Stimuli\	0.7	1384.57142857143	0.7	1035.71428571429	1	1053.3	0.9	917.666666666667	0.9	920.333333333333	1	688.2	0.9	1044.66666666667	0.9	626.666666666667	13	553218	1	553206	27	40	553245	-999999	553220	0	3	TrialsPROC	BP_006_BP2_BA.png	1	2	5	SessionSelectionList													3	nonlure	3	Body	2-Back	4	80	3	0	0	0	1	39	277811	2	14	59	275772	-1	276502	0	730	2	3	2039	53	277825	-54	0																5												
WM080112	106016_fnca	1	1	1	1608727263	1	75.031	75.031	2.0.10.147	2.0.10.242	2.0.10.242	1.0.0.439	7	234	2	3	Verdana	1	80	0	0	0	WM Stimuli\	0.7	1384.57142857143	0.7	1035.71428571429	1	1053.3	0.9	917.666666666667	0.9	920.333333333333	1	688.2	0.9	1044.66666666667	0.9	626.666666666667	13	553218	1	553206	27	40	553245	-999999	553220	0	3	TrialsPROC	BP_001_BP1_BA.png	1	2	6	SessionSelectionList													4	target	2	Body	2-Back	5	80	4	0	0	0	1	40	280384	1	13	72	278344	-1	279070	0	726	3	2	2040	53	280397	-54	0																6												
WM080112	106016_fnca	1	1	1	1608727263	1	75.031	75.031	2.0.10.147	2.0.10.242	2.0.10.242	1.0.0.439	7	234	2	3	Verdana	1	80	0	0	0	WM Stimuli\	0.7	1384.57142857143	0.7	1035.71428571429	1	1053.3	0.9	917.666666666667	0.9	920.333333333333	1	688.2	0.9	1044.66666666667	0.9	626.666666666667	13	553218	1	553206	27	40	553245	-999999	553220	0	3	TrialsPROC	BP_005_BP19_BA.png	1	2	7	SessionSelectionList													5	nonlure	3	Body	2-Back	6	80	5	0	0	0	2	40	282943	1	13	59	280903	-1	282226	1	1323	3	3	2040	53	282956	-54	0																7												
WM080112	106016_fnca	1	1	1	1608727263	1	75.031	75.031	2.0.10.147	2.0.10.242	2.0.10.242	1.0.0.439	7	234	2	3	Verdana	1	80	0	0	0	WM Stimuli\	0.7	1384.57142857143	0.7	1035.71428571429	1	1053.3	0.9	917.666666666667	0.9	920.333333333333	1	688.2	0.9	1044.66666666667	0.9	626.666666666667	13	553218	1	553206	27	40	553245	-999999	553220	0	3	TrialsPROC	BP_003_BP16_BA.png	1	2	8	SessionSelectionList													6	nonlure	3	Body	2-Back	7	80	6	0	0	0	3	40	285502	1	13	59	283462	-1	284887	1	1425	3	3	2040	53	285515	-54	0																8												
WM080112	106016_fnca	1	1	1	1608727263	1	75.031	75.031	2.0.10.147	2.0.10.242	2.0.10.242	1.0.0.439	7	234	2	3	Verdana	1	80	0	0	0	WM Stimuli\	0.7	1384.57142857143	0.7	1035.71428571429	1	1053.3	0.9	917.666666666667	0.9	920.333333333333	1	688.2	0.9	1044.66666666667	0.9	626.666666666667	13	553218	1	553206	27	40	553245	-999999	553220	0	3	TrialsPROC	BP_006_BP2_BA.png	1	2	9	SessionSelectionList													7	lure	3	Body	2-Back	8	80	7	0	0	0	4	40	288061	1	13	59	286021	-1	287437	1	1416	3	3	2040	53	288074	-54	0																9												
WM080112	106016_fnca	1	1	1	1608727263	1	75.031	75.031	2.0.10.147	2.0.10.242	2.0.10.242	1.0.0.439	7	234	2	3	Verdana	1	80	0	0	0	WM Stimuli\	0.7	1384.57142857143	0.7	1035.71428571429	1	1053.3	0.9	917.666666666667	0.9	920.333333333333	1	688.2	0.9	1044.66666666667	0.9	626.666666666667	13	553218	1	553206	27	40	553245	-999999	553220	0	3	TrialsPROC	BP_004_BP18_BA.png	1	2	10	SessionSelectionList													8	nonlure	3	Body	2-Back	9	80	8	0	0	0	5	39	290619	2	14	59	288580	-1	290331	1	1751	3	3	2039	53	290633	-54	0																10												
WM080112	106016_fnca	1	1	1	1608727263	1	75.031	75.031	2.0.10.147	2.0.10.242	2.0.10.242	1.0.0.439	7	234	2	3	Verdana	1	80	0	0	0	WM Stimuli\	0.7	1384.57142857143	0.7	1035.71428571429	1	1053.3	0.9	917.666666666667	0.9	920.333333333333	1	688.2	0.9	1044.66666666667	0.9	626.666666666667	13	553218	1	553206	27	40	553245	-999999	553220	0	3	TrialsPROC	BP_005_BP19_BA.png	1	2	11	SessionSelectionList													9	lure	3	Body	2-Back	10	80	8	0	1	0	5	39	293178	2	14	59	291139	-1	0	0	0	""	3	2039	53	293192	-54	0																11												
WM080112	106016_fnca	1	1	1	1608727263	1	75.031	75.031	2.0.10.147	2.0.10.242	2.0.10.242	1.0.0.439	7	234	2	3	Verdana	1	80	0	0	0	WM Stimuli\	0.7	1384.57142857143	0.7	1035.71428571429	1	1053.3	0.9	917.666666666667	0.9	920.333333333333	1	688.2	0.9	1044.66666666667	0.9	626.666666666667	13	553218	1	553206	27	40	553245	-999999	553220	0	3	TrialsPROC	BP_004_BP18_BA.png	1	2	12	SessionSelectionList													10	target	2	Body	2-Back	11	80	9	0	0	0	1	39	295737	2	14	59	293698	-1	294758	1	1060	2	2	2039	53	295751	-54	0																12												
WM080112	106016_fnca	1	1	1	1608727263	1	75.031	75.031	2.0.10.147	2.0.10.242	2.0.10.242	1.0.0.439	7	234	2	3	Verdana	1	80	0	0	0	WM Stimuli\	0.7	1384.57142857143	0.7	1035.71428571429	1	1053.3	0.9	917.666666666667	0.9	920.333333333333	1	688.2	0.9	1044.66666666667	0.9	626.666666666667	13	553218	1	553206	27	40	553245	-999999	553220	0	4	Cue0BackPROC	FC_001_M1.png	1	2	13	SessionSelectionList																																										19	296217	-20	0												13												
WM080112	106016_fnca	1	1	1	1608727263	1	75.031	75.031	2.0.10.147	2.0.10.242	2.0.10.242	1.0.0.439	7	234	2	3	Verdana	1	80	0	0	0	WM Stimuli\	0.7	1384.57142857143	0.7	1035.71428571429	1	1053.3	0.9	917.666666666667	0.9	920.333333333333	1	688.2	0.9	1044.66666666667	0.9	626.666666666667	13	553218	1	553206	27	40	553245	-999999	553220	0	5	TrialsPROC	FC_005_M3.png	1	2	14	SessionSelectionList														nonlure	3	Face	0-Back	12	80	10	0	0	100	1	39	300802	1	14	65	298763	-1	300244	1	1481	3	3	2039	53	300816	-54	0					1											14												
WM080112	106016_fnca	1	1	1	1608727263	1	75.031	75.031	2.0.10.147	2.0.10.242	2.0.10.242	1.0.0.439	7	234	2	3	Verdana	1	80	0	0	0	WM Stimuli\	0.7	1384.57142857143	0.7	1035.71428571429	1	1053.3	0.9	917.666666666667	0.9	920.333333333333	1	688.2	0.9	1044.66666666667	0.9	626.666666666667	13	553218	1	553206	27	40	553245	-999999	553220	0	5	TrialsPROC	FC_001_M1.png	1	2	15	SessionSelectionList														target	2	Face	0-Back	13	80	11	0	0	100	1	39	303374	2	14	72	301335	-1	302631	1	1296	2	2	2039	53	303388	-54	0					2											15												
WM080112	106016_fnca	1	1	1	1608727263	1	75.031	75.031	2.0.10.147	2.0.10.242	2.0.10.242	1.0.0.439	7	234	2	3	Verdana	1	80	0	0	0	WM Stimuli\	0.7	1384.57142857143	0.7	1035.71428571429	1	1053.3	0.9	917.666666666667	0.9	920.333333333333	1	688.2	0.9	1044.66666666667	0.9	626.666666666667	13	553218	1	553206	27	40	553245	-999999	553220	0	5	TrialsPROC	FC_003_M2.png	1	2	16	SessionSelectionList														nonlure	3	Face	0-Back	14	80	12	0	0	67	2	39	305946	2	14	72	303907	-1	305537	0	1630	2	3	2039	53	305960	-54	0					3											16												
WM080112	106016_fnca	1	1	1	1608727263	1	75.031	75.031	2.0.10.147	2.0.10.242	2.0.10.242	1.0.0.439	7	234	2	3	Verdana	1	80	0	0	0	WM Stimuli\	0.7	1384.57142857143	0.7	1035.71428571429	1	1053.3	0.9	917.666666666667	0.9	920.333333333333	1	688.2	0.9	1044.66666666667	0.9	626.666666666667	13	553218	1	553206	27	40	553245	-999999	553220	0	5	TrialsPROC	FC_004_F2.png	1	2	17	SessionSelectionList														nonlure	3	Face	0-Back	15	80	13	0	0	75	1	39	308519	1	13	73	306480	-1	306918	1	438	3	3	2039	52	308532	-53	0					4											17												
WM080112	106016_fnca	1	1	1	1608727263	1	75.031	75.031	2.0.10.147	2.0.10.242	2.0.10.242	1.0.0.439	7	234	2	3	Verdana	1	80	0	0	0	WM Stimuli\	0.7	1384.57142857143	0.7	1035.71428571429	1	1053.3	0.9	917.666666666667	0.9	920.333333333333	1	688.2	0.9	1044.66666666667	0.9	626.666666666667	13	553218	1	553206	27	40	553245	-999999	553220	0	5	TrialsPROC	FC_004_F2.png	1	2	18	SessionSelectionList														lure	3	Face	0-Back	16	80	14	0	0	80	2	39	311091	1	14	72	309052	-1	309568	1	516	3	3	2039	53	311105	-54	0					5											18												
WM080112	106016_fnca	1	1	1	1608727263	1	75.031	75.031	2.0.10.147	2.0.10.242	2.0.10.242	1.0.0.439	7	234	2	3	Verdana	1	80	0	0	0	WM Stimuli\	0.7	1384.57142857143	0.7	1035.71428571429	1	1053.3	0.9	917.666666666667	0.9	920.333333333333	1	688.2	0.9	1044.66666666667	0.9	626.666666666667	13	553218	1	553206	27	40	553245	-999999	553220	0	5	TrialsPROC	FC_001_M1.png	1	2	19	SessionSelectionList														target	2	Face	0-Back	17	80	15	0	0	83	1	39	313663	2	14	72	311624	-1	312719	1	1095	2	2	2039	53	313677	-54	0					6											19												
WM080112	106016_fnca	1	1	1	1608727263	1	75.031	75.031	2.0.10.147	2.0.10.242	2.0.10.242	1.0.0.439	7	234	2	3	Verdana	1	80	0	0	0	WM Stimuli\	0.7	1384.57142857143	0.7	1035.71428571429	1	1053.3	0.9	917.666666666667	0.9	920.333333333333	1	688.2	0.9	1044.66666666667	0.9	626.666666666667	13	553218	1	553206	27	40	553245	-999999	553220	0	5	TrialsPROC	FC_006_F3.png	1	2	20	SessionSelectionList														nonlure	3	Face	0-Back	18	80	16	0	0	86	1	40	316236	1	13	72	314196	-1	314791	1	595	3	3	2040	53	316249	-54	0					7											20												
WM080112	106016_fnca	1	1	1	1608727263	1	75.031	75.031	2.0.10.147	2.0.10.242	2.0.10.242	1.0.0.439	7	234	2	3	Verdana	1	80	0	0	0	WM Stimuli\	0.7	1384.57142857143	0.7	1035.71428571429	1	1053.3	0.9	917.666666666667	0.9	920.333333333333	1	688.2	0.9	1044.66666666667	0.9	626.666666666667	13	553218	1	553206	27	40	553245	-999999	553220	0	5	TrialsPROC	FC_006_F3.png	1	2	21	SessionSelectionList														lure	3	Face	0-Back	19	80	17	0	0	88	2	39	318808	1	13	73	316769	-1	317378	1	609	3	3	2039	52	318821	-53	0					8											21												
WM080112	106016_fnca	1	1	1	1608727263	1	75.031	75.031	2.0.10.147	2.0.10.242	2.0.10.242	1.0.0.439	7	234	2	3	Verdana	1	80	0	0	0	WM Stimuli\	0.7	1384.57142857143	0.7	1035.71428571429	1	1053.3	0.9	917.666666666667	0.9	920.333333333333	1	688.2	0.9	1044.66666666667	0.9	626.666666666667	13	553218	1	553206	27	40	553245	-999999	553220	0	5	TrialsPROC	FC_003_M2.png	1	2	22	SessionSelectionList														lure	3	Face	0-Back	20	80	18	0	0	89	3	39	321380	1	14	72	319341	-1	320871	1	1530	3	3	2039	53	321394	-54	0					9											22												
WM080112	106016_fnca	1	1	1	1608727263	1	75.031	75.031	2.0.10.147	2.0.10.242	2.0.10.242	1.0.0.439	7	234	2	3	Verdana	1	80	0	0	0	WM Stimuli\	0.7	1384.57142857143	0.7	1035.71428571429	1	1053.3	0.9	917.666666666667	0.9	920.333333333333	1	688.2	0.9	1044.66666666667	0.9	626.666666666667	13	553218	1	553206	27	40	553245	-999999	553220	0	5	TrialsPROC	FC_002_F1.png	1	2	23	SessionSelectionList														nonlure	3	Face	0-Back	21	80	19	0	0	90	4	39	323952	2	14	72	321913	-1	322612	1	699	3	3	2039	53	323966	-54	0					10											23												
WM080112	106016_fnca	1	1	1	1608727263	1	75.031	75.031	2.0.10.147	2.0.10.242	2.0.10.242	1.0.0.439	7	234	2	3	Verdana	1	80	0	0	0	WM Stimuli\	0.7	1384.57142857143	0.7	1035.71428571429	1	1053.3	0.9	917.666666666667	0.9	920.333333333333	1	688.2	0.9	1044.66666666667	0.9	626.666666666667	13	553218	1	553206	27	40	553245	-999999	553220	0	6	Fix15secPROC	""	1	2	24	SessionSelectionList																																															6	324419	-7	0							24												
WM080112	106016_fnca	1	1	1	1608727263	1	75.031	75.031	2.0.10.147	2.0.10.242	2.0.10.242	1.0.0.439	7	234	2	3	Verdana	1	80	0	0	0	WM Stimuli\	0.7	1384.57142857143	0.7	1035.71428571429	1	1053.3	0.9	917.666666666667	0.9	920.333333333333	1	688.2	0.9	1044.66666666667	0.9	626.666666666667	13	553218	1	553206	27	40	553245	-999999	553220	0	7	Cue2BackPROC	""	1	2	25	SessionSelectionList									13	339426	-14	0																																													25												
WM080112	106016_fnca	1	1	1	1608727263	1	75.031	75.031	2.0.10.147	2.0.10.242	2.0.10.242	1.0.0.439	7	234	2	3	Verdana	1	80	0	0	0	WM Stimuli\	0.7	1384.57142857143	0.7	1035.71428571429	1	1053.3	0.9	917.666666666667	0.9	920.333333333333	1	688.2	0.9	1044.66666666667	0.9	626.666666666667	13	553218	1	553206	27	40	553245	-999999	553220	0	8	TrialsPROC	TO_001_TOOL1_BA.png	1	2	26	SessionSelectionList														nonlure	3	Tools	2-Back	22	80	20	0	0	90	5	39	344011	1	13	59	341972	-1	342997	1	1025	3	3	2039	52	344024	-53	0										1						26												
WM080112	106016_fnca	1	1	1	1608727263	1	75.031	75.031	2.0.10.147	2.0.10.242	2.0.10.242	1.0.0.439	7	234	2	3	Verdana	1	80	0	0	0	WM Stimuli\	0.7	1384.57142857143	0.7	1035.71428571429	1	1053.3	0.9	917.666666666667	0.9	920.333333333333	1	688.2	0.9	1044.66666666667	0.9	626.666666666667	13	553218	1	553206	27	40	553245	-999999	553220	0	8	TrialsPROC	TO_002_TOOL2_BA.png	1	2	27	SessionSelectionList														nonlure	3	Tools	2-Back	23	80	21	0	0	90	6	39	346570	1	13	59	344531	-1	345704	1	1173	3	3	2039	52	346583	-53	0										2						27												
WM080112	106016_fnca	1	1	1	1608727263	1	75.031	75.031	2.0.10.147	2.0.10.242	2.0.10.242	1.0.0.439	7	234	2	3	Verdana	1	80	0	0	0	WM Stimuli\	0.7	1384.57142857143	0.7	1035.71428571429	1	1053.3	0.9	917.666666666667	0.9	920.333333333333	1	688.2	0.9	1044.66666666667	0.9	626.666666666667	13	553218	1	553206	27	40	553245	-999999	553220	0	8	TrialsPROC	TO_004_TOOL4_BA.png	1	2	28	SessionSelectionList														nonlure	3	Tools	2-Back	24	80	22	0	0	90	7	40	349129	1	13	58	347089	-1	347830	1	741	3	3	2040	53	349142	-54	0										3						28												
WM080112	106016_fnca	1	1	1	1608727263	1	75.031	75.031	2.0.10.147	2.0.10.242	2.0.10.242	1.0.0.439	7	234	2	3	Verdana	1	80	0	0	0	WM Stimuli\	0.7	1384.57142857143	0.7	1035.71428571429	1	1053.3	0.9	917.666666666667	0.9	920.333333333333	1	688.2	0.9	1044.66666666667	0.9	626.666666666667	13	553218	1	553206	27	40	553245	-999999	553220	0	8	TrialsPROC	TO_002_TOOL2_BA.png	1	2	29	SessionSelectionList														target	2	Tools	2-Back	25	80	23	0	0	90	1	40	351688	1	13	59	349648	-1	350913	1	1265	2	2	2040	53	351701	-54	0										4						29												
WM080112	106016_fnca	1	1	1	1608727263	1	75.031	75.031	2.0.10.147	2.0.10.242	2.0.10.242	1.0.0.439	7	234	2	3	Verdana	1	80	0	0	0	WM Stimuli\	0.7	1384.57142857143	0.7	1035.71428571429	1	1053.3	0.9	917.666666666667	0.9	920.333333333333	1	688.2	0.9	1044.66666666667	0.9	626.666666666667	13	553218	1	553206	27	40	553245	-999999	553220	0	8	TrialsPROC	TO_001_TOOL1_BA.png	1	2	30	SessionSelectionList														lure	3	Tools	2-Back	26	80	24	0	0	90	1	40	354247	1	13	59	352207	-1	353395	1	1188	3	3	2040	53	354260	-54	0										5						30												
WM080112	106016_fnca	1	1	1	1608727263	1	75.031	75.031	2.0.10.147	2.0.10.242	2.0.10.242	1.0.0.439	7	234	2	3	Verdana	1	80	0	0	0	WM Stimuli\	0.7	1384.57142857143	0.7	1035.71428571429	1	1053.3	0.9	917.666666666667	0.9	920.333333333333	1	688.2	0.9	1044.66666666667	0.9	626.666666666667	13	553218	1	553206	27	40	553245	-999999	553220	0	8	TrialsPROC	TO_004_TOOL4_BA.png	1	2	31	SessionSelectionList														lure	3	Tools	2-Back	27	80	25	0	0	90	1	39	356805	3	14	59	354766	-1	356633	0	1867	2	3	2039	53	356819	-54	0										6						31												
WM080112	106016_fnca	1	1	1	1608727263	1	75.031	75.031	2.0.10.147	2.0.10.242	2.0.10.242	1.0.0.439	7	234	2	3	Verdana	1	80	0	0	0	WM Stimuli\	0.7	1384.57142857143	0.7	1035.71428571429	1	1053.3	0.9	917.666666666667	0.9	920.333333333333	1	688.2	0.9	1044.66666666667	0.9	626.666666666667	13	553218	1	553206	27	40	553245	-999999	553220	0	8	TrialsPROC	TO_006_TOOL6_BA.png	1	2	32	SessionSelectionList														nonlure	3	Tools	2-Back	28	80	26	0	0	90	1	39	359364	2	14	59	357325	-1	358977	1	1652	3	3	2039	53	359378	-54	0										7						32												
WM080112	106016_fnca	1	1	1	1608727263	1	75.031	75.031	2.0.10.147	2.0.10.242	2.0.10.242	1.0.0.439	7	234	2	3	Verdana	1	80	0	0	0	WM Stimuli\	0.7	1384.57142857143	0.7	1035.71428571429	1	1053.3	0.9	917.666666666667	0.9	920.333333333333	1	688.2	0.9	1044.66666666667	0.9	626.666666666667	13	553218	1	553206	27	40	553245	-999999	553220	0	8	TrialsPROC	TO_005_TOOL5_BA.png	1	2	33	SessionSelectionList														nonlure	3	Tools	2-Back	29	80	27	0	0	90	2	39	361923	2	14	59	359884	-1	360956	1	1072	3	3	2039	53	361937	-54	0										8						33												
WM080112	106016_fnca	1	1	1	1608727263	1	75.031	75.031	2.0.10.147	2.0.10.242	2.0.10.242	1.0.0.439	7	234	2	3	Verdana	1	80	0	0	0	WM Stimuli\	0.7	1384.57142857143	0.7	1035.71428571429	1	1053.3	0.9	917.666666666667	0.9	920.333333333333	1	688.2	0.9	1044.66666666667	0.9	626.666666666667	13	553218	1	553206	27	40	553245	-999999	553220	0	8	TrialsPROC	TO_006_TOOL6_BA.png	1	2	34	SessionSelectionList														target	2	Tools	2-Back	30	80	28	0	0	90	1	39	364482	2	14	59	362443	-1	363018	1	575	2	2	2039	53	364496	-54	0										9						34												
WM080112	106016_fnca	1	1	1	1608727263	1	75.031	75.031	2.0.10.147	2.0.10.242	2.0.10.242	1.0.0.439	7	234	2	3	Verdana	1	80	0	0	0	WM Stimuli\	0.7	1384.57142857143	0.7	1035.71428571429	1	1053.3	0.9	917.666666666667	0.9	920.333333333333	1	688.2	0.9	1044.66666666667	0.9	626.666666666667	13	553218	1	553206	27	40	553245	-999999	553220	0	8	TrialsPROC	TO_003_TOOL3_BA.png	1	2	35	SessionSelectionList														nonlure	3	Tools	2-Back	31	80	29	0	0	90	1	39	367041	2	14	59	365002	-1	365713	1	711	3	3	2039	53	367055	-54	0										10						35												
WM080112	106016_fnca	1	1	1	1608727263	1	75.031	75.031	2.0.10.147	2.0.10.242	2.0.10.242	1.0.0.439	7	234	2	3	Verdana	1	80	0	0	0	WM Stimuli\	0.7	1384.57142857143	0.7	1035.71428571429	1	1053.3	0.9	917.666666666667	0.9	920.333333333333	1	688.2	0.9	1044.66666666667	0.9	626.666666666667	13	553218	1	553206	27	40	553245	-999999	553220	0	9	Cue0BackPROC	BP_007_BP20_BA.png	1	2	36	SessionSelectionList																																										19	367521	-20	0												36												
WM080112	106016_fnca	1	1	1	1608727263	1	75.031	75.031	2.0.10.147	2.0.10.242	2.0.10.242	1.0.0.439	7	234	2	3	Verdana	1	80	0	0	0	WM Stimuli\	0.7	1384.57142857143	0.7	1035.71428571429	1	1053.3	0.9	917.666666666667	0.9	920.333333333333	1	688.2	0.9	1044.66666666667	0.9	626.666666666667	13	553218	1	553206	27	40	553245	-999999	553220	0	10	TrialsPROC	BP_007_BP20_BA.png	1	2	37	SessionSelectionList														target	2	Body	0-Back	32	80	30	0	0	91	1	40	372093	1	13	51	370053	-1	371113	1	1060	2	2	2040	53	372106	-54	0											1					37												
WM080112	106016_fnca	1	1	1	1608727263	1	75.031	75.031	2.0.10.147	2.0.10.242	2.0.10.242	1.0.0.439	7	234	2	3	Verdana	1	80	0	0	0	WM Stimuli\	0.7	1384.57142857143	0.7	1035.71428571429	1	1053.3	0.9	917.666666666667	0.9	920.333333333333	1	688.2	0.9	1044.66666666667	0.9	626.666666666667	13	553218	1	553206	27	40	553245	-999999	553220	0	10	TrialsPROC	BP_011_BP4_BA.png	1	2	38	SessionSelectionList														nonlure	3	Body	0-Back	33	80	31	0	0	92	1	39	374651	2	14	59	372612	-1	374494	1	1882	3	3	2039	53	374665	-54	0											2					38												
WM080112	106016_fnca	1	1	1	1608727263	1	75.031	75.031	2.0.10.147	2.0.10.242	2.0.10.242	1.0.0.439	7	234	2	3	Verdana	1	80	0	0	0	WM Stimuli\	0.7	1384.57142857143	0.7	1035.71428571429	1	1053.3	0.9	917.666666666667	0.9	920.333333333333	1	688.2	0.9	1044.66666666667	0.9	626.666666666667	13	553218	1	553206	27	40	553245	-999999	553220	0	10	TrialsPROC	BP_010_BP3_BA.png	1	2	39	SessionSelectionList														nonlure	3	Body	0-Back	34	80	32	0	0	92	2	39	377210	2	14	59	375171	-1	376060	1	889	3	3	2039	53	377224	-54	0											3					39												
WM080112	106016_fnca	1	1	1	1608727263	1	75.031	75.031	2.0.10.147	2.0.10.242	2.0.10.242	1.0.0.439	7	234	2	3	Verdana	1	80	0	0	0	WM Stimuli\	0.7	1384.57142857143	0.7	1035.71428571429	1	1053.3	0.9	917.666666666667	0.9	920.333333333333	1	688.2	0.9	1044.66666666667	0.9	626.666666666667	13	553218	1	553206	27	40	553245	-999999	553220	0	10	TrialsPROC	BP_008_BP21_BA.png	1	2	40	SessionSelectionList														nonlure	3	Body	0-Back	35	80	33	0	0	93	3	39	379769	2	14	59	377730	-1	378427	1	697	3	3	2039	53	379783	-54	0											4					40												
WM080112	106016_fnca	1	1	1	1608727263	1	75.031	75.031	2.0.10.147	2.0.10.242	2.0.10.242	1.0.0.439	7	234	2	3	Verdana	1	80	0	0	0	WM Stimuli\	0.7	1384.57142857143	0.7	1035.71428571429	1	1053.3	0.9	917.666666666667	0.9	920.333333333333	1	688.2	0.9	1044.66666666667	0.9	626.666666666667	13	553218	1	553206	27	40	553245	-999999	553220	0	10	TrialsPROC	BP_011_BP4_BA.png	1	2	41	SessionSelectionList														lure	3	Body	0-Back	36	80	34	0	0	87	1	38	382328	2	14	60	380290	-1	381722	0	1432	2	3	2038	52	382342	-53	0											5					41												
WM080112	106016_fnca	1	1	1	1608727263	1	75.031	75.031	2.0.10.147	2.0.10.242	2.0.10.242	1.0.0.439	7	234	2	3	Verdana	1	80	0	0	0	WM Stimuli\	0.7	1384.57142857143	0.7	1035.71428571429	1	1053.3	0.9	917.666666666667	0.9	920.333333333333	1	688.2	0.9	1044.66666666667	0.9	626.666666666667	13	553218	1	553206	27	40	553245	-999999	553220	0	10	TrialsPROC	BP_009_BP22_BA.png	1	2	42	SessionSelectionList														nonlure	3	Body	0-Back	37	80	35	0	0	88	1	39	384887	2	14	58	382848	-1	384113	1	1265	3	3	2039	53	384901	-54	0											6					42												
WM080112	106016_fnca	1	1	1	1608727263	1	75.031	75.031	2.0.10.147	2.0.10.242	2.0.10.242	1.0.0.439	7	234	2	3	Verdana	1	80	0	0	0	WM Stimuli\	0.7	1384.57142857143	0.7	1035.71428571429	1	1053.3	0.9	917.666666666667	0.9	920.333333333333	1	688.2	0.9	1044.66666666667	0.9	626.666666666667	13	553218	1	553206	27	40	553245	-999999	553220	0	10	TrialsPROC	BP_009_BP22_BA.png	1	2	43	SessionSelectionList														lure	3	Body	0-Back	38	80	36	0	0	88	2	39	387446	2	14	59	385407	-1	385949	1	542	3	3	2039	53	387460	-54	0											7					43												
WM080112	106016_fnca	1	1	1	1608727263	1	75.031	75.031	2.0.10.147	2.0.10.242	2.0.10.242	1.0.0.439	7	234	2	3	Verdana	1	80	0	0	0	WM Stimuli\	0.7	1384.57142857143	0.7	1035.71428571429	1	1053.3	0.9	917.666666666667	0.9	920.333333333333	1	688.2	0.9	1044.66666666667	0.9	626.666666666667	13	553218	1	553206	27	40	553245	-999999	553220	0	10	TrialsPROC	BP_008_BP21_BA.png	1	2	44	SessionSelectionList														lure	3	Body	0-Back	39	80	36	0	1	83	2	39	390005	2	14	59	387966	-1	0	0	0	""	3	2039	53	390019	-54	0											8					44												
WM080112	106016_fnca	1	1	1	1608727263	1	75.031	75.031	2.0.10.147	2.0.10.242	2.0.10.242	1.0.0.439	7	234	2	3	Verdana	1	80	0	0	0	WM Stimuli\	0.7	1384.57142857143	0.7	1035.71428571429	1	1053.3	0.9	917.666666666667	0.9	920.333333333333	1	688.2	0.9	1044.66666666667	0.9	626.666666666667	13	553218	1	553206	27	40	553245	-999999	553220	0	10	TrialsPROC	BP_007_BP20_BA.png	1	2	45	SessionSelectionList														target	2	Body	0-Back	40	80	37	0	0	79	1	39	392564	2	14	59	390525	-1	391996	0	1471	3	2	2039	53	392578	-54	0											9					45												
WM080112	106016_fnca	1	1	1	1608727263	1	75.031	75.031	2.0.10.147	2.0.10.242	2.0.10.242	1.0.0.439	7	234	2	3	Verdana	1	80	0	0	0	WM Stimuli\	0.7	1384.57142857143	0.7	1035.71428571429	1	1053.3	0.9	917.666666666667	0.9	920.333333333333	1	688.2	0.9	1044.66666666667	0.9	626.666666666667	13	553218	1	553206	27	40	553245	-999999	553220	0	10	TrialsPROC	BP_012_BP5_BA.png	1	2	46	SessionSelectionList														nonlure	3	Body	0-Back	41	80	38	0	0	80	2	39	395123	1	14	59	393084	-1	393999	1	915	3	3	2039	53	395137	-54	0											10					46												
WM080112	106016_fnca	1	1	1	1608727263	1	75.031	75.031	2.0.10.147	2.0.10.242	2.0.10.242	1.0.0.439	7	234	2	3	Verdana	1	80	0	0	0	WM Stimuli\	0.7	1384.57142857143	0.7	1035.71428571429	1	1053.3	0.9	917.666666666667	0.9	920.333333333333	1	688.2	0.9	1044.66666666667	0.9	626.666666666667	13	553218	1	553206	27	40	553245	-999999	553220	0	11	Fix15secPROC	""	1	2	47	SessionSelectionList																																															6	395590	-7	0							47												
WM080112	106016_fnca	1	1	1	1608727263	1	75.031	75.031	2.0.10.147	2.0.10.242	2.0.10.242	1.0.0.439	7	234	2	3	Verdana	1	80	0	0	0	WM Stimuli\	0.7	1384.57142857143	0.7	1035.71428571429	1	1053.3	0.9	917.666666666667	0.9	920.333333333333	1	688.2	0.9	1044.66666666667	0.9	626.666666666667	13	553218	1	553206	27	40	553245	-999999	553220	0	12	Cue0BackPROC	PL_001_92012.png	1	2	48	SessionSelectionList																																										13	410597	-14	0												48												
WM080112	106016_fnca	1	1	1	1608727263	1	75.031	75.031	2.0.10.147	2.0.10.242	2.0.10.242	1.0.0.439	7	234	2	3	Verdana	1	80	0	0	0	WM Stimuli\	0.7	1384.57142857143	0.7	1035.71428571429	1	1053.3	0.9	917.666666666667	0.9	920.333333333333	1	688.2	0.9	1044.66666666667	0.9	626.666666666667	13	553218	1	553206	27	40	553245	-999999	553220	0	13	TrialsPROC	PL_003_92016.png	1	2	49	SessionSelectionList														nonlure	3	Place	0-Back	42	80	39	0	0	81	3	39	415181	2	14	58	413142	-1	414168	1	1026	3	3	2039	53	415195	-54	0												1				49												
WM080112	106016_fnca	1	1	1	1608727263	1	75.031	75.031	2.0.10.147	2.0.10.242	2.0.10.242	1.0.0.439	7	234	2	3	Verdana	1	80	0	0	0	WM Stimuli\	0.7	1384.57142857143	0.7	1035.71428571429	1	1053.3	0.9	917.666666666667	0.9	920.333333333333	1	688.2	0.9	1044.66666666667	0.9	626.666666666667	13	553218	1	553206	27	40	553245	-999999	553220	0	13	TrialsPROC	PL_003_92016.png	1	2	50	SessionSelectionList														lure	3	Place	0-Back	43	80	40	0	0	82	4	39	417740	2	14	59	415701	-1	416199	1	498	3	3	2039	53	417754	-54	0												2				50												
WM080112	106016_fnca	1	1	1	1608727263	1	75.031	75.031	2.0.10.147	2.0.10.242	2.0.10.242	1.0.0.439	7	234	2	3	Verdana	1	80	0	0	0	WM Stimuli\	0.7	1384.57142857143	0.7	1035.71428571429	1	1053.3	0.9	917.666666666667	0.9	920.333333333333	1	688.2	0.9	1044.66666666667	0.9	626.666666666667	13	553218	1	553206	27	40	553245	-999999	553220	0	13	TrialsPROC	PL_006_92025.png	1	2	51	SessionSelectionList														nonlure	3	Place	0-Back	44	80	41	0	0	83	5	39	420299	2	14	59	418260	-1	418895	1	635	3	3	2039	53	420313	-54	0												3				51												
WM080112	106016_fnca	1	1	1	1608727263	1	75.031	75.031	2.0.10.147	2.0.10.242	2.0.10.242	1.0.0.439	7	234	2	3	Verdana	1	80	0	0	0	WM Stimuli\	0.7	1384.57142857143	0.7	1035.71428571429	1	1053.3	0.9	917.666666666667	0.9	920.333333333333	1	688.2	0.9	1044.66666666667	0.9	626.666666666667	13	553218	1	553206	27	40	553245	-999999	553220	0	13	TrialsPROC	PL_001_92012.png	1	2	52	SessionSelectionList														target	2	Place	0-Back	45	80	42	0	0	83	1	39	422858	2	14	59	420819	-1	422035	1	1216	2	2	2039	53	422872	-54	0												4				52												
WM080112	106016_fnca	1	1	1	1608727263	1	75.031	75.031	2.0.10.147	2.0.10.242	2.0.10.242	1.0.0.439	7	234	2	3	Verdana	1	80	0	0	0	WM Stimuli\	0.7	1384.57142857143	0.7	1035.71428571429	1	1053.3	0.9	917.666666666667	0.9	920.333333333333	1	688.2	0.9	1044.66666666667	0.9	626.666666666667	13	553218	1	553206	27	40	553245	-999999	553220	0	13	TrialsPROC	PL_004_92023.png	1	2	53	SessionSelectionList														nonlure	3	Place	0-Back	46	80	43	0	0	84	1	40	425431	2	13	72	423391	-1	423888	1	497	3	3	2040	53	425444	-54	0												5				53												
WM080112	106016_fnca	1	1	1	1608727263	1	75.031	75.031	2.0.10.147	2.0.10.242	2.0.10.242	1.0.0.439	7	234	2	3	Verdana	1	80	0	0	0	WM Stimuli\	0.7	1384.57142857143	0.7	1035.71428571429	1	1053.3	0.9	917.666666666667	0.9	920.333333333333	1	688.2	0.9	1044.66666666667	0.9	626.666666666667	13	553218	1	553206	27	40	553245	-999999	553220	0	13	TrialsPROC	PL_005_92024.png	1	2	54	SessionSelectionList														nonlure	3	Place	0-Back	47	80	44	0	0	85	2	39	427989	2	14	59	425950	-1	426513	1	563	3	3	2039	53	428003	-54	0												6				54												
WM080112	106016_fnca	1	1	1	1608727263	1	75.031	75.031	2.0.10.147	2.0.10.242	2.0.10.242	1.0.0.439	7	234	2	3	Verdana	1	80	0	0	0	WM Stimuli\	0.7	1384.57142857143	0.7	1035.71428571429	1	1053.3	0.9	917.666666666667	0.9	920.333333333333	1	688.2	0.9	1044.66666666667	0.9	626.666666666667	13	553218	1	553206	27	40	553245	-999999	553220	0	13	TrialsPROC	PL_001_92012.png	1	2	55	SessionSelectionList														target	2	Place	0-Back	48	80	45	0	0	85	1	39	430562	1	13	73	428523	-1	429248	1	725	2	2	2039	52	430575	-53	0												7				55												
WM080112	106016_fnca	1	1	1	1608727263	1	75.031	75.031	2.0.10.147	2.0.10.242	2.0.10.242	1.0.0.439	7	234	2	3	Verdana	1	80	0	0	0	WM Stimuli\	0.7	1384.57142857143	0.7	1035.71428571429	1	1053.3	0.9	917.666666666667	0.9	920.333333333333	1	688.2	0.9	1044.66666666667	0.9	626.666666666667	13	553218	1	553206	27	40	553245	-999999	553220	0	13	TrialsPROC	PL_002_92014.png	1	2	56	SessionSelectionList														nonlure	3	Place	0-Back	49	80	46	0	0	86	1	39	433134	2	14	72	431095	-1	431820	1	725	3	3	2039	53	433148	-54	0												8				56												
WM080112	106016_fnca	1	1	1	1608727263	1	75.031	75.031	2.0.10.147	2.0.10.242	2.0.10.242	1.0.0.439	7	234	2	3	Verdana	1	80	0	0	0	WM Stimuli\	0.7	1384.57142857143	0.7	1035.71428571429	1	1053.3	0.9	917.666666666667	0.9	920.333333333333	1	688.2	0.9	1044.66666666667	0.9	626.666666666667	13	553218	1	553206	27	40	553245	-999999	553220	0	13	TrialsPROC	PL_004_92023.png	1	2	57	SessionSelectionList														lure	3	Place	0-Back	50	80	47	0	0	86	2	39	435693	1	14	59	433654	-1	434193	1	539	3	3	2039	53	435707	-54	0												9				57												
WM080112	106016_fnca	1	1	1	1608727263	1	75.031	75.031	2.0.10.147	2.0.10.242	2.0.10.242	1.0.0.439	7	234	2	3	Verdana	1	80	0	0	0	WM Stimuli\	0.7	1384.57142857143	0.7	1035.71428571429	1	1053.3	0.9	917.666666666667	0.9	920.333333333333	1	688.2	0.9	1044.66666666667	0.9	626.666666666667	13	553218	1	553206	27	40	553245	-999999	553220	0	13	TrialsPROC	PL_006_92025.png	1	2	58	SessionSelectionList														lure	3	Place	0-Back	51	80	48	0	0	87	3	39	438265	2	14	72	436226	-1	436684	1	458	3	3	2039	53	438279	-54	0												10				58												
WM080112	106016_fnca	1	1	1	1608727263	1	75.031	75.031	2.0.10.147	2.0.10.242	2.0.10.242	1.0.0.439	7	234	2	3	Verdana	1	80	0	0	0	WM Stimuli\	0.7	1384.57142857143	0.7	1035.71428571429	1	1053.3	0.9	917.666666666667	0.9	920.333333333333	1	688.2	0.9	1044.66666666667	0.9	626.666666666667	13	553218	1	553206	27	40	553245	-999999	553220	0	14	Cue2BackPROC	""	1	2	59	SessionSelectionList									6	438732	-7	0																																													59												
WM080112	106016_fnca	1	1	1	1608727263	1	75.031	75.031	2.0.10.147	2.0.10.242	2.0.10.242	1.0.0.439	7	234	2	3	Verdana	1	80	0	0	0	WM Stimuli\	0.7	1384.57142857143	0.7	1035.71428571429	1	1053.3	0.9	917.666666666667	0.9	920.333333333333	1	688.2	0.9	1044.66666666667	0.9	626.666666666667	13	553218	1	553206	27	40	553245	-999999	553220	0	15	TrialsPROC	FC_010_F5.png	1	2	60	SessionSelectionList														nonlure	3	Face	2-Back	52	80	49	0	0	87	4	39	443330	1	13	65	441291	-1	442410	1	1119	3	3	2039	52	443343	-53	0													1			60												
WM080112	106016_fnca	1	1	1	1608727263	1	75.031	75.031	2.0.10.147	2.0.10.242	2.0.10.242	1.0.0.439	7	234	2	3	Verdana	1	80	0	0	0	WM Stimuli\	0.7	1384.57142857143	0.7	1035.71428571429	1	1053.3	0.9	917.666666666667	0.9	920.333333333333	1	688.2	0.9	1044.66666666667	0.9	626.666666666667	13	553218	1	553206	27	40	553245	-999999	553220	0	15	TrialsPROC	FC_012_F6.png	1	2	61	SessionSelectionList														nonlure	3	Face	2-Back	53	80	50	0	0	87	5	39	445902	1	14	72	443863	-1	444731	1	868	3	3	2039	53	445916	-54	0													2			61												
WM080112	106016_fnca	1	1	1	1608727263	1	75.031	75.031	2.0.10.147	2.0.10.242	2.0.10.242	1.0.0.439	7	234	2	3	Verdana	1	80	0	0	0	WM Stimuli\	0.7	1384.57142857143	0.7	1035.71428571429	1	1053.3	0.9	917.666666666667	0.9	920.333333333333	1	688.2	0.9	1044.66666666667	0.9	626.666666666667	13	553218	1	553206	27	40	553245	-999999	553220	0	15	TrialsPROC	FC_010_F5.png	1	2	62	SessionSelectionList														target	2	Face	2-Back	54	80	51	0	0	87	1	39	448474	2	14	72	446435	-1	447017	1	582	2	2	2039	53	448488	-54	0													3			62												
WM080112	106016_fnca	1	1	1	1608727263	1	75.031	75.031	2.0.10.147	2.0.10.242	2.0.10.242	1.0.0.439	7	234	2	3	Verdana	1	80	0	0	0	WM Stimuli\	0.7	1384.57142857143	0.7	1035.71428571429	1	1053.3	0.9	917.666666666667	0.9	920.333333333333	1	688.2	0.9	1044.66666666667	0.9	626.666666666667	13	553218	1	553206	27	40	553245	-999999	553220	0	15	TrialsPROC	FC_008_F4.png	1	2	63	SessionSelectionList														nonlure	3	Face	2-Back	55	80	52	0	0	87	1	40	451047	1	13	72	449007	-1	449882	1	875	3	3	2040	53	451060	-54	0													4			63												
WM080112	106016_fnca	1	1	1	1608727263	1	75.031	75.031	2.0.10.147	2.0.10.242	2.0.10.242	1.0.0.439	7	234	2	3	Verdana	1	80	0	0	0	WM Stimuli\	0.7	1384.57142857143	0.7	1035.71428571429	1	1053.3	0.9	917.666666666667	0.9	920.333333333333	1	688.2	0.9	1044.66666666667	0.9	626.666666666667	13	553218	1	553206	27	40	553245	-999999	553220	0	15	TrialsPROC	FC_012_F6.png	1	2	64	SessionSelectionList														lure	3	Face	2-Back	56	80	53	0	0	87	2	39	453619	1	14	73	451580	-1	452992	1	1412	3	3	2039	53	453633	-54	0													5			64												
WM080112	106016_fnca	1	1	1	1608727263	1	75.031	75.031	2.0.10.147	2.0.10.242	2.0.10.242	1.0.0.439	7	234	2	3	Verdana	1	80	0	0	0	WM Stimuli\	0.7	1384.57142857143	0.7	1035.71428571429	1	1053.3	0.9	917.666666666667	0.9	920.333333333333	1	688.2	0.9	1044.66666666667	0.9	626.666666666667	13	553218	1	553206	27	40	553245	-999999	553220	0	15	TrialsPROC	FC_008_F4.png	1	2	65	SessionSelectionList														target	2	Face	2-Back	57	80	54	0	0	87	1	39	456191	2	14	72	454152	-1	455760	1	1608	2	2	2039	53	456205	-54	0													6			65												
WM080112	106016_fnca	1	1	1	1608727263	1	75.031	75.031	2.0.10.147	2.0.10.242	2.0.10.242	1.0.0.439	7	234	2	3	Verdana	1	80	0	0	0	WM Stimuli\	0.7	1384.57142857143	0.7	1035.71428571429	1	1053.3	0.9	917.666666666667	0.9	920.333333333333	1	688.2	0.9	1044.66666666667	0.9	626.666666666667	13	553218	1	553206	27	40	553245	-999999	553220	0	15	TrialsPROC	FC_007_M4.png	1	2	66	SessionSelectionList														nonlure	3	Face	2-Back	58	80	55	0	0	87	1	39	458763	2	14	72	456724	-1	458021	1	1297	3	3	2039	53	458777	-54	0													7			66												
WM080112	106016_fnca	1	1	1	1608727263	1	75.031	75.031	2.0.10.147	2.0.10.242	2.0.10.242	1.0.0.439	7	234	2	3	Verdana	1	80	0	0	0	WM Stimuli\	0.7	1384.57142857143	0.7	1035.71428571429	1	1053.3	0.9	917.666666666667	0.9	920.333333333333	1	688.2	0.9	1044.66666666667	0.9	626.666666666667	13	553218	1	553206	27	40	553245	-999999	553220	0	15	TrialsPROC	FC_007_M4.png	1	2	67	SessionSelectionList														lure	3	Face	2-Back	59	80	56	0	0	87	2	39	461336	1	13	73	459297	-1	460174	1	877	3	3	2039	52	461349	-53	0													8			67												
WM080112	106016_fnca	1	1	1	1608727263	1	75.031	75.031	2.0.10.147	2.0.10.242	2.0.10.242	1.0.0.439	7	234	2	3	Verdana	1	80	0	0	0	WM Stimuli\	0.7	1384.57142857143	0.7	1035.71428571429	1	1053.3	0.9	917.666666666667	0.9	920.333333333333	1	688.2	0.9	1044.66666666667	0.9	626.666666666667	13	553218	1	553206	27	40	553245	-999999	553220	0	15	TrialsPROC	FC_009_M5.png	1	2	68	SessionSelectionList														nonlure	3	Face	2-Back	60	80	57	0	0	87	3	39	463908	1	14	72	461869	-1	462747	1	878	3	3	2039	53	463922	-54	0													9			68												
WM080112	106016_fnca	1	1	1	1608727263	1	75.031	75.031	2.0.10.147	2.0.10.242	2.0.10.242	1.0.0.439	7	234	2	3	Verdana	1	80	0	0	0	WM Stimuli\	0.7	1384.57142857143	0.7	1035.71428571429	1	1053.3	0.9	917.666666666667	0.9	920.333333333333	1	688.2	0.9	1044.66666666667	0.9	626.666666666667	13	553218	1	553206	27	40	553245	-999999	553220	0	15	TrialsPROC	FC_011_M6.png	1	2	69	SessionSelectionList														nonlure	3	Face	2-Back	61	80	58	0	0	87	4	39	466480	2	14	72	464441	-1	465458	1	1017	3	3	2039	53	466494	-54	0													10			69												
WM080112	106016_fnca	1	1	1	1608727263	1	75.031	75.031	2.0.10.147	2.0.10.242	2.0.10.242	1.0.0.439	7	234	2	3	Verdana	1	80	0	0	0	WM Stimuli\	0.7	1384.57142857143	0.7	1035.71428571429	1	1053.3	0.9	917.666666666667	0.9	920.333333333333	1	688.2	0.9	1044.66666666667	0.9	626.666666666667	13	553218	1	553206	27	40	553245	-999999	553220	0	16	Fix15secPROC	""	1	2	70	SessionSelectionList																																															6	466947	-7	0							70												
WM080112	106016_fnca	1	1	1	1608727263	1	75.031	75.031	2.0.10.147	2.0.10.242	2.0.10.242	1.0.0.439	7	234	2	3	Verdana	1	80	0	0	0	WM Stimuli\	0.7	1384.57142857143	0.7	1035.71428571429	1	1053.3	0.9	917.666666666667	0.9	920.333333333333	1	688.2	0.9	1044.66666666667	0.9	626.666666666667	13	553218	1	553206	27	40	553245	-999999	553220	0	17	Cue0BackPROC	TO_007_TOOL7_BA.png	1	2	71	SessionSelectionList																																										13	481954	-14	0												71												
WM080112	106016_fnca	1	1	1	1608727263	1	75.031	75.031	2.0.10.147	2.0.10.242	2.0.10.242	1.0.0.439	7	234	2	3	Verdana	1	80	0	0	0	WM Stimuli\	0.7	1384.57142857143	0.7	1035.71428571429	1	1053.3	0.9	917.666666666667	0.9	920.333333333333	1	688.2	0.9	1044.66666666667	0.9	626.666666666667	13	553218	1	553206	27	40	553245	-999999	553220	0	18	TrialsPROC	TO_010_TOOL10_BA.png	1	2	72	SessionSelectionList														nonlure	3	Tools	0-Back	62	80	59	0	0	87	5	39	486539	1	13	59	484500	-1	485261	1	761	3	3	2039	52	486552	-53	0														1		72												
WM080112	106016_fnca	1	1	1	1608727263	1	75.031	75.031	2.0.10.147	2.0.10.242	2.0.10.242	1.0.0.439	7	234	2	3	Verdana	1	80	0	0	0	WM Stimuli\	0.7	1384.57142857143	0.7	1035.71428571429	1	1053.3	0.9	917.666666666667	0.9	920.333333333333	1	688.2	0.9	1044.66666666667	0.9	626.666666666667	13	553218	1	553206	27	40	553245	-999999	553220	0	18	TrialsPROC	TO_009_TOOL9_BA.png	1	2	73	SessionSelectionList														nonlure	3	Tools	0-Back	63	80	60	0	0	88	6	40	489098	1	13	58	487058	-1	487498	1	440	3	3	2040	53	489111	-54	0														2		73												
WM080112	106016_fnca	1	1	1	1608727263	1	75.031	75.031	2.0.10.147	2.0.10.242	2.0.10.242	1.0.0.439	7	234	2	3	Verdana	1	80	0	0	0	WM Stimuli\	0.7	1384.57142857143	0.7	1035.71428571429	1	1053.3	0.9	917.666666666667	0.9	920.333333333333	1	688.2	0.9	1044.66666666667	0.9	626.666666666667	13	553218	1	553206	27	40	553245	-999999	553220	0	18	TrialsPROC	TO_009_TOOL9_BA.png	1	2	74	SessionSelectionList														lure	3	Tools	0-Back	64	80	61	0	0	88	7	40	491657	1	13	59	489617	-1	490071	1	454	3	3	2040	53	491670	-54	0														3		74												
WM080112	106016_fnca	1	1	1	1608727263	1	75.031	75.031	2.0.10.147	2.0.10.242	2.0.10.242	1.0.0.439	7	234	2	3	Verdana	1	80	0	0	0	WM Stimuli\	0.7	1384.57142857143	0.7	1035.71428571429	1	1053.3	0.9	917.666666666667	0.9	920.333333333333	1	688.2	0.9	1044.66666666667	0.9	626.666666666667	13	553218	1	553206	27	40	553245	-999999	553220	0	18	TrialsPROC	TO_008_TOOL8_BA.png	1	2	75	SessionSelectionList														nonlure	3	Tools	0-Back	65	80	62	0	0	88	8	40	494216	1	13	59	492176	-1	492693	1	517	3	3	2040	53	494229	-54	0														4		75												
WM080112	106016_fnca	1	1	1	1608727263	1	75.031	75.031	2.0.10.147	2.0.10.242	2.0.10.242	1.0.0.439	7	234	2	3	Verdana	1	80	0	0	0	WM Stimuli\	0.7	1384.57142857143	0.7	1035.71428571429	1	1053.3	0.9	917.666666666667	0.9	920.333333333333	1	688.2	0.9	1044.66666666667	0.9	626.666666666667	13	553218	1	553206	27	40	553245	-999999	553220	0	18	TrialsPROC	TO_011_TOOL11_BA.png	1	2	76	SessionSelectionList														nonlure	3	Tools	0-Back	66	80	63	0	0	89	9	39	496774	2	14	59	494735	-1	495207	1	472	3	3	2039	53	496788	-54	0														5		76												
WM080112	106016_fnca	1	1	1	1608727263	1	75.031	75.031	2.0.10.147	2.0.10.242	2.0.10.242	1.0.0.439	7	234	2	3	Verdana	1	80	0	0	0	WM Stimuli\	0.7	1384.57142857143	0.7	1035.71428571429	1	1053.3	0.9	917.666666666667	0.9	920.333333333333	1	688.2	0.9	1044.66666666667	0.9	626.666666666667	13	553218	1	553206	27	40	553245	-999999	553220	0	18	TrialsPROC	TO_012_TOOL12_BA.png	1	2	77	SessionSelectionList														nonlure	3	Tools	0-Back	67	80	64	0	0	89	10	39	499333	2	14	59	497294	-1	497762	1	468	3	3	2039	53	499347	-54	0														6		77												
WM080112	106016_fnca	1	1	1	1608727263	1	75.031	75.031	2.0.10.147	2.0.10.242	2.0.10.242	1.0.0.439	7	234	2	3	Verdana	1	80	0	0	0	WM Stimuli\	0.7	1384.57142857143	0.7	1035.71428571429	1	1053.3	0.9	917.666666666667	0.9	920.333333333333	1	688.2	0.9	1044.66666666667	0.9	626.666666666667	13	553218	1	553206	27	40	553245	-999999	553220	0	18	TrialsPROC	TO_010_TOOL10_BA.png	1	2	78	SessionSelectionList														lure	3	Tools	0-Back	68	80	65	0	0	89	11	39	501892	2	14	59	499853	-1	500426	1	573	3	3	2039	53	501906	-54	0														7		78												
WM080112	106016_fnca	1	1	1	1608727263	1	75.031	75.031	2.0.10.147	2.0.10.242	2.0.10.242	1.0.0.439	7	234	2	3	Verdana	1	80	0	0	0	WM Stimuli\	0.7	1384.57142857143	0.7	1035.71428571429	1	1053.3	0.9	917.666666666667	0.9	920.333333333333	1	688.2	0.9	1044.66666666667	0.9	626.666666666667	13	553218	1	553206	27	40	553245	-999999	553220	0	18	TrialsPROC	TO_007_TOOL7_BA.png	1	2	79	SessionSelectionList														target	2	Tools	0-Back	69	80	66	0	0	87	12	39	504451	2	14	59	502412	-1	503437	0	1025	3	2	2039	53	504465	-54	0														8		79												
WM080112	106016_fnca	1	1	1	1608727263	1	75.031	75.031	2.0.10.147	2.0.10.242	2.0.10.242	1.0.0.439	7	234	2	3	Verdana	1	80	0	0	0	WM Stimuli\	0.7	1384.57142857143	0.7	1035.71428571429	1	1053.3	0.9	917.666666666667	0.9	920.333333333333	1	688.2	0.9	1044.66666666667	0.9	626.666666666667	13	553218	1	553206	27	40	553245	-999999	553220	0	18	TrialsPROC	TO_008_TOOL8_BA.png	1	2	80	SessionSelectionList														lure	3	Tools	0-Back	70	80	67	0	0	87	13	39	507010	2	14	59	504971	-1	505429	1	458	3	3	2039	53	507024	-54	0														9		80												
WM080112	106016_fnca	1	1	1	1608727263	1	75.031	75.031	2.0.10.147	2.0.10.242	2.0.10.242	1.0.0.439	7	234	2	3	Verdana	1	80	0	0	0	WM Stimuli\	0.7	1384.57142857143	0.7	1035.71428571429	1	1053.3	0.9	917.666666666667	0.9	920.333333333333	1	688.2	0.9	1044.66666666667	0.9	626.666666666667	13	553218	1	553206	27	40	553245	-999999	553220	0	18	TrialsPROC	TO_007_TOOL7_BA.png	1	2	81	SessionSelectionList														target	2	Tools	0-Back	71	80	68	0	0	88	1	39	509569	2	14	59	507530	-1	509027	1	1497	2	2	2039	53	509583	-54	0														10		81												
WM080112	106016_fnca	1	1	1	1608727263	1	75.031	75.031	2.0.10.147	2.0.10.242	2.0.10.242	1.0.0.439	7	234	2	3	Verdana	1	80	0	0	0	WM Stimuli\	0.7	1384.57142857143	0.7	1035.71428571429	1	1053.3	0.9	917.666666666667	0.9	920.333333333333	1	688.2	0.9	1044.66666666667	0.9	626.666666666667	13	553218	1	553206	27	40	553245	-999999	553220	0	19	Cue2BackPROC	""	1	2	82	SessionSelectionList									6	510036	-7	0																																													82												
WM080112	106016_fnca	1	1	1	1608727263	1	75.031	75.031	2.0.10.147	2.0.10.242	2.0.10.242	1.0.0.439	7	234	2	3	Verdana	1	80	0	0	0	WM Stimuli\	0.7	1384.57142857143	0.7	1035.71428571429	1	1053.3	0.9	917.666666666667	0.9	920.333333333333	1	688.2	0.9	1044.66666666667	0.9	626.666666666667	13	553218	1	553206	27	40	553245	-999999	553220	0	20	TrialsPROC	PL_007_92026.png	1	2	83	SessionSelectionList														nonlure	3	Place	2-Back	72	80	68	0	1	88	1	39	514620	2	14	51	512581	-1	0	0	0	""	3	2039	53	514634	-54	0															1	83												
WM080112	106016_fnca	1	1	1	1608727263	1	75.031	75.031	2.0.10.147	2.0.10.242	2.0.10.242	1.0.0.439	7	234	2	3	Verdana	1	80	0	0	0	WM Stimuli\	0.7	1384.57142857143	0.7	1035.71428571429	1	1053.3	0.9	917.666666666667	0.9	920.333333333333	1	688.2	0.9	1044.66666666667	0.9	626.666666666667	13	553218	1	553206	27	40	553245	-999999	553220	0	20	TrialsPROC	PL_007_92026.png	1	2	84	SessionSelectionList														lure	3	Place	2-Back	73	80	69	0	0	88	1	39	517193	1	13	73	515154	-1	516119	1	965	3	3	2039	52	517206	-53	0															2	84												
WM080112	106016_fnca	1	1	1	1608727263	1	75.031	75.031	2.0.10.147	2.0.10.242	2.0.10.242	1.0.0.439	7	234	2	3	Verdana	1	80	0	0	0	WM Stimuli\	0.7	1384.57142857143	0.7	1035.71428571429	1	1053.3	0.9	917.666666666667	0.9	920.333333333333	1	688.2	0.9	1044.66666666667	0.9	626.666666666667	13	553218	1	553206	27	40	553245	-999999	553220	0	20	TrialsPROC	PL_010_92038.png	1	2	85	SessionSelectionList														nonlure	3	Place	2-Back	74	80	70	0	0	88	2	39	519765	1	14	72	517726	-1	518619	1	893	3	3	2039	53	519779	-54	0															3	85												
WM080112	106016_fnca	1	1	1	1608727263	1	75.031	75.031	2.0.10.147	2.0.10.242	2.0.10.242	1.0.0.439	7	234	2	3	Verdana	1	80	0	0	0	WM Stimuli\	0.7	1384.57142857143	0.7	1035.71428571429	1	1053.3	0.9	917.666666666667	0.9	920.333333333333	1	688.2	0.9	1044.66666666667	0.9	626.666666666667	13	553218	1	553206	27	40	553245	-999999	553220	0	20	TrialsPROC	PL_009_92037.png	1	2	86	SessionSelectionList														nonlure	3	Place	2-Back	75	80	71	0	0	88	3	39	522324	1	14	59	520285	-1	521147	1	862	3	3	2039	53	522338	-54	0															4	86												
WM080112	106016_fnca	1	1	1	1608727263	1	75.031	75.031	2.0.10.147	2.0.10.242	2.0.10.242	1.0.0.439	7	234	2	3	Verdana	1	80	0	0	0	WM Stimuli\	0.7	1384.57142857143	0.7	1035.71428571429	1	1053.3	0.9	917.666666666667	0.9	920.333333333333	1	688.2	0.9	1044.66666666667	0.9	626.666666666667	13	553218	1	553206	27	40	553245	-999999	553220	0	20	TrialsPROC	PL_010_92038.png	1	2	87	SessionSelectionList														target	2	Place	2-Back	76	80	72	0	0	88	1	39	524883	1	14	59	522844	-1	523696	1	852	2	2	2039	53	524897	-54	0															5	87												
WM080112	106016_fnca	1	1	1	1608727263	1	75.031	75.031	2.0.10.147	2.0.10.242	2.0.10.242	1.0.0.439	7	234	2	3	Verdana	1	80	0	0	0	WM Stimuli\	0.7	1384.57142857143	0.7	1035.71428571429	1	1053.3	0.9	917.666666666667	0.9	920.333333333333	1	688.2	0.9	1044.66666666667	0.9	626.666666666667	13	553218	1	553206	27	40	553245	-999999	553220	0	20	TrialsPROC	PL_009_92037.png	1	2	88	SessionSelectionList														target	2	Place	2-Back	77	80	73	0	0	88	2	39	527455	2	14	72	525416	-1	526411	1	995	2	2	2039	53	527469	-54	0															6	88												
WM080112	106016_fnca	1	1	1	1608727263	1	75.031	75.031	2.0.10.147	2.0.10.242	2.0.10.242	1.0.0.439	7	234	2	3	Verdana	1	80	0	0	0	WM Stimuli\	0.7	1384.57142857143	0.7	1035.71428571429	1	1053.3	0.9	917.666666666667	0.9	920.333333333333	1	688.2	0.9	1044.66666666667	0.9	626.666666666667	13	553218	1	553206	27	40	553245	-999999	553220	0	20	TrialsPROC	PL_008_92033.png	1	2	89	SessionSelectionList														nonlure	3	Place	2-Back	78	80	74	0	0	88	1	39	530027	2	14	72	527988	-1	528999	1	1011	3	3	2039	53	530041	-54	0															7	89												
WM080112	106016_fnca	1	1	1	1608727263	1	75.031	75.031	2.0.10.147	2.0.10.242	2.0.10.242	1.0.0.439	7	234	2	3	Verdana	1	80	0	0	0	WM Stimuli\	0.7	1384.57142857143	0.7	1035.71428571429	1	1053.3	0.9	917.666666666667	0.9	920.333333333333	1	688.2	0.9	1044.66666666667	0.9	626.666666666667	13	553218	1	553206	27	40	553245	-999999	553220	0	20	TrialsPROC	PL_012_92047.png	1	2	90	SessionSelectionList														nonlure	3	Place	2-Back	79	80	75	0	0	88	2	39	532600	1	13	73	530561	-1	531423	1	862	3	3	2039	52	532613	-53	0															8	90												
WM080112	106016_fnca	1	1	1	1608727263	1	75.031	75.031	2.0.10.147	2.0.10.242	2.0.10.242	1.0.0.439	7	234	2	3	Verdana	1	80	0	0	0	WM Stimuli\	0.7	1384.57142857143	0.7	1035.71428571429	1	1053.3	0.9	917.666666666667	0.9	920.333333333333	1	688.2	0.9	1044.66666666667	0.9	626.666666666667	13	553218	1	553206	27	40	553245	-999999	553220	0	20	TrialsPROC	PL_012_92047.png	1	2	91	SessionSelectionList														lure	3	Place	2-Back	80	80	76	0	0	88	3	39	535172	1	14	72	533133	-1	534085	1	952	3	3	2039	53	535186	-54	0															9	91												
WM080112	106016_fnca	1	1	1	1608727263	1	75.031	75.031	2.0.10.147	2.0.10.242	2.0.10.242	1.0.0.439	7	234	2	3	Verdana	1	80	0	0	0	WM Stimuli\	0.7	1384.57142857143	0.7	1035.71428571429	1	1053.3	0.9	917.666666666667	0.9	920.333333333333	1	688.2	0.9	1044.66666666667	0.9	626.666666666667	13	553218	1	553206	27	40	553245	-999999	553220	0	20	TrialsPROC	PL_011_92044.png	1	2	92	SessionSelectionList														nonlure	3	Place	2-Back	80	80	77	0	0	88	4	39	537744	2	14	72	535705	-1	536596	1	891	3	3	2039	53	537758	-54	0															10	92												
WM080112	106016_fnca	1	1	1	1608727263	1	75.031	75.031	2.0.10.147	2.0.10.242	2.0.10.242	1.0.0.439	7	234	2	3	Verdana	1	80	0	0	0	WM Stimuli\	0.7	1384.57142857143	0.7	1035.71428571429	1	1053.3	0.9	917.666666666667	0.9	920.333333333333	1	688.2	0.9	1044.66666666667	0.9	626.666666666667	13	553218	1	553206	27	40	553245	-999999	553220	0	21	Fix15secPROC	""	1	2	93	SessionSelectionList																																															6	538211	-7	0							93												
