ExperimentName	HCPID	RunNumber	Subject	Session	RandomSeed	Group	Laptop.RefreshRate	ScannerD2.RefreshRate	StudioVersion	RuntimeVersion	RuntimeVersionExpected	ExperimentVersion	triggercode	Allowed	Target	Nontarget	FontStyle	RunTrialNumber[Session]	TrialsPerRun[Session]	TotalRespGreater200[Session]	ConsecRTLess200[Session]	ConsecNonResp[Session]	StimuliDir	ACC_2_Back_Body	Avg_RT_For_Correct_Trials_2_Back_Body	ACC_0_Back_Body	Avg_RT_For_Correct_Trials_0_Back_Body	ACC_2_Back_Face	Avg_RT_For_Correct_Trials_2_Back_Face	ACC_0_Back_Face	Avg_RT_For_Correct_Trials_0_Back_Face	ACC_2_Back_Place	Avg_RT_For_Correct_Trials_2_Back_Place	ACC_0_Back_Place	Avg_RT_For_Correct_Trials_0_Back_Place	ACC_2_Back_Tools	Avg_RT_For_Correct_Trials_2_Back_Tools	ACC_0_Back_Tools	Avg_RT_For_Correct_Trials_0_Back_Tools	ExpInstrucFeelFreeToRest.OnsetDelay	ExpInstrucFeelFreeToRest.OnsetTime	ExpInstrucFeelFreeToRest.DurationError	ExpInstrucFeelFreeToRest.StartTime	ExpInstrucFeelFreeToRest.OnsetToOnsetTime	FeelFreeToRest.OnsetDelay	FeelFreeToRest.OnsetTime	FeelFreeToRest.DurationError	FeelFreeToRest.StartTime	FeelFreeToRest.OnsetToOnsetTime	SessionSelectionList	Procedure[Block]	Stimulus[Block]	RunNumberFilterValue	SessionSelectionList.Cycle	SessionSelectionList.Sample	Running[Block]	IntroButtonMap.OnsetDelay	IntroButtonMap.OnsetTime	IntroButtonMap.DurationError	IntroButtonMap.OnsetToOnsetTime	GetReady.OnsetDelay	GetReady.OnsetTime	GetReady.DurationError	GetReady.OnsetToOnsetTime	Cue2Back.OnsetDelay	Cue2Back.OnsetTime	Cue2Back.DurationError	Cue2Back.OnsetToOnsetTime	Run1Block1	TargetType	CorrectResponse	StimType	BlockType	RunTrialNumber[Block]	TrialsPerRun[Block]	TotalRespGreater200[Block]	ConsecRTLess200[Block]	ConsecNonResp[Block]	ControlAcc	ConsecSameResp	ExperimenterWindow.OnsetDelay	ExperimenterWindow.OnsetTime	ExperimenterWindow.DurationError	ExperimenterWindow.OnsetToOnsetTime	Stim.OnsetDelay	Stim.OnsetTime	Stim.DurationError	Stim.RTTime	Stim.ACC	Stim.RT	Stim.RESP	Stim.CRESP	Stim.OnsetToOnsetTime	Fix.OnsetDelay	Fix.OnsetTime	Fix.DurationError	Fix.OnsetToOnsetTime	CueTarget.OnsetDelay	CueTarget.OnsetTime	CueTarget.DurationError	CueTarget.OnsetToOnsetTime	Run1Block2	Fix15sec.OnsetDelay	Fix15sec.OnsetTime	Fix15sec.DurationError	Fix15sec.OnsetToOnsetTime	Run1Block3	Run1Block4	Run1Block5	Run1Block6	Run1Block7	Run1Block8	Block	Procedure[Trial]	Stimulus[Trial]	ReadyList	Running[Trial]	ReadyList.Cycle	ReadyList.Sample	SyncSlide.OnsetDelay	SyncSlide.OnsetTime	SyncSlide.DurationError	SyncSlide.FinishTime	SyncSlide.OnsetToOnsetTime	Trial
WM080112	140925_fnca	1	1	1	-1203865036	1	75.031	75.031	2.0.10.147	2.0.10.242	2.0.10.242	1.0.0.439	7	234	2	3	Verdana	1	80	0	0	0	WM Stimuli\	0.7	1435.14285714286	0.9	1126.77777777778	0.8	1195.875	0.9	940.555555555556	0.8	914.5	0.7	993.714285714286	0.9	998.222222222222	0.7	1002.57142857143	13	453599	3	453587	14	27	453613	-999999	453602	0	1	TRSyncPROC	""	1	2	1	SessionSelectionList	112	13938	-999999	0	37	147857	-999999	0																																																	1	InitialTR	4	1	ReadyList	1	1	13	160332	-14	162318	0	1
WM080112	140925_fnca	1	1	1	-1203865036	1	75.031	75.031	2.0.10.147	2.0.10.242	2.0.10.242	1.0.0.439	7	234	2	3	Verdana	1	80	0	0	0	WM Stimuli\	0.7	1435.14285714286	0.9	1126.77777777778	0.8	1195.875	0.9	940.555555555556	0.8	914.5	0.7	993.714285714286	0.9	998.222222222222	0.7	1002.57142857143	13	453599	3	453587	14	27	453613	-999999	453602	0	1	TRSyncPROC	""	1	2	1	SessionSelectionList	112	13938	-999999	0	37	147857	-999999	0																																																	1	InitialTR	3	2	ReadyList	1	2	12	162331	-13	164318	0	2
WM080112	140925_fnca	1	1	1	-1203865036	1	75.031	75.031	2.0.10.147	2.0.10.242	2.0.10.242	1.0.0.439	7	234	2	3	Verdana	1	80	0	0	0	WM Stimuli\	0.7	1435.14285714286	0.9	1126.77777777778	0.8	1195.875	0.9	940.555555555556	0.8	914.5	0.7	993.714285714286	0.9	998.222222222222	0.7	1002.57142857143	13	453599	3	453587	14	27	453613	-999999	453602	0	1	TRSyncPROC	""	1	2	1	SessionSelectionList	112	13938	-999999	0	37	147857	-999999	0																																																	1	InitialTR	2	3	ReadyList	1	3	11	164330	-12	166318	0	3
WM080112	140925_fnca	1	1	1	-1203865036	1	75.031	75.031	2.0.10.147	2.0.10.242	2.0.10.242	1.0.0.439	7	234	2	3	Verdana	1	80	0	0	0	WM Stimuli\	0.7	1435.14285714286	0.9	1126.77777777778	0.8	1195.875	0.9	940.555555555556	0.8	914.5	0.7	993.714285714286	0.9	998.222222222222	0.7	1002.57142857143	13	453599	3	453587	14	27	453613	-999999	453602	0	1	TRSyncPROC	""	1	2	1	SessionSelectionList	112	13938	-999999	0	37	147857	-999999	0																																																	1	InitialTR	1	4	ReadyList	1	4	10	166329	-11	168318	0	4
WM080112	140925_fnca	1	1	1	-1203865036	1	75.031	75.031	2.0.10.147	2.0.10.242	2.0.10.242	1.0.0.439	7	234	2	3	Verdana	1	80	0	0	0	WM Stimuli\	0.7	1435.14285714286	0.9	1126.77777777778	0.8	1195.875	0.9	940.555555555556	0.8	914.5	0.7	993.714285714286	0.9	998.222222222222	0.7	1002.57142857143	13	453599	3	453587	14	27	453613	-999999	453602	0	2	Cue2BackPROC	""	1	2	2	SessionSelectionList									9	168328	-10	0																																													2												
WM080112	140925_fnca	1	1	1	-1203865036	1	75.031	75.031	2.0.10.147	2.0.10.242	2.0.10.242	1.0.0.439	7	234	2	3	Verdana	1	80	0	0	0	WM Stimuli\	0.7	1435.14285714286	0.9	1126.77777777778	0.8	1195.875	0.9	940.555555555556	0.8	914.5	0.7	993.714285714286	0.9	998.222222222222	0.7	1002.57142857143	13	453599	3	453587	14	27	453613	-999999	453602	0	3	TrialsPROC	BP_002_BP10_BA.png	1	2	3	SessionSelectionList													1	nonlure	3	Body	2-Back	2	80	1	0	0	0	1	52	172953	3	14	82	170901	-1	172543	1	1642	3	3	2052	66	172967	-67	0																3												
WM080112	140925_fnca	1	1	1	-1203865036	1	75.031	75.031	2.0.10.147	2.0.10.242	2.0.10.242	1.0.0.439	7	234	2	3	Verdana	1	80	0	0	0	WM Stimuli\	0.7	1435.14285714286	0.9	1126.77777777778	0.8	1195.875	0.9	940.555555555556	0.8	914.5	0.7	993.714285714286	0.9	998.222222222222	0.7	1002.57142857143	13	453599	3	453587	14	27	453613	-999999	453602	0	3	TrialsPROC	BP_001_BP1_BA.png	1	2	4	SessionSelectionList													2	nonlure	3	Body	2-Back	3	80	2	0	0	0	2	39	175512	3	14	72	173473	-1	174510	1	1037	3	3	2039	53	175526	-54	0																4												
WM080112	140925_fnca	1	1	1	-1203865036	1	75.031	75.031	2.0.10.147	2.0.10.242	2.0.10.242	1.0.0.439	7	234	2	3	Verdana	1	80	0	0	0	WM Stimuli\	0.7	1435.14285714286	0.9	1126.77777777778	0.8	1195.875	0.9	940.555555555556	0.8	914.5	0.7	993.714285714286	0.9	998.222222222222	0.7	1002.57142857143	13	453599	3	453587	14	27	453613	-999999	453602	0	3	TrialsPROC	BP_006_BP2_BA.png	1	2	5	SessionSelectionList													3	nonlure	3	Body	2-Back	4	80	3	0	0	0	1	39	178071	3	14	59	176032	-1	177683	0	1651	2	3	2039	53	178085	-54	0																5												
WM080112	140925_fnca	1	1	1	-1203865036	1	75.031	75.031	2.0.10.147	2.0.10.242	2.0.10.242	1.0.0.439	7	234	2	3	Verdana	1	80	0	0	0	WM Stimuli\	0.7	1435.14285714286	0.9	1126.77777777778	0.8	1195.875	0.9	940.555555555556	0.8	914.5	0.7	993.714285714286	0.9	998.222222222222	0.7	1002.57142857143	13	453599	3	453587	14	27	453613	-999999	453602	0	3	TrialsPROC	BP_001_BP1_BA.png	1	2	6	SessionSelectionList													4	target	2	Body	2-Back	5	80	4	0	0	0	2	39	180643	3	14	72	178604	-1	180310	1	1706	2	2	2039	53	180657	-54	0																6												
WM080112	140925_fnca	1	1	1	-1203865036	1	75.031	75.031	2.0.10.147	2.0.10.242	2.0.10.242	1.0.0.439	7	234	2	3	Verdana	1	80	0	0	0	WM Stimuli\	0.7	1435.14285714286	0.9	1126.77777777778	0.8	1195.875	0.9	940.555555555556	0.8	914.5	0.7	993.714285714286	0.9	998.222222222222	0.7	1002.57142857143	13	453599	3	453587	14	27	453613	-999999	453602	0	3	TrialsPROC	BP_005_BP19_BA.png	1	2	7	SessionSelectionList													5	nonlure	3	Body	2-Back	6	80	5	0	0	0	1	39	183216	1	13	73	181177	-1	182513	1	1336	3	3	2039	52	183229	-53	0																7												
WM080112	140925_fnca	1	1	1	-1203865036	1	75.031	75.031	2.0.10.147	2.0.10.242	2.0.10.242	1.0.0.439	7	234	2	3	Verdana	1	80	0	0	0	WM Stimuli\	0.7	1435.14285714286	0.9	1126.77777777778	0.8	1195.875	0.9	940.555555555556	0.8	914.5	0.7	993.714285714286	0.9	998.222222222222	0.7	1002.57142857143	13	453599	3	453587	14	27	453613	-999999	453602	0	3	TrialsPROC	BP_003_BP16_BA.png	1	2	8	SessionSelectionList													6	nonlure	3	Body	2-Back	7	80	6	0	0	0	2	40	185775	1	13	58	183735	-1	185397	1	1662	3	3	2040	53	185788	-54	0																8												
WM080112	140925_fnca	1	1	1	-1203865036	1	75.031	75.031	2.0.10.147	2.0.10.242	2.0.10.242	1.0.0.439	7	234	2	3	Verdana	1	80	0	0	0	WM Stimuli\	0.7	1435.14285714286	0.9	1126.77777777778	0.8	1195.875	0.9	940.555555555556	0.8	914.5	0.7	993.714285714286	0.9	998.222222222222	0.7	1002.57142857143	13	453599	3	453587	14	27	453613	-999999	453602	0	3	TrialsPROC	BP_006_BP2_BA.png	1	2	9	SessionSelectionList													7	lure	3	Body	2-Back	8	80	7	0	0	0	1	40	188334	1	13	59	186294	-1	187567	0	1273	2	3	2040	53	188347	-54	0																9												
WM080112	140925_fnca	1	1	1	-1203865036	1	75.031	75.031	2.0.10.147	2.0.10.242	2.0.10.242	1.0.0.439	7	234	2	3	Verdana	1	80	0	0	0	WM Stimuli\	0.7	1435.14285714286	0.9	1126.77777777778	0.8	1195.875	0.9	940.555555555556	0.8	914.5	0.7	993.714285714286	0.9	998.222222222222	0.7	1002.57142857143	13	453599	3	453587	14	27	453613	-999999	453602	0	3	TrialsPROC	BP_004_BP18_BA.png	1	2	10	SessionSelectionList													8	nonlure	3	Body	2-Back	9	80	8	0	0	0	1	40	190893	1	13	59	188853	-1	189735	1	882	3	3	2040	53	190906	-54	0																10												
WM080112	140925_fnca	1	1	1	-1203865036	1	75.031	75.031	2.0.10.147	2.0.10.242	2.0.10.242	1.0.0.439	7	234	2	3	Verdana	1	80	0	0	0	WM Stimuli\	0.7	1435.14285714286	0.9	1126.77777777778	0.8	1195.875	0.9	940.555555555556	0.8	914.5	0.7	993.714285714286	0.9	998.222222222222	0.7	1002.57142857143	13	453599	3	453587	14	27	453613	-999999	453602	0	3	TrialsPROC	BP_005_BP19_BA.png	1	2	11	SessionSelectionList													9	lure	3	Body	2-Back	10	80	9	0	0	0	2	39	193465	1	14	73	191426	-1	193207	1	1781	3	3	2039	53	193479	-54	0																11												
WM080112	140925_fnca	1	1	1	-1203865036	1	75.031	75.031	2.0.10.147	2.0.10.242	2.0.10.242	1.0.0.439	7	234	2	3	Verdana	1	80	0	0	0	WM Stimuli\	0.7	1435.14285714286	0.9	1126.77777777778	0.8	1195.875	0.9	940.555555555556	0.8	914.5	0.7	993.714285714286	0.9	998.222222222222	0.7	1002.57142857143	13	453599	3	453587	14	27	453613	-999999	453602	0	3	TrialsPROC	BP_004_BP18_BA.png	1	2	12	SessionSelectionList													10	target	2	Body	2-Back	11	80	10	0	0	0	3	39	196024	2	14	59	193985	-1	195191	0	1206	3	2	2039	53	196038	-54	0																12												
WM080112	140925_fnca	1	1	1	-1203865036	1	75.031	75.031	2.0.10.147	2.0.10.242	2.0.10.242	1.0.0.439	7	234	2	3	Verdana	1	80	0	0	0	WM Stimuli\	0.7	1435.14285714286	0.9	1126.77777777778	0.8	1195.875	0.9	940.555555555556	0.8	914.5	0.7	993.714285714286	0.9	998.222222222222	0.7	1002.57142857143	13	453599	3	453587	14	27	453613	-999999	453602	0	4	Cue0BackPROC	FC_001_M1.png	1	2	13	SessionSelectionList																																										19	196504	-20	0												13												
WM080112	140925_fnca	1	1	1	-1203865036	1	75.031	75.031	2.0.10.147	2.0.10.242	2.0.10.242	1.0.0.439	7	234	2	3	Verdana	1	80	0	0	0	WM Stimuli\	0.7	1435.14285714286	0.9	1126.77777777778	0.8	1195.875	0.9	940.555555555556	0.8	914.5	0.7	993.714285714286	0.9	998.222222222222	0.7	1002.57142857143	13	453599	3	453587	14	27	453613	-999999	453602	0	5	TrialsPROC	FC_005_M3.png	1	2	14	SessionSelectionList														nonlure	3	Face	0-Back	12	80	11	0	0	100	4	39	201088	3	14	64	199049	-1	200409	1	1360	3	3	2039	53	201102	-54	0					1											14												
WM080112	140925_fnca	1	1	1	-1203865036	1	75.031	75.031	2.0.10.147	2.0.10.242	2.0.10.242	1.0.0.439	7	234	2	3	Verdana	1	80	0	0	0	WM Stimuli\	0.7	1435.14285714286	0.9	1126.77777777778	0.8	1195.875	0.9	940.555555555556	0.8	914.5	0.7	993.714285714286	0.9	998.222222222222	0.7	1002.57142857143	13	453599	3	453587	14	27	453613	-999999	453602	0	5	TrialsPROC	FC_001_M1.png	1	2	15	SessionSelectionList														target	2	Face	0-Back	13	80	12	0	0	100	1	39	203661	1	13	73	201622	-1	202366	1	744	2	2	2039	52	203674	-53	0					2											15												
WM080112	140925_fnca	1	1	1	-1203865036	1	75.031	75.031	2.0.10.147	2.0.10.242	2.0.10.242	1.0.0.439	7	234	2	3	Verdana	1	80	0	0	0	WM Stimuli\	0.7	1435.14285714286	0.9	1126.77777777778	0.8	1195.875	0.9	940.555555555556	0.8	914.5	0.7	993.714285714286	0.9	998.222222222222	0.7	1002.57142857143	13	453599	3	453587	14	27	453613	-999999	453602	0	5	TrialsPROC	FC_003_M2.png	1	2	16	SessionSelectionList														nonlure	3	Face	0-Back	14	80	13	0	0	100	1	39	206233	3	14	72	204194	-1	204823	1	629	3	3	2039	53	206247	-54	0					3											16												
WM080112	140925_fnca	1	1	1	-1203865036	1	75.031	75.031	2.0.10.147	2.0.10.242	2.0.10.242	1.0.0.439	7	234	2	3	Verdana	1	80	0	0	0	WM Stimuli\	0.7	1435.14285714286	0.9	1126.77777777778	0.8	1195.875	0.9	940.555555555556	0.8	914.5	0.7	993.714285714286	0.9	998.222222222222	0.7	1002.57142857143	13	453599	3	453587	14	27	453613	-999999	453602	0	5	TrialsPROC	FC_004_F2.png	1	2	17	SessionSelectionList														nonlure	3	Face	0-Back	15	80	14	0	0	100	2	39	208805	3	14	72	206766	-1	207556	1	790	3	3	2039	53	208819	-54	0					4											17												
WM080112	140925_fnca	1	1	1	-1203865036	1	75.031	75.031	2.0.10.147	2.0.10.242	2.0.10.242	1.0.0.439	7	234	2	3	Verdana	1	80	0	0	0	WM Stimuli\	0.7	1435.14285714286	0.9	1126.77777777778	0.8	1195.875	0.9	940.555555555556	0.8	914.5	0.7	993.714285714286	0.9	998.222222222222	0.7	1002.57142857143	13	453599	3	453587	14	27	453613	-999999	453602	0	5	TrialsPROC	FC_004_F2.png	1	2	18	SessionSelectionList														lure	3	Face	0-Back	16	80	15	0	0	100	3	40	211378	2	13	72	209338	-1	210870	1	1532	3	3	2040	53	211391	-54	0					5											18												
WM080112	140925_fnca	1	1	1	-1203865036	1	75.031	75.031	2.0.10.147	2.0.10.242	2.0.10.242	1.0.0.439	7	234	2	3	Verdana	1	80	0	0	0	WM Stimuli\	0.7	1435.14285714286	0.9	1126.77777777778	0.8	1195.875	0.9	940.555555555556	0.8	914.5	0.7	993.714285714286	0.9	998.222222222222	0.7	1002.57142857143	13	453599	3	453587	14	27	453613	-999999	453602	0	5	TrialsPROC	FC_001_M1.png	1	2	19	SessionSelectionList														target	2	Face	0-Back	17	80	16	0	0	100	1	39	213950	2	14	73	211911	-1	212872	1	961	2	2	2039	53	213964	-54	0					6											19												
WM080112	140925_fnca	1	1	1	-1203865036	1	75.031	75.031	2.0.10.147	2.0.10.242	2.0.10.242	1.0.0.439	7	234	2	3	Verdana	1	80	0	0	0	WM Stimuli\	0.7	1435.14285714286	0.9	1126.77777777778	0.8	1195.875	0.9	940.555555555556	0.8	914.5	0.7	993.714285714286	0.9	998.222222222222	0.7	1002.57142857143	13	453599	3	453587	14	27	453613	-999999	453602	0	5	TrialsPROC	FC_006_F3.png	1	2	20	SessionSelectionList														nonlure	3	Face	0-Back	18	80	17	0	0	100	1	39	216522	3	14	72	214483	-1	215454	1	971	3	3	2039	53	216536	-54	0					7											20												
WM080112	140925_fnca	1	1	1	-1203865036	1	75.031	75.031	2.0.10.147	2.0.10.242	2.0.10.242	1.0.0.439	7	234	2	3	Verdana	1	80	0	0	0	WM Stimuli\	0.7	1435.14285714286	0.9	1126.77777777778	0.8	1195.875	0.9	940.555555555556	0.8	914.5	0.7	993.714285714286	0.9	998.222222222222	0.7	1002.57142857143	13	453599	3	453587	14	27	453613	-999999	453602	0	5	TrialsPROC	FC_006_F3.png	1	2	21	SessionSelectionList														lure	3	Face	0-Back	19	80	18	0	0	100	2	39	219094	3	14	72	217055	-1	217813	1	758	3	3	2039	53	219108	-54	0					8											21												
WM080112	140925_fnca	1	1	1	-1203865036	1	75.031	75.031	2.0.10.147	2.0.10.242	2.0.10.242	1.0.0.439	7	234	2	3	Verdana	1	80	0	0	0	WM Stimuli\	0.7	1435.14285714286	0.9	1126.77777777778	0.8	1195.875	0.9	940.555555555556	0.8	914.5	0.7	993.714285714286	0.9	998.222222222222	0.7	1002.57142857143	13	453599	3	453587	14	27	453613	-999999	453602	0	5	TrialsPROC	FC_003_M2.png	1	2	22	SessionSelectionList														lure	3	Face	0-Back	20	80	19	0	0	89	1	39	221667	1	13	73	219628	-1	220387	0	759	2	3	2039	52	221680	-53	0					9											22												
WM080112	140925_fnca	1	1	1	-1203865036	1	75.031	75.031	2.0.10.147	2.0.10.242	2.0.10.242	1.0.0.439	7	234	2	3	Verdana	1	80	0	0	0	WM Stimuli\	0.7	1435.14285714286	0.9	1126.77777777778	0.8	1195.875	0.9	940.555555555556	0.8	914.5	0.7	993.714285714286	0.9	998.222222222222	0.7	1002.57142857143	13	453599	3	453587	14	27	453613	-999999	453602	0	5	TrialsPROC	FC_002_F1.png	1	2	23	SessionSelectionList														nonlure	3	Face	0-Back	21	80	20	0	0	90	1	39	224239	3	14	72	222200	-1	222920	1	720	3	3	2039	53	224253	-54	0					10											23												
WM080112	140925_fnca	1	1	1	-1203865036	1	75.031	75.031	2.0.10.147	2.0.10.242	2.0.10.242	1.0.0.439	7	234	2	3	Verdana	1	80	0	0	0	WM Stimuli\	0.7	1435.14285714286	0.9	1126.77777777778	0.8	1195.875	0.9	940.555555555556	0.8	914.5	0.7	993.714285714286	0.9	998.222222222222	0.7	1002.57142857143	13	453599	3	453587	14	27	453613	-999999	453602	0	6	Fix15secPROC	""	1	2	24	SessionSelectionList																																															6	224706	-7	0							24												
WM080112	140925_fnca	1	1	1	-1203865036	1	75.031	75.031	2.0.10.147	2.0.10.242	2.0.10.242	1.0.0.439	7	234	2	3	Verdana	1	80	0	0	0	WM Stimuli\	0.7	1435.14285714286	0.9	1126.77777777778	0.8	1195.875	0.9	940.555555555556	0.8	914.5	0.7	993.714285714286	0.9	998.222222222222	0.7	1002.57142857143	13	453599	3	453587	14	27	453613	-999999	453602	0	7	Cue2BackPROC	""	1	2	25	SessionSelectionList									13	239713	-14	0																																													25												
WM080112	140925_fnca	1	1	1	-1203865036	1	75.031	75.031	2.0.10.147	2.0.10.242	2.0.10.242	1.0.0.439	7	234	2	3	Verdana	1	80	0	0	0	WM Stimuli\	0.7	1435.14285714286	0.9	1126.77777777778	0.8	1195.875	0.9	940.555555555556	0.8	914.5	0.7	993.714285714286	0.9	998.222222222222	0.7	1002.57142857143	13	453599	3	453587	14	27	453613	-999999	453602	0	8	TrialsPROC	TO_001_TOOL1_BA.png	1	2	26	SessionSelectionList														nonlure	3	Tools	2-Back	22	80	21	0	0	90	2	40	244298	1	13	58	242258	-1	243672	1	1414	3	3	2040	53	244311	-54	0										1						26												
WM080112	140925_fnca	1	1	1	-1203865036	1	75.031	75.031	2.0.10.147	2.0.10.242	2.0.10.242	1.0.0.439	7	234	2	3	Verdana	1	80	0	0	0	WM Stimuli\	0.7	1435.14285714286	0.9	1126.77777777778	0.8	1195.875	0.9	940.555555555556	0.8	914.5	0.7	993.714285714286	0.9	998.222222222222	0.7	1002.57142857143	13	453599	3	453587	14	27	453613	-999999	453602	0	8	TrialsPROC	TO_002_TOOL2_BA.png	1	2	27	SessionSelectionList														nonlure	3	Tools	2-Back	23	80	22	0	0	90	3	40	246857	1	13	59	244817	-1	245892	1	1075	3	3	2040	53	246870	-54	0										2						27												
WM080112	140925_fnca	1	1	1	-1203865036	1	75.031	75.031	2.0.10.147	2.0.10.242	2.0.10.242	1.0.0.439	7	234	2	3	Verdana	1	80	0	0	0	WM Stimuli\	0.7	1435.14285714286	0.9	1126.77777777778	0.8	1195.875	0.9	940.555555555556	0.8	914.5	0.7	993.714285714286	0.9	998.222222222222	0.7	1002.57142857143	13	453599	3	453587	14	27	453613	-999999	453602	0	8	TrialsPROC	TO_004_TOOL4_BA.png	1	2	28	SessionSelectionList														nonlure	3	Tools	2-Back	24	80	23	0	0	90	4	40	249416	1	13	59	247376	-1	248448	1	1072	3	3	2040	53	249429	-54	0										3						28												
WM080112	140925_fnca	1	1	1	-1203865036	1	75.031	75.031	2.0.10.147	2.0.10.242	2.0.10.242	1.0.0.439	7	234	2	3	Verdana	1	80	0	0	0	WM Stimuli\	0.7	1435.14285714286	0.9	1126.77777777778	0.8	1195.875	0.9	940.555555555556	0.8	914.5	0.7	993.714285714286	0.9	998.222222222222	0.7	1002.57142857143	13	453599	3	453587	14	27	453613	-999999	453602	0	8	TrialsPROC	TO_002_TOOL2_BA.png	1	2	29	SessionSelectionList														target	2	Tools	2-Back	25	80	24	0	0	90	1	39	251974	3	14	59	249935	-1	250695	1	760	2	2	2039	53	251988	-54	0										4						29												
WM080112	140925_fnca	1	1	1	-1203865036	1	75.031	75.031	2.0.10.147	2.0.10.242	2.0.10.242	1.0.0.439	7	234	2	3	Verdana	1	80	0	0	0	WM Stimuli\	0.7	1435.14285714286	0.9	1126.77777777778	0.8	1195.875	0.9	940.555555555556	0.8	914.5	0.7	993.714285714286	0.9	998.222222222222	0.7	1002.57142857143	13	453599	3	453587	14	27	453613	-999999	453602	0	8	TrialsPROC	TO_001_TOOL1_BA.png	1	2	30	SessionSelectionList														lure	3	Tools	2-Back	26	80	25	0	0	90	1	39	254533	3	14	59	252494	-1	253191	1	697	3	3	2039	53	254547	-54	0										5						30												
WM080112	140925_fnca	1	1	1	-1203865036	1	75.031	75.031	2.0.10.147	2.0.10.242	2.0.10.242	1.0.0.439	7	234	2	3	Verdana	1	80	0	0	0	WM Stimuli\	0.7	1435.14285714286	0.9	1126.77777777778	0.8	1195.875	0.9	940.555555555556	0.8	914.5	0.7	993.714285714286	0.9	998.222222222222	0.7	1002.57142857143	13	453599	3	453587	14	27	453613	-999999	453602	0	8	TrialsPROC	TO_004_TOOL4_BA.png	1	2	31	SessionSelectionList														lure	3	Tools	2-Back	27	80	26	0	0	90	1	39	257092	2	14	59	255053	-1	255770	0	717	2	3	2039	53	257106	-54	0										6						31												
WM080112	140925_fnca	1	1	1	-1203865036	1	75.031	75.031	2.0.10.147	2.0.10.242	2.0.10.242	1.0.0.439	7	234	2	3	Verdana	1	80	0	0	0	WM Stimuli\	0.7	1435.14285714286	0.9	1126.77777777778	0.8	1195.875	0.9	940.555555555556	0.8	914.5	0.7	993.714285714286	0.9	998.222222222222	0.7	1002.57142857143	13	453599	3	453587	14	27	453613	-999999	453602	0	8	TrialsPROC	TO_006_TOOL6_BA.png	1	2	32	SessionSelectionList														nonlure	3	Tools	2-Back	28	80	27	0	0	90	1	39	259651	2	14	59	257612	-1	258494	1	882	3	3	2039	53	259665	-54	0										7						32												
WM080112	140925_fnca	1	1	1	-1203865036	1	75.031	75.031	2.0.10.147	2.0.10.242	2.0.10.242	1.0.0.439	7	234	2	3	Verdana	1	80	0	0	0	WM Stimuli\	0.7	1435.14285714286	0.9	1126.77777777778	0.8	1195.875	0.9	940.555555555556	0.8	914.5	0.7	993.714285714286	0.9	998.222222222222	0.7	1002.57142857143	13	453599	3	453587	14	27	453613	-999999	453602	0	8	TrialsPROC	TO_005_TOOL5_BA.png	1	2	33	SessionSelectionList														nonlure	3	Tools	2-Back	29	80	28	0	0	90	2	39	262210	3	14	59	260171	-1	261436	1	1265	3	3	2039	53	262224	-54	0										8						33												
WM080112	140925_fnca	1	1	1	-1203865036	1	75.031	75.031	2.0.10.147	2.0.10.242	2.0.10.242	1.0.0.439	7	234	2	3	Verdana	1	80	0	0	0	WM Stimuli\	0.7	1435.14285714286	0.9	1126.77777777778	0.8	1195.875	0.9	940.555555555556	0.8	914.5	0.7	993.714285714286	0.9	998.222222222222	0.7	1002.57142857143	13	453599	3	453587	14	27	453613	-999999	453602	0	8	TrialsPROC	TO_006_TOOL6_BA.png	1	2	34	SessionSelectionList														target	2	Tools	2-Back	30	80	29	0	0	90	1	39	264769	2	14	59	262730	-1	263517	1	787	2	2	2039	53	264783	-54	0										9						34												
WM080112	140925_fnca	1	1	1	-1203865036	1	75.031	75.031	2.0.10.147	2.0.10.242	2.0.10.242	1.0.0.439	7	234	2	3	Verdana	1	80	0	0	0	WM Stimuli\	0.7	1435.14285714286	0.9	1126.77777777778	0.8	1195.875	0.9	940.555555555556	0.8	914.5	0.7	993.714285714286	0.9	998.222222222222	0.7	1002.57142857143	13	453599	3	453587	14	27	453613	-999999	453602	0	8	TrialsPROC	TO_003_TOOL3_BA.png	1	2	35	SessionSelectionList														nonlure	3	Tools	2-Back	31	80	30	0	0	90	1	39	267328	2	14	59	265289	-1	266321	1	1032	3	3	2039	53	267342	-54	0										10						35												
WM080112	140925_fnca	1	1	1	-1203865036	1	75.031	75.031	2.0.10.147	2.0.10.242	2.0.10.242	1.0.0.439	7	234	2	3	Verdana	1	80	0	0	0	WM Stimuli\	0.7	1435.14285714286	0.9	1126.77777777778	0.8	1195.875	0.9	940.555555555556	0.8	914.5	0.7	993.714285714286	0.9	998.222222222222	0.7	1002.57142857143	13	453599	3	453587	14	27	453613	-999999	453602	0	9	Cue0BackPROC	BP_007_BP20_BA.png	1	2	36	SessionSelectionList																																										19	267808	-20	0												36												
WM080112	140925_fnca	1	1	1	-1203865036	1	75.031	75.031	2.0.10.147	2.0.10.242	2.0.10.242	1.0.0.439	7	234	2	3	Verdana	1	80	0	0	0	WM Stimuli\	0.7	1435.14285714286	0.9	1126.77777777778	0.8	1195.875	0.9	940.555555555556	0.8	914.5	0.7	993.714285714286	0.9	998.222222222222	0.7	1002.57142857143	13	453599	3	453587	14	27	453613	-999999	453602	0	10	TrialsPROC	BP_007_BP20_BA.png	1	2	37	SessionSelectionList														target	2	Body	0-Back	32	80	31	0	0	91	1	40	272380	1	13	51	270340	-1	271912	1	1572	2	2	2040	53	272393	-54	0											1					37												
WM080112	140925_fnca	1	1	1	-1203865036	1	75.031	75.031	2.0.10.147	2.0.10.242	2.0.10.242	1.0.0.439	7	234	2	3	Verdana	1	80	0	0	0	WM Stimuli\	0.7	1435.14285714286	0.9	1126.77777777778	0.8	1195.875	0.9	940.555555555556	0.8	914.5	0.7	993.714285714286	0.9	998.222222222222	0.7	1002.57142857143	13	453599	3	453587	14	27	453613	-999999	453602	0	10	TrialsPROC	BP_011_BP4_BA.png	1	2	38	SessionSelectionList														nonlure	3	Body	0-Back	33	80	32	0	0	92	1	39	274952	2	14	73	272913	-1	273723	1	810	3	3	2039	53	274966	-54	0											2					38												
WM080112	140925_fnca	1	1	1	-1203865036	1	75.031	75.031	2.0.10.147	2.0.10.242	2.0.10.242	1.0.0.439	7	234	2	3	Verdana	1	80	0	0	0	WM Stimuli\	0.7	1435.14285714286	0.9	1126.77777777778	0.8	1195.875	0.9	940.555555555556	0.8	914.5	0.7	993.714285714286	0.9	998.222222222222	0.7	1002.57142857143	13	453599	3	453587	14	27	453613	-999999	453602	0	10	TrialsPROC	BP_010_BP3_BA.png	1	2	39	SessionSelectionList														nonlure	3	Body	0-Back	34	80	33	0	0	92	2	39	277511	2	13	59	275472	-1	276218	1	746	3	3	2039	52	277524	-53	0											3					39												
WM080112	140925_fnca	1	1	1	-1203865036	1	75.031	75.031	2.0.10.147	2.0.10.242	2.0.10.242	1.0.0.439	7	234	2	3	Verdana	1	80	0	0	0	WM Stimuli\	0.7	1435.14285714286	0.9	1126.77777777778	0.8	1195.875	0.9	940.555555555556	0.8	914.5	0.7	993.714285714286	0.9	998.222222222222	0.7	1002.57142857143	13	453599	3	453587	14	27	453613	-999999	453602	0	10	TrialsPROC	BP_008_BP21_BA.png	1	2	40	SessionSelectionList														nonlure	3	Body	0-Back	35	80	34	0	0	93	3	39	280070	2	13	59	278031	-1	279094	1	1063	3	3	2039	52	280083	-53	0											4					40												
WM080112	140925_fnca	1	1	1	-1203865036	1	75.031	75.031	2.0.10.147	2.0.10.242	2.0.10.242	1.0.0.439	7	234	2	3	Verdana	1	80	0	0	0	WM Stimuli\	0.7	1435.14285714286	0.9	1126.77777777778	0.8	1195.875	0.9	940.555555555556	0.8	914.5	0.7	993.714285714286	0.9	998.222222222222	0.7	1002.57142857143	13	453599	3	453587	14	27	453613	-999999	453602	0	10	TrialsPROC	BP_011_BP4_BA.png	1	2	41	SessionSelectionList														lure	3	Body	0-Back	36	80	35	0	0	93	4	39	282642	3	14	72	280603	-1	281689	1	1086	3	3	2039	53	282656	-54	0											5					41												
WM080112	140925_fnca	1	1	1	-1203865036	1	75.031	75.031	2.0.10.147	2.0.10.242	2.0.10.242	1.0.0.439	7	234	2	3	Verdana	1	80	0	0	0	WM Stimuli\	0.7	1435.14285714286	0.9	1126.77777777778	0.8	1195.875	0.9	940.555555555556	0.8	914.5	0.7	993.714285714286	0.9	998.222222222222	0.7	1002.57142857143	13	453599	3	453587	14	27	453613	-999999	453602	0	10	TrialsPROC	BP_009_BP22_BA.png	1	2	42	SessionSelectionList														nonlure	3	Body	0-Back	37	80	36	0	0	94	5	39	285201	2	14	59	283162	-1	284112	1	950	3	3	2039	53	285215	-54	0											6					42												
WM080112	140925_fnca	1	1	1	-1203865036	1	75.031	75.031	2.0.10.147	2.0.10.242	2.0.10.242	1.0.0.439	7	234	2	3	Verdana	1	80	0	0	0	WM Stimuli\	0.7	1435.14285714286	0.9	1126.77777777778	0.8	1195.875	0.9	940.555555555556	0.8	914.5	0.7	993.714285714286	0.9	998.222222222222	0.7	1002.57142857143	13	453599	3	453587	14	27	453613	-999999	453602	0	10	TrialsPROC	BP_009_BP22_BA.png	1	2	43	SessionSelectionList														lure	3	Body	0-Back	38	80	37	0	0	94	6	39	287760	2	14	59	285721	-1	287534	1	1813	3	3	2039	53	287774	-54	0											7					43												
WM080112	140925_fnca	1	1	1	-1203865036	1	75.031	75.031	2.0.10.147	2.0.10.242	2.0.10.242	1.0.0.439	7	234	2	3	Verdana	1	80	0	0	0	WM Stimuli\	0.7	1435.14285714286	0.9	1126.77777777778	0.8	1195.875	0.9	940.555555555556	0.8	914.5	0.7	993.714285714286	0.9	998.222222222222	0.7	1002.57142857143	13	453599	3	453587	14	27	453613	-999999	453602	0	10	TrialsPROC	BP_008_BP21_BA.png	1	2	44	SessionSelectionList														lure	3	Body	0-Back	39	80	38	0	0	89	1	39	290319	2	14	59	288280	-1	289928	0	1648	2	3	2039	53	290333	-54	0											8					44												
WM080112	140925_fnca	1	1	1	-1203865036	1	75.031	75.031	2.0.10.147	2.0.10.242	2.0.10.242	1.0.0.439	7	234	2	3	Verdana	1	80	0	0	0	WM Stimuli\	0.7	1435.14285714286	0.9	1126.77777777778	0.8	1195.875	0.9	940.555555555556	0.8	914.5	0.7	993.714285714286	0.9	998.222222222222	0.7	1002.57142857143	13	453599	3	453587	14	27	453613	-999999	453602	0	10	TrialsPROC	BP_007_BP20_BA.png	1	2	45	SessionSelectionList														target	2	Body	0-Back	40	80	39	0	0	89	2	39	292878	1	14	59	290839	-1	292142	1	1303	2	2	2039	53	292892	-54	0											9					45												
WM080112	140925_fnca	1	1	1	-1203865036	1	75.031	75.031	2.0.10.147	2.0.10.242	2.0.10.242	1.0.0.439	7	234	2	3	Verdana	1	80	0	0	0	WM Stimuli\	0.7	1435.14285714286	0.9	1126.77777777778	0.8	1195.875	0.9	940.555555555556	0.8	914.5	0.7	993.714285714286	0.9	998.222222222222	0.7	1002.57142857143	13	453599	3	453587	14	27	453613	-999999	453602	0	10	TrialsPROC	BP_012_BP5_BA.png	1	2	46	SessionSelectionList														nonlure	3	Body	0-Back	41	80	40	0	0	90	1	39	295437	1	14	59	293398	-1	294196	1	798	3	3	2039	53	295451	-54	0											10					46												
WM080112	140925_fnca	1	1	1	-1203865036	1	75.031	75.031	2.0.10.147	2.0.10.242	2.0.10.242	1.0.0.439	7	234	2	3	Verdana	1	80	0	0	0	WM Stimuli\	0.7	1435.14285714286	0.9	1126.77777777778	0.8	1195.875	0.9	940.555555555556	0.8	914.5	0.7	993.714285714286	0.9	998.222222222222	0.7	1002.57142857143	13	453599	3	453587	14	27	453613	-999999	453602	0	11	Fix15secPROC	""	1	2	47	SessionSelectionList																																															6	295904	-7	0							47												
WM080112	140925_fnca	1	1	1	-1203865036	1	75.031	75.031	2.0.10.147	2.0.10.242	2.0.10.242	1.0.0.439	7	234	2	3	Verdana	1	80	0	0	0	WM Stimuli\	0.7	1435.14285714286	0.9	1126.77777777778	0.8	1195.875	0.9	940.555555555556	0.8	914.5	0.7	993.714285714286	0.9	998.222222222222	0.7	1002.57142857143	13	453599	3	453587	14	27	453613	-999999	453602	0	12	Cue0BackPROC	PL_001_92012.png	1	2	48	SessionSelectionList																																										13	310911	-14	0												48												
WM080112	140925_fnca	1	1	1	-1203865036	1	75.031	75.031	2.0.10.147	2.0.10.242	2.0.10.242	1.0.0.439	7	234	2	3	Verdana	1	80	0	0	0	WM Stimuli\	0.7	1435.14285714286	0.9	1126.77777777778	0.8	1195.875	0.9	940.555555555556	0.8	914.5	0.7	993.714285714286	0.9	998.222222222222	0.7	1002.57142857143	13	453599	3	453587	14	27	453613	-999999	453602	0	13	TrialsPROC	PL_003_92016.png	1	2	49	SessionSelectionList														nonlure	3	Place	0-Back	42	80	41	0	0	90	2	39	315495	2	14	58	313456	-1	314689	1	1233	3	3	2039	53	315509	-54	0												1				49												
WM080112	140925_fnca	1	1	1	-1203865036	1	75.031	75.031	2.0.10.147	2.0.10.242	2.0.10.242	1.0.0.439	7	234	2	3	Verdana	1	80	0	0	0	WM Stimuli\	0.7	1435.14285714286	0.9	1126.77777777778	0.8	1195.875	0.9	940.555555555556	0.8	914.5	0.7	993.714285714286	0.9	998.222222222222	0.7	1002.57142857143	13	453599	3	453587	14	27	453613	-999999	453602	0	13	TrialsPROC	PL_003_92016.png	1	2	50	SessionSelectionList														lure	3	Place	0-Back	43	80	42	0	0	91	3	40	318068	2	13	72	316028	-1	316902	1	874	3	3	2040	53	318081	-54	0												2				50												
WM080112	140925_fnca	1	1	1	-1203865036	1	75.031	75.031	2.0.10.147	2.0.10.242	2.0.10.242	1.0.0.439	7	234	2	3	Verdana	1	80	0	0	0	WM Stimuli\	0.7	1435.14285714286	0.9	1126.77777777778	0.8	1195.875	0.9	940.555555555556	0.8	914.5	0.7	993.714285714286	0.9	998.222222222222	0.7	1002.57142857143	13	453599	3	453587	14	27	453613	-999999	453602	0	13	TrialsPROC	PL_006_92025.png	1	2	51	SessionSelectionList														nonlure	3	Place	0-Back	44	80	43	0	0	91	4	39	320640	2	14	73	318601	-1	319336	1	735	3	3	2039	53	320654	-54	0												3				51												
WM080112	140925_fnca	1	1	1	-1203865036	1	75.031	75.031	2.0.10.147	2.0.10.242	2.0.10.242	1.0.0.439	7	234	2	3	Verdana	1	80	0	0	0	WM Stimuli\	0.7	1435.14285714286	0.9	1126.77777777778	0.8	1195.875	0.9	940.555555555556	0.8	914.5	0.7	993.714285714286	0.9	998.222222222222	0.7	1002.57142857143	13	453599	3	453587	14	27	453613	-999999	453602	0	13	TrialsPROC	PL_001_92012.png	1	2	52	SessionSelectionList														target	2	Place	0-Back	45	80	44	0	0	88	5	39	323212	3	14	72	321173	-1	322083	0	910	3	2	2039	53	323226	-54	0												4				52												
WM080112	140925_fnca	1	1	1	-1203865036	1	75.031	75.031	2.0.10.147	2.0.10.242	2.0.10.242	1.0.0.439	7	234	2	3	Verdana	1	80	0	0	0	WM Stimuli\	0.7	1435.14285714286	0.9	1126.77777777778	0.8	1195.875	0.9	940.555555555556	0.8	914.5	0.7	993.714285714286	0.9	998.222222222222	0.7	1002.57142857143	13	453599	3	453587	14	27	453613	-999999	453602	0	13	TrialsPROC	PL_004_92023.png	1	2	53	SessionSelectionList														nonlure	3	Place	0-Back	46	80	45	0	0	88	6	40	325785	1	13	72	323745	-1	324557	1	812	3	3	2040	53	325798	-54	0												5				53												
WM080112	140925_fnca	1	1	1	-1203865036	1	75.031	75.031	2.0.10.147	2.0.10.242	2.0.10.242	1.0.0.439	7	234	2	3	Verdana	1	80	0	0	0	WM Stimuli\	0.7	1435.14285714286	0.9	1126.77777777778	0.8	1195.875	0.9	940.555555555556	0.8	914.5	0.7	993.714285714286	0.9	998.222222222222	0.7	1002.57142857143	13	453599	3	453587	14	27	453613	-999999	453602	0	13	TrialsPROC	PL_005_92024.png	1	2	54	SessionSelectionList														nonlure	3	Place	0-Back	47	80	46	0	0	88	7	39	328357	2	14	73	326318	-1	327278	1	960	3	3	2039	53	328371	-54	0												6				54												
WM080112	140925_fnca	1	1	1	-1203865036	1	75.031	75.031	2.0.10.147	2.0.10.242	2.0.10.242	1.0.0.439	7	234	2	3	Verdana	1	80	0	0	0	WM Stimuli\	0.7	1435.14285714286	0.9	1126.77777777778	0.8	1195.875	0.9	940.555555555556	0.8	914.5	0.7	993.714285714286	0.9	998.222222222222	0.7	1002.57142857143	13	453599	3	453587	14	27	453613	-999999	453602	0	13	TrialsPROC	PL_001_92012.png	1	2	55	SessionSelectionList														target	2	Place	0-Back	48	80	46	0	1	85	7	39	330916	1	14	59	328877	-1	0	0	0	""	2	2039	53	330930	-54	0												7				55												
WM080112	140925_fnca	1	1	1	-1203865036	1	75.031	75.031	2.0.10.147	2.0.10.242	2.0.10.242	1.0.0.439	7	234	2	3	Verdana	1	80	0	0	0	WM Stimuli\	0.7	1435.14285714286	0.9	1126.77777777778	0.8	1195.875	0.9	940.555555555556	0.8	914.5	0.7	993.714285714286	0.9	998.222222222222	0.7	1002.57142857143	13	453599	3	453587	14	27	453613	-999999	453602	0	13	TrialsPROC	PL_002_92014.png	1	2	56	SessionSelectionList														nonlure	3	Place	0-Back	49	80	47	0	0	86	1	39	333488	2	14	72	331449	-1	332348	1	899	3	3	2039	53	333502	-54	0												8				56												
WM080112	140925_fnca	1	1	1	-1203865036	1	75.031	75.031	2.0.10.147	2.0.10.242	2.0.10.242	1.0.0.439	7	234	2	3	Verdana	1	80	0	0	0	WM Stimuli\	0.7	1435.14285714286	0.9	1126.77777777778	0.8	1195.875	0.9	940.555555555556	0.8	914.5	0.7	993.714285714286	0.9	998.222222222222	0.7	1002.57142857143	13	453599	3	453587	14	27	453613	-999999	453602	0	13	TrialsPROC	PL_004_92023.png	1	2	57	SessionSelectionList														lure	3	Place	0-Back	50	80	48	0	0	83	1	39	336060	3	14	72	334021	-1	335291	0	1270	2	3	2039	53	336074	-54	0												9				57												
WM080112	140925_fnca	1	1	1	-1203865036	1	75.031	75.031	2.0.10.147	2.0.10.242	2.0.10.242	1.0.0.439	7	234	2	3	Verdana	1	80	0	0	0	WM Stimuli\	0.7	1435.14285714286	0.9	1126.77777777778	0.8	1195.875	0.9	940.555555555556	0.8	914.5	0.7	993.714285714286	0.9	998.222222222222	0.7	1002.57142857143	13	453599	3	453587	14	27	453613	-999999	453602	0	13	TrialsPROC	PL_006_92025.png	1	2	58	SessionSelectionList														lure	3	Place	0-Back	51	80	49	0	0	83	1	40	338633	1	13	72	336593	-1	338036	1	1443	3	3	2040	53	338646	-54	0												10				58												
WM080112	140925_fnca	1	1	1	-1203865036	1	75.031	75.031	2.0.10.147	2.0.10.242	2.0.10.242	1.0.0.439	7	234	2	3	Verdana	1	80	0	0	0	WM Stimuli\	0.7	1435.14285714286	0.9	1126.77777777778	0.8	1195.875	0.9	940.555555555556	0.8	914.5	0.7	993.714285714286	0.9	998.222222222222	0.7	1002.57142857143	13	453599	3	453587	14	27	453613	-999999	453602	0	14	Cue2BackPROC	""	1	2	59	SessionSelectionList									6	339099	-7	0																																													59												
WM080112	140925_fnca	1	1	1	-1203865036	1	75.031	75.031	2.0.10.147	2.0.10.242	2.0.10.242	1.0.0.439	7	234	2	3	Verdana	1	80	0	0	0	WM Stimuli\	0.7	1435.14285714286	0.9	1126.77777777778	0.8	1195.875	0.9	940.555555555556	0.8	914.5	0.7	993.714285714286	0.9	998.222222222222	0.7	1002.57142857143	13	453599	3	453587	14	27	453613	-999999	453602	0	15	TrialsPROC	FC_010_F5.png	1	2	60	SessionSelectionList														nonlure	3	Face	2-Back	52	80	50	0	0	83	2	39	343697	2	14	65	341658	-1	343536	1	1878	3	3	2039	53	343711	-54	0													1			60												
WM080112	140925_fnca	1	1	1	-1203865036	1	75.031	75.031	2.0.10.147	2.0.10.242	2.0.10.242	1.0.0.439	7	234	2	3	Verdana	1	80	0	0	0	WM Stimuli\	0.7	1435.14285714286	0.9	1126.77777777778	0.8	1195.875	0.9	940.555555555556	0.8	914.5	0.7	993.714285714286	0.9	998.222222222222	0.7	1002.57142857143	13	453599	3	453587	14	27	453613	-999999	453602	0	15	TrialsPROC	FC_012_F6.png	1	2	61	SessionSelectionList														nonlure	3	Face	2-Back	53	80	51	0	0	83	3	40	346270	2	13	72	344230	-1	345517	1	1287	3	3	2040	53	346283	-54	0													2			61												
WM080112	140925_fnca	1	1	1	-1203865036	1	75.031	75.031	2.0.10.147	2.0.10.242	2.0.10.242	1.0.0.439	7	234	2	3	Verdana	1	80	0	0	0	WM Stimuli\	0.7	1435.14285714286	0.9	1126.77777777778	0.8	1195.875	0.9	940.555555555556	0.8	914.5	0.7	993.714285714286	0.9	998.222222222222	0.7	1002.57142857143	13	453599	3	453587	14	27	453613	-999999	453602	0	15	TrialsPROC	FC_010_F5.png	1	2	62	SessionSelectionList														target	2	Face	2-Back	54	80	52	0	0	83	1	39	348842	2	14	73	346803	-1	347413	1	610	2	2	2039	53	348856	-54	0													3			62												
WM080112	140925_fnca	1	1	1	-1203865036	1	75.031	75.031	2.0.10.147	2.0.10.242	2.0.10.242	1.0.0.439	7	234	2	3	Verdana	1	80	0	0	0	WM Stimuli\	0.7	1435.14285714286	0.9	1126.77777777778	0.8	1195.875	0.9	940.555555555556	0.8	914.5	0.7	993.714285714286	0.9	998.222222222222	0.7	1002.57142857143	13	453599	3	453587	14	27	453613	-999999	453602	0	15	TrialsPROC	FC_008_F4.png	1	2	63	SessionSelectionList														nonlure	3	Face	2-Back	55	80	53	0	0	83	1	39	351414	3	14	72	349375	-1	349907	1	532	3	3	2039	53	351428	-54	0													4			63												
WM080112	140925_fnca	1	1	1	-1203865036	1	75.031	75.031	2.0.10.147	2.0.10.242	2.0.10.242	1.0.0.439	7	234	2	3	Verdana	1	80	0	0	0	WM Stimuli\	0.7	1435.14285714286	0.9	1126.77777777778	0.8	1195.875	0.9	940.555555555556	0.8	914.5	0.7	993.714285714286	0.9	998.222222222222	0.7	1002.57142857143	13	453599	3	453587	14	27	453613	-999999	453602	0	15	TrialsPROC	FC_012_F6.png	1	2	64	SessionSelectionList														lure	3	Face	2-Back	56	80	54	0	0	83	1	39	353986	3	14	72	351947	-1	352846	0	899	2	3	2039	53	354000	-54	0													5			64												
WM080112	140925_fnca	1	1	1	-1203865036	1	75.031	75.031	2.0.10.147	2.0.10.242	2.0.10.242	1.0.0.439	7	234	2	3	Verdana	1	80	0	0	0	WM Stimuli\	0.7	1435.14285714286	0.9	1126.77777777778	0.8	1195.875	0.9	940.555555555556	0.8	914.5	0.7	993.714285714286	0.9	998.222222222222	0.7	1002.57142857143	13	453599	3	453587	14	27	453613	-999999	453602	0	15	TrialsPROC	FC_008_F4.png	1	2	65	SessionSelectionList														target	2	Face	2-Back	57	80	55	0	0	83	2	39	356559	2	13	73	354520	-1	356131	1	1611	2	2	2039	52	356572	-53	0													6			65												
WM080112	140925_fnca	1	1	1	-1203865036	1	75.031	75.031	2.0.10.147	2.0.10.242	2.0.10.242	1.0.0.439	7	234	2	3	Verdana	1	80	0	0	0	WM Stimuli\	0.7	1435.14285714286	0.9	1126.77777777778	0.8	1195.875	0.9	940.555555555556	0.8	914.5	0.7	993.714285714286	0.9	998.222222222222	0.7	1002.57142857143	13	453599	3	453587	14	27	453613	-999999	453602	0	15	TrialsPROC	FC_007_M4.png	1	2	66	SessionSelectionList														nonlure	3	Face	2-Back	58	80	56	0	0	83	1	39	359131	1	14	72	357092	-1	357829	1	737	3	3	2039	53	359145	-54	0													7			66												
WM080112	140925_fnca	1	1	1	-1203865036	1	75.031	75.031	2.0.10.147	2.0.10.242	2.0.10.242	1.0.0.439	7	234	2	3	Verdana	1	80	0	0	0	WM Stimuli\	0.7	1435.14285714286	0.9	1126.77777777778	0.8	1195.875	0.9	940.555555555556	0.8	914.5	0.7	993.714285714286	0.9	998.222222222222	0.7	1002.57142857143	13	453599	3	453587	14	27	453613	-999999	453602	0	15	TrialsPROC	FC_007_M4.png	1	2	67	SessionSelectionList														lure	3	Face	2-Back	59	80	57	0	0	83	1	39	361703	2	14	72	359664	-1	361112	0	1448	2	3	2039	53	361717	-54	0													8			67												
WM080112	140925_fnca	1	1	1	-1203865036	1	75.031	75.031	2.0.10.147	2.0.10.242	2.0.10.242	1.0.0.439	7	234	2	3	Verdana	1	80	0	0	0	WM Stimuli\	0.7	1435.14285714286	0.9	1126.77777777778	0.8	1195.875	0.9	940.555555555556	0.8	914.5	0.7	993.714285714286	0.9	998.222222222222	0.7	1002.57142857143	13	453599	3	453587	14	27	453613	-999999	453602	0	15	TrialsPROC	FC_009_M5.png	1	2	68	SessionSelectionList														nonlure	3	Face	2-Back	60	80	58	0	0	83	1	40	364276	2	13	72	362236	-1	363712	1	1476	3	3	2040	53	364289	-54	0													9			68												
WM080112	140925_fnca	1	1	1	-1203865036	1	75.031	75.031	2.0.10.147	2.0.10.242	2.0.10.242	1.0.0.439	7	234	2	3	Verdana	1	80	0	0	0	WM Stimuli\	0.7	1435.14285714286	0.9	1126.77777777778	0.8	1195.875	0.9	940.555555555556	0.8	914.5	0.7	993.714285714286	0.9	998.222222222222	0.7	1002.57142857143	13	453599	3	453587	14	27	453613	-999999	453602	0	15	TrialsPROC	FC_011_M6.png	1	2	69	SessionSelectionList														nonlure	3	Face	2-Back	61	80	59	0	0	83	2	39	366848	2	14	73	364809	-1	366245	1	1436	3	3	2039	53	366862	-54	0													10			69												
WM080112	140925_fnca	1	1	1	-1203865036	1	75.031	75.031	2.0.10.147	2.0.10.242	2.0.10.242	1.0.0.439	7	234	2	3	Verdana	1	80	0	0	0	WM Stimuli\	0.7	1435.14285714286	0.9	1126.77777777778	0.8	1195.875	0.9	940.555555555556	0.8	914.5	0.7	993.714285714286	0.9	998.222222222222	0.7	1002.57142857143	13	453599	3	453587	14	27	453613	-999999	453602	0	16	Fix15secPROC	""	1	2	70	SessionSelectionList																																															6	367315	-7	0							70												
WM080112	140925_fnca	1	1	1	-1203865036	1	75.031	75.031	2.0.10.147	2.0.10.242	2.0.10.242	1.0.0.439	7	234	2	3	Verdana	1	80	0	0	0	WM Stimuli\	0.7	1435.14285714286	0.9	1126.77777777778	0.8	1195.875	0.9	940.555555555556	0.8	914.5	0.7	993.714285714286	0.9	998.222222222222	0.7	1002.57142857143	13	453599	3	453587	14	27	453613	-999999	453602	0	17	Cue0BackPROC	TO_007_TOOL7_BA.png	1	2	71	SessionSelectionList																																										13	382322	-14	0												71												
WM080112	140925_fnca	1	1	1	-1203865036	1	75.031	75.031	2.0.10.147	2.0.10.242	2.0.10.242	1.0.0.439	7	234	2	3	Verdana	1	80	0	0	0	WM Stimuli\	0.7	1435.14285714286	0.9	1126.77777777778	0.8	1195.875	0.9	940.555555555556	0.8	914.5	0.7	993.714285714286	0.9	998.222222222222	0.7	1002.57142857143	13	453599	3	453587	14	27	453613	-999999	453602	0	18	TrialsPROC	TO_010_TOOL10_BA.png	1	2	72	SessionSelectionList														nonlure	3	Tools	0-Back	62	80	60	0	0	84	3	39	386906	3	14	58	384867	-1	386400	1	1533	3	3	2039	53	386920	-54	0														1		72												
WM080112	140925_fnca	1	1	1	-1203865036	1	75.031	75.031	2.0.10.147	2.0.10.242	2.0.10.242	1.0.0.439	7	234	2	3	Verdana	1	80	0	0	0	WM Stimuli\	0.7	1435.14285714286	0.9	1126.77777777778	0.8	1195.875	0.9	940.555555555556	0.8	914.5	0.7	993.714285714286	0.9	998.222222222222	0.7	1002.57142857143	13	453599	3	453587	14	27	453613	-999999	453602	0	18	TrialsPROC	TO_009_TOOL9_BA.png	1	2	73	SessionSelectionList														nonlure	3	Tools	0-Back	63	80	61	0	0	84	4	39	389465	2	14	59	387426	-1	388032	1	606	3	3	2039	53	389479	-54	0														2		73												
WM080112	140925_fnca	1	1	1	-1203865036	1	75.031	75.031	2.0.10.147	2.0.10.242	2.0.10.242	1.0.0.439	7	234	2	3	Verdana	1	80	0	0	0	WM Stimuli\	0.7	1435.14285714286	0.9	1126.77777777778	0.8	1195.875	0.9	940.555555555556	0.8	914.5	0.7	993.714285714286	0.9	998.222222222222	0.7	1002.57142857143	13	453599	3	453587	14	27	453613	-999999	453602	0	18	TrialsPROC	TO_009_TOOL9_BA.png	1	2	74	SessionSelectionList														lure	3	Tools	0-Back	64	80	61	0	1	82	4	39	392024	2	14	59	389985	-1	0	0	0	""	3	2039	53	392038	-54	0														3		74												
WM080112	140925_fnca	1	1	1	-1203865036	1	75.031	75.031	2.0.10.147	2.0.10.242	2.0.10.242	1.0.0.439	7	234	2	3	Verdana	1	80	0	0	0	WM Stimuli\	0.7	1435.14285714286	0.9	1126.77777777778	0.8	1195.875	0.9	940.555555555556	0.8	914.5	0.7	993.714285714286	0.9	998.222222222222	0.7	1002.57142857143	13	453599	3	453587	14	27	453613	-999999	453602	0	18	TrialsPROC	TO_008_TOOL8_BA.png	1	2	75	SessionSelectionList														nonlure	3	Tools	0-Back	65	80	62	0	0	82	1	39	394583	3	14	59	392544	-1	393597	1	1053	3	3	2039	53	394597	-54	0														4		75												
WM080112	140925_fnca	1	1	1	-1203865036	1	75.031	75.031	2.0.10.147	2.0.10.242	2.0.10.242	1.0.0.439	7	234	2	3	Verdana	1	80	0	0	0	WM Stimuli\	0.7	1435.14285714286	0.9	1126.77777777778	0.8	1195.875	0.9	940.555555555556	0.8	914.5	0.7	993.714285714286	0.9	998.222222222222	0.7	1002.57142857143	13	453599	3	453587	14	27	453613	-999999	453602	0	18	TrialsPROC	TO_011_TOOL11_BA.png	1	2	76	SessionSelectionList														nonlure	3	Tools	0-Back	66	80	63	0	0	83	2	39	397142	3	14	59	395103	-1	395734	1	631	3	3	2039	53	397156	-54	0														5		76												
WM080112	140925_fnca	1	1	1	-1203865036	1	75.031	75.031	2.0.10.147	2.0.10.242	2.0.10.242	1.0.0.439	7	234	2	3	Verdana	1	80	0	0	0	WM Stimuli\	0.7	1435.14285714286	0.9	1126.77777777778	0.8	1195.875	0.9	940.555555555556	0.8	914.5	0.7	993.714285714286	0.9	998.222222222222	0.7	1002.57142857143	13	453599	3	453587	14	27	453613	-999999	453602	0	18	TrialsPROC	TO_012_TOOL12_BA.png	1	2	77	SessionSelectionList														nonlure	3	Tools	0-Back	67	80	64	0	0	83	3	39	399701	2	14	59	397662	-1	398451	1	789	3	3	2039	53	399715	-54	0														6		77												
WM080112	140925_fnca	1	1	1	-1203865036	1	75.031	75.031	2.0.10.147	2.0.10.242	2.0.10.242	1.0.0.439	7	234	2	3	Verdana	1	80	0	0	0	WM Stimuli\	0.7	1435.14285714286	0.9	1126.77777777778	0.8	1195.875	0.9	940.555555555556	0.8	914.5	0.7	993.714285714286	0.9	998.222222222222	0.7	1002.57142857143	13	453599	3	453587	14	27	453613	-999999	453602	0	18	TrialsPROC	TO_010_TOOL10_BA.png	1	2	78	SessionSelectionList														lure	3	Tools	0-Back	68	80	64	0	1	81	3	39	402260	3	14	59	400221	-1	0	0	0	""	3	2039	53	402274	-54	0														7		78												
WM080112	140925_fnca	1	1	1	-1203865036	1	75.031	75.031	2.0.10.147	2.0.10.242	2.0.10.242	1.0.0.439	7	234	2	3	Verdana	1	80	0	0	0	WM Stimuli\	0.7	1435.14285714286	0.9	1126.77777777778	0.8	1195.875	0.9	940.555555555556	0.8	914.5	0.7	993.714285714286	0.9	998.222222222222	0.7	1002.57142857143	13	453599	3	453587	14	27	453613	-999999	453602	0	18	TrialsPROC	TO_007_TOOL7_BA.png	1	2	79	SessionSelectionList														target	2	Tools	0-Back	69	80	65	0	0	82	1	39	404819	3	14	59	402780	-1	403920	1	1140	2	2	2039	53	404833	-54	0														8		79												
WM080112	140925_fnca	1	1	1	-1203865036	1	75.031	75.031	2.0.10.147	2.0.10.242	2.0.10.242	1.0.0.439	7	234	2	3	Verdana	1	80	0	0	0	WM Stimuli\	0.7	1435.14285714286	0.9	1126.77777777778	0.8	1195.875	0.9	940.555555555556	0.8	914.5	0.7	993.714285714286	0.9	998.222222222222	0.7	1002.57142857143	13	453599	3	453587	14	27	453613	-999999	453602	0	18	TrialsPROC	TO_008_TOOL8_BA.png	1	2	80	SessionSelectionList														lure	3	Tools	0-Back	70	80	66	0	0	79	2	39	407378	2	14	59	405339	-1	407070	0	1731	2	3	2039	53	407392	-54	0														9		80												
WM080112	140925_fnca	1	1	1	-1203865036	1	75.031	75.031	2.0.10.147	2.0.10.242	2.0.10.242	1.0.0.439	7	234	2	3	Verdana	1	80	0	0	0	WM Stimuli\	0.7	1435.14285714286	0.9	1126.77777777778	0.8	1195.875	0.9	940.555555555556	0.8	914.5	0.7	993.714285714286	0.9	998.222222222222	0.7	1002.57142857143	13	453599	3	453587	14	27	453613	-999999	453602	0	18	TrialsPROC	TO_007_TOOL7_BA.png	1	2	81	SessionSelectionList														target	2	Tools	0-Back	71	80	67	0	0	80	3	39	409937	3	14	59	407898	-1	409164	1	1266	2	2	2039	53	409951	-54	0														10		81												
WM080112	140925_fnca	1	1	1	-1203865036	1	75.031	75.031	2.0.10.147	2.0.10.242	2.0.10.242	1.0.0.439	7	234	2	3	Verdana	1	80	0	0	0	WM Stimuli\	0.7	1435.14285714286	0.9	1126.77777777778	0.8	1195.875	0.9	940.555555555556	0.8	914.5	0.7	993.714285714286	0.9	998.222222222222	0.7	1002.57142857143	13	453599	3	453587	14	27	453613	-999999	453602	0	19	Cue2BackPROC	""	1	2	82	SessionSelectionList									6	410404	-7	0																																													82												
WM080112	140925_fnca	1	1	1	-1203865036	1	75.031	75.031	2.0.10.147	2.0.10.242	2.0.10.242	1.0.0.439	7	234	2	3	Verdana	1	80	0	0	0	WM Stimuli\	0.7	1435.14285714286	0.9	1126.77777777778	0.8	1195.875	0.9	940.555555555556	0.8	914.5	0.7	993.714285714286	0.9	998.222222222222	0.7	1002.57142857143	13	453599	3	453587	14	27	453613	-999999	453602	0	20	TrialsPROC	PL_007_92026.png	1	2	83	SessionSelectionList														nonlure	3	Place	2-Back	72	80	67	0	1	80	3	39	415002	2	13	65	412963	-1	0	0	0	""	3	2039	52	415015	-53	0															1	83												
WM080112	140925_fnca	1	1	1	-1203865036	1	75.031	75.031	2.0.10.147	2.0.10.242	2.0.10.242	1.0.0.439	7	234	2	3	Verdana	1	80	0	0	0	WM Stimuli\	0.7	1435.14285714286	0.9	1126.77777777778	0.8	1195.875	0.9	940.555555555556	0.8	914.5	0.7	993.714285714286	0.9	998.222222222222	0.7	1002.57142857143	13	453599	3	453587	14	27	453613	-999999	453602	0	20	TrialsPROC	PL_007_92026.png	1	2	84	SessionSelectionList														lure	3	Place	2-Back	73	80	68	0	0	80	1	39	417574	1	14	72	415535	-1	416367	1	832	3	3	2039	53	417588	-54	0															2	84												
WM080112	140925_fnca	1	1	1	-1203865036	1	75.031	75.031	2.0.10.147	2.0.10.242	2.0.10.242	1.0.0.439	7	234	2	3	Verdana	1	80	0	0	0	WM Stimuli\	0.7	1435.14285714286	0.9	1126.77777777778	0.8	1195.875	0.9	940.555555555556	0.8	914.5	0.7	993.714285714286	0.9	998.222222222222	0.7	1002.57142857143	13	453599	3	453587	14	27	453613	-999999	453602	0	20	TrialsPROC	PL_010_92038.png	1	2	85	SessionSelectionList														nonlure	3	Place	2-Back	74	80	69	0	0	80	2	39	420146	2	14	72	418107	-1	419878	1	1771	3	3	2039	53	420160	-54	0															3	85												
WM080112	140925_fnca	1	1	1	-1203865036	1	75.031	75.031	2.0.10.147	2.0.10.242	2.0.10.242	1.0.0.439	7	234	2	3	Verdana	1	80	0	0	0	WM Stimuli\	0.7	1435.14285714286	0.9	1126.77777777778	0.8	1195.875	0.9	940.555555555556	0.8	914.5	0.7	993.714285714286	0.9	998.222222222222	0.7	1002.57142857143	13	453599	3	453587	14	27	453613	-999999	453602	0	20	TrialsPROC	PL_009_92037.png	1	2	86	SessionSelectionList														nonlure	3	Place	2-Back	75	80	70	0	0	80	3	39	422705	2	14	59	420666	-1	421556	1	890	3	3	2039	53	422719	-54	0															4	86												
WM080112	140925_fnca	1	1	1	-1203865036	1	75.031	75.031	2.0.10.147	2.0.10.242	2.0.10.242	1.0.0.439	7	234	2	3	Verdana	1	80	0	0	0	WM Stimuli\	0.7	1435.14285714286	0.9	1126.77777777778	0.8	1195.875	0.9	940.555555555556	0.8	914.5	0.7	993.714285714286	0.9	998.222222222222	0.7	1002.57142857143	13	453599	3	453587	14	27	453613	-999999	453602	0	20	TrialsPROC	PL_010_92038.png	1	2	87	SessionSelectionList														target	2	Place	2-Back	76	80	71	0	0	80	1	40	425278	1	13	72	423238	-1	423714	1	476	2	2	2040	53	425291	-54	0															5	87												
WM080112	140925_fnca	1	1	1	-1203865036	1	75.031	75.031	2.0.10.147	2.0.10.242	2.0.10.242	1.0.0.439	7	234	2	3	Verdana	1	80	0	0	0	WM Stimuli\	0.7	1435.14285714286	0.9	1126.77777777778	0.8	1195.875	0.9	940.555555555556	0.8	914.5	0.7	993.714285714286	0.9	998.222222222222	0.7	1002.57142857143	13	453599	3	453587	14	27	453613	-999999	453602	0	20	TrialsPROC	PL_009_92037.png	1	2	88	SessionSelectionList														target	2	Place	2-Back	77	80	72	0	0	80	2	39	427850	2	14	73	425811	-1	426702	1	891	2	2	2039	53	427864	-54	0															6	88												
WM080112	140925_fnca	1	1	1	-1203865036	1	75.031	75.031	2.0.10.147	2.0.10.242	2.0.10.242	1.0.0.439	7	234	2	3	Verdana	1	80	0	0	0	WM Stimuli\	0.7	1435.14285714286	0.9	1126.77777777778	0.8	1195.875	0.9	940.555555555556	0.8	914.5	0.7	993.714285714286	0.9	998.222222222222	0.7	1002.57142857143	13	453599	3	453587	14	27	453613	-999999	453602	0	20	TrialsPROC	PL_008_92033.png	1	2	89	SessionSelectionList														nonlure	3	Place	2-Back	78	80	73	0	0	80	1	39	430422	3	14	72	428383	-1	429014	1	631	3	3	2039	53	430436	-54	0															7	89												
WM080112	140925_fnca	1	1	1	-1203865036	1	75.031	75.031	2.0.10.147	2.0.10.242	2.0.10.242	1.0.0.439	7	234	2	3	Verdana	1	80	0	0	0	WM Stimuli\	0.7	1435.14285714286	0.9	1126.77777777778	0.8	1195.875	0.9	940.555555555556	0.8	914.5	0.7	993.714285714286	0.9	998.222222222222	0.7	1002.57142857143	13	453599	3	453587	14	27	453613	-999999	453602	0	20	TrialsPROC	PL_012_92047.png	1	2	90	SessionSelectionList														nonlure	3	Place	2-Back	79	80	74	0	0	80	2	39	432981	3	14	59	430942	-1	431655	1	713	3	3	2039	53	432995	-54	0															8	90												
WM080112	140925_fnca	1	1	1	-1203865036	1	75.031	75.031	2.0.10.147	2.0.10.242	2.0.10.242	1.0.0.439	7	234	2	3	Verdana	1	80	0	0	0	WM Stimuli\	0.7	1435.14285714286	0.9	1126.77777777778	0.8	1195.875	0.9	940.555555555556	0.8	914.5	0.7	993.714285714286	0.9	998.222222222222	0.7	1002.57142857143	13	453599	3	453587	14	27	453613	-999999	453602	0	20	TrialsPROC	PL_012_92047.png	1	2	91	SessionSelectionList														lure	3	Place	2-Back	80	80	75	0	0	80	1	39	435553	2	14	72	433514	-1	434406	0	892	2	3	2039	53	435567	-54	0															9	91												
WM080112	140925_fnca	1	1	1	-1203865036	1	75.031	75.031	2.0.10.147	2.0.10.242	2.0.10.242	1.0.0.439	7	234	2	3	Verdana	1	80	0	0	0	WM Stimuli\	0.7	1435.14285714286	0.9	1126.77777777778	0.8	1195.875	0.9	940.555555555556	0.8	914.5	0.7	993.714285714286	0.9	998.222222222222	0.7	1002.57142857143	13	453599	3	453587	14	27	453613	-999999	453602	0	20	TrialsPROC	PL_011_92044.png	1	2	92	SessionSelectionList														nonlure	3	Place	2-Back	80	80	76	0	0	80	1	40	438126	1	13	72	436086	-1	437198	1	1112	3	3	2040	53	438139	-54	0															10	92												
WM080112	140925_fnca	1	1	1	-1203865036	1	75.031	75.031	2.0.10.147	2.0.10.242	2.0.10.242	1.0.0.439	7	234	2	3	Verdana	1	80	0	0	0	WM Stimuli\	0.7	1435.14285714286	0.9	1126.77777777778	0.8	1195.875	0.9	940.555555555556	0.8	914.5	0.7	993.714285714286	0.9	998.222222222222	0.7	1002.57142857143	13	453599	3	453587	14	27	453613	-999999	453602	0	21	Fix15secPROC	""	1	2	93	SessionSelectionList																																															7	438593	-8	0							93												
