ExperimentName	HCPID	RunNumber	Subject	Session	RandomSeed	Group	Laptop.RefreshRate	ScannerD2.RefreshRate	StudioVersion	RuntimeVersion	RuntimeVersionExpected	ExperimentVersion	triggercode	Allowed	Target	Nontarget	FontStyle	RunTrialNumber[Session]	TrialsPerRun[Session]	TotalRespGreater200[Session]	ConsecRTLess200[Session]	ConsecNonResp[Session]	StimuliDir	ACC_2_Back_Body	Avg_RT_For_Correct_Trials_2_Back_Body	ACC_0_Back_Body	Avg_RT_For_Correct_Trials_0_Back_Body	ACC_2_Back_Face	Avg_RT_For_Correct_Trials_2_Back_Face	ACC_0_Back_Face	Avg_RT_For_Correct_Trials_0_Back_Face	ACC_2_Back_Place	Avg_RT_For_Correct_Trials_2_Back_Place	ACC_0_Back_Place	Avg_RT_For_Correct_Trials_0_Back_Place	ACC_2_Back_Tools	Avg_RT_For_Correct_Trials_2_Back_Tools	ACC_0_Back_Tools	Avg_RT_For_Correct_Trials_0_Back_Tools	ExpInstrucFeelFreeToRest.OnsetDelay	ExpInstrucFeelFreeToRest.OnsetTime	ExpInstrucFeelFreeToRest.DurationError	ExpInstrucFeelFreeToRest.StartTime	ExpInstrucFeelFreeToRest.OnsetToOnsetTime	FeelFreeToRest.OnsetDelay	FeelFreeToRest.OnsetTime	FeelFreeToRest.DurationError	FeelFreeToRest.StartTime	FeelFreeToRest.OnsetToOnsetTime	SessionSelectionList	Procedure[Block]	Stimulus[Block]	RunNumberFilterValue	SessionSelectionList.Cycle	SessionSelectionList.Sample	Running[Block]	IntroButtonMap.OnsetDelay	IntroButtonMap.OnsetTime	IntroButtonMap.DurationError	IntroButtonMap.OnsetToOnsetTime	GetReady.OnsetDelay	GetReady.OnsetTime	GetReady.DurationError	GetReady.OnsetToOnsetTime	Cue2Back.OnsetDelay	Cue2Back.OnsetTime	Cue2Back.DurationError	Cue2Back.OnsetToOnsetTime	Run1Block1	TargetType	CorrectResponse	StimType	BlockType	RunTrialNumber[Block]	TrialsPerRun[Block]	TotalRespGreater200[Block]	ConsecRTLess200[Block]	ConsecNonResp[Block]	ControlAcc	ConsecSameResp	ExperimenterWindow.OnsetDelay	ExperimenterWindow.OnsetTime	ExperimenterWindow.DurationError	ExperimenterWindow.OnsetToOnsetTime	Stim.OnsetDelay	Stim.OnsetTime	Stim.DurationError	Stim.RTTime	Stim.ACC	Stim.RT	Stim.RESP	Stim.CRESP	Stim.OnsetToOnsetTime	Fix.OnsetDelay	Fix.OnsetTime	Fix.DurationError	Fix.OnsetToOnsetTime	CueTarget.OnsetDelay	CueTarget.OnsetTime	CueTarget.DurationError	CueTarget.OnsetToOnsetTime	Run1Block2	Fix15sec.OnsetDelay	Fix15sec.OnsetTime	Fix15sec.DurationError	Fix15sec.OnsetToOnsetTime	Run1Block3	Run1Block4	Run1Block5	Run1Block6	Run1Block7	Run1Block8	Block	Procedure[Trial]	Stimulus[Trial]	ReadyList	Running[Trial]	ReadyList.Cycle	ReadyList.Sample	SyncSlide.OnsetDelay	SyncSlide.OnsetTime	SyncSlide.DurationError	SyncSlide.FinishTime	SyncSlide.OnsetToOnsetTime	Trial
WM080112	149741_fnca	1	1	1	1436642936	1	75.032	75.032	2.0.10.147	2.0.10.242	2.0.10.242	1.0.0.439	7	234	2	3	Verdana	1	80	0	0	0	WM Stimuli\	0.8	1092.875	0.7	1103.28571428571	0.8	996.125	1	581.7	0.9	922.333333333333	1	748.3	0.9	945.444444444444	1	558.5	13	439188	2	439176	27	40	439215	-999999	439191	0	1	TRSyncPROC	""	1	2	1	SessionSelectionList	119	13913	-999999	0	39	132117	-999999	0																																																	1	InitialTR	4	1	ReadyList	1	1	13	145991	-14	147977	0	1
WM080112	149741_fnca	1	1	1	1436642936	1	75.032	75.032	2.0.10.147	2.0.10.242	2.0.10.242	1.0.0.439	7	234	2	3	Verdana	1	80	0	0	0	WM Stimuli\	0.8	1092.875	0.7	1103.28571428571	0.8	996.125	1	581.7	0.9	922.333333333333	1	748.3	0.9	945.444444444444	1	558.5	13	439188	2	439176	27	40	439215	-999999	439191	0	1	TRSyncPROC	""	1	2	1	SessionSelectionList	119	13913	-999999	0	39	132117	-999999	0																																																	1	InitialTR	3	2	ReadyList	1	2	12	147990	-13	149977	0	2
WM080112	149741_fnca	1	1	1	1436642936	1	75.032	75.032	2.0.10.147	2.0.10.242	2.0.10.242	1.0.0.439	7	234	2	3	Verdana	1	80	0	0	0	WM Stimuli\	0.8	1092.875	0.7	1103.28571428571	0.8	996.125	1	581.7	0.9	922.333333333333	1	748.3	0.9	945.444444444444	1	558.5	13	439188	2	439176	27	40	439215	-999999	439191	0	1	TRSyncPROC	""	1	2	1	SessionSelectionList	119	13913	-999999	0	39	132117	-999999	0																																																	1	InitialTR	2	3	ReadyList	1	3	11	149989	-12	151977	0	3
WM080112	149741_fnca	1	1	1	1436642936	1	75.032	75.032	2.0.10.147	2.0.10.242	2.0.10.242	1.0.0.439	7	234	2	3	Verdana	1	80	0	0	0	WM Stimuli\	0.8	1092.875	0.7	1103.28571428571	0.8	996.125	1	581.7	0.9	922.333333333333	1	748.3	0.9	945.444444444444	1	558.5	13	439188	2	439176	27	40	439215	-999999	439191	0	1	TRSyncPROC	""	1	2	1	SessionSelectionList	119	13913	-999999	0	39	132117	-999999	0																																																	1	InitialTR	1	4	ReadyList	1	4	10	151988	-11	153977	0	4
WM080112	149741_fnca	1	1	1	1436642936	1	75.032	75.032	2.0.10.147	2.0.10.242	2.0.10.242	1.0.0.439	7	234	2	3	Verdana	1	80	0	0	0	WM Stimuli\	0.8	1092.875	0.7	1103.28571428571	0.8	996.125	1	581.7	0.9	922.333333333333	1	748.3	0.9	945.444444444444	1	558.5	13	439188	2	439176	27	40	439215	-999999	439191	0	2	Cue2BackPROC	""	1	2	2	SessionSelectionList									9	153987	-10	0																																													2												
WM080112	149741_fnca	1	1	1	1436642936	1	75.032	75.032	2.0.10.147	2.0.10.242	2.0.10.242	1.0.0.439	7	234	2	3	Verdana	1	80	0	0	0	WM Stimuli\	0.8	1092.875	0.7	1103.28571428571	0.8	996.125	1	581.7	0.9	922.333333333333	1	748.3	0.9	945.444444444444	1	558.5	13	439188	2	439176	27	40	439215	-999999	439191	0	3	TrialsPROC	BP_002_BP10_BA.png	1	2	3	SessionSelectionList													1	nonlure	3	Body	2-Back	2	80	0	0	1	0	0	52	158612	3	14	82	156560	-1	0	0	0	""	3	2052	66	158626	-67	0																3												
WM080112	149741_fnca	1	1	1	1436642936	1	75.032	75.032	2.0.10.147	2.0.10.242	2.0.10.242	1.0.0.439	7	234	2	3	Verdana	1	80	0	0	0	WM Stimuli\	0.8	1092.875	0.7	1103.28571428571	0.8	996.125	1	581.7	0.9	922.333333333333	1	748.3	0.9	945.444444444444	1	558.5	13	439188	2	439176	27	40	439215	-999999	439191	0	3	TrialsPROC	BP_001_BP1_BA.png	1	2	4	SessionSelectionList													2	nonlure	3	Body	2-Back	3	80	1	0	0	0	1	39	161171	3	14	72	159132	-1	160438	1	1306	3	3	2039	53	161185	-54	0																4												
WM080112	149741_fnca	1	1	1	1436642936	1	75.032	75.032	2.0.10.147	2.0.10.242	2.0.10.242	1.0.0.439	7	234	2	3	Verdana	1	80	0	0	0	WM Stimuli\	0.8	1092.875	0.7	1103.28571428571	0.8	996.125	1	581.7	0.9	922.333333333333	1	748.3	0.9	945.444444444444	1	558.5	13	439188	2	439176	27	40	439215	-999999	439191	0	3	TrialsPROC	BP_006_BP2_BA.png	1	2	5	SessionSelectionList													3	nonlure	3	Body	2-Back	4	80	2	0	0	0	1	39	163730	1	14	59	161691	-1	162631	0	940	2	3	2039	53	163744	-54	0																5												
WM080112	149741_fnca	1	1	1	1436642936	1	75.032	75.032	2.0.10.147	2.0.10.242	2.0.10.242	1.0.0.439	7	234	2	3	Verdana	1	80	0	0	0	WM Stimuli\	0.8	1092.875	0.7	1103.28571428571	0.8	996.125	1	581.7	0.9	922.333333333333	1	748.3	0.9	945.444444444444	1	558.5	13	439188	2	439176	27	40	439215	-999999	439191	0	3	TrialsPROC	BP_001_BP1_BA.png	1	2	6	SessionSelectionList													4	target	2	Body	2-Back	5	80	3	0	0	0	2	39	166302	2	14	72	164263	-1	165706	1	1443	2	2	2039	53	166316	-54	0																6												
WM080112	149741_fnca	1	1	1	1436642936	1	75.032	75.032	2.0.10.147	2.0.10.242	2.0.10.242	1.0.0.439	7	234	2	3	Verdana	1	80	0	0	0	WM Stimuli\	0.8	1092.875	0.7	1103.28571428571	0.8	996.125	1	581.7	0.9	922.333333333333	1	748.3	0.9	945.444444444444	1	558.5	13	439188	2	439176	27	40	439215	-999999	439191	0	3	TrialsPROC	BP_005_BP19_BA.png	1	2	7	SessionSelectionList													5	nonlure	3	Body	2-Back	6	80	4	0	0	0	1	39	168874	2	14	72	166835	-1	167827	1	992	3	3	2039	53	168888	-54	0																7												
WM080112	149741_fnca	1	1	1	1436642936	1	75.032	75.032	2.0.10.147	2.0.10.242	2.0.10.242	1.0.0.439	7	234	2	3	Verdana	1	80	0	0	0	WM Stimuli\	0.8	1092.875	0.7	1103.28571428571	0.8	996.125	1	581.7	0.9	922.333333333333	1	748.3	0.9	945.444444444444	1	558.5	13	439188	2	439176	27	40	439215	-999999	439191	0	3	TrialsPROC	BP_003_BP16_BA.png	1	2	8	SessionSelectionList													6	nonlure	3	Body	2-Back	7	80	5	0	0	0	2	39	171433	3	14	59	169394	-1	170212	1	818	3	3	2039	53	171447	-54	0																8												
WM080112	149741_fnca	1	1	1	1436642936	1	75.032	75.032	2.0.10.147	2.0.10.242	2.0.10.242	1.0.0.439	7	234	2	3	Verdana	1	80	0	0	0	WM Stimuli\	0.8	1092.875	0.7	1103.28571428571	0.8	996.125	1	581.7	0.9	922.333333333333	1	748.3	0.9	945.444444444444	1	558.5	13	439188	2	439176	27	40	439215	-999999	439191	0	3	TrialsPROC	BP_006_BP2_BA.png	1	2	9	SessionSelectionList													7	lure	3	Body	2-Back	8	80	6	0	0	0	3	39	173992	2	14	59	171953	-1	173187	1	1234	3	3	2039	53	174006	-54	0																9												
WM080112	149741_fnca	1	1	1	1436642936	1	75.032	75.032	2.0.10.147	2.0.10.242	2.0.10.242	1.0.0.439	7	234	2	3	Verdana	1	80	0	0	0	WM Stimuli\	0.8	1092.875	0.7	1103.28571428571	0.8	996.125	1	581.7	0.9	922.333333333333	1	748.3	0.9	945.444444444444	1	558.5	13	439188	2	439176	27	40	439215	-999999	439191	0	3	TrialsPROC	BP_004_BP18_BA.png	1	2	10	SessionSelectionList													8	nonlure	3	Body	2-Back	9	80	7	0	0	0	4	39	176551	3	14	59	174512	-1	175626	1	1114	3	3	2039	53	176565	-54	0																10												
WM080112	149741_fnca	1	1	1	1436642936	1	75.032	75.032	2.0.10.147	2.0.10.242	2.0.10.242	1.0.0.439	7	234	2	3	Verdana	1	80	0	0	0	WM Stimuli\	0.8	1092.875	0.7	1103.28571428571	0.8	996.125	1	581.7	0.9	922.333333333333	1	748.3	0.9	945.444444444444	1	558.5	13	439188	2	439176	27	40	439215	-999999	439191	0	3	TrialsPROC	BP_005_BP19_BA.png	1	2	11	SessionSelectionList													9	lure	3	Body	2-Back	10	80	8	0	0	0	5	39	179110	2	14	59	177071	-1	178087	1	1016	3	3	2039	53	179124	-54	0																11												
WM080112	149741_fnca	1	1	1	1436642936	1	75.032	75.032	2.0.10.147	2.0.10.242	2.0.10.242	1.0.0.439	7	234	2	3	Verdana	1	80	0	0	0	WM Stimuli\	0.8	1092.875	0.7	1103.28571428571	0.8	996.125	1	581.7	0.9	922.333333333333	1	748.3	0.9	945.444444444444	1	558.5	13	439188	2	439176	27	40	439215	-999999	439191	0	3	TrialsPROC	BP_004_BP18_BA.png	1	2	12	SessionSelectionList													10	target	2	Body	2-Back	11	80	9	0	0	0	1	39	181669	2	14	59	179630	-1	180450	1	820	2	2	2039	53	181683	-54	0																12												
WM080112	149741_fnca	1	1	1	1436642936	1	75.032	75.032	2.0.10.147	2.0.10.242	2.0.10.242	1.0.0.439	7	234	2	3	Verdana	1	80	0	0	0	WM Stimuli\	0.8	1092.875	0.7	1103.28571428571	0.8	996.125	1	581.7	0.9	922.333333333333	1	748.3	0.9	945.444444444444	1	558.5	13	439188	2	439176	27	40	439215	-999999	439191	0	4	Cue0BackPROC	FC_001_M1.png	1	2	13	SessionSelectionList																																										19	182149	-20	0												13												
WM080112	149741_fnca	1	1	1	1436642936	1	75.032	75.032	2.0.10.147	2.0.10.242	2.0.10.242	1.0.0.439	7	234	2	3	Verdana	1	80	0	0	0	WM Stimuli\	0.8	1092.875	0.7	1103.28571428571	0.8	996.125	1	581.7	0.9	922.333333333333	1	748.3	0.9	945.444444444444	1	558.5	13	439188	2	439176	27	40	439215	-999999	439191	0	5	TrialsPROC	FC_005_M3.png	1	2	14	SessionSelectionList														nonlure	3	Face	0-Back	12	80	10	0	0	100	1	39	186734	1	13	65	184695	-1	185533	1	838	3	3	2039	52	186747	-53	0					1											14												
WM080112	149741_fnca	1	1	1	1436642936	1	75.032	75.032	2.0.10.147	2.0.10.242	2.0.10.242	1.0.0.439	7	234	2	3	Verdana	1	80	0	0	0	WM Stimuli\	0.8	1092.875	0.7	1103.28571428571	0.8	996.125	1	581.7	0.9	922.333333333333	1	748.3	0.9	945.444444444444	1	558.5	13	439188	2	439176	27	40	439215	-999999	439191	0	5	TrialsPROC	FC_001_M1.png	1	2	15	SessionSelectionList														target	2	Face	0-Back	13	80	11	0	0	100	1	39	189306	2	14	72	187267	-1	187917	1	650	2	2	2039	53	189320	-54	0					2											15												
WM080112	149741_fnca	1	1	1	1436642936	1	75.032	75.032	2.0.10.147	2.0.10.242	2.0.10.242	1.0.0.439	7	234	2	3	Verdana	1	80	0	0	0	WM Stimuli\	0.8	1092.875	0.7	1103.28571428571	0.8	996.125	1	581.7	0.9	922.333333333333	1	748.3	0.9	945.444444444444	1	558.5	13	439188	2	439176	27	40	439215	-999999	439191	0	5	TrialsPROC	FC_003_M2.png	1	2	16	SessionSelectionList														nonlure	3	Face	0-Back	14	80	12	0	0	100	1	39	191878	3	14	72	189839	-1	190301	1	462	3	3	2039	53	191892	-54	0					3											16												
WM080112	149741_fnca	1	1	1	1436642936	1	75.032	75.032	2.0.10.147	2.0.10.242	2.0.10.242	1.0.0.439	7	234	2	3	Verdana	1	80	0	0	0	WM Stimuli\	0.8	1092.875	0.7	1103.28571428571	0.8	996.125	1	581.7	0.9	922.333333333333	1	748.3	0.9	945.444444444444	1	558.5	13	439188	2	439176	27	40	439215	-999999	439191	0	5	TrialsPROC	FC_004_F2.png	1	2	17	SessionSelectionList														nonlure	3	Face	0-Back	15	80	13	0	0	100	2	39	194450	3	14	72	192411	-1	192881	1	470	3	3	2039	53	194464	-54	0					4											17												
WM080112	149741_fnca	1	1	1	1436642936	1	75.032	75.032	2.0.10.147	2.0.10.242	2.0.10.242	1.0.0.439	7	234	2	3	Verdana	1	80	0	0	0	WM Stimuli\	0.8	1092.875	0.7	1103.28571428571	0.8	996.125	1	581.7	0.9	922.333333333333	1	748.3	0.9	945.444444444444	1	558.5	13	439188	2	439176	27	40	439215	-999999	439191	0	5	TrialsPROC	FC_004_F2.png	1	2	18	SessionSelectionList														lure	3	Face	0-Back	16	80	14	0	0	100	3	39	197023	1	13	73	194984	-1	195473	1	489	3	3	2039	52	197036	-53	0					5											18												
WM080112	149741_fnca	1	1	1	1436642936	1	75.032	75.032	2.0.10.147	2.0.10.242	2.0.10.242	1.0.0.439	7	234	2	3	Verdana	1	80	0	0	0	WM Stimuli\	0.8	1092.875	0.7	1103.28571428571	0.8	996.125	1	581.7	0.9	922.333333333333	1	748.3	0.9	945.444444444444	1	558.5	13	439188	2	439176	27	40	439215	-999999	439191	0	5	TrialsPROC	FC_001_M1.png	1	2	19	SessionSelectionList														target	2	Face	0-Back	17	80	15	0	0	100	1	39	199595	1	14	72	197556	-1	198069	1	513	2	2	2039	53	199609	-54	0					6											19												
WM080112	149741_fnca	1	1	1	1436642936	1	75.032	75.032	2.0.10.147	2.0.10.242	2.0.10.242	1.0.0.439	7	234	2	3	Verdana	1	80	0	0	0	WM Stimuli\	0.8	1092.875	0.7	1103.28571428571	0.8	996.125	1	581.7	0.9	922.333333333333	1	748.3	0.9	945.444444444444	1	558.5	13	439188	2	439176	27	40	439215	-999999	439191	0	5	TrialsPROC	FC_006_F3.png	1	2	20	SessionSelectionList														nonlure	3	Face	0-Back	18	80	16	0	0	100	1	40	202168	2	13	72	200128	-1	200695	1	567	3	3	2040	53	202181	-54	0					7											20												
WM080112	149741_fnca	1	1	1	1436642936	1	75.032	75.032	2.0.10.147	2.0.10.242	2.0.10.242	1.0.0.439	7	234	2	3	Verdana	1	80	0	0	0	WM Stimuli\	0.8	1092.875	0.7	1103.28571428571	0.8	996.125	1	581.7	0.9	922.333333333333	1	748.3	0.9	945.444444444444	1	558.5	13	439188	2	439176	27	40	439215	-999999	439191	0	5	TrialsPROC	FC_006_F3.png	1	2	21	SessionSelectionList														lure	3	Face	0-Back	19	80	17	0	0	100	2	39	204739	2	14	72	202700	-1	203217	1	517	3	3	2039	53	204753	-54	0					8											21												
WM080112	149741_fnca	1	1	1	1436642936	1	75.032	75.032	2.0.10.147	2.0.10.242	2.0.10.242	1.0.0.439	7	234	2	3	Verdana	1	80	0	0	0	WM Stimuli\	0.8	1092.875	0.7	1103.28571428571	0.8	996.125	1	581.7	0.9	922.333333333333	1	748.3	0.9	945.444444444444	1	558.5	13	439188	2	439176	27	40	439215	-999999	439191	0	5	TrialsPROC	FC_003_M2.png	1	2	22	SessionSelectionList														lure	3	Face	0-Back	20	80	18	0	0	100	3	39	207312	1	13	73	205273	-1	205966	1	693	3	3	2039	52	207325	-53	0					9											22												
WM080112	149741_fnca	1	1	1	1436642936	1	75.032	75.032	2.0.10.147	2.0.10.242	2.0.10.242	1.0.0.439	7	234	2	3	Verdana	1	80	0	0	0	WM Stimuli\	0.8	1092.875	0.7	1103.28571428571	0.8	996.125	1	581.7	0.9	922.333333333333	1	748.3	0.9	945.444444444444	1	558.5	13	439188	2	439176	27	40	439215	-999999	439191	0	5	TrialsPROC	FC_002_F1.png	1	2	23	SessionSelectionList														nonlure	3	Face	0-Back	21	80	19	0	0	100	4	39	209884	2	14	72	207845	-1	208463	1	618	3	3	2039	53	209898	-54	0					10											23												
WM080112	149741_fnca	1	1	1	1436642936	1	75.032	75.032	2.0.10.147	2.0.10.242	2.0.10.242	1.0.0.439	7	234	2	3	Verdana	1	80	0	0	0	WM Stimuli\	0.8	1092.875	0.7	1103.28571428571	0.8	996.125	1	581.7	0.9	922.333333333333	1	748.3	0.9	945.444444444444	1	558.5	13	439188	2	439176	27	40	439215	-999999	439191	0	6	Fix15secPROC	""	1	2	24	SessionSelectionList																																															6	210351	-7	0							24												
WM080112	149741_fnca	1	1	1	1436642936	1	75.032	75.032	2.0.10.147	2.0.10.242	2.0.10.242	1.0.0.439	7	234	2	3	Verdana	1	80	0	0	0	WM Stimuli\	0.8	1092.875	0.7	1103.28571428571	0.8	996.125	1	581.7	0.9	922.333333333333	1	748.3	0.9	945.444444444444	1	558.5	13	439188	2	439176	27	40	439215	-999999	439191	0	7	Cue2BackPROC	""	1	2	25	SessionSelectionList									12	225357	-13	0																																													25												
WM080112	149741_fnca	1	1	1	1436642936	1	75.032	75.032	2.0.10.147	2.0.10.242	2.0.10.242	1.0.0.439	7	234	2	3	Verdana	1	80	0	0	0	WM Stimuli\	0.8	1092.875	0.7	1103.28571428571	0.8	996.125	1	581.7	0.9	922.333333333333	1	748.3	0.9	945.444444444444	1	558.5	13	439188	2	439176	27	40	439215	-999999	439191	0	8	TrialsPROC	TO_001_TOOL1_BA.png	1	2	26	SessionSelectionList														nonlure	3	Tools	2-Back	22	80	20	0	0	100	5	39	229942	3	14	58	227903	-1	229251	1	1348	3	3	2039	53	229956	-54	0										1						26												
WM080112	149741_fnca	1	1	1	1436642936	1	75.032	75.032	2.0.10.147	2.0.10.242	2.0.10.242	1.0.0.439	7	234	2	3	Verdana	1	80	0	0	0	WM Stimuli\	0.8	1092.875	0.7	1103.28571428571	0.8	996.125	1	581.7	0.9	922.333333333333	1	748.3	0.9	945.444444444444	1	558.5	13	439188	2	439176	27	40	439215	-999999	439191	0	8	TrialsPROC	TO_002_TOOL2_BA.png	1	2	27	SessionSelectionList														nonlure	3	Tools	2-Back	23	80	21	0	0	100	6	39	232501	3	14	59	230462	-1	231445	1	983	3	3	2039	53	232515	-54	0										2						27												
WM080112	149741_fnca	1	1	1	1436642936	1	75.032	75.032	2.0.10.147	2.0.10.242	2.0.10.242	1.0.0.439	7	234	2	3	Verdana	1	80	0	0	0	WM Stimuli\	0.8	1092.875	0.7	1103.28571428571	0.8	996.125	1	581.7	0.9	922.333333333333	1	748.3	0.9	945.444444444444	1	558.5	13	439188	2	439176	27	40	439215	-999999	439191	0	8	TrialsPROC	TO_004_TOOL4_BA.png	1	2	28	SessionSelectionList														nonlure	3	Tools	2-Back	24	80	22	0	0	100	7	39	235060	2	14	59	233021	-1	234280	1	1259	3	3	2039	53	235074	-54	0										3						28												
WM080112	149741_fnca	1	1	1	1436642936	1	75.032	75.032	2.0.10.147	2.0.10.242	2.0.10.242	1.0.0.439	7	234	2	3	Verdana	1	80	0	0	0	WM Stimuli\	0.8	1092.875	0.7	1103.28571428571	0.8	996.125	1	581.7	0.9	922.333333333333	1	748.3	0.9	945.444444444444	1	558.5	13	439188	2	439176	27	40	439215	-999999	439191	0	8	TrialsPROC	TO_002_TOOL2_BA.png	1	2	29	SessionSelectionList														target	2	Tools	2-Back	25	80	23	0	0	100	1	39	237619	1	14	59	235580	-1	236107	1	527	2	2	2039	53	237633	-54	0										4						29												
WM080112	149741_fnca	1	1	1	1436642936	1	75.032	75.032	2.0.10.147	2.0.10.242	2.0.10.242	1.0.0.439	7	234	2	3	Verdana	1	80	0	0	0	WM Stimuli\	0.8	1092.875	0.7	1103.28571428571	0.8	996.125	1	581.7	0.9	922.333333333333	1	748.3	0.9	945.444444444444	1	558.5	13	439188	2	439176	27	40	439215	-999999	439191	0	8	TrialsPROC	TO_001_TOOL1_BA.png	1	2	30	SessionSelectionList														lure	3	Tools	2-Back	26	80	24	0	0	100	1	39	240178	2	14	59	238139	-1	239044	1	905	3	3	2039	53	240192	-54	0										5						30												
WM080112	149741_fnca	1	1	1	1436642936	1	75.032	75.032	2.0.10.147	2.0.10.242	2.0.10.242	1.0.0.439	7	234	2	3	Verdana	1	80	0	0	0	WM Stimuli\	0.8	1092.875	0.7	1103.28571428571	0.8	996.125	1	581.7	0.9	922.333333333333	1	748.3	0.9	945.444444444444	1	558.5	13	439188	2	439176	27	40	439215	-999999	439191	0	8	TrialsPROC	TO_004_TOOL4_BA.png	1	2	31	SessionSelectionList														lure	3	Tools	2-Back	27	80	25	0	0	100	2	39	242737	2	14	59	240698	-1	241625	1	927	3	3	2039	53	242751	-54	0										6						31												
WM080112	149741_fnca	1	1	1	1436642936	1	75.032	75.032	2.0.10.147	2.0.10.242	2.0.10.242	1.0.0.439	7	234	2	3	Verdana	1	80	0	0	0	WM Stimuli\	0.8	1092.875	0.7	1103.28571428571	0.8	996.125	1	581.7	0.9	922.333333333333	1	748.3	0.9	945.444444444444	1	558.5	13	439188	2	439176	27	40	439215	-999999	439191	0	8	TrialsPROC	TO_006_TOOL6_BA.png	1	2	32	SessionSelectionList														nonlure	3	Tools	2-Back	28	80	26	0	0	100	3	39	245296	2	13	59	243257	-1	244337	1	1080	3	3	2039	52	245309	-53	0										7						32												
WM080112	149741_fnca	1	1	1	1436642936	1	75.032	75.032	2.0.10.147	2.0.10.242	2.0.10.242	1.0.0.439	7	234	2	3	Verdana	1	80	0	0	0	WM Stimuli\	0.8	1092.875	0.7	1103.28571428571	0.8	996.125	1	581.7	0.9	922.333333333333	1	748.3	0.9	945.444444444444	1	558.5	13	439188	2	439176	27	40	439215	-999999	439191	0	8	TrialsPROC	TO_005_TOOL5_BA.png	1	2	33	SessionSelectionList														nonlure	3	Tools	2-Back	29	80	27	0	0	100	4	39	247855	2	13	59	245816	-1	246584	1	768	3	3	2039	52	247868	-53	0										8						33												
WM080112	149741_fnca	1	1	1	1436642936	1	75.032	75.032	2.0.10.147	2.0.10.242	2.0.10.242	1.0.0.439	7	234	2	3	Verdana	1	80	0	0	0	WM Stimuli\	0.8	1092.875	0.7	1103.28571428571	0.8	996.125	1	581.7	0.9	922.333333333333	1	748.3	0.9	945.444444444444	1	558.5	13	439188	2	439176	27	40	439215	-999999	439191	0	8	TrialsPROC	TO_006_TOOL6_BA.png	1	2	34	SessionSelectionList														target	2	Tools	2-Back	30	80	28	0	0	100	5	39	250414	2	13	59	248375	-1	249414	0	1039	3	2	2039	52	250427	-53	0										9						34												
WM080112	149741_fnca	1	1	1	1436642936	1	75.032	75.032	2.0.10.147	2.0.10.242	2.0.10.242	1.0.0.439	7	234	2	3	Verdana	1	80	0	0	0	WM Stimuli\	0.8	1092.875	0.7	1103.28571428571	0.8	996.125	1	581.7	0.9	922.333333333333	1	748.3	0.9	945.444444444444	1	558.5	13	439188	2	439176	27	40	439215	-999999	439191	0	8	TrialsPROC	TO_003_TOOL3_BA.png	1	2	35	SessionSelectionList														nonlure	3	Tools	2-Back	31	80	29	0	0	100	6	40	252973	1	13	58	250933	-1	251645	1	712	3	3	2040	53	252986	-54	0										10						35												
WM080112	149741_fnca	1	1	1	1436642936	1	75.032	75.032	2.0.10.147	2.0.10.242	2.0.10.242	1.0.0.439	7	234	2	3	Verdana	1	80	0	0	0	WM Stimuli\	0.8	1092.875	0.7	1103.28571428571	0.8	996.125	1	581.7	0.9	922.333333333333	1	748.3	0.9	945.444444444444	1	558.5	13	439188	2	439176	27	40	439215	-999999	439191	0	9	Cue0BackPROC	BP_007_BP20_BA.png	1	2	36	SessionSelectionList																																										19	253452	-20	0												36												
WM080112	149741_fnca	1	1	1	1436642936	1	75.032	75.032	2.0.10.147	2.0.10.242	2.0.10.242	1.0.0.439	7	234	2	3	Verdana	1	80	0	0	0	WM Stimuli\	0.8	1092.875	0.7	1103.28571428571	0.8	996.125	1	581.7	0.9	922.333333333333	1	748.3	0.9	945.444444444444	1	558.5	13	439188	2	439176	27	40	439215	-999999	439191	0	10	TrialsPROC	BP_007_BP20_BA.png	1	2	37	SessionSelectionList														target	2	Body	0-Back	32	80	29	0	1	91	6	39	258024	2	13	52	255985	-1	0	0	0	""	2	2039	52	258037	-53	0											1					37												
WM080112	149741_fnca	1	1	1	1436642936	1	75.032	75.032	2.0.10.147	2.0.10.242	2.0.10.242	1.0.0.439	7	234	2	3	Verdana	1	80	0	0	0	WM Stimuli\	0.8	1092.875	0.7	1103.28571428571	0.8	996.125	1	581.7	0.9	922.333333333333	1	748.3	0.9	945.444444444444	1	558.5	13	439188	2	439176	27	40	439215	-999999	439191	0	10	TrialsPROC	BP_011_BP4_BA.png	1	2	38	SessionSelectionList														nonlure	3	Body	0-Back	33	80	30	0	0	92	1	39	260596	2	14	72	258557	-1	260170	1	1613	3	3	2039	53	260610	-54	0											2					38												
WM080112	149741_fnca	1	1	1	1436642936	1	75.032	75.032	2.0.10.147	2.0.10.242	2.0.10.242	1.0.0.439	7	234	2	3	Verdana	1	80	0	0	0	WM Stimuli\	0.8	1092.875	0.7	1103.28571428571	0.8	996.125	1	581.7	0.9	922.333333333333	1	748.3	0.9	945.444444444444	1	558.5	13	439188	2	439176	27	40	439215	-999999	439191	0	10	TrialsPROC	BP_010_BP3_BA.png	1	2	39	SessionSelectionList														nonlure	3	Body	0-Back	34	80	31	0	0	92	2	39	263155	1	14	59	261116	-1	261969	1	853	3	3	2039	53	263169	-54	0											3					39												
WM080112	149741_fnca	1	1	1	1436642936	1	75.032	75.032	2.0.10.147	2.0.10.242	2.0.10.242	1.0.0.439	7	234	2	3	Verdana	1	80	0	0	0	WM Stimuli\	0.8	1092.875	0.7	1103.28571428571	0.8	996.125	1	581.7	0.9	922.333333333333	1	748.3	0.9	945.444444444444	1	558.5	13	439188	2	439176	27	40	439215	-999999	439191	0	10	TrialsPROC	BP_008_BP21_BA.png	1	2	40	SessionSelectionList														nonlure	3	Body	0-Back	35	80	32	0	0	93	3	39	265714	1	14	59	263675	-1	265421	1	1746	3	3	2039	53	265728	-54	0											4					40												
WM080112	149741_fnca	1	1	1	1436642936	1	75.032	75.032	2.0.10.147	2.0.10.242	2.0.10.242	1.0.0.439	7	234	2	3	Verdana	1	80	0	0	0	WM Stimuli\	0.8	1092.875	0.7	1103.28571428571	0.8	996.125	1	581.7	0.9	922.333333333333	1	748.3	0.9	945.444444444444	1	558.5	13	439188	2	439176	27	40	439215	-999999	439191	0	10	TrialsPROC	BP_011_BP4_BA.png	1	2	41	SessionSelectionList														lure	3	Body	0-Back	36	80	33	0	0	87	1	39	268273	2	13	59	266234	-1	266959	0	725	2	3	2039	52	268286	-53	0											5					41												
WM080112	149741_fnca	1	1	1	1436642936	1	75.032	75.032	2.0.10.147	2.0.10.242	2.0.10.242	1.0.0.439	7	234	2	3	Verdana	1	80	0	0	0	WM Stimuli\	0.8	1092.875	0.7	1103.28571428571	0.8	996.125	1	581.7	0.9	922.333333333333	1	748.3	0.9	945.444444444444	1	558.5	13	439188	2	439176	27	40	439215	-999999	439191	0	10	TrialsPROC	BP_009_BP22_BA.png	1	2	42	SessionSelectionList														nonlure	3	Body	0-Back	37	80	34	0	0	88	1	39	270832	1	13	59	268793	-1	269584	1	791	3	3	2039	52	270845	-53	0											6					42												
WM080112	149741_fnca	1	1	1	1436642936	1	75.032	75.032	2.0.10.147	2.0.10.242	2.0.10.242	1.0.0.439	7	234	2	3	Verdana	1	80	0	0	0	WM Stimuli\	0.8	1092.875	0.7	1103.28571428571	0.8	996.125	1	581.7	0.9	922.333333333333	1	748.3	0.9	945.444444444444	1	558.5	13	439188	2	439176	27	40	439215	-999999	439191	0	10	TrialsPROC	BP_009_BP22_BA.png	1	2	43	SessionSelectionList														lure	3	Body	0-Back	38	80	35	0	0	88	2	39	273391	2	13	59	271352	-1	271994	1	642	3	3	2039	52	273404	-53	0											7					43												
WM080112	149741_fnca	1	1	1	1436642936	1	75.032	75.032	2.0.10.147	2.0.10.242	2.0.10.242	1.0.0.439	7	234	2	3	Verdana	1	80	0	0	0	WM Stimuli\	0.8	1092.875	0.7	1103.28571428571	0.8	996.125	1	581.7	0.9	922.333333333333	1	748.3	0.9	945.444444444444	1	558.5	13	439188	2	439176	27	40	439215	-999999	439191	0	10	TrialsPROC	BP_008_BP21_BA.png	1	2	44	SessionSelectionList														lure	3	Body	0-Back	39	80	36	0	0	89	3	40	275950	1	13	58	273910	-1	275187	1	1277	3	3	2040	53	275963	-54	0											8					44												
WM080112	149741_fnca	1	1	1	1436642936	1	75.032	75.032	2.0.10.147	2.0.10.242	2.0.10.242	1.0.0.439	7	234	2	3	Verdana	1	80	0	0	0	WM Stimuli\	0.8	1092.875	0.7	1103.28571428571	0.8	996.125	1	581.7	0.9	922.333333333333	1	748.3	0.9	945.444444444444	1	558.5	13	439188	2	439176	27	40	439215	-999999	439191	0	10	TrialsPROC	BP_007_BP20_BA.png	1	2	45	SessionSelectionList														target	2	Body	0-Back	40	80	36	0	1	84	3	40	278509	2	13	59	276469	-1	0	0	0	""	2	2040	53	278522	-54	0											9					45												
WM080112	149741_fnca	1	1	1	1436642936	1	75.032	75.032	2.0.10.147	2.0.10.242	2.0.10.242	1.0.0.439	7	234	2	3	Verdana	1	80	0	0	0	WM Stimuli\	0.8	1092.875	0.7	1103.28571428571	0.8	996.125	1	581.7	0.9	922.333333333333	1	748.3	0.9	945.444444444444	1	558.5	13	439188	2	439176	27	40	439215	-999999	439191	0	10	TrialsPROC	BP_012_BP5_BA.png	1	2	46	SessionSelectionList														nonlure	3	Body	0-Back	41	80	37	0	0	85	1	38	281067	3	14	60	279029	-1	279830	1	801	3	3	2038	52	281081	-53	0											10					46												
WM080112	149741_fnca	1	1	1	1436642936	1	75.032	75.032	2.0.10.147	2.0.10.242	2.0.10.242	1.0.0.439	7	234	2	3	Verdana	1	80	0	0	0	WM Stimuli\	0.8	1092.875	0.7	1103.28571428571	0.8	996.125	1	581.7	0.9	922.333333333333	1	748.3	0.9	945.444444444444	1	558.5	13	439188	2	439176	27	40	439215	-999999	439191	0	11	Fix15secPROC	""	1	2	47	SessionSelectionList																																															5	281534	-6	0							47												
WM080112	149741_fnca	1	1	1	1436642936	1	75.032	75.032	2.0.10.147	2.0.10.242	2.0.10.242	1.0.0.439	7	234	2	3	Verdana	1	80	0	0	0	WM Stimuli\	0.8	1092.875	0.7	1103.28571428571	0.8	996.125	1	581.7	0.9	922.333333333333	1	748.3	0.9	945.444444444444	1	558.5	13	439188	2	439176	27	40	439215	-999999	439191	0	12	Cue0BackPROC	PL_001_92012.png	1	2	48	SessionSelectionList																																										12	296541	-13	0												48												
WM080112	149741_fnca	1	1	1	1436642936	1	75.032	75.032	2.0.10.147	2.0.10.242	2.0.10.242	1.0.0.439	7	234	2	3	Verdana	1	80	0	0	0	WM Stimuli\	0.8	1092.875	0.7	1103.28571428571	0.8	996.125	1	581.7	0.9	922.333333333333	1	748.3	0.9	945.444444444444	1	558.5	13	439188	2	439176	27	40	439215	-999999	439191	0	13	TrialsPROC	PL_003_92016.png	1	2	49	SessionSelectionList														nonlure	3	Place	0-Back	42	80	38	0	0	86	2	39	301139	3	14	71	299100	-1	300047	1	947	3	3	2039	53	301153	-54	0												1				49												
WM080112	149741_fnca	1	1	1	1436642936	1	75.032	75.032	2.0.10.147	2.0.10.242	2.0.10.242	1.0.0.439	7	234	2	3	Verdana	1	80	0	0	0	WM Stimuli\	0.8	1092.875	0.7	1103.28571428571	0.8	996.125	1	581.7	0.9	922.333333333333	1	748.3	0.9	945.444444444444	1	558.5	13	439188	2	439176	27	40	439215	-999999	439191	0	13	TrialsPROC	PL_003_92016.png	1	2	50	SessionSelectionList														lure	3	Place	0-Back	43	80	39	0	0	86	3	39	303711	2	14	72	301672	-1	302478	1	806	3	3	2039	53	303725	-54	0												2				50												
WM080112	149741_fnca	1	1	1	1436642936	1	75.032	75.032	2.0.10.147	2.0.10.242	2.0.10.242	1.0.0.439	7	234	2	3	Verdana	1	80	0	0	0	WM Stimuli\	0.8	1092.875	0.7	1103.28571428571	0.8	996.125	1	581.7	0.9	922.333333333333	1	748.3	0.9	945.444444444444	1	558.5	13	439188	2	439176	27	40	439215	-999999	439191	0	13	TrialsPROC	PL_006_92025.png	1	2	51	SessionSelectionList														nonlure	3	Place	0-Back	44	80	40	0	0	87	4	40	306284	2	13	72	304244	-1	305497	1	1253	3	3	2040	53	306297	-54	0												3				51												
WM080112	149741_fnca	1	1	1	1436642936	1	75.032	75.032	2.0.10.147	2.0.10.242	2.0.10.242	1.0.0.439	7	234	2	3	Verdana	1	80	0	0	0	WM Stimuli\	0.8	1092.875	0.7	1103.28571428571	0.8	996.125	1	581.7	0.9	922.333333333333	1	748.3	0.9	945.444444444444	1	558.5	13	439188	2	439176	27	40	439215	-999999	439191	0	13	TrialsPROC	PL_001_92012.png	1	2	52	SessionSelectionList														target	2	Place	0-Back	45	80	41	0	0	88	1	39	308856	2	14	73	306817	-1	307515	1	698	2	2	2039	53	308870	-54	0												4				52												
WM080112	149741_fnca	1	1	1	1436642936	1	75.032	75.032	2.0.10.147	2.0.10.242	2.0.10.242	1.0.0.439	7	234	2	3	Verdana	1	80	0	0	0	WM Stimuli\	0.8	1092.875	0.7	1103.28571428571	0.8	996.125	1	581.7	0.9	922.333333333333	1	748.3	0.9	945.444444444444	1	558.5	13	439188	2	439176	27	40	439215	-999999	439191	0	13	TrialsPROC	PL_004_92023.png	1	2	53	SessionSelectionList														nonlure	3	Place	0-Back	46	80	42	0	0	88	1	39	311428	3	14	72	309389	-1	309943	1	554	3	3	2039	53	311442	-54	0												5				53												
WM080112	149741_fnca	1	1	1	1436642936	1	75.032	75.032	2.0.10.147	2.0.10.242	2.0.10.242	1.0.0.439	7	234	2	3	Verdana	1	80	0	0	0	WM Stimuli\	0.8	1092.875	0.7	1103.28571428571	0.8	996.125	1	581.7	0.9	922.333333333333	1	748.3	0.9	945.444444444444	1	558.5	13	439188	2	439176	27	40	439215	-999999	439191	0	13	TrialsPROC	PL_005_92024.png	1	2	54	SessionSelectionList														nonlure	3	Place	0-Back	47	80	43	0	0	88	2	39	313987	3	14	59	311948	-1	312777	1	829	3	3	2039	53	314001	-54	0												6				54												
WM080112	149741_fnca	1	1	1	1436642936	1	75.032	75.032	2.0.10.147	2.0.10.242	2.0.10.242	1.0.0.439	7	234	2	3	Verdana	1	80	0	0	0	WM Stimuli\	0.8	1092.875	0.7	1103.28571428571	0.8	996.125	1	581.7	0.9	922.333333333333	1	748.3	0.9	945.444444444444	1	558.5	13	439188	2	439176	27	40	439215	-999999	439191	0	13	TrialsPROC	PL_001_92012.png	1	2	55	SessionSelectionList														target	2	Place	0-Back	48	80	44	0	0	89	1	39	316559	2	14	72	314520	-1	315122	1	602	2	2	2039	53	316573	-54	0												7				55												
WM080112	149741_fnca	1	1	1	1436642936	1	75.032	75.032	2.0.10.147	2.0.10.242	2.0.10.242	1.0.0.439	7	234	2	3	Verdana	1	80	0	0	0	WM Stimuli\	0.8	1092.875	0.7	1103.28571428571	0.8	996.125	1	581.7	0.9	922.333333333333	1	748.3	0.9	945.444444444444	1	558.5	13	439188	2	439176	27	40	439215	-999999	439191	0	13	TrialsPROC	PL_002_92014.png	1	2	56	SessionSelectionList														nonlure	3	Place	0-Back	49	80	45	0	0	89	1	40	319132	2	13	72	317092	-1	317598	1	506	3	3	2040	53	319145	-54	0												8				56												
WM080112	149741_fnca	1	1	1	1436642936	1	75.032	75.032	2.0.10.147	2.0.10.242	2.0.10.242	1.0.0.439	7	234	2	3	Verdana	1	80	0	0	0	WM Stimuli\	0.8	1092.875	0.7	1103.28571428571	0.8	996.125	1	581.7	0.9	922.333333333333	1	748.3	0.9	945.444444444444	1	558.5	13	439188	2	439176	27	40	439215	-999999	439191	0	13	TrialsPROC	PL_004_92023.png	1	2	57	SessionSelectionList														lure	3	Place	0-Back	50	80	46	0	0	90	2	39	321704	1	13	73	319665	-1	320332	1	667	3	3	2039	52	321717	-53	0												9				57												
WM080112	149741_fnca	1	1	1	1436642936	1	75.032	75.032	2.0.10.147	2.0.10.242	2.0.10.242	1.0.0.439	7	234	2	3	Verdana	1	80	0	0	0	WM Stimuli\	0.8	1092.875	0.7	1103.28571428571	0.8	996.125	1	581.7	0.9	922.333333333333	1	748.3	0.9	945.444444444444	1	558.5	13	439188	2	439176	27	40	439215	-999999	439191	0	13	TrialsPROC	PL_006_92025.png	1	2	58	SessionSelectionList														lure	3	Place	0-Back	51	80	47	0	0	90	3	39	324263	2	13	59	322224	-1	322845	1	621	3	3	2039	52	324276	-53	0												10				58												
WM080112	149741_fnca	1	1	1	1436642936	1	75.032	75.032	2.0.10.147	2.0.10.242	2.0.10.242	1.0.0.439	7	234	2	3	Verdana	1	80	0	0	0	WM Stimuli\	0.8	1092.875	0.7	1103.28571428571	0.8	996.125	1	581.7	0.9	922.333333333333	1	748.3	0.9	945.444444444444	1	558.5	13	439188	2	439176	27	40	439215	-999999	439191	0	14	Cue2BackPROC	""	1	2	59	SessionSelectionList									5	324729	-6	0																																													59												
WM080112	149741_fnca	1	1	1	1436642936	1	75.032	75.032	2.0.10.147	2.0.10.242	2.0.10.242	1.0.0.439	7	234	2	3	Verdana	1	80	0	0	0	WM Stimuli\	0.8	1092.875	0.7	1103.28571428571	0.8	996.125	1	581.7	0.9	922.333333333333	1	748.3	0.9	945.444444444444	1	558.5	13	439188	2	439176	27	40	439215	-999999	439191	0	15	TrialsPROC	FC_010_F5.png	1	2	60	SessionSelectionList														nonlure	3	Face	2-Back	52	80	47	0	1	90	3	39	329327	2	14	64	327288	-1	0	0	0	""	3	2039	53	329341	-54	0													1			60												
WM080112	149741_fnca	1	1	1	1436642936	1	75.032	75.032	2.0.10.147	2.0.10.242	2.0.10.242	1.0.0.439	7	234	2	3	Verdana	1	80	0	0	0	WM Stimuli\	0.8	1092.875	0.7	1103.28571428571	0.8	996.125	1	581.7	0.9	922.333333333333	1	748.3	0.9	945.444444444444	1	558.5	13	439188	2	439176	27	40	439215	-999999	439191	0	15	TrialsPROC	FC_012_F6.png	1	2	61	SessionSelectionList														nonlure	3	Face	2-Back	53	80	48	0	0	90	1	40	331900	2	13	72	329860	-1	330994	1	1134	3	3	2040	53	331913	-54	0													2			61												
WM080112	149741_fnca	1	1	1	1436642936	1	75.032	75.032	2.0.10.147	2.0.10.242	2.0.10.242	1.0.0.439	7	234	2	3	Verdana	1	80	0	0	0	WM Stimuli\	0.8	1092.875	0.7	1103.28571428571	0.8	996.125	1	581.7	0.9	922.333333333333	1	748.3	0.9	945.444444444444	1	558.5	13	439188	2	439176	27	40	439215	-999999	439191	0	15	TrialsPROC	FC_010_F5.png	1	2	62	SessionSelectionList														target	2	Face	2-Back	54	80	49	0	0	90	1	39	334472	2	13	73	332433	-1	333000	1	567	2	2	2039	52	334485	-53	0													3			62												
WM080112	149741_fnca	1	1	1	1436642936	1	75.032	75.032	2.0.10.147	2.0.10.242	2.0.10.242	1.0.0.439	7	234	2	3	Verdana	1	80	0	0	0	WM Stimuli\	0.8	1092.875	0.7	1103.28571428571	0.8	996.125	1	581.7	0.9	922.333333333333	1	748.3	0.9	945.444444444444	1	558.5	13	439188	2	439176	27	40	439215	-999999	439191	0	15	TrialsPROC	FC_008_F4.png	1	2	63	SessionSelectionList														nonlure	3	Face	2-Back	55	80	50	0	0	90	1	39	337044	1	14	72	335005	-1	335783	1	778	3	3	2039	53	337058	-54	0													4			63												
WM080112	149741_fnca	1	1	1	1436642936	1	75.032	75.032	2.0.10.147	2.0.10.242	2.0.10.242	1.0.0.439	7	234	2	3	Verdana	1	80	0	0	0	WM Stimuli\	0.8	1092.875	0.7	1103.28571428571	0.8	996.125	1	581.7	0.9	922.333333333333	1	748.3	0.9	945.444444444444	1	558.5	13	439188	2	439176	27	40	439215	-999999	439191	0	15	TrialsPROC	FC_012_F6.png	1	2	64	SessionSelectionList														lure	3	Face	2-Back	56	80	51	0	0	90	2	39	339616	2	14	72	337577	-1	339192	1	1615	3	3	2039	53	339630	-54	0													5			64												
WM080112	149741_fnca	1	1	1	1436642936	1	75.032	75.032	2.0.10.147	2.0.10.242	2.0.10.242	1.0.0.439	7	234	2	3	Verdana	1	80	0	0	0	WM Stimuli\	0.8	1092.875	0.7	1103.28571428571	0.8	996.125	1	581.7	0.9	922.333333333333	1	748.3	0.9	945.444444444444	1	558.5	13	439188	2	439176	27	40	439215	-999999	439191	0	15	TrialsPROC	FC_008_F4.png	1	2	65	SessionSelectionList														target	2	Face	2-Back	57	80	52	0	0	90	1	40	342189	1	13	72	340149	-1	341061	1	912	2	2	2040	53	342202	-54	0													6			65												
WM080112	149741_fnca	1	1	1	1436642936	1	75.032	75.032	2.0.10.147	2.0.10.242	2.0.10.242	1.0.0.439	7	234	2	3	Verdana	1	80	0	0	0	WM Stimuli\	0.8	1092.875	0.7	1103.28571428571	0.8	996.125	1	581.7	0.9	922.333333333333	1	748.3	0.9	945.444444444444	1	558.5	13	439188	2	439176	27	40	439215	-999999	439191	0	15	TrialsPROC	FC_007_M4.png	1	2	66	SessionSelectionList														nonlure	3	Face	2-Back	58	80	53	0	0	90	1	39	344761	2	13	73	342722	-1	343357	1	635	3	3	2039	52	344774	-53	0													7			66												
WM080112	149741_fnca	1	1	1	1436642936	1	75.032	75.032	2.0.10.147	2.0.10.242	2.0.10.242	1.0.0.439	7	234	2	3	Verdana	1	80	0	0	0	WM Stimuli\	0.8	1092.875	0.7	1103.28571428571	0.8	996.125	1	581.7	0.9	922.333333333333	1	748.3	0.9	945.444444444444	1	558.5	13	439188	2	439176	27	40	439215	-999999	439191	0	15	TrialsPROC	FC_007_M4.png	1	2	67	SessionSelectionList														lure	3	Face	2-Back	59	80	54	0	0	90	2	39	347333	2	14	72	345294	-1	346283	1	989	3	3	2039	53	347347	-54	0													8			67												
WM080112	149741_fnca	1	1	1	1436642936	1	75.032	75.032	2.0.10.147	2.0.10.242	2.0.10.242	1.0.0.439	7	234	2	3	Verdana	1	80	0	0	0	WM Stimuli\	0.8	1092.875	0.7	1103.28571428571	0.8	996.125	1	581.7	0.9	922.333333333333	1	748.3	0.9	945.444444444444	1	558.5	13	439188	2	439176	27	40	439215	-999999	439191	0	15	TrialsPROC	FC_009_M5.png	1	2	68	SessionSelectionList														nonlure	3	Face	2-Back	60	80	55	0	0	90	3	39	349905	2	14	72	347866	-1	349205	1	1339	3	3	2039	53	349919	-54	0													9			68												
WM080112	149741_fnca	1	1	1	1436642936	1	75.032	75.032	2.0.10.147	2.0.10.242	2.0.10.242	1.0.0.439	7	234	2	3	Verdana	1	80	0	0	0	WM Stimuli\	0.8	1092.875	0.7	1103.28571428571	0.8	996.125	1	581.7	0.9	922.333333333333	1	748.3	0.9	945.444444444444	1	558.5	13	439188	2	439176	27	40	439215	-999999	439191	0	15	TrialsPROC	FC_011_M6.png	1	2	69	SessionSelectionList														nonlure	3	Face	2-Back	61	80	56	0	0	90	1	40	352478	1	13	72	350438	-1	351189	0	751	2	3	2040	53	352491	-54	0													10			69												
WM080112	149741_fnca	1	1	1	1436642936	1	75.032	75.032	2.0.10.147	2.0.10.242	2.0.10.242	1.0.0.439	7	234	2	3	Verdana	1	80	0	0	0	WM Stimuli\	0.8	1092.875	0.7	1103.28571428571	0.8	996.125	1	581.7	0.9	922.333333333333	1	748.3	0.9	945.444444444444	1	558.5	13	439188	2	439176	27	40	439215	-999999	439191	0	16	Fix15secPROC	""	1	2	70	SessionSelectionList																																															6	352944	-7	0							70												
WM080112	149741_fnca	1	1	1	1436642936	1	75.032	75.032	2.0.10.147	2.0.10.242	2.0.10.242	1.0.0.439	7	234	2	3	Verdana	1	80	0	0	0	WM Stimuli\	0.8	1092.875	0.7	1103.28571428571	0.8	996.125	1	581.7	0.9	922.333333333333	1	748.3	0.9	945.444444444444	1	558.5	13	439188	2	439176	27	40	439215	-999999	439191	0	17	Cue0BackPROC	TO_007_TOOL7_BA.png	1	2	71	SessionSelectionList																																										13	367951	-14	0												71												
WM080112	149741_fnca	1	1	1	1436642936	1	75.032	75.032	2.0.10.147	2.0.10.242	2.0.10.242	1.0.0.439	7	234	2	3	Verdana	1	80	0	0	0	WM Stimuli\	0.8	1092.875	0.7	1103.28571428571	0.8	996.125	1	581.7	0.9	922.333333333333	1	748.3	0.9	945.444444444444	1	558.5	13	439188	2	439176	27	40	439215	-999999	439191	0	18	TrialsPROC	TO_010_TOOL10_BA.png	1	2	72	SessionSelectionList														nonlure	3	Tools	0-Back	62	80	57	0	0	90	1	39	372536	2	13	59	370497	-1	371203	1	706	3	3	2039	52	372549	-53	0														1		72												
WM080112	149741_fnca	1	1	1	1436642936	1	75.032	75.032	2.0.10.147	2.0.10.242	2.0.10.242	1.0.0.439	7	234	2	3	Verdana	1	80	0	0	0	WM Stimuli\	0.8	1092.875	0.7	1103.28571428571	0.8	996.125	1	581.7	0.9	922.333333333333	1	748.3	0.9	945.444444444444	1	558.5	13	439188	2	439176	27	40	439215	-999999	439191	0	18	TrialsPROC	TO_009_TOOL9_BA.png	1	2	73	SessionSelectionList														nonlure	3	Tools	0-Back	63	80	58	0	0	91	2	39	375095	1	13	59	373056	-1	373524	1	468	3	3	2039	52	375108	-53	0														2		73												
WM080112	149741_fnca	1	1	1	1436642936	1	75.032	75.032	2.0.10.147	2.0.10.242	2.0.10.242	1.0.0.439	7	234	2	3	Verdana	1	80	0	0	0	WM Stimuli\	0.8	1092.875	0.7	1103.28571428571	0.8	996.125	1	581.7	0.9	922.333333333333	1	748.3	0.9	945.444444444444	1	558.5	13	439188	2	439176	27	40	439215	-999999	439191	0	18	TrialsPROC	TO_009_TOOL9_BA.png	1	2	74	SessionSelectionList														lure	3	Tools	0-Back	64	80	59	0	0	91	3	39	377654	1	13	59	375615	-1	376253	1	638	3	3	2039	52	377667	-53	0														3		74												
WM080112	149741_fnca	1	1	1	1436642936	1	75.032	75.032	2.0.10.147	2.0.10.242	2.0.10.242	1.0.0.439	7	234	2	3	Verdana	1	80	0	0	0	WM Stimuli\	0.8	1092.875	0.7	1103.28571428571	0.8	996.125	1	581.7	0.9	922.333333333333	1	748.3	0.9	945.444444444444	1	558.5	13	439188	2	439176	27	40	439215	-999999	439191	0	18	TrialsPROC	TO_008_TOOL8_BA.png	1	2	75	SessionSelectionList														nonlure	3	Tools	0-Back	65	80	60	0	0	91	4	40	380213	1	13	58	378173	-1	378831	1	658	3	3	2040	53	380226	-54	0														4		75												
WM080112	149741_fnca	1	1	1	1436642936	1	75.032	75.032	2.0.10.147	2.0.10.242	2.0.10.242	1.0.0.439	7	234	2	3	Verdana	1	80	0	0	0	WM Stimuli\	0.8	1092.875	0.7	1103.28571428571	0.8	996.125	1	581.7	0.9	922.333333333333	1	748.3	0.9	945.444444444444	1	558.5	13	439188	2	439176	27	40	439215	-999999	439191	0	18	TrialsPROC	TO_011_TOOL11_BA.png	1	2	76	SessionSelectionList														nonlure	3	Tools	0-Back	66	80	61	0	0	91	5	40	382772	1	13	59	380732	-1	381261	1	529	3	3	2040	53	382785	-54	0														5		76												
WM080112	149741_fnca	1	1	1	1436642936	1	75.032	75.032	2.0.10.147	2.0.10.242	2.0.10.242	1.0.0.439	7	234	2	3	Verdana	1	80	0	0	0	WM Stimuli\	0.8	1092.875	0.7	1103.28571428571	0.8	996.125	1	581.7	0.9	922.333333333333	1	748.3	0.9	945.444444444444	1	558.5	13	439188	2	439176	27	40	439215	-999999	439191	0	18	TrialsPROC	TO_012_TOOL12_BA.png	1	2	77	SessionSelectionList														nonlure	3	Tools	0-Back	67	80	62	0	0	92	6	40	385331	2	13	59	383291	-1	383784	1	493	3	3	2040	53	385344	-54	0														6		77												
WM080112	149741_fnca	1	1	1	1436642936	1	75.032	75.032	2.0.10.147	2.0.10.242	2.0.10.242	1.0.0.439	7	234	2	3	Verdana	1	80	0	0	0	WM Stimuli\	0.8	1092.875	0.7	1103.28571428571	0.8	996.125	1	581.7	0.9	922.333333333333	1	748.3	0.9	945.444444444444	1	558.5	13	439188	2	439176	27	40	439215	-999999	439191	0	18	TrialsPROC	TO_010_TOOL10_BA.png	1	2	78	SessionSelectionList														lure	3	Tools	0-Back	68	80	63	0	0	92	7	39	387889	3	14	59	385850	-1	386422	1	572	3	3	2039	53	387903	-54	0														7		78												
WM080112	149741_fnca	1	1	1	1436642936	1	75.032	75.032	2.0.10.147	2.0.10.242	2.0.10.242	1.0.0.439	7	234	2	3	Verdana	1	80	0	0	0	WM Stimuli\	0.8	1092.875	0.7	1103.28571428571	0.8	996.125	1	581.7	0.9	922.333333333333	1	748.3	0.9	945.444444444444	1	558.5	13	439188	2	439176	27	40	439215	-999999	439191	0	18	TrialsPROC	TO_007_TOOL7_BA.png	1	2	79	SessionSelectionList														target	2	Tools	0-Back	69	80	64	0	0	92	1	39	390448	3	14	59	388409	-1	389041	1	632	2	2	2039	53	390462	-54	0														8		79												
WM080112	149741_fnca	1	1	1	1436642936	1	75.032	75.032	2.0.10.147	2.0.10.242	2.0.10.242	1.0.0.439	7	234	2	3	Verdana	1	80	0	0	0	WM Stimuli\	0.8	1092.875	0.7	1103.28571428571	0.8	996.125	1	581.7	0.9	922.333333333333	1	748.3	0.9	945.444444444444	1	558.5	13	439188	2	439176	27	40	439215	-999999	439191	0	18	TrialsPROC	TO_008_TOOL8_BA.png	1	2	80	SessionSelectionList														lure	3	Tools	0-Back	70	80	65	0	0	92	1	39	393007	2	14	59	390968	-1	391332	1	364	3	3	2039	53	393021	-54	0														9		80												
WM080112	149741_fnca	1	1	1	1436642936	1	75.032	75.032	2.0.10.147	2.0.10.242	2.0.10.242	1.0.0.439	7	234	2	3	Verdana	1	80	0	0	0	WM Stimuli\	0.8	1092.875	0.7	1103.28571428571	0.8	996.125	1	581.7	0.9	922.333333333333	1	748.3	0.9	945.444444444444	1	558.5	13	439188	2	439176	27	40	439215	-999999	439191	0	18	TrialsPROC	TO_007_TOOL7_BA.png	1	2	81	SessionSelectionList														target	2	Tools	0-Back	71	80	66	0	0	92	1	39	395566	3	14	59	393527	-1	394052	1	525	2	2	2039	53	395580	-54	0														10		81												
WM080112	149741_fnca	1	1	1	1436642936	1	75.032	75.032	2.0.10.147	2.0.10.242	2.0.10.242	1.0.0.439	7	234	2	3	Verdana	1	80	0	0	0	WM Stimuli\	0.8	1092.875	0.7	1103.28571428571	0.8	996.125	1	581.7	0.9	922.333333333333	1	748.3	0.9	945.444444444444	1	558.5	13	439188	2	439176	27	40	439215	-999999	439191	0	19	Cue2BackPROC	""	1	2	82	SessionSelectionList									6	396033	-7	0																																													82												
WM080112	149741_fnca	1	1	1	1436642936	1	75.032	75.032	2.0.10.147	2.0.10.242	2.0.10.242	1.0.0.439	7	234	2	3	Verdana	1	80	0	0	0	WM Stimuli\	0.8	1092.875	0.7	1103.28571428571	0.8	996.125	1	581.7	0.9	922.333333333333	1	748.3	0.9	945.444444444444	1	558.5	13	439188	2	439176	27	40	439215	-999999	439191	0	20	TrialsPROC	PL_007_92026.png	1	2	83	SessionSelectionList														nonlure	3	Place	2-Back	72	80	67	0	0	92	1	39	400617	2	14	51	398578	-1	399470	1	892	3	3	2039	53	400631	-54	0															1	83												
WM080112	149741_fnca	1	1	1	1436642936	1	75.032	75.032	2.0.10.147	2.0.10.242	2.0.10.242	1.0.0.439	7	234	2	3	Verdana	1	80	0	0	0	WM Stimuli\	0.8	1092.875	0.7	1103.28571428571	0.8	996.125	1	581.7	0.9	922.333333333333	1	748.3	0.9	945.444444444444	1	558.5	13	439188	2	439176	27	40	439215	-999999	439191	0	20	TrialsPROC	PL_007_92026.png	1	2	84	SessionSelectionList														lure	3	Place	2-Back	73	80	68	0	0	92	2	39	403176	2	14	59	401137	-1	402350	1	1213	3	3	2039	53	403190	-54	0															2	84												
WM080112	149741_fnca	1	1	1	1436642936	1	75.032	75.032	2.0.10.147	2.0.10.242	2.0.10.242	1.0.0.439	7	234	2	3	Verdana	1	80	0	0	0	WM Stimuli\	0.8	1092.875	0.7	1103.28571428571	0.8	996.125	1	581.7	0.9	922.333333333333	1	748.3	0.9	945.444444444444	1	558.5	13	439188	2	439176	27	40	439215	-999999	439191	0	20	TrialsPROC	PL_010_92038.png	1	2	85	SessionSelectionList														nonlure	3	Place	2-Back	74	80	69	0	0	92	3	39	405735	2	14	59	403696	-1	404556	1	860	3	3	2039	53	405749	-54	0															3	85												
WM080112	149741_fnca	1	1	1	1436642936	1	75.032	75.032	2.0.10.147	2.0.10.242	2.0.10.242	1.0.0.439	7	234	2	3	Verdana	1	80	0	0	0	WM Stimuli\	0.8	1092.875	0.7	1103.28571428571	0.8	996.125	1	581.7	0.9	922.333333333333	1	748.3	0.9	945.444444444444	1	558.5	13	439188	2	439176	27	40	439215	-999999	439191	0	20	TrialsPROC	PL_009_92037.png	1	2	86	SessionSelectionList														nonlure	3	Place	2-Back	75	80	70	0	0	92	4	39	408294	3	14	59	406255	-1	407571	1	1316	3	3	2039	53	408308	-54	0															4	86												
WM080112	149741_fnca	1	1	1	1436642936	1	75.032	75.032	2.0.10.147	2.0.10.242	2.0.10.242	1.0.0.439	7	234	2	3	Verdana	1	80	0	0	0	WM Stimuli\	0.8	1092.875	0.7	1103.28571428571	0.8	996.125	1	581.7	0.9	922.333333333333	1	748.3	0.9	945.444444444444	1	558.5	13	439188	2	439176	27	40	439215	-999999	439191	0	20	TrialsPROC	PL_010_92038.png	1	2	87	SessionSelectionList														target	2	Place	2-Back	76	80	71	0	0	92	1	39	410866	2	14	72	408827	-1	409532	1	705	2	2	2039	53	410880	-54	0															5	87												
WM080112	149741_fnca	1	1	1	1436642936	1	75.032	75.032	2.0.10.147	2.0.10.242	2.0.10.242	1.0.0.439	7	234	2	3	Verdana	1	80	0	0	0	WM Stimuli\	0.8	1092.875	0.7	1103.28571428571	0.8	996.125	1	581.7	0.9	922.333333333333	1	748.3	0.9	945.444444444444	1	558.5	13	439188	2	439176	27	40	439215	-999999	439191	0	20	TrialsPROC	PL_009_92037.png	1	2	88	SessionSelectionList														target	2	Place	2-Back	77	80	72	0	0	92	1	39	413439	2	13	73	411400	-1	412121	0	721	3	2	2039	52	413452	-53	0															6	88												
WM080112	149741_fnca	1	1	1	1436642936	1	75.032	75.032	2.0.10.147	2.0.10.242	2.0.10.242	1.0.0.439	7	234	2	3	Verdana	1	80	0	0	0	WM Stimuli\	0.8	1092.875	0.7	1103.28571428571	0.8	996.125	1	581.7	0.9	922.333333333333	1	748.3	0.9	945.444444444444	1	558.5	13	439188	2	439176	27	40	439215	-999999	439191	0	20	TrialsPROC	PL_008_92033.png	1	2	89	SessionSelectionList														nonlure	3	Place	2-Back	78	80	73	0	0	92	2	39	416011	1	14	72	413972	-1	414794	1	822	3	3	2039	53	416025	-54	0															7	89												
WM080112	149741_fnca	1	1	1	1436642936	1	75.032	75.032	2.0.10.147	2.0.10.242	2.0.10.242	1.0.0.439	7	234	2	3	Verdana	1	80	0	0	0	WM Stimuli\	0.8	1092.875	0.7	1103.28571428571	0.8	996.125	1	581.7	0.9	922.333333333333	1	748.3	0.9	945.444444444444	1	558.5	13	439188	2	439176	27	40	439215	-999999	439191	0	20	TrialsPROC	PL_012_92047.png	1	2	90	SessionSelectionList														nonlure	3	Place	2-Back	79	80	74	0	0	92	3	39	418583	2	14	72	416544	-1	417271	1	727	3	3	2039	53	418597	-54	0															8	90												
WM080112	149741_fnca	1	1	1	1436642936	1	75.032	75.032	2.0.10.147	2.0.10.242	2.0.10.242	1.0.0.439	7	234	2	3	Verdana	1	80	0	0	0	WM Stimuli\	0.8	1092.875	0.7	1103.28571428571	0.8	996.125	1	581.7	0.9	922.333333333333	1	748.3	0.9	945.444444444444	1	558.5	13	439188	2	439176	27	40	439215	-999999	439191	0	20	TrialsPROC	PL_012_92047.png	1	2	91	SessionSelectionList														lure	3	Place	2-Back	80	80	75	0	0	92	4	39	421155	2	14	72	419116	-1	419978	1	862	3	3	2039	53	421169	-54	0															9	91												
WM080112	149741_fnca	1	1	1	1436642936	1	75.032	75.032	2.0.10.147	2.0.10.242	2.0.10.242	1.0.0.439	7	234	2	3	Verdana	1	80	0	0	0	WM Stimuli\	0.8	1092.875	0.7	1103.28571428571	0.8	996.125	1	581.7	0.9	922.333333333333	1	748.3	0.9	945.444444444444	1	558.5	13	439188	2	439176	27	40	439215	-999999	439191	0	20	TrialsPROC	PL_011_92044.png	1	2	92	SessionSelectionList														nonlure	3	Place	2-Back	80	80	76	0	0	92	5	39	423714	2	14	59	421675	-1	422579	1	904	3	3	2039	53	423728	-54	0															10	92												
WM080112	149741_fnca	1	1	1	1436642936	1	75.032	75.032	2.0.10.147	2.0.10.242	2.0.10.242	1.0.0.439	7	234	2	3	Verdana	1	80	0	0	0	WM Stimuli\	0.8	1092.875	0.7	1103.28571428571	0.8	996.125	1	581.7	0.9	922.333333333333	1	748.3	0.9	945.444444444444	1	558.5	13	439188	2	439176	27	40	439215	-999999	439191	0	21	Fix15secPROC	""	1	2	93	SessionSelectionList																																															6	424181	-7	0							93												
