ExperimentName	HCPID	RunNumber	Subject	Session	RandomSeed	Group	Laptop.RefreshRate	ScannerD2.RefreshRate	StudioVersion	RuntimeVersion	RuntimeVersionExpected	ExperimentVersion	triggercode	Allowed	Target	Nontarget	FontStyle	RunTrialNumber[Session]	TrialsPerRun[Session]	TotalRespGreater200[Session]	ConsecRTLess200[Session]	ConsecNonResp[Session]	StimuliDir	ACC_2_Back_Body	Avg_RT_For_Correct_Trials_2_Back_Body	ACC_0_Back_Body	Avg_RT_For_Correct_Trials_0_Back_Body	ACC_2_Back_Face	Avg_RT_For_Correct_Trials_2_Back_Face	ACC_0_Back_Face	Avg_RT_For_Correct_Trials_0_Back_Face	ACC_2_Back_Place	Avg_RT_For_Correct_Trials_2_Back_Place	ACC_0_Back_Place	Avg_RT_For_Correct_Trials_0_Back_Place	ACC_2_Back_Tools	Avg_RT_For_Correct_Trials_2_Back_Tools	ACC_0_Back_Tools	Avg_RT_For_Correct_Trials_0_Back_Tools	ExpInstrucFeelFreeToRest.OnsetDelay	ExpInstrucFeelFreeToRest.OnsetTime	ExpInstrucFeelFreeToRest.DurationError	ExpInstrucFeelFreeToRest.StartTime	ExpInstrucFeelFreeToRest.OnsetToOnsetTime	FeelFreeToRest.OnsetDelay	FeelFreeToRest.OnsetTime	FeelFreeToRest.DurationError	FeelFreeToRest.StartTime	FeelFreeToRest.OnsetToOnsetTime	SessionSelectionList	Procedure[Block]	Stimulus[Block]	RunNumberFilterValue	SessionSelectionList.Cycle	SessionSelectionList.Sample	Running[Block]	IntroButtonMap.OnsetDelay	IntroButtonMap.OnsetTime	IntroButtonMap.DurationError	IntroButtonMap.OnsetToOnsetTime	GetReady.OnsetDelay	GetReady.OnsetTime	GetReady.DurationError	GetReady.OnsetToOnsetTime	Cue2Back.OnsetDelay	Cue2Back.OnsetTime	Cue2Back.DurationError	Cue2Back.OnsetToOnsetTime	Run1Block1	TargetType	CorrectResponse	StimType	BlockType	RunTrialNumber[Block]	TrialsPerRun[Block]	TotalRespGreater200[Block]	ConsecRTLess200[Block]	ConsecNonResp[Block]	ControlAcc	ConsecSameResp	ExperimenterWindow.OnsetDelay	ExperimenterWindow.OnsetTime	ExperimenterWindow.DurationError	ExperimenterWindow.OnsetToOnsetTime	Stim.OnsetDelay	Stim.OnsetTime	Stim.DurationError	Stim.RTTime	Stim.ACC	Stim.RT	Stim.RESP	Stim.CRESP	Stim.OnsetToOnsetTime	Fix.OnsetDelay	Fix.OnsetTime	Fix.DurationError	Fix.OnsetToOnsetTime	CueTarget.OnsetDelay	CueTarget.OnsetTime	CueTarget.DurationError	CueTarget.OnsetToOnsetTime	Run1Block2	Fix15sec.OnsetDelay	Fix15sec.OnsetTime	Fix15sec.DurationError	Fix15sec.OnsetToOnsetTime	Run1Block3	Run1Block4	Run1Block5	Run1Block6	Run1Block7	Run1Block8	Block	Procedure[Trial]	Stimulus[Trial]	ReadyList	Running[Trial]	ReadyList.Cycle	ReadyList.Sample	SyncSlide.OnsetDelay	SyncSlide.OnsetTime	SyncSlide.DurationError	SyncSlide.FinishTime	SyncSlide.OnsetToOnsetTime	Trial
WM080112	105115_fnca	1	1	1	912710372	1	75.031	75.030	2.0.10.147	2.0.10.242	2.0.10.242	1.0.0.439	7	234	2	3	Verdana	1	80	0	0	0	WM Stimuli\	0.7	1232	0.9	934.777777777778	1	1198.9	1	823.9	0.9	1174.33333333333	1	767.5	1	1069	1	696.7	13	375688	2	375676	27	40	375715	-999999	375691	0	1	TRSyncPROC	""	1	2	1	SessionSelectionList	115	12514	-999999	0	31	63947	-999999	0																																																	1	InitialTR	4	1	ReadyList	1	1	22	81913	-23	83890	0	1
WM080112	105115_fnca	1	1	1	912710372	1	75.031	75.030	2.0.10.147	2.0.10.242	2.0.10.242	1.0.0.439	7	234	2	3	Verdana	1	80	0	0	0	WM Stimuli\	0.7	1232	0.9	934.777777777778	1	1198.9	1	823.9	0.9	1174.33333333333	1	767.5	1	1069	1	696.7	13	375688	2	375676	27	40	375715	-999999	375691	0	1	TRSyncPROC	""	1	2	1	SessionSelectionList	115	12514	-999999	0	31	63947	-999999	0																																																	1	InitialTR	3	2	ReadyList	1	2	8	83899	-9	85890	0	2
WM080112	105115_fnca	1	1	1	912710372	1	75.031	75.030	2.0.10.147	2.0.10.242	2.0.10.242	1.0.0.439	7	234	2	3	Verdana	1	80	0	0	0	WM Stimuli\	0.7	1232	0.9	934.777777777778	1	1198.9	1	823.9	0.9	1174.33333333333	1	767.5	1	1069	1	696.7	13	375688	2	375676	27	40	375715	-999999	375691	0	1	TRSyncPROC	""	1	2	1	SessionSelectionList	115	12514	-999999	0	31	63947	-999999	0																																																	1	InitialTR	2	3	ReadyList	1	3	7	85898	-8	87890	0	3
WM080112	105115_fnca	1	1	1	912710372	1	75.031	75.030	2.0.10.147	2.0.10.242	2.0.10.242	1.0.0.439	7	234	2	3	Verdana	1	80	0	0	0	WM Stimuli\	0.7	1232	0.9	934.777777777778	1	1198.9	1	823.9	0.9	1174.33333333333	1	767.5	1	1069	1	696.7	13	375688	2	375676	27	40	375715	-999999	375691	0	1	TRSyncPROC	""	1	2	1	SessionSelectionList	115	12514	-999999	0	31	63947	-999999	0																																																	1	InitialTR	1	4	ReadyList	1	4	6	87897	-7	89890	0	4
WM080112	105115_fnca	1	1	1	912710372	1	75.031	75.030	2.0.10.147	2.0.10.242	2.0.10.242	1.0.0.439	7	234	2	3	Verdana	1	80	0	0	0	WM Stimuli\	0.7	1232	0.9	934.777777777778	1	1198.9	1	823.9	0.9	1174.33333333333	1	767.5	1	1069	1	696.7	13	375688	2	375676	27	40	375715	-999999	375691	0	2	Cue2BackPROC	""	1	2	2	SessionSelectionList									19	89910	-20	0																																													2												
WM080112	105115_fnca	1	1	1	912710372	1	75.031	75.030	2.0.10.147	2.0.10.242	2.0.10.242	1.0.0.439	7	234	2	3	Verdana	1	80	0	0	0	WM Stimuli\	0.7	1232	0.9	934.777777777778	1	1198.9	1	823.9	0.9	1174.33333333333	1	767.5	1	1069	1	696.7	13	375688	2	375676	27	40	375715	-999999	375691	0	3	TrialsPROC	BP_002_BP10_BA.png	1	2	3	SessionSelectionList													1	nonlure	3	Body	2-Back	2	80	1	0	0	0	1	53	94535	2	13	91	92482	-1	94437	1	1955	3	3	2053	66	94548	-67	0																3												
WM080112	105115_fnca	1	1	1	912710372	1	75.031	75.030	2.0.10.147	2.0.10.242	2.0.10.242	1.0.0.439	7	234	2	3	Verdana	1	80	0	0	0	WM Stimuli\	0.7	1232	0.9	934.777777777778	1	1198.9	1	823.9	0.9	1174.33333333333	1	767.5	1	1069	1	696.7	13	375688	2	375676	27	40	375715	-999999	375691	0	3	TrialsPROC	BP_001_BP1_BA.png	1	2	4	SessionSelectionList													2	nonlure	3	Body	2-Back	3	80	1	0	1	0	1	40	97094	2	13	72	95054	-1	0	0	0	""	3	2040	53	97107	-54	0																4												
WM080112	105115_fnca	1	1	1	912710372	1	75.031	75.030	2.0.10.147	2.0.10.242	2.0.10.242	1.0.0.439	7	234	2	3	Verdana	1	80	0	0	0	WM Stimuli\	0.7	1232	0.9	934.777777777778	1	1198.9	1	823.9	0.9	1174.33333333333	1	767.5	1	1069	1	696.7	13	375688	2	375676	27	40	375715	-999999	375691	0	3	TrialsPROC	BP_006_BP2_BA.png	1	2	5	SessionSelectionList													3	nonlure	3	Body	2-Back	4	80	2	0	0	0	1	39	99652	2	14	59	97613	-1	98857	0	1244	2	3	2039	53	99666	-54	0																5												
WM080112	105115_fnca	1	1	1	912710372	1	75.031	75.030	2.0.10.147	2.0.10.242	2.0.10.242	1.0.0.439	7	234	2	3	Verdana	1	80	0	0	0	WM Stimuli\	0.7	1232	0.9	934.777777777778	1	1198.9	1	823.9	0.9	1174.33333333333	1	767.5	1	1069	1	696.7	13	375688	2	375676	27	40	375715	-999999	375691	0	3	TrialsPROC	BP_001_BP1_BA.png	1	2	6	SessionSelectionList													4	target	2	Body	2-Back	5	80	3	0	0	0	2	39	102225	1	13	73	100186	-1	101381	1	1195	2	2	2039	52	102238	-53	0																6												
WM080112	105115_fnca	1	1	1	912710372	1	75.031	75.030	2.0.10.147	2.0.10.242	2.0.10.242	1.0.0.439	7	234	2	3	Verdana	1	80	0	0	0	WM Stimuli\	0.7	1232	0.9	934.777777777778	1	1198.9	1	823.9	0.9	1174.33333333333	1	767.5	1	1069	1	696.7	13	375688	2	375676	27	40	375715	-999999	375691	0	3	TrialsPROC	BP_005_BP19_BA.png	1	2	7	SessionSelectionList													5	nonlure	3	Body	2-Back	6	80	4	0	0	0	1	39	104797	1	14	72	102758	-1	103860	1	1102	3	3	2039	53	104811	-54	0																7												
WM080112	105115_fnca	1	1	1	912710372	1	75.031	75.030	2.0.10.147	2.0.10.242	2.0.10.242	1.0.0.439	7	234	2	3	Verdana	1	80	0	0	0	WM Stimuli\	0.7	1232	0.9	934.777777777778	1	1198.9	1	823.9	0.9	1174.33333333333	1	767.5	1	1069	1	696.7	13	375688	2	375676	27	40	375715	-999999	375691	0	3	TrialsPROC	BP_003_BP16_BA.png	1	2	8	SessionSelectionList													6	nonlure	3	Body	2-Back	7	80	5	0	0	0	2	39	107356	1	14	59	105317	-1	106216	1	899	3	3	2039	53	107370	-54	0																8												
WM080112	105115_fnca	1	1	1	912710372	1	75.031	75.030	2.0.10.147	2.0.10.242	2.0.10.242	1.0.0.439	7	234	2	3	Verdana	1	80	0	0	0	WM Stimuli\	0.7	1232	0.9	934.777777777778	1	1198.9	1	823.9	0.9	1174.33333333333	1	767.5	1	1069	1	696.7	13	375688	2	375676	27	40	375715	-999999	375691	0	3	TrialsPROC	BP_006_BP2_BA.png	1	2	9	SessionSelectionList													7	lure	3	Body	2-Back	8	80	6	0	0	0	3	39	109915	1	14	59	107876	-1	109048	1	1172	3	3	2039	53	109929	-54	0																9												
WM080112	105115_fnca	1	1	1	912710372	1	75.031	75.030	2.0.10.147	2.0.10.242	2.0.10.242	1.0.0.439	7	234	2	3	Verdana	1	80	0	0	0	WM Stimuli\	0.7	1232	0.9	934.777777777778	1	1198.9	1	823.9	0.9	1174.33333333333	1	767.5	1	1069	1	696.7	13	375688	2	375676	27	40	375715	-999999	375691	0	3	TrialsPROC	BP_004_BP18_BA.png	1	2	10	SessionSelectionList													8	nonlure	3	Body	2-Back	9	80	7	0	0	0	4	39	112474	1	14	59	110435	-1	111490	1	1055	3	3	2039	53	112488	-54	0																10												
WM080112	105115_fnca	1	1	1	912710372	1	75.031	75.030	2.0.10.147	2.0.10.242	2.0.10.242	1.0.0.439	7	234	2	3	Verdana	1	80	0	0	0	WM Stimuli\	0.7	1232	0.9	934.777777777778	1	1198.9	1	823.9	0.9	1174.33333333333	1	767.5	1	1069	1	696.7	13	375688	2	375676	27	40	375715	-999999	375691	0	3	TrialsPROC	BP_005_BP19_BA.png	1	2	11	SessionSelectionList													9	lure	3	Body	2-Back	10	80	8	0	0	0	5	39	115033	1	14	59	112994	-1	114240	1	1246	3	3	2039	53	115047	-54	0																11												
WM080112	105115_fnca	1	1	1	912710372	1	75.031	75.030	2.0.10.147	2.0.10.242	2.0.10.242	1.0.0.439	7	234	2	3	Verdana	1	80	0	0	0	WM Stimuli\	0.7	1232	0.9	934.777777777778	1	1198.9	1	823.9	0.9	1174.33333333333	1	767.5	1	1069	1	696.7	13	375688	2	375676	27	40	375715	-999999	375691	0	3	TrialsPROC	BP_004_BP18_BA.png	1	2	12	SessionSelectionList													10	target	2	Body	2-Back	11	80	8	0	1	0	5	39	117592	1	14	59	115553	-1	0	0	0	""	2	2039	53	117606	-54	0																12												
WM080112	105115_fnca	1	1	1	912710372	1	75.031	75.030	2.0.10.147	2.0.10.242	2.0.10.242	1.0.0.439	7	234	2	3	Verdana	1	80	0	0	0	WM Stimuli\	0.7	1232	0.9	934.777777777778	1	1198.9	1	823.9	0.9	1174.33333333333	1	767.5	1	1069	1	696.7	13	375688	2	375676	27	40	375715	-999999	375691	0	4	Cue0BackPROC	FC_001_M1.png	1	2	13	SessionSelectionList																																										45	118098	-46	0												13												
WM080112	105115_fnca	1	1	1	912710372	1	75.031	75.030	2.0.10.147	2.0.10.242	2.0.10.242	1.0.0.439	7	234	2	3	Verdana	1	80	0	0	0	WM Stimuli\	0.7	1232	0.9	934.777777777778	1	1198.9	1	823.9	0.9	1174.33333333333	1	767.5	1	1069	1	696.7	13	375688	2	375676	27	40	375715	-999999	375691	0	5	TrialsPROC	FC_005_M3.png	1	2	14	SessionSelectionList														nonlure	3	Face	0-Back	12	80	9	0	0	100	1	39	122683	2	14	91	120644	-1	121630	1	986	3	3	2039	53	122697	-54	0					1											14												
WM080112	105115_fnca	1	1	1	912710372	1	75.031	75.030	2.0.10.147	2.0.10.242	2.0.10.242	1.0.0.439	7	234	2	3	Verdana	1	80	0	0	0	WM Stimuli\	0.7	1232	0.9	934.777777777778	1	1198.9	1	823.9	0.9	1174.33333333333	1	767.5	1	1069	1	696.7	13	375688	2	375676	27	40	375715	-999999	375691	0	5	TrialsPROC	FC_001_M1.png	1	2	15	SessionSelectionList														target	2	Face	0-Back	13	80	10	0	0	100	1	39	125255	2	14	72	123216	-1	123885	1	669	2	2	2039	53	125269	-54	0					2											15												
WM080112	105115_fnca	1	1	1	912710372	1	75.031	75.030	2.0.10.147	2.0.10.242	2.0.10.242	1.0.0.439	7	234	2	3	Verdana	1	80	0	0	0	WM Stimuli\	0.7	1232	0.9	934.777777777778	1	1198.9	1	823.9	0.9	1174.33333333333	1	767.5	1	1069	1	696.7	13	375688	2	375676	27	40	375715	-999999	375691	0	5	TrialsPROC	FC_003_M2.png	1	2	16	SessionSelectionList														nonlure	3	Face	0-Back	14	80	11	0	0	100	1	39	127828	1	13	73	125789	-1	126471	1	682	3	3	2039	52	127841	-53	0					3											16												
WM080112	105115_fnca	1	1	1	912710372	1	75.031	75.030	2.0.10.147	2.0.10.242	2.0.10.242	1.0.0.439	7	234	2	3	Verdana	1	80	0	0	0	WM Stimuli\	0.7	1232	0.9	934.777777777778	1	1198.9	1	823.9	0.9	1174.33333333333	1	767.5	1	1069	1	696.7	13	375688	2	375676	27	40	375715	-999999	375691	0	5	TrialsPROC	FC_004_F2.png	1	2	17	SessionSelectionList														nonlure	3	Face	0-Back	15	80	12	0	0	100	2	39	130400	2	14	72	128361	-1	129641	1	1280	3	3	2039	53	130414	-54	0					4											17												
WM080112	105115_fnca	1	1	1	912710372	1	75.031	75.030	2.0.10.147	2.0.10.242	2.0.10.242	1.0.0.439	7	234	2	3	Verdana	1	80	0	0	0	WM Stimuli\	0.7	1232	0.9	934.777777777778	1	1198.9	1	823.9	0.9	1174.33333333333	1	767.5	1	1069	1	696.7	13	375688	2	375676	27	40	375715	-999999	375691	0	5	TrialsPROC	FC_004_F2.png	1	2	18	SessionSelectionList														lure	3	Face	0-Back	16	80	13	0	0	100	3	39	132972	2	14	72	130933	-1	131995	1	1062	3	3	2039	53	132986	-54	0					5											18												
WM080112	105115_fnca	1	1	1	912710372	1	75.031	75.030	2.0.10.147	2.0.10.242	2.0.10.242	1.0.0.439	7	234	2	3	Verdana	1	80	0	0	0	WM Stimuli\	0.7	1232	0.9	934.777777777778	1	1198.9	1	823.9	0.9	1174.33333333333	1	767.5	1	1069	1	696.7	13	375688	2	375676	27	40	375715	-999999	375691	0	5	TrialsPROC	FC_001_M1.png	1	2	19	SessionSelectionList														target	2	Face	0-Back	17	80	14	0	0	100	1	39	135545	1	13	73	133506	-1	134145	1	639	2	2	2039	52	135558	-53	0					6											19												
WM080112	105115_fnca	1	1	1	912710372	1	75.031	75.030	2.0.10.147	2.0.10.242	2.0.10.242	1.0.0.439	7	234	2	3	Verdana	1	80	0	0	0	WM Stimuli\	0.7	1232	0.9	934.777777777778	1	1198.9	1	823.9	0.9	1174.33333333333	1	767.5	1	1069	1	696.7	13	375688	2	375676	27	40	375715	-999999	375691	0	5	TrialsPROC	FC_006_F3.png	1	2	20	SessionSelectionList														nonlure	3	Face	0-Back	18	80	15	0	0	100	1	40	138144	1	13	98	136104	-1	136770	1	666	3	3	2040	53	138157	-54	0					7											20												
WM080112	105115_fnca	1	1	1	912710372	1	75.031	75.030	2.0.10.147	2.0.10.242	2.0.10.242	1.0.0.439	7	234	2	3	Verdana	1	80	0	0	0	WM Stimuli\	0.7	1232	0.9	934.777777777778	1	1198.9	1	823.9	0.9	1174.33333333333	1	767.5	1	1069	1	696.7	13	375688	2	375676	27	40	375715	-999999	375691	0	5	TrialsPROC	FC_006_F3.png	1	2	21	SessionSelectionList														lure	3	Face	0-Back	19	80	16	0	0	100	2	39	140716	1	14	73	138677	-1	139518	1	841	3	3	2039	53	140730	-54	0					8											21												
WM080112	105115_fnca	1	1	1	912710372	1	75.031	75.030	2.0.10.147	2.0.10.242	2.0.10.242	1.0.0.439	7	234	2	3	Verdana	1	80	0	0	0	WM Stimuli\	0.7	1232	0.9	934.777777777778	1	1198.9	1	823.9	0.9	1174.33333333333	1	767.5	1	1069	1	696.7	13	375688	2	375676	27	40	375715	-999999	375691	0	5	TrialsPROC	FC_003_M2.png	1	2	22	SessionSelectionList														lure	3	Face	0-Back	20	80	17	0	0	100	3	39	143288	2	14	72	141249	-1	141922	1	673	3	3	2039	53	143302	-54	0					9											22												
WM080112	105115_fnca	1	1	1	912710372	1	75.031	75.030	2.0.10.147	2.0.10.242	2.0.10.242	1.0.0.439	7	234	2	3	Verdana	1	80	0	0	0	WM Stimuli\	0.7	1232	0.9	934.777777777778	1	1198.9	1	823.9	0.9	1174.33333333333	1	767.5	1	1069	1	696.7	13	375688	2	375676	27	40	375715	-999999	375691	0	5	TrialsPROC	FC_002_F1.png	1	2	23	SessionSelectionList														nonlure	3	Face	0-Back	21	80	18	0	0	100	4	39	145874	1	14	86	143835	-1	144576	1	741	3	3	2039	53	145888	-54	0					10											23												
WM080112	105115_fnca	1	1	1	912710372	1	75.031	75.030	2.0.10.147	2.0.10.242	2.0.10.242	1.0.0.439	7	234	2	3	Verdana	1	80	0	0	0	WM Stimuli\	0.7	1232	0.9	934.777777777778	1	1198.9	1	823.9	0.9	1174.33333333333	1	767.5	1	1069	1	696.7	13	375688	2	375676	27	40	375715	-999999	375691	0	6	Fix15secPROC	""	1	2	24	SessionSelectionList																																															6	146341	-7	0							24												
WM080112	105115_fnca	1	1	1	912710372	1	75.031	75.030	2.0.10.147	2.0.10.242	2.0.10.242	1.0.0.439	7	234	2	3	Verdana	1	80	0	0	0	WM Stimuli\	0.7	1232	0.9	934.777777777778	1	1198.9	1	823.9	0.9	1174.33333333333	1	767.5	1	1069	1	696.7	13	375688	2	375676	27	40	375715	-999999	375691	0	7	Cue2BackPROC	""	1	2	25	SessionSelectionList									13	161348	-14	0																																													25												
WM080112	105115_fnca	1	1	1	912710372	1	75.031	75.030	2.0.10.147	2.0.10.242	2.0.10.242	1.0.0.439	7	234	2	3	Verdana	1	80	0	0	0	WM Stimuli\	0.7	1232	0.9	934.777777777778	1	1198.9	1	823.9	0.9	1174.33333333333	1	767.5	1	1069	1	696.7	13	375688	2	375676	27	40	375715	-999999	375691	0	8	TrialsPROC	TO_001_TOOL1_BA.png	1	2	26	SessionSelectionList														nonlure	3	Tools	2-Back	22	80	19	0	0	100	5	39	165959	2	14	85	163920	-1	165271	1	1351	3	3	2039	53	165973	-54	0										1						26												
WM080112	105115_fnca	1	1	1	912710372	1	75.031	75.030	2.0.10.147	2.0.10.242	2.0.10.242	1.0.0.439	7	234	2	3	Verdana	1	80	0	0	0	WM Stimuli\	0.7	1232	0.9	934.777777777778	1	1198.9	1	823.9	0.9	1174.33333333333	1	767.5	1	1069	1	696.7	13	375688	2	375676	27	40	375715	-999999	375691	0	8	TrialsPROC	TO_002_TOOL2_BA.png	1	2	27	SessionSelectionList														nonlure	3	Tools	2-Back	23	80	20	0	0	100	6	39	168531	2	14	72	166492	-1	167656	1	1164	3	3	2039	53	168545	-54	0										2						27												
WM080112	105115_fnca	1	1	1	912710372	1	75.031	75.030	2.0.10.147	2.0.10.242	2.0.10.242	1.0.0.439	7	234	2	3	Verdana	1	80	0	0	0	WM Stimuli\	0.7	1232	0.9	934.777777777778	1	1198.9	1	823.9	0.9	1174.33333333333	1	767.5	1	1069	1	696.7	13	375688	2	375676	27	40	375715	-999999	375691	0	8	TrialsPROC	TO_004_TOOL4_BA.png	1	2	28	SessionSelectionList														nonlure	3	Tools	2-Back	24	80	21	0	0	100	7	39	171104	1	13	73	169065	-1	170304	1	1239	3	3	2039	52	171117	-53	0										3						28												
WM080112	105115_fnca	1	1	1	912710372	1	75.031	75.030	2.0.10.147	2.0.10.242	2.0.10.242	1.0.0.439	7	234	2	3	Verdana	1	80	0	0	0	WM Stimuli\	0.7	1232	0.9	934.777777777778	1	1198.9	1	823.9	0.9	1174.33333333333	1	767.5	1	1069	1	696.7	13	375688	2	375676	27	40	375715	-999999	375691	0	8	TrialsPROC	TO_002_TOOL2_BA.png	1	2	29	SessionSelectionList														target	2	Tools	2-Back	25	80	22	0	0	100	1	40	173663	1	13	58	171623	-1	172641	1	1018	2	2	2040	53	173676	-54	0										4						29												
WM080112	105115_fnca	1	1	1	912710372	1	75.031	75.030	2.0.10.147	2.0.10.242	2.0.10.242	1.0.0.439	7	234	2	3	Verdana	1	80	0	0	0	WM Stimuli\	0.7	1232	0.9	934.777777777778	1	1198.9	1	823.9	0.9	1174.33333333333	1	767.5	1	1069	1	696.7	13	375688	2	375676	27	40	375715	-999999	375691	0	8	TrialsPROC	TO_001_TOOL1_BA.png	1	2	30	SessionSelectionList														lure	3	Tools	2-Back	26	80	23	0	0	100	1	40	176222	1	13	59	174182	-1	175259	1	1077	3	3	2040	53	176235	-54	0										5						30												
WM080112	105115_fnca	1	1	1	912710372	1	75.031	75.030	2.0.10.147	2.0.10.242	2.0.10.242	1.0.0.439	7	234	2	3	Verdana	1	80	0	0	0	WM Stimuli\	0.7	1232	0.9	934.777777777778	1	1198.9	1	823.9	0.9	1174.33333333333	1	767.5	1	1069	1	696.7	13	375688	2	375676	27	40	375715	-999999	375691	0	8	TrialsPROC	TO_004_TOOL4_BA.png	1	2	31	SessionSelectionList														lure	3	Tools	2-Back	27	80	24	0	0	100	2	40	178781	1	13	59	176741	-1	178148	1	1407	3	3	2040	53	178794	-54	0										6						31												
WM080112	105115_fnca	1	1	1	912710372	1	75.031	75.030	2.0.10.147	2.0.10.242	2.0.10.242	1.0.0.439	7	234	2	3	Verdana	1	80	0	0	0	WM Stimuli\	0.7	1232	0.9	934.777777777778	1	1198.9	1	823.9	0.9	1174.33333333333	1	767.5	1	1069	1	696.7	13	375688	2	375676	27	40	375715	-999999	375691	0	8	TrialsPROC	TO_006_TOOL6_BA.png	1	2	32	SessionSelectionList														nonlure	3	Tools	2-Back	28	80	25	0	0	100	3	39	181340	1	13	60	179301	-1	180256	1	955	3	3	2039	52	181353	-53	0										7						32												
WM080112	105115_fnca	1	1	1	912710372	1	75.031	75.030	2.0.10.147	2.0.10.242	2.0.10.242	1.0.0.439	7	234	2	3	Verdana	1	80	0	0	0	WM Stimuli\	0.7	1232	0.9	934.777777777778	1	1198.9	1	823.9	0.9	1174.33333333333	1	767.5	1	1069	1	696.7	13	375688	2	375676	27	40	375715	-999999	375691	0	8	TrialsPROC	TO_005_TOOL5_BA.png	1	2	33	SessionSelectionList														nonlure	3	Tools	2-Back	29	80	26	0	0	100	4	40	183899	1	13	58	181859	-1	182722	1	863	3	3	2040	53	183912	-54	0										8						33												
WM080112	105115_fnca	1	1	1	912710372	1	75.031	75.030	2.0.10.147	2.0.10.242	2.0.10.242	1.0.0.439	7	234	2	3	Verdana	1	80	0	0	0	WM Stimuli\	0.7	1232	0.9	934.777777777778	1	1198.9	1	823.9	0.9	1174.33333333333	1	767.5	1	1069	1	696.7	13	375688	2	375676	27	40	375715	-999999	375691	0	8	TrialsPROC	TO_006_TOOL6_BA.png	1	2	34	SessionSelectionList														target	2	Tools	2-Back	30	80	27	0	0	100	1	40	186458	1	13	59	184418	-1	185187	1	769	2	2	2040	53	186471	-54	0										9						34												
WM080112	105115_fnca	1	1	1	912710372	1	75.031	75.030	2.0.10.147	2.0.10.242	2.0.10.242	1.0.0.439	7	234	2	3	Verdana	1	80	0	0	0	WM Stimuli\	0.7	1232	0.9	934.777777777778	1	1198.9	1	823.9	0.9	1174.33333333333	1	767.5	1	1069	1	696.7	13	375688	2	375676	27	40	375715	-999999	375691	0	8	TrialsPROC	TO_003_TOOL3_BA.png	1	2	35	SessionSelectionList														nonlure	3	Tools	2-Back	31	80	28	0	0	100	1	39	189043	2	14	86	187004	-1	187851	1	847	3	3	2039	53	189057	-54	0										10						35												
WM080112	105115_fnca	1	1	1	912710372	1	75.031	75.030	2.0.10.147	2.0.10.242	2.0.10.242	1.0.0.439	7	234	2	3	Verdana	1	80	0	0	0	WM Stimuli\	0.7	1232	0.9	934.777777777778	1	1198.9	1	823.9	0.9	1174.33333333333	1	767.5	1	1069	1	696.7	13	375688	2	375676	27	40	375715	-999999	375691	0	9	Cue0BackPROC	BP_007_BP20_BA.png	1	2	36	SessionSelectionList																																										19	189523	-20	0												36												
WM080112	105115_fnca	1	1	1	912710372	1	75.031	75.030	2.0.10.147	2.0.10.242	2.0.10.242	1.0.0.439	7	234	2	3	Verdana	1	80	0	0	0	WM Stimuli\	0.7	1232	0.9	934.777777777778	1	1198.9	1	823.9	0.9	1174.33333333333	1	767.5	1	1069	1	696.7	13	375688	2	375676	27	40	375715	-999999	375691	0	10	TrialsPROC	BP_007_BP20_BA.png	1	2	37	SessionSelectionList														target	2	Body	0-Back	32	80	28	0	1	91	1	39	194094	2	14	51	192055	-1	0	0	0	""	2	2039	53	194108	-54	0											1					37												
WM080112	105115_fnca	1	1	1	912710372	1	75.031	75.030	2.0.10.147	2.0.10.242	2.0.10.242	1.0.0.439	7	234	2	3	Verdana	1	80	0	0	0	WM Stimuli\	0.7	1232	0.9	934.777777777778	1	1198.9	1	823.9	0.9	1174.33333333333	1	767.5	1	1069	1	696.7	13	375688	2	375676	27	40	375715	-999999	375691	0	10	TrialsPROC	BP_011_BP4_BA.png	1	2	38	SessionSelectionList														nonlure	3	Body	0-Back	33	80	29	0	0	92	1	39	196667	1	13	73	194628	-1	195479	1	851	3	3	2039	52	196680	-53	0											2					38												
WM080112	105115_fnca	1	1	1	912710372	1	75.031	75.030	2.0.10.147	2.0.10.242	2.0.10.242	1.0.0.439	7	234	2	3	Verdana	1	80	0	0	0	WM Stimuli\	0.7	1232	0.9	934.777777777778	1	1198.9	1	823.9	0.9	1174.33333333333	1	767.5	1	1069	1	696.7	13	375688	2	375676	27	40	375715	-999999	375691	0	10	TrialsPROC	BP_010_BP3_BA.png	1	2	39	SessionSelectionList														nonlure	3	Body	0-Back	34	80	30	0	0	92	2	39	199239	1	14	72	197200	-1	197939	1	739	3	3	2039	53	199253	-54	0											3					39												
WM080112	105115_fnca	1	1	1	912710372	1	75.031	75.030	2.0.10.147	2.0.10.242	2.0.10.242	1.0.0.439	7	234	2	3	Verdana	1	80	0	0	0	WM Stimuli\	0.7	1232	0.9	934.777777777778	1	1198.9	1	823.9	0.9	1174.33333333333	1	767.5	1	1069	1	696.7	13	375688	2	375676	27	40	375715	-999999	375691	0	10	TrialsPROC	BP_008_BP21_BA.png	1	2	40	SessionSelectionList														nonlure	3	Body	0-Back	35	80	31	0	0	93	3	39	201798	1	14	59	199759	-1	200654	1	895	3	3	2039	53	201812	-54	0											4					40												
WM080112	105115_fnca	1	1	1	912710372	1	75.031	75.030	2.0.10.147	2.0.10.242	2.0.10.242	1.0.0.439	7	234	2	3	Verdana	1	80	0	0	0	WM Stimuli\	0.7	1232	0.9	934.777777777778	1	1198.9	1	823.9	0.9	1174.33333333333	1	767.5	1	1069	1	696.7	13	375688	2	375676	27	40	375715	-999999	375691	0	10	TrialsPROC	BP_011_BP4_BA.png	1	2	41	SessionSelectionList														lure	3	Body	0-Back	36	80	32	0	0	93	4	39	204357	1	14	59	202318	-1	203245	1	927	3	3	2039	53	204371	-54	0											5					41												
WM080112	105115_fnca	1	1	1	912710372	1	75.031	75.030	2.0.10.147	2.0.10.242	2.0.10.242	1.0.0.439	7	234	2	3	Verdana	1	80	0	0	0	WM Stimuli\	0.7	1232	0.9	934.777777777778	1	1198.9	1	823.9	0.9	1174.33333333333	1	767.5	1	1069	1	696.7	13	375688	2	375676	27	40	375715	-999999	375691	0	10	TrialsPROC	BP_009_BP22_BA.png	1	2	42	SessionSelectionList														nonlure	3	Body	0-Back	37	80	33	0	0	94	5	39	206916	1	14	59	204877	-1	205817	1	940	3	3	2039	53	206930	-54	0											6					42												
WM080112	105115_fnca	1	1	1	912710372	1	75.031	75.030	2.0.10.147	2.0.10.242	2.0.10.242	1.0.0.439	7	234	2	3	Verdana	1	80	0	0	0	WM Stimuli\	0.7	1232	0.9	934.777777777778	1	1198.9	1	823.9	0.9	1174.33333333333	1	767.5	1	1069	1	696.7	13	375688	2	375676	27	40	375715	-999999	375691	0	10	TrialsPROC	BP_009_BP22_BA.png	1	2	43	SessionSelectionList														lure	3	Body	0-Back	38	80	34	0	0	94	6	39	209475	1	14	59	207436	-1	208429	1	993	3	3	2039	53	209489	-54	0											7					43												
WM080112	105115_fnca	1	1	1	912710372	1	75.031	75.030	2.0.10.147	2.0.10.242	2.0.10.242	1.0.0.439	7	234	2	3	Verdana	1	80	0	0	0	WM Stimuli\	0.7	1232	0.9	934.777777777778	1	1198.9	1	823.9	0.9	1174.33333333333	1	767.5	1	1069	1	696.7	13	375688	2	375676	27	40	375715	-999999	375691	0	10	TrialsPROC	BP_008_BP21_BA.png	1	2	44	SessionSelectionList														lure	3	Body	0-Back	39	80	35	0	0	94	7	39	212034	1	13	59	209995	-1	211051	1	1056	3	3	2039	52	212047	-53	0											8					44												
WM080112	105115_fnca	1	1	1	912710372	1	75.031	75.030	2.0.10.147	2.0.10.242	2.0.10.242	1.0.0.439	7	234	2	3	Verdana	1	80	0	0	0	WM Stimuli\	0.7	1232	0.9	934.777777777778	1	1198.9	1	823.9	0.9	1174.33333333333	1	767.5	1	1069	1	696.7	13	375688	2	375676	27	40	375715	-999999	375691	0	10	TrialsPROC	BP_007_BP20_BA.png	1	2	45	SessionSelectionList														target	2	Body	0-Back	40	80	36	0	0	95	1	39	214593	1	13	59	212554	-1	213617	1	1063	2	2	2039	52	214606	-53	0											9					45												
WM080112	105115_fnca	1	1	1	912710372	1	75.031	75.030	2.0.10.147	2.0.10.242	2.0.10.242	1.0.0.439	7	234	2	3	Verdana	1	80	0	0	0	WM Stimuli\	0.7	1232	0.9	934.777777777778	1	1198.9	1	823.9	0.9	1174.33333333333	1	767.5	1	1069	1	696.7	13	375688	2	375676	27	40	375715	-999999	375691	0	10	TrialsPROC	BP_012_BP5_BA.png	1	2	46	SessionSelectionList														nonlure	3	Body	0-Back	41	80	37	0	0	95	1	39	217192	1	13	99	215153	-1	216102	1	949	3	3	2039	52	217205	-53	0											10					46												
WM080112	105115_fnca	1	1	1	912710372	1	75.031	75.030	2.0.10.147	2.0.10.242	2.0.10.242	1.0.0.439	7	234	2	3	Verdana	1	80	0	0	0	WM Stimuli\	0.7	1232	0.9	934.777777777778	1	1198.9	1	823.9	0.9	1174.33333333333	1	767.5	1	1069	1	696.7	13	375688	2	375676	27	40	375715	-999999	375691	0	11	Fix15secPROC	""	1	2	47	SessionSelectionList																																															6	217659	-7	0							47												
WM080112	105115_fnca	1	1	1	912710372	1	75.031	75.030	2.0.10.147	2.0.10.242	2.0.10.242	1.0.0.439	7	234	2	3	Verdana	1	80	0	0	0	WM Stimuli\	0.7	1232	0.9	934.777777777778	1	1198.9	1	823.9	0.9	1174.33333333333	1	767.5	1	1069	1	696.7	13	375688	2	375676	27	40	375715	-999999	375691	0	12	Cue0BackPROC	PL_001_92012.png	1	2	48	SessionSelectionList																																										26	232679	-27	0												48												
WM080112	105115_fnca	1	1	1	912710372	1	75.031	75.030	2.0.10.147	2.0.10.242	2.0.10.242	1.0.0.439	7	234	2	3	Verdana	1	80	0	0	0	WM Stimuli\	0.7	1232	0.9	934.777777777778	1	1198.9	1	823.9	0.9	1174.33333333333	1	767.5	1	1069	1	696.7	13	375688	2	375676	27	40	375715	-999999	375691	0	13	TrialsPROC	PL_003_92016.png	1	2	49	SessionSelectionList														nonlure	3	Place	0-Back	42	80	38	0	0	95	2	39	237290	2	14	98	235251	-1	236551	1	1300	3	3	2039	53	237304	-54	0												1				49												
WM080112	105115_fnca	1	1	1	912710372	1	75.031	75.030	2.0.10.147	2.0.10.242	2.0.10.242	1.0.0.439	7	234	2	3	Verdana	1	80	0	0	0	WM Stimuli\	0.7	1232	0.9	934.777777777778	1	1198.9	1	823.9	0.9	1174.33333333333	1	767.5	1	1069	1	696.7	13	375688	2	375676	27	40	375715	-999999	375691	0	13	TrialsPROC	PL_003_92016.png	1	2	50	SessionSelectionList														lure	3	Place	0-Back	43	80	39	0	0	95	3	40	239863	1	13	72	237823	-1	238643	1	820	3	3	2040	53	239876	-54	0												2				50												
WM080112	105115_fnca	1	1	1	912710372	1	75.031	75.030	2.0.10.147	2.0.10.242	2.0.10.242	1.0.0.439	7	234	2	3	Verdana	1	80	0	0	0	WM Stimuli\	0.7	1232	0.9	934.777777777778	1	1198.9	1	823.9	0.9	1174.33333333333	1	767.5	1	1069	1	696.7	13	375688	2	375676	27	40	375715	-999999	375691	0	13	TrialsPROC	PL_006_92025.png	1	2	51	SessionSelectionList														nonlure	3	Place	0-Back	44	80	40	0	0	96	4	39	242448	2	14	86	240409	-1	241327	1	918	3	3	2039	53	242462	-54	0												3				51												
WM080112	105115_fnca	1	1	1	912710372	1	75.031	75.030	2.0.10.147	2.0.10.242	2.0.10.242	1.0.0.439	7	234	2	3	Verdana	1	80	0	0	0	WM Stimuli\	0.7	1232	0.9	934.777777777778	1	1198.9	1	823.9	0.9	1174.33333333333	1	767.5	1	1069	1	696.7	13	375688	2	375676	27	40	375715	-999999	375691	0	13	TrialsPROC	PL_001_92012.png	1	2	52	SessionSelectionList														target	2	Place	0-Back	45	80	41	0	0	96	1	40	245021	1	13	72	242981	-1	243596	1	615	2	2	2040	53	245034	-54	0												4				52												
WM080112	105115_fnca	1	1	1	912710372	1	75.031	75.030	2.0.10.147	2.0.10.242	2.0.10.242	1.0.0.439	7	234	2	3	Verdana	1	80	0	0	0	WM Stimuli\	0.7	1232	0.9	934.777777777778	1	1198.9	1	823.9	0.9	1174.33333333333	1	767.5	1	1069	1	696.7	13	375688	2	375676	27	40	375715	-999999	375691	0	13	TrialsPROC	PL_004_92023.png	1	2	53	SessionSelectionList														nonlure	3	Place	0-Back	46	80	42	0	0	96	1	39	247593	1	13	73	245554	-1	246248	1	694	3	3	2039	52	247606	-53	0												5				53												
WM080112	105115_fnca	1	1	1	912710372	1	75.031	75.030	2.0.10.147	2.0.10.242	2.0.10.242	1.0.0.439	7	234	2	3	Verdana	1	80	0	0	0	WM Stimuli\	0.7	1232	0.9	934.777777777778	1	1198.9	1	823.9	0.9	1174.33333333333	1	767.5	1	1069	1	696.7	13	375688	2	375676	27	40	375715	-999999	375691	0	13	TrialsPROC	PL_005_92024.png	1	2	54	SessionSelectionList														nonlure	3	Place	0-Back	47	80	43	0	0	96	2	39	250165	2	14	72	248126	-1	248862	1	736	3	3	2039	53	250179	-54	0												6				54												
WM080112	105115_fnca	1	1	1	912710372	1	75.031	75.030	2.0.10.147	2.0.10.242	2.0.10.242	1.0.0.439	7	234	2	3	Verdana	1	80	0	0	0	WM Stimuli\	0.7	1232	0.9	934.777777777778	1	1198.9	1	823.9	0.9	1174.33333333333	1	767.5	1	1069	1	696.7	13	375688	2	375676	27	40	375715	-999999	375691	0	13	TrialsPROC	PL_001_92012.png	1	2	55	SessionSelectionList														target	2	Place	0-Back	48	80	44	0	0	96	1	39	252737	2	14	72	250698	-1	251372	1	674	2	2	2039	53	252751	-54	0												7				55												
WM080112	105115_fnca	1	1	1	912710372	1	75.031	75.030	2.0.10.147	2.0.10.242	2.0.10.242	1.0.0.439	7	234	2	3	Verdana	1	80	0	0	0	WM Stimuli\	0.7	1232	0.9	934.777777777778	1	1198.9	1	823.9	0.9	1174.33333333333	1	767.5	1	1069	1	696.7	13	375688	2	375676	27	40	375715	-999999	375691	0	13	TrialsPROC	PL_002_92014.png	1	2	56	SessionSelectionList														nonlure	3	Place	0-Back	49	80	45	0	0	96	1	39	255323	2	14	86	253284	-1	253576	1	292	3	3	2039	53	255337	-54	0												8				56												
WM080112	105115_fnca	1	1	1	912710372	1	75.031	75.030	2.0.10.147	2.0.10.242	2.0.10.242	1.0.0.439	7	234	2	3	Verdana	1	80	0	0	0	WM Stimuli\	0.7	1232	0.9	934.777777777778	1	1198.9	1	823.9	0.9	1174.33333333333	1	767.5	1	1069	1	696.7	13	375688	2	375676	27	40	375715	-999999	375691	0	13	TrialsPROC	PL_004_92023.png	1	2	57	SessionSelectionList														lure	3	Place	0-Back	50	80	46	0	0	97	2	39	257895	2	14	72	255856	-1	256667	1	811	3	3	2039	53	257909	-54	0												9				57												
WM080112	105115_fnca	1	1	1	912710372	1	75.031	75.030	2.0.10.147	2.0.10.242	2.0.10.242	1.0.0.439	7	234	2	3	Verdana	1	80	0	0	0	WM Stimuli\	0.7	1232	0.9	934.777777777778	1	1198.9	1	823.9	0.9	1174.33333333333	1	767.5	1	1069	1	696.7	13	375688	2	375676	27	40	375715	-999999	375691	0	13	TrialsPROC	PL_006_92025.png	1	2	58	SessionSelectionList														lure	3	Place	0-Back	51	80	47	0	0	97	3	40	260468	1	13	72	258428	-1	259243	1	815	3	3	2040	53	260481	-54	0												10				58												
WM080112	105115_fnca	1	1	1	912710372	1	75.031	75.030	2.0.10.147	2.0.10.242	2.0.10.242	1.0.0.439	7	234	2	3	Verdana	1	80	0	0	0	WM Stimuli\	0.7	1232	0.9	934.777777777778	1	1198.9	1	823.9	0.9	1174.33333333333	1	767.5	1	1069	1	696.7	13	375688	2	375676	27	40	375715	-999999	375691	0	14	Cue2BackPROC	""	1	2	59	SessionSelectionList									6	260934	-7	0																																													59												
WM080112	105115_fnca	1	1	1	912710372	1	75.031	75.030	2.0.10.147	2.0.10.242	2.0.10.242	1.0.0.439	7	234	2	3	Verdana	1	80	0	0	0	WM Stimuli\	0.7	1232	0.9	934.777777777778	1	1198.9	1	823.9	0.9	1174.33333333333	1	767.5	1	1069	1	696.7	13	375688	2	375676	27	40	375715	-999999	375691	0	15	TrialsPROC	FC_010_F5.png	1	2	60	SessionSelectionList														nonlure	3	Face	2-Back	52	80	48	0	0	97	4	39	265559	1	14	92	263520	-1	265147	1	1627	3	3	2039	53	265573	-54	0													1			60												
WM080112	105115_fnca	1	1	1	912710372	1	75.031	75.030	2.0.10.147	2.0.10.242	2.0.10.242	1.0.0.439	7	234	2	3	Verdana	1	80	0	0	0	WM Stimuli\	0.7	1232	0.9	934.777777777778	1	1198.9	1	823.9	0.9	1174.33333333333	1	767.5	1	1069	1	696.7	13	375688	2	375676	27	40	375715	-999999	375691	0	15	TrialsPROC	FC_012_F6.png	1	2	61	SessionSelectionList														nonlure	3	Face	2-Back	53	80	49	0	0	97	5	39	268131	2	14	72	266092	-1	267010	1	918	3	3	2039	53	268145	-54	0													2			61												
WM080112	105115_fnca	1	1	1	912710372	1	75.031	75.030	2.0.10.147	2.0.10.242	2.0.10.242	1.0.0.439	7	234	2	3	Verdana	1	80	0	0	0	WM Stimuli\	0.7	1232	0.9	934.777777777778	1	1198.9	1	823.9	0.9	1174.33333333333	1	767.5	1	1069	1	696.7	13	375688	2	375676	27	40	375715	-999999	375691	0	15	TrialsPROC	FC_010_F5.png	1	2	62	SessionSelectionList														target	2	Face	2-Back	54	80	50	0	0	97	1	40	270704	1	13	72	268664	-1	269425	1	761	2	2	2040	53	270717	-54	0													3			62												
WM080112	105115_fnca	1	1	1	912710372	1	75.031	75.030	2.0.10.147	2.0.10.242	2.0.10.242	1.0.0.439	7	234	2	3	Verdana	1	80	0	0	0	WM Stimuli\	0.7	1232	0.9	934.777777777778	1	1198.9	1	823.9	0.9	1174.33333333333	1	767.5	1	1069	1	696.7	13	375688	2	375676	27	40	375715	-999999	375691	0	15	TrialsPROC	FC_008_F4.png	1	2	63	SessionSelectionList														nonlure	3	Face	2-Back	55	80	51	0	0	97	1	39	273289	2	14	86	271250	-1	272716	1	1466	3	3	2039	53	273303	-54	0													4			63												
WM080112	105115_fnca	1	1	1	912710372	1	75.031	75.030	2.0.10.147	2.0.10.242	2.0.10.242	1.0.0.439	7	234	2	3	Verdana	1	80	0	0	0	WM Stimuli\	0.7	1232	0.9	934.777777777778	1	1198.9	1	823.9	0.9	1174.33333333333	1	767.5	1	1069	1	696.7	13	375688	2	375676	27	40	375715	-999999	375691	0	15	TrialsPROC	FC_012_F6.png	1	2	64	SessionSelectionList														lure	3	Face	2-Back	56	80	52	0	0	97	2	39	275861	2	14	72	273822	-1	275588	1	1766	3	3	2039	53	275875	-54	0													5			64												
WM080112	105115_fnca	1	1	1	912710372	1	75.031	75.030	2.0.10.147	2.0.10.242	2.0.10.242	1.0.0.439	7	234	2	3	Verdana	1	80	0	0	0	WM Stimuli\	0.7	1232	0.9	934.777777777778	1	1198.9	1	823.9	0.9	1174.33333333333	1	767.5	1	1069	1	696.7	13	375688	2	375676	27	40	375715	-999999	375691	0	15	TrialsPROC	FC_008_F4.png	1	2	65	SessionSelectionList														target	2	Face	2-Back	57	80	53	0	0	97	1	39	278434	1	13	73	276395	-1	276923	1	528	2	2	2039	52	278447	-53	0													6			65												
WM080112	105115_fnca	1	1	1	912710372	1	75.031	75.030	2.0.10.147	2.0.10.242	2.0.10.242	1.0.0.439	7	234	2	3	Verdana	1	80	0	0	0	WM Stimuli\	0.7	1232	0.9	934.777777777778	1	1198.9	1	823.9	0.9	1174.33333333333	1	767.5	1	1069	1	696.7	13	375688	2	375676	27	40	375715	-999999	375691	0	15	TrialsPROC	FC_007_M4.png	1	2	66	SessionSelectionList														nonlure	3	Face	2-Back	58	80	54	0	0	97	1	39	281006	2	14	72	278967	-1	279625	1	658	3	3	2039	53	281020	-54	0													7			66												
WM080112	105115_fnca	1	1	1	912710372	1	75.031	75.030	2.0.10.147	2.0.10.242	2.0.10.242	1.0.0.439	7	234	2	3	Verdana	1	80	0	0	0	WM Stimuli\	0.7	1232	0.9	934.777777777778	1	1198.9	1	823.9	0.9	1174.33333333333	1	767.5	1	1069	1	696.7	13	375688	2	375676	27	40	375715	-999999	375691	0	15	TrialsPROC	FC_007_M4.png	1	2	67	SessionSelectionList														lure	3	Face	2-Back	59	80	55	0	0	97	2	39	283578	2	14	72	281539	-1	283060	1	1521	3	3	2039	53	283592	-54	0													8			67												
WM080112	105115_fnca	1	1	1	912710372	1	75.031	75.030	2.0.10.147	2.0.10.242	2.0.10.242	1.0.0.439	7	234	2	3	Verdana	1	80	0	0	0	WM Stimuli\	0.7	1232	0.9	934.777777777778	1	1198.9	1	823.9	0.9	1174.33333333333	1	767.5	1	1069	1	696.7	13	375688	2	375676	27	40	375715	-999999	375691	0	15	TrialsPROC	FC_009_M5.png	1	2	68	SessionSelectionList														nonlure	3	Face	2-Back	60	80	56	0	0	97	3	40	286151	1	13	72	284111	-1	285948	1	1837	3	3	2040	53	286164	-54	0													9			68												
WM080112	105115_fnca	1	1	1	912710372	1	75.031	75.030	2.0.10.147	2.0.10.242	2.0.10.242	1.0.0.439	7	234	2	3	Verdana	1	80	0	0	0	WM Stimuli\	0.7	1232	0.9	934.777777777778	1	1198.9	1	823.9	0.9	1174.33333333333	1	767.5	1	1069	1	696.7	13	375688	2	375676	27	40	375715	-999999	375691	0	15	TrialsPROC	FC_011_M6.png	1	2	69	SessionSelectionList														nonlure	3	Face	2-Back	61	80	57	0	0	97	4	40	288750	1	13	99	286710	-1	287617	1	907	3	3	2040	53	288763	-54	0													10			69												
WM080112	105115_fnca	1	1	1	912710372	1	75.031	75.030	2.0.10.147	2.0.10.242	2.0.10.242	1.0.0.439	7	234	2	3	Verdana	1	80	0	0	0	WM Stimuli\	0.7	1232	0.9	934.777777777778	1	1198.9	1	823.9	0.9	1174.33333333333	1	767.5	1	1069	1	696.7	13	375688	2	375676	27	40	375715	-999999	375691	0	16	Fix15secPROC	""	1	2	70	SessionSelectionList																																															6	289216	-7	0							70												
WM080112	105115_fnca	1	1	1	912710372	1	75.031	75.030	2.0.10.147	2.0.10.242	2.0.10.242	1.0.0.439	7	234	2	3	Verdana	1	80	0	0	0	WM Stimuli\	0.7	1232	0.9	934.777777777778	1	1198.9	1	823.9	0.9	1174.33333333333	1	767.5	1	1069	1	696.7	13	375688	2	375676	27	40	375715	-999999	375691	0	17	Cue0BackPROC	TO_007_TOOL7_BA.png	1	2	71	SessionSelectionList																																										40	304250	-41	0												71												
WM080112	105115_fnca	1	1	1	912710372	1	75.031	75.030	2.0.10.147	2.0.10.242	2.0.10.242	1.0.0.439	7	234	2	3	Verdana	1	80	0	0	0	WM Stimuli\	0.7	1232	0.9	934.777777777778	1	1198.9	1	823.9	0.9	1174.33333333333	1	767.5	1	1069	1	696.7	13	375688	2	375676	27	40	375715	-999999	375691	0	18	TrialsPROC	TO_010_TOOL10_BA.png	1	2	72	SessionSelectionList														nonlure	3	Tools	0-Back	62	80	58	0	0	97	5	40	308822	2	13	72	306782	-1	307814	1	1032	3	3	2040	53	308835	-54	0														1		72												
WM080112	105115_fnca	1	1	1	912710372	1	75.031	75.030	2.0.10.147	2.0.10.242	2.0.10.242	1.0.0.439	7	234	2	3	Verdana	1	80	0	0	0	WM Stimuli\	0.7	1232	0.9	934.777777777778	1	1198.9	1	823.9	0.9	1174.33333333333	1	767.5	1	1069	1	696.7	13	375688	2	375676	27	40	375715	-999999	375691	0	18	TrialsPROC	TO_009_TOOL9_BA.png	1	2	73	SessionSelectionList														nonlure	3	Tools	0-Back	63	80	59	0	0	97	6	39	311407	2	14	86	309368	-1	309924	1	556	3	3	2039	53	311421	-54	0														2		73												
WM080112	105115_fnca	1	1	1	912710372	1	75.031	75.030	2.0.10.147	2.0.10.242	2.0.10.242	1.0.0.439	7	234	2	3	Verdana	1	80	0	0	0	WM Stimuli\	0.7	1232	0.9	934.777777777778	1	1198.9	1	823.9	0.9	1174.33333333333	1	767.5	1	1069	1	696.7	13	375688	2	375676	27	40	375715	-999999	375691	0	18	TrialsPROC	TO_009_TOOL9_BA.png	1	2	74	SessionSelectionList														lure	3	Tools	0-Back	64	80	60	0	0	97	7	39	313966	2	14	59	311927	-1	312660	1	733	3	3	2039	53	313980	-54	0														3		74												
WM080112	105115_fnca	1	1	1	912710372	1	75.031	75.030	2.0.10.147	2.0.10.242	2.0.10.242	1.0.0.439	7	234	2	3	Verdana	1	80	0	0	0	WM Stimuli\	0.7	1232	0.9	934.777777777778	1	1198.9	1	823.9	0.9	1174.33333333333	1	767.5	1	1069	1	696.7	13	375688	2	375676	27	40	375715	-999999	375691	0	18	TrialsPROC	TO_008_TOOL8_BA.png	1	2	75	SessionSelectionList														nonlure	3	Tools	0-Back	65	80	61	0	0	97	8	39	316552	1	13	86	314513	-1	315130	1	617	3	3	2039	52	316565	-53	0														4		75												
WM080112	105115_fnca	1	1	1	912710372	1	75.031	75.030	2.0.10.147	2.0.10.242	2.0.10.242	1.0.0.439	7	234	2	3	Verdana	1	80	0	0	0	WM Stimuli\	0.7	1232	0.9	934.777777777778	1	1198.9	1	823.9	0.9	1174.33333333333	1	767.5	1	1069	1	696.7	13	375688	2	375676	27	40	375715	-999999	375691	0	18	TrialsPROC	TO_011_TOOL11_BA.png	1	2	76	SessionSelectionList														nonlure	3	Tools	0-Back	66	80	62	0	0	97	9	39	319164	2	14	112	317125	-1	317711	1	586	3	3	2039	53	319178	-54	0														5		76												
WM080112	105115_fnca	1	1	1	912710372	1	75.031	75.030	2.0.10.147	2.0.10.242	2.0.10.242	1.0.0.439	7	234	2	3	Verdana	1	80	0	0	0	WM Stimuli\	0.7	1232	0.9	934.777777777778	1	1198.9	1	823.9	0.9	1174.33333333333	1	767.5	1	1069	1	696.7	13	375688	2	375676	27	40	375715	-999999	375691	0	18	TrialsPROC	TO_012_TOOL12_BA.png	1	2	77	SessionSelectionList														nonlure	3	Tools	0-Back	67	80	63	0	0	97	10	39	321736	2	14	72	319697	-1	320282	1	585	3	3	2039	53	321750	-54	0														6		77												
WM080112	105115_fnca	1	1	1	912710372	1	75.031	75.030	2.0.10.147	2.0.10.242	2.0.10.242	1.0.0.439	7	234	2	3	Verdana	1	80	0	0	0	WM Stimuli\	0.7	1232	0.9	934.777777777778	1	1198.9	1	823.9	0.9	1174.33333333333	1	767.5	1	1069	1	696.7	13	375688	2	375676	27	40	375715	-999999	375691	0	18	TrialsPROC	TO_010_TOOL10_BA.png	1	2	78	SessionSelectionList														lure	3	Tools	0-Back	68	80	64	0	0	97	11	39	324295	2	14	59	322256	-1	323164	1	908	3	3	2039	53	324309	-54	0														7		78												
WM080112	105115_fnca	1	1	1	912710372	1	75.031	75.030	2.0.10.147	2.0.10.242	2.0.10.242	1.0.0.439	7	234	2	3	Verdana	1	80	0	0	0	WM Stimuli\	0.7	1232	0.9	934.777777777778	1	1198.9	1	823.9	0.9	1174.33333333333	1	767.5	1	1069	1	696.7	13	375688	2	375676	27	40	375715	-999999	375691	0	18	TrialsPROC	TO_007_TOOL7_BA.png	1	2	79	SessionSelectionList														target	2	Tools	0-Back	69	80	65	0	0	97	1	39	326854	2	14	59	324815	-1	325544	1	729	2	2	2039	53	326868	-54	0														8		79												
WM080112	105115_fnca	1	1	1	912710372	1	75.031	75.030	2.0.10.147	2.0.10.242	2.0.10.242	1.0.0.439	7	234	2	3	Verdana	1	80	0	0	0	WM Stimuli\	0.7	1232	0.9	934.777777777778	1	1198.9	1	823.9	0.9	1174.33333333333	1	767.5	1	1069	1	696.7	13	375688	2	375676	27	40	375715	-999999	375691	0	18	TrialsPROC	TO_008_TOOL8_BA.png	1	2	80	SessionSelectionList														lure	3	Tools	0-Back	70	80	66	0	0	97	1	39	329413	2	14	59	327374	-1	327744	1	370	3	3	2039	53	329427	-54	0														9		80												
WM080112	105115_fnca	1	1	1	912710372	1	75.031	75.030	2.0.10.147	2.0.10.242	2.0.10.242	1.0.0.439	7	234	2	3	Verdana	1	80	0	0	0	WM Stimuli\	0.7	1232	0.9	934.777777777778	1	1198.9	1	823.9	0.9	1174.33333333333	1	767.5	1	1069	1	696.7	13	375688	2	375676	27	40	375715	-999999	375691	0	18	TrialsPROC	TO_007_TOOL7_BA.png	1	2	81	SessionSelectionList														target	2	Tools	0-Back	71	80	67	0	0	98	1	39	331972	2	14	59	329933	-1	330784	1	851	2	2	2039	53	331986	-54	0														10		81												
WM080112	105115_fnca	1	1	1	912710372	1	75.031	75.030	2.0.10.147	2.0.10.242	2.0.10.242	1.0.0.439	7	234	2	3	Verdana	1	80	0	0	0	WM Stimuli\	0.7	1232	0.9	934.777777777778	1	1198.9	1	823.9	0.9	1174.33333333333	1	767.5	1	1069	1	696.7	13	375688	2	375676	27	40	375715	-999999	375691	0	19	Cue2BackPROC	""	1	2	82	SessionSelectionList									6	332439	-7	0																																													82												
WM080112	105115_fnca	1	1	1	912710372	1	75.031	75.030	2.0.10.147	2.0.10.242	2.0.10.242	1.0.0.439	7	234	2	3	Verdana	1	80	0	0	0	WM Stimuli\	0.7	1232	0.9	934.777777777778	1	1198.9	1	823.9	0.9	1174.33333333333	1	767.5	1	1069	1	696.7	13	375688	2	375676	27	40	375715	-999999	375691	0	20	TrialsPROC	PL_007_92026.png	1	2	83	SessionSelectionList														nonlure	3	Place	2-Back	72	80	68	0	0	98	1	39	337050	2	14	78	335011	-1	336822	1	1811	3	3	2039	53	337064	-54	0															1	83												
WM080112	105115_fnca	1	1	1	912710372	1	75.031	75.030	2.0.10.147	2.0.10.242	2.0.10.242	1.0.0.439	7	234	2	3	Verdana	1	80	0	0	0	WM Stimuli\	0.7	1232	0.9	934.777777777778	1	1198.9	1	823.9	0.9	1174.33333333333	1	767.5	1	1069	1	696.7	13	375688	2	375676	27	40	375715	-999999	375691	0	20	TrialsPROC	PL_007_92026.png	1	2	84	SessionSelectionList														lure	3	Place	2-Back	73	80	69	0	0	98	2	39	339622	2	14	72	337583	-1	338697	1	1114	3	3	2039	53	339636	-54	0															2	84												
WM080112	105115_fnca	1	1	1	912710372	1	75.031	75.030	2.0.10.147	2.0.10.242	2.0.10.242	1.0.0.439	7	234	2	3	Verdana	1	80	0	0	0	WM Stimuli\	0.7	1232	0.9	934.777777777778	1	1198.9	1	823.9	0.9	1174.33333333333	1	767.5	1	1069	1	696.7	13	375688	2	375676	27	40	375715	-999999	375691	0	20	TrialsPROC	PL_010_92038.png	1	2	85	SessionSelectionList														nonlure	3	Place	2-Back	74	80	70	0	0	98	3	39	342208	1	14	86	340169	-1	341402	1	1233	3	3	2039	53	342222	-54	0															3	85												
WM080112	105115_fnca	1	1	1	912710372	1	75.031	75.030	2.0.10.147	2.0.10.242	2.0.10.242	1.0.0.439	7	234	2	3	Verdana	1	80	0	0	0	WM Stimuli\	0.7	1232	0.9	934.777777777778	1	1198.9	1	823.9	0.9	1174.33333333333	1	767.5	1	1069	1	696.7	13	375688	2	375676	27	40	375715	-999999	375691	0	20	TrialsPROC	PL_009_92037.png	1	2	86	SessionSelectionList														nonlure	3	Place	2-Back	75	80	71	0	0	98	4	39	344794	1	13	86	342755	-1	343976	1	1221	3	3	2039	52	344807	-53	0															4	86												
WM080112	105115_fnca	1	1	1	912710372	1	75.031	75.030	2.0.10.147	2.0.10.242	2.0.10.242	1.0.0.439	7	234	2	3	Verdana	1	80	0	0	0	WM Stimuli\	0.7	1232	0.9	934.777777777778	1	1198.9	1	823.9	0.9	1174.33333333333	1	767.5	1	1069	1	696.7	13	375688	2	375676	27	40	375715	-999999	375691	0	20	TrialsPROC	PL_010_92038.png	1	2	87	SessionSelectionList														target	2	Place	2-Back	76	80	72	0	0	98	1	39	347353	1	13	59	345314	-1	346210	1	896	2	2	2039	52	347366	-53	0															5	87												
WM080112	105115_fnca	1	1	1	912710372	1	75.031	75.030	2.0.10.147	2.0.10.242	2.0.10.242	1.0.0.439	7	234	2	3	Verdana	1	80	0	0	0	WM Stimuli\	0.7	1232	0.9	934.777777777778	1	1198.9	1	823.9	0.9	1174.33333333333	1	767.5	1	1069	1	696.7	13	375688	2	375676	27	40	375715	-999999	375691	0	20	TrialsPROC	PL_009_92037.png	1	2	88	SessionSelectionList														target	2	Place	2-Back	77	80	73	0	0	98	1	39	349912	1	13	59	347873	-1	349745	0	1872	3	2	2039	52	349925	-53	0															6	88												
WM080112	105115_fnca	1	1	1	912710372	1	75.031	75.030	2.0.10.147	2.0.10.242	2.0.10.242	1.0.0.439	7	234	2	3	Verdana	1	80	0	0	0	WM Stimuli\	0.7	1232	0.9	934.777777777778	1	1198.9	1	823.9	0.9	1174.33333333333	1	767.5	1	1069	1	696.7	13	375688	2	375676	27	40	375715	-999999	375691	0	20	TrialsPROC	PL_008_92033.png	1	2	89	SessionSelectionList														nonlure	3	Place	2-Back	78	80	74	0	0	98	2	39	352497	2	14	85	350458	-1	351415	1	957	3	3	2039	53	352511	-54	0															7	89												
WM080112	105115_fnca	1	1	1	912710372	1	75.031	75.030	2.0.10.147	2.0.10.242	2.0.10.242	1.0.0.439	7	234	2	3	Verdana	1	80	0	0	0	WM Stimuli\	0.7	1232	0.9	934.777777777778	1	1198.9	1	823.9	0.9	1174.33333333333	1	767.5	1	1069	1	696.7	13	375688	2	375676	27	40	375715	-999999	375691	0	20	TrialsPROC	PL_012_92047.png	1	2	90	SessionSelectionList														nonlure	3	Place	2-Back	79	80	75	0	0	98	3	39	355083	1	14	86	353044	-1	354005	1	961	3	3	2039	53	355097	-54	0															8	90												
WM080112	105115_fnca	1	1	1	912710372	1	75.031	75.030	2.0.10.147	2.0.10.242	2.0.10.242	1.0.0.439	7	234	2	3	Verdana	1	80	0	0	0	WM Stimuli\	0.7	1232	0.9	934.777777777778	1	1198.9	1	823.9	0.9	1174.33333333333	1	767.5	1	1069	1	696.7	13	375688	2	375676	27	40	375715	-999999	375691	0	20	TrialsPROC	PL_012_92047.png	1	2	91	SessionSelectionList														lure	3	Place	2-Back	80	80	76	0	0	98	4	39	357642	1	13	59	355603	-1	356607	1	1004	3	3	2039	52	357655	-53	0															9	91												
WM080112	105115_fnca	1	1	1	912710372	1	75.031	75.030	2.0.10.147	2.0.10.242	2.0.10.242	1.0.0.439	7	234	2	3	Verdana	1	80	0	0	0	WM Stimuli\	0.7	1232	0.9	934.777777777778	1	1198.9	1	823.9	0.9	1174.33333333333	1	767.5	1	1069	1	696.7	13	375688	2	375676	27	40	375715	-999999	375691	0	20	TrialsPROC	PL_011_92044.png	1	2	92	SessionSelectionList														nonlure	3	Place	2-Back	80	80	77	0	0	98	5	39	360214	2	14	72	358175	-1	359547	1	1372	3	3	2039	53	360228	-54	0															10	92												
WM080112	105115_fnca	1	1	1	912710372	1	75.031	75.030	2.0.10.147	2.0.10.242	2.0.10.242	1.0.0.439	7	234	2	3	Verdana	1	80	0	0	0	WM Stimuli\	0.7	1232	0.9	934.777777777778	1	1198.9	1	823.9	0.9	1174.33333333333	1	767.5	1	1069	1	696.7	13	375688	2	375676	27	40	375715	-999999	375691	0	21	Fix15secPROC	""	1	2	93	SessionSelectionList																																															6	360681	-7	0							93												
