ExperimentName	HCPID	RunNumber	Subject	Session	RandomSeed	Group	Laptop.RefreshRate	ScannerD2.RefreshRate	StudioVersion	RuntimeVersion	RuntimeVersionExpected	ExperimentVersion	triggercode	Allowed	Target	Nontarget	FontStyle	RunTrialNumber[Session]	TrialsPerRun[Session]	TotalRespGreater200[Session]	ConsecRTLess200[Session]	ConsecNonResp[Session]	StimuliDir	ACC_2_Back_Body	Avg_RT_For_Correct_Trials_2_Back_Body	ACC_0_Back_Body	Avg_RT_For_Correct_Trials_0_Back_Body	ACC_2_Back_Face	Avg_RT_For_Correct_Trials_2_Back_Face	ACC_0_Back_Face	Avg_RT_For_Correct_Trials_0_Back_Face	ACC_2_Back_Place	Avg_RT_For_Correct_Trials_2_Back_Place	ACC_0_Back_Place	Avg_RT_For_Correct_Trials_0_Back_Place	ACC_2_Back_Tools	Avg_RT_For_Correct_Trials_2_Back_Tools	ACC_0_Back_Tools	Avg_RT_For_Correct_Trials_0_Back_Tools	ExpInstrucFeelFreeToRest.OnsetDelay	ExpInstrucFeelFreeToRest.OnsetTime	ExpInstrucFeelFreeToRest.DurationError	ExpInstrucFeelFreeToRest.StartTime	ExpInstrucFeelFreeToRest.OnsetToOnsetTime	FeelFreeToRest.OnsetDelay	FeelFreeToRest.OnsetTime	FeelFreeToRest.DurationError	FeelFreeToRest.StartTime	FeelFreeToRest.OnsetToOnsetTime	SessionSelectionList	Procedure[Block]	Stimulus[Block]	RunNumberFilterValue	SessionSelectionList.Cycle	SessionSelectionList.Sample	Running[Block]	IntroButtonMap.OnsetDelay	IntroButtonMap.OnsetTime	IntroButtonMap.DurationError	IntroButtonMap.OnsetToOnsetTime	GetReady.OnsetDelay	GetReady.OnsetTime	GetReady.DurationError	GetReady.OnsetToOnsetTime	Cue2Back.OnsetDelay	Cue2Back.OnsetTime	Cue2Back.DurationError	Cue2Back.OnsetToOnsetTime	Run1Block1	TargetType	CorrectResponse	StimType	BlockType	RunTrialNumber[Block]	TrialsPerRun[Block]	TotalRespGreater200[Block]	ConsecRTLess200[Block]	ConsecNonResp[Block]	ControlAcc	ConsecSameResp	ExperimenterWindow.OnsetDelay	ExperimenterWindow.OnsetTime	ExperimenterWindow.DurationError	ExperimenterWindow.OnsetToOnsetTime	Stim.OnsetDelay	Stim.OnsetTime	Stim.DurationError	Stim.RTTime	Stim.ACC	Stim.RT	Stim.RESP	Stim.CRESP	Stim.OnsetToOnsetTime	Fix.OnsetDelay	Fix.OnsetTime	Fix.DurationError	Fix.OnsetToOnsetTime	CueTarget.OnsetDelay	CueTarget.OnsetTime	CueTarget.DurationError	CueTarget.OnsetToOnsetTime	Run1Block2	Fix15sec.OnsetDelay	Fix15sec.OnsetTime	Fix15sec.DurationError	Fix15sec.OnsetToOnsetTime	Run1Block3	Run1Block4	Run1Block5	Run1Block6	Run1Block7	Run1Block8	Block	Procedure[Trial]	Stimulus[Trial]	ReadyList	Running[Trial]	ReadyList.Cycle	ReadyList.Sample	SyncSlide.OnsetDelay	SyncSlide.OnsetTime	SyncSlide.DurationError	SyncSlide.FinishTime	SyncSlide.OnsetToOnsetTime	Trial
WM080112	133982_fnca	2	1	1	1776790652	1	75.031	75.031	2.0.10.147	2.0.10.242	2.0.10.242	1.0.0.439	7	234	2	3	Verdana	1	80	0	0	0	WM Stimuli\	0.8	1097.375	1	608.3	0.9	797.777777777778	1	636.3	0.9	875.222222222222	0.7	669.857142857143	1	944	1	653.6	13	335752	2	335740	26	39	335778	-999999	335755	0	22	TRSyncPROC	""	2	2	1	SessionSelectionList	103	10005	-999999	0	30	25679	-999999	0																																																	1	InitialTR	4	1	ReadyList	1	1	12	42219	-13	44206	0	1
WM080112	133982_fnca	2	1	1	1776790652	1	75.031	75.031	2.0.10.147	2.0.10.242	2.0.10.242	1.0.0.439	7	234	2	3	Verdana	1	80	0	0	0	WM Stimuli\	0.8	1097.375	1	608.3	0.9	797.777777777778	1	636.3	0.9	875.222222222222	0.7	669.857142857143	1	944	1	653.6	13	335752	2	335740	26	39	335778	-999999	335755	0	22	TRSyncPROC	""	2	2	1	SessionSelectionList	103	10005	-999999	0	30	25679	-999999	0																																																	1	InitialTR	3	2	ReadyList	1	2	11	44218	-12	46206	0	2
WM080112	133982_fnca	2	1	1	1776790652	1	75.031	75.031	2.0.10.147	2.0.10.242	2.0.10.242	1.0.0.439	7	234	2	3	Verdana	1	80	0	0	0	WM Stimuli\	0.8	1097.375	1	608.3	0.9	797.777777777778	1	636.3	0.9	875.222222222222	0.7	669.857142857143	1	944	1	653.6	13	335752	2	335740	26	39	335778	-999999	335755	0	22	TRSyncPROC	""	2	2	1	SessionSelectionList	103	10005	-999999	0	30	25679	-999999	0																																																	1	InitialTR	2	3	ReadyList	1	3	10	46217	-11	48206	0	3
WM080112	133982_fnca	2	1	1	1776790652	1	75.031	75.031	2.0.10.147	2.0.10.242	2.0.10.242	1.0.0.439	7	234	2	3	Verdana	1	80	0	0	0	WM Stimuli\	0.8	1097.375	1	608.3	0.9	797.777777777778	1	636.3	0.9	875.222222222222	0.7	669.857142857143	1	944	1	653.6	13	335752	2	335740	26	39	335778	-999999	335755	0	22	TRSyncPROC	""	2	2	1	SessionSelectionList	103	10005	-999999	0	30	25679	-999999	0																																																	1	InitialTR	1	4	ReadyList	1	4	9	48216	-10	50206	0	4
WM080112	133982_fnca	2	1	1	1776790652	1	75.031	75.031	2.0.10.147	2.0.10.242	2.0.10.242	1.0.0.439	7	234	2	3	Verdana	1	80	0	0	0	WM Stimuli\	0.8	1097.375	1	608.3	0.9	797.777777777778	1	636.3	0.9	875.222222222222	0.7	669.857142857143	1	944	1	653.6	13	335752	2	335740	26	39	335778	-999999	335755	0	23	Cue2BackPROC	""	2	2	2	SessionSelectionList									8	50215	-9	0																																													2												
WM080112	133982_fnca	2	1	1	1776790652	1	75.031	75.031	2.0.10.147	2.0.10.242	2.0.10.242	1.0.0.439	7	234	2	3	Verdana	1	80	0	0	0	WM Stimuli\	0.8	1097.375	1	608.3	0.9	797.777777777778	1	636.3	0.9	875.222222222222	0.7	669.857142857143	1	944	1	653.6	13	335752	2	335740	26	39	335778	-999999	335755	0	24	TrialsPROC	TO_014_TOOL14_BA.png	2	2	3	SessionSelectionList														nonlure	3	Tools	2-Back	2	80	1	0	0	0	1	52	54840	3	14	81	52788	-1	53859	1	1071	3	3	2052	66	54854	-67	0																3												
WM080112	133982_fnca	2	1	1	1776790652	1	75.031	75.031	2.0.10.147	2.0.10.242	2.0.10.242	1.0.0.439	7	234	2	3	Verdana	1	80	0	0	0	WM Stimuli\	0.8	1097.375	1	608.3	0.9	797.777777777778	1	636.3	0.9	875.222222222222	0.7	669.857142857143	1	944	1	653.6	13	335752	2	335740	26	39	335778	-999999	335755	0	24	TrialsPROC	TO_013_TOOL13_BA.png	2	2	4	SessionSelectionList														nonlure	3	Tools	2-Back	3	80	2	0	0	0	2	39	57386	2	13	59	55347	-1	56410	1	1063	3	3	2039	52	57399	-53	0																4												
WM080112	133982_fnca	2	1	1	1776790652	1	75.031	75.031	2.0.10.147	2.0.10.242	2.0.10.242	1.0.0.439	7	234	2	3	Verdana	1	80	0	0	0	WM Stimuli\	0.8	1097.375	1	608.3	0.9	797.777777777778	1	636.3	0.9	875.222222222222	0.7	669.857142857143	1	944	1	653.6	13	335752	2	335740	26	39	335778	-999999	335755	0	24	TrialsPROC	TO_016_TOOL16_BA.png	2	2	5	SessionSelectionList														nonlure	3	Tools	2-Back	4	80	3	0	0	0	3	39	59958	2	14	72	57919	-1	58766	1	847	3	3	2039	53	59972	-54	0																5												
WM080112	133982_fnca	2	1	1	1776790652	1	75.031	75.031	2.0.10.147	2.0.10.242	2.0.10.242	1.0.0.439	7	234	2	3	Verdana	1	80	0	0	0	WM Stimuli\	0.8	1097.375	1	608.3	0.9	797.777777777778	1	636.3	0.9	875.222222222222	0.7	669.857142857143	1	944	1	653.6	13	335752	2	335740	26	39	335778	-999999	335755	0	24	TrialsPROC	TO_014_TOOL14_BA.png	2	2	6	SessionSelectionList														lure	3	Tools	2-Back	5	80	4	0	0	0	4	39	62530	2	14	72	60491	-1	61826	1	1335	3	3	2039	53	62544	-54	0																6												
WM080112	133982_fnca	2	1	1	1776790652	1	75.031	75.031	2.0.10.147	2.0.10.242	2.0.10.242	1.0.0.439	7	234	2	3	Verdana	1	80	0	0	0	WM Stimuli\	0.8	1097.375	1	608.3	0.9	797.777777777778	1	636.3	0.9	875.222222222222	0.7	669.857142857143	1	944	1	653.6	13	335752	2	335740	26	39	335778	-999999	335755	0	24	TrialsPROC	TO_016_TOOL16_BA.png	2	2	7	SessionSelectionList														target	2	Tools	2-Back	6	80	5	0	0	0	1	39	65089	2	14	59	63050	-1	64835	1	1785	2	2	2039	53	65103	-54	0																7												
WM080112	133982_fnca	2	1	1	1776790652	1	75.031	75.031	2.0.10.147	2.0.10.242	2.0.10.242	1.0.0.439	7	234	2	3	Verdana	1	80	0	0	0	WM Stimuli\	0.8	1097.375	1	608.3	0.9	797.777777777778	1	636.3	0.9	875.222222222222	0.7	669.857142857143	1	944	1	653.6	13	335752	2	335740	26	39	335778	-999999	335755	0	24	TrialsPROC	TO_018_TOOL18_BA.png	2	2	8	SessionSelectionList														nonlure	3	Tools	2-Back	7	80	6	0	0	0	1	39	67648	2	14	59	65609	-1	66441	1	832	3	3	2039	53	67662	-54	0																8												
WM080112	133982_fnca	2	1	1	1776790652	1	75.031	75.031	2.0.10.147	2.0.10.242	2.0.10.242	1.0.0.439	7	234	2	3	Verdana	1	80	0	0	0	WM Stimuli\	0.8	1097.375	1	608.3	0.9	797.777777777778	1	636.3	0.9	875.222222222222	0.7	669.857142857143	1	944	1	653.6	13	335752	2	335740	26	39	335778	-999999	335755	0	24	TrialsPROC	TO_017_TOOL17_BA.png	2	2	9	SessionSelectionList														nonlure	3	Tools	2-Back	8	80	7	0	0	0	2	39	70207	2	14	59	68168	-1	68750	1	582	3	3	2039	53	70221	-54	0																9												
WM080112	133982_fnca	2	1	1	1776790652	1	75.031	75.031	2.0.10.147	2.0.10.242	2.0.10.242	1.0.0.439	7	234	2	3	Verdana	1	80	0	0	0	WM Stimuli\	0.8	1097.375	1	608.3	0.9	797.777777777778	1	636.3	0.9	875.222222222222	0.7	669.857142857143	1	944	1	653.6	13	335752	2	335740	26	39	335778	-999999	335755	0	24	TrialsPROC	TO_018_TOOL18_BA.png	2	2	10	SessionSelectionList														target	2	Tools	2-Back	9	80	8	0	0	0	1	39	72766	2	14	59	70727	-1	71314	1	587	2	2	2039	53	72780	-54	0																10												
WM080112	133982_fnca	2	1	1	1776790652	1	75.031	75.031	2.0.10.147	2.0.10.242	2.0.10.242	1.0.0.439	7	234	2	3	Verdana	1	80	0	0	0	WM Stimuli\	0.8	1097.375	1	608.3	0.9	797.777777777778	1	636.3	0.9	875.222222222222	0.7	669.857142857143	1	944	1	653.6	13	335752	2	335740	26	39	335778	-999999	335755	0	24	TrialsPROC	TO_015_TOOL15_BA.png	2	2	11	SessionSelectionList														nonlure	3	Tools	2-Back	10	80	9	0	0	0	1	39	75325	2	14	59	73286	-1	73969	1	683	3	3	2039	53	75339	-54	0																11												
WM080112	133982_fnca	2	1	1	1776790652	1	75.031	75.031	2.0.10.147	2.0.10.242	2.0.10.242	1.0.0.439	7	234	2	3	Verdana	1	80	0	0	0	WM Stimuli\	0.8	1097.375	1	608.3	0.9	797.777777777778	1	636.3	0.9	875.222222222222	0.7	669.857142857143	1	944	1	653.6	13	335752	2	335740	26	39	335778	-999999	335755	0	24	TrialsPROC	TO_017_TOOL17_BA.png	2	2	12	SessionSelectionList														lure	3	Tools	2-Back	11	80	10	0	0	0	2	39	77884	2	14	59	75845	-1	76500	1	655	3	3	2039	53	77898	-54	0																12												
WM080112	133982_fnca	2	1	1	1776790652	1	75.031	75.031	2.0.10.147	2.0.10.242	2.0.10.242	1.0.0.439	7	234	2	3	Verdana	1	80	0	0	0	WM Stimuli\	0.8	1097.375	1	608.3	0.9	797.777777777778	1	636.3	0.9	875.222222222222	0.7	669.857142857143	1	944	1	653.6	13	335752	2	335740	26	39	335778	-999999	335755	0	25	Cue0BackPROC	BP_013_BP7_BA.png	2	2	13	SessionSelectionList																																										19	78364	-20	0												13												
WM080112	133982_fnca	2	1	1	1776790652	1	75.031	75.031	2.0.10.147	2.0.10.242	2.0.10.242	1.0.0.439	7	234	2	3	Verdana	1	80	0	0	0	WM Stimuli\	0.8	1097.375	1	608.3	0.9	797.777777777778	1	636.3	0.9	875.222222222222	0.7	669.857142857143	1	944	1	653.6	13	335752	2	335740	26	39	335778	-999999	335755	0	26	TrialsPROC	BP_015_H10-T_BA.png	2	2	14	SessionSelectionList														nonlure	3	Body	0-Back	12	80	11	0	0	100	3	39	82935	2	14	51	80896	-1	81662	1	766	3	3	2039	53	82949	-54	0																14												
WM080112	133982_fnca	2	1	1	1776790652	1	75.031	75.031	2.0.10.147	2.0.10.242	2.0.10.242	1.0.0.439	7	234	2	3	Verdana	1	80	0	0	0	WM Stimuli\	0.8	1097.375	1	608.3	0.9	797.777777777778	1	636.3	0.9	875.222222222222	0.7	669.857142857143	1	944	1	653.6	13	335752	2	335740	26	39	335778	-999999	335755	0	26	TrialsPROC	BP_018_H13-T_BA.png	2	2	15	SessionSelectionList														nonlure	3	Body	0-Back	13	80	12	0	0	100	4	39	85494	2	14	59	83455	-1	84441	1	986	3	3	2039	53	85508	-54	0																15												
WM080112	133982_fnca	2	1	1	1776790652	1	75.031	75.031	2.0.10.147	2.0.10.242	2.0.10.242	1.0.0.439	7	234	2	3	Verdana	1	80	0	0	0	WM Stimuli\	0.8	1097.375	1	608.3	0.9	797.777777777778	1	636.3	0.9	875.222222222222	0.7	669.857142857143	1	944	1	653.6	13	335752	2	335740	26	39	335778	-999999	335755	0	26	TrialsPROC	BP_014_BP9_BA.png	2	2	16	SessionSelectionList														nonlure	3	Body	0-Back	14	80	13	0	0	100	5	39	88053	2	14	59	86014	-1	86599	1	585	3	3	2039	53	88067	-54	0																16												
WM080112	133982_fnca	2	1	1	1776790652	1	75.031	75.031	2.0.10.147	2.0.10.242	2.0.10.242	1.0.0.439	7	234	2	3	Verdana	1	80	0	0	0	WM Stimuli\	0.8	1097.375	1	608.3	0.9	797.777777777778	1	636.3	0.9	875.222222222222	0.7	669.857142857143	1	944	1	653.6	13	335752	2	335740	26	39	335778	-999999	335755	0	26	TrialsPROC	BP_018_H13-T_BA.png	2	2	17	SessionSelectionList														lure	3	Body	0-Back	15	80	14	0	0	100	6	39	90612	2	14	59	88573	-1	89104	1	531	3	3	2039	53	90626	-54	0																17												
WM080112	133982_fnca	2	1	1	1776790652	1	75.031	75.031	2.0.10.147	2.0.10.242	2.0.10.242	1.0.0.439	7	234	2	3	Verdana	1	80	0	0	0	WM Stimuli\	0.8	1097.375	1	608.3	0.9	797.777777777778	1	636.3	0.9	875.222222222222	0.7	669.857142857143	1	944	1	653.6	13	335752	2	335740	26	39	335778	-999999	335755	0	26	TrialsPROC	BP_013_BP7_BA.png	2	2	18	SessionSelectionList														target	2	Body	0-Back	16	80	15	0	0	100	1	39	93171	2	14	59	91132	-1	91671	1	539	2	2	2039	53	93185	-54	0																18												
WM080112	133982_fnca	2	1	1	1776790652	1	75.031	75.031	2.0.10.147	2.0.10.242	2.0.10.242	1.0.0.439	7	234	2	3	Verdana	1	80	0	0	0	WM Stimuli\	0.8	1097.375	1	608.3	0.9	797.777777777778	1	636.3	0.9	875.222222222222	0.7	669.857142857143	1	944	1	653.6	13	335752	2	335740	26	39	335778	-999999	335755	0	26	TrialsPROC	BP_015_H10-T_BA.png	2	2	19	SessionSelectionList														lure	3	Body	0-Back	17	80	16	0	0	100	1	39	95730	2	14	59	93691	-1	94193	1	502	3	3	2039	53	95744	-54	0																19												
WM080112	133982_fnca	2	1	1	1776790652	1	75.031	75.031	2.0.10.147	2.0.10.242	2.0.10.242	1.0.0.439	7	234	2	3	Verdana	1	80	0	0	0	WM Stimuli\	0.8	1097.375	1	608.3	0.9	797.777777777778	1	636.3	0.9	875.222222222222	0.7	669.857142857143	1	944	1	653.6	13	335752	2	335740	26	39	335778	-999999	335755	0	26	TrialsPROC	BP_016_H11-T_BA.png	2	2	20	SessionSelectionList														nonlure	3	Body	0-Back	18	80	17	0	0	100	2	39	98302	2	14	72	96263	-1	96793	1	530	3	3	2039	53	98316	-54	0																20												
WM080112	133982_fnca	2	1	1	1776790652	1	75.031	75.031	2.0.10.147	2.0.10.242	2.0.10.242	1.0.0.439	7	234	2	3	Verdana	1	80	0	0	0	WM Stimuli\	0.8	1097.375	1	608.3	0.9	797.777777777778	1	636.3	0.9	875.222222222222	0.7	669.857142857143	1	944	1	653.6	13	335752	2	335740	26	39	335778	-999999	335755	0	26	TrialsPROC	BP_013_BP7_BA.png	2	2	21	SessionSelectionList														target	2	Body	0-Back	19	80	18	0	0	100	1	39	100862	1	13	60	98823	-1	99385	1	562	2	2	2039	52	100875	-53	0																21												
WM080112	133982_fnca	2	1	1	1776790652	1	75.031	75.031	2.0.10.147	2.0.10.242	2.0.10.242	1.0.0.439	7	234	2	3	Verdana	1	80	0	0	0	WM Stimuli\	0.8	1097.375	1	608.3	0.9	797.777777777778	1	636.3	0.9	875.222222222222	0.7	669.857142857143	1	944	1	653.6	13	335752	2	335740	26	39	335778	-999999	335755	0	26	TrialsPROC	BP_017_H12-T_BA.png	2	2	22	SessionSelectionList														nonlure	3	Body	0-Back	20	80	19	0	0	100	1	39	103421	1	13	59	101382	-1	101863	1	481	3	3	2039	52	103434	-53	0																22												
WM080112	133982_fnca	2	1	1	1776790652	1	75.031	75.031	2.0.10.147	2.0.10.242	2.0.10.242	1.0.0.439	7	234	2	3	Verdana	1	80	0	0	0	WM Stimuli\	0.8	1097.375	1	608.3	0.9	797.777777777778	1	636.3	0.9	875.222222222222	0.7	669.857142857143	1	944	1	653.6	13	335752	2	335740	26	39	335778	-999999	335755	0	26	TrialsPROC	BP_014_BP9_BA.png	2	2	23	SessionSelectionList														lure	3	Body	0-Back	21	80	20	0	0	100	2	39	105979	2	14	58	103940	-1	104541	1	601	3	3	2039	53	105993	-54	0																23												
WM080112	133982_fnca	2	1	1	1776790652	1	75.031	75.031	2.0.10.147	2.0.10.242	2.0.10.242	1.0.0.439	7	234	2	3	Verdana	1	80	0	0	0	WM Stimuli\	0.8	1097.375	1	608.3	0.9	797.777777777778	1	636.3	0.9	875.222222222222	0.7	669.857142857143	1	944	1	653.6	13	335752	2	335740	26	39	335778	-999999	335755	0	27	Fix15secPROC	""	2	2	24	SessionSelectionList																																															6	106446	-7	0							24												
WM080112	133982_fnca	2	1	1	1776790652	1	75.031	75.031	2.0.10.147	2.0.10.242	2.0.10.242	1.0.0.439	7	234	2	3	Verdana	1	80	0	0	0	WM Stimuli\	0.8	1097.375	1	608.3	0.9	797.777777777778	1	636.3	0.9	875.222222222222	0.7	669.857142857143	1	944	1	653.6	13	335752	2	335740	26	39	335778	-999999	335755	0	28	Cue2BackPROC	""	2	2	25	SessionSelectionList									13	121453	-14	0																																													25												
WM080112	133982_fnca	2	1	1	1776790652	1	75.031	75.031	2.0.10.147	2.0.10.242	2.0.10.242	1.0.0.439	7	234	2	3	Verdana	1	80	0	0	0	WM Stimuli\	0.8	1097.375	1	608.3	0.9	797.777777777778	1	636.3	0.9	875.222222222222	0.7	669.857142857143	1	944	1	653.6	13	335752	2	335740	26	39	335778	-999999	335755	0	29	TrialsPROC	FC_015_M8.png	2	2	26	SessionSelectionList														nonlure	3	Face	2-Back	22	80	21	0	0	100	3	39	126051	1	13	72	124012	-1	125252	1	1240	3	3	2039	52	126064	-53	0																26												
WM080112	133982_fnca	2	1	1	1776790652	1	75.031	75.031	2.0.10.147	2.0.10.242	2.0.10.242	1.0.0.439	7	234	2	3	Verdana	1	80	0	0	0	WM Stimuli\	0.8	1097.375	1	608.3	0.9	797.777777777778	1	636.3	0.9	875.222222222222	0.7	669.857142857143	1	944	1	653.6	13	335752	2	335740	26	39	335778	-999999	335755	0	29	TrialsPROC	FC_018_F9.png	2	2	27	SessionSelectionList														nonlure	3	Face	2-Back	23	80	22	0	0	100	4	39	128623	2	14	72	126584	-1	127083	1	499	3	3	2039	53	128637	-54	0																27												
WM080112	133982_fnca	2	1	1	1776790652	1	75.031	75.031	2.0.10.147	2.0.10.242	2.0.10.242	1.0.0.439	7	234	2	3	Verdana	1	80	0	0	0	WM Stimuli\	0.8	1097.375	1	608.3	0.9	797.777777777778	1	636.3	0.9	875.222222222222	0.7	669.857142857143	1	944	1	653.6	13	335752	2	335740	26	39	335778	-999999	335755	0	29	TrialsPROC	FC_018_F9.png	2	2	28	SessionSelectionList														lure	3	Face	2-Back	24	80	23	0	0	100	5	40	131196	1	13	72	129156	-1	129792	1	636	3	3	2040	53	131209	-54	0																28												
WM080112	133982_fnca	2	1	1	1776790652	1	75.031	75.031	2.0.10.147	2.0.10.242	2.0.10.242	1.0.0.439	7	234	2	3	Verdana	1	80	0	0	0	WM Stimuli\	0.8	1097.375	1	608.3	0.9	797.777777777778	1	636.3	0.9	875.222222222222	0.7	669.857142857143	1	944	1	653.6	13	335752	2	335740	26	39	335778	-999999	335755	0	29	TrialsPROC	FC_017_M9.png	2	2	29	SessionSelectionList														nonlure	3	Face	2-Back	25	80	24	0	0	100	6	39	133768	1	13	73	131729	-1	132532	1	803	3	3	2039	52	133781	-53	0																29												
WM080112	133982_fnca	2	1	1	1776790652	1	75.031	75.031	2.0.10.147	2.0.10.242	2.0.10.242	1.0.0.439	7	234	2	3	Verdana	1	80	0	0	0	WM Stimuli\	0.8	1097.375	1	608.3	0.9	797.777777777778	1	636.3	0.9	875.222222222222	0.7	669.857142857143	1	944	1	653.6	13	335752	2	335740	26	39	335778	-999999	335755	0	29	TrialsPROC	FC_017_M9.png	2	2	30	SessionSelectionList														lure	3	Face	2-Back	26	80	25	0	0	100	7	39	136340	2	14	72	134301	-1	135122	1	821	3	3	2039	53	136354	-54	0																30												
WM080112	133982_fnca	2	1	1	1776790652	1	75.031	75.031	2.0.10.147	2.0.10.242	2.0.10.242	1.0.0.439	7	234	2	3	Verdana	1	80	0	0	0	WM Stimuli\	0.8	1097.375	1	608.3	0.9	797.777777777778	1	636.3	0.9	875.222222222222	0.7	669.857142857143	1	944	1	653.6	13	335752	2	335740	26	39	335778	-999999	335755	0	29	TrialsPROC	FC_016_F8.png	2	2	31	SessionSelectionList														nonlure	3	Face	2-Back	27	80	26	0	0	100	8	39	138912	2	14	72	136873	-1	137540	1	667	3	3	2039	53	138926	-54	0																31												
WM080112	133982_fnca	2	1	1	1776790652	1	75.031	75.031	2.0.10.147	2.0.10.242	2.0.10.242	1.0.0.439	7	234	2	3	Verdana	1	80	0	0	0	WM Stimuli\	0.8	1097.375	1	608.3	0.9	797.777777777778	1	636.3	0.9	875.222222222222	0.7	669.857142857143	1	944	1	653.6	13	335752	2	335740	26	39	335778	-999999	335755	0	29	TrialsPROC	FC_013_M7.png	2	2	32	SessionSelectionList														nonlure	3	Face	2-Back	28	80	27	0	0	100	9	39	141485	1	13	73	139446	-1	140168	1	722	3	3	2039	52	141498	-53	0																32												
WM080112	133982_fnca	2	1	1	1776790652	1	75.031	75.031	2.0.10.147	2.0.10.242	2.0.10.242	1.0.0.439	7	234	2	3	Verdana	1	80	0	0	0	WM Stimuli\	0.8	1097.375	1	608.3	0.9	797.777777777778	1	636.3	0.9	875.222222222222	0.7	669.857142857143	1	944	1	653.6	13	335752	2	335740	26	39	335778	-999999	335755	0	29	TrialsPROC	FC_014_F7.png	2	2	33	SessionSelectionList														nonlure	3	Face	2-Back	29	80	28	0	0	100	10	39	144057	1	13	72	142018	-1	142996	1	978	3	3	2039	52	144070	-53	0																33												
WM080112	133982_fnca	2	1	1	1776790652	1	75.031	75.031	2.0.10.147	2.0.10.242	2.0.10.242	1.0.0.439	7	234	2	3	Verdana	1	80	0	0	0	WM Stimuli\	0.8	1097.375	1	608.3	0.9	797.777777777778	1	636.3	0.9	875.222222222222	0.7	669.857142857143	1	944	1	653.6	13	335752	2	335740	26	39	335778	-999999	335755	0	29	TrialsPROC	FC_013_M7.png	2	2	34	SessionSelectionList														target	2	Face	2-Back	30	80	29	0	0	100	1	39	146629	2	14	72	144590	-1	145404	1	814	2	2	2039	53	146643	-54	0																34												
WM080112	133982_fnca	2	1	1	1776790652	1	75.031	75.031	2.0.10.147	2.0.10.242	2.0.10.242	1.0.0.439	7	234	2	3	Verdana	1	80	0	0	0	WM Stimuli\	0.8	1097.375	1	608.3	0.9	797.777777777778	1	636.3	0.9	875.222222222222	0.7	669.857142857143	1	944	1	653.6	13	335752	2	335740	26	39	335778	-999999	335755	0	29	TrialsPROC	FC_014_F7.png	2	2	35	SessionSelectionList														target	2	Face	2-Back	31	80	30	0	0	100	1	40	149202	1	13	72	147162	-1	148216	0	1054	3	2	2040	53	149215	-54	0																35												
WM080112	133982_fnca	2	1	1	1776790652	1	75.031	75.031	2.0.10.147	2.0.10.242	2.0.10.242	1.0.0.439	7	234	2	3	Verdana	1	80	0	0	0	WM Stimuli\	0.8	1097.375	1	608.3	0.9	797.777777777778	1	636.3	0.9	875.222222222222	0.7	669.857142857143	1	944	1	653.6	13	335752	2	335740	26	39	335778	-999999	335755	0	30	Cue0BackPROC	TO_019_TOOL19_BA.png	2	2	36	SessionSelectionList																																										19	149681	-20	0												36												
WM080112	133982_fnca	2	1	1	1776790652	1	75.031	75.031	2.0.10.147	2.0.10.242	2.0.10.242	1.0.0.439	7	234	2	3	Verdana	1	80	0	0	0	WM Stimuli\	0.8	1097.375	1	608.3	0.9	797.777777777778	1	636.3	0.9	875.222222222222	0.7	669.857142857143	1	944	1	653.6	13	335752	2	335740	26	39	335778	-999999	335755	0	31	TrialsPROC	TO_019_TOOL19_BA.png	2	2	37	SessionSelectionList														target	2	Tools	0-Back	32	80	31	0	0	100	1	39	154253	1	13	52	152214	-1	153305	1	1091	2	2	2039	52	154266	-53	0																37												
WM080112	133982_fnca	2	1	1	1776790652	1	75.031	75.031	2.0.10.147	2.0.10.242	2.0.10.242	1.0.0.439	7	234	2	3	Verdana	1	80	0	0	0	WM Stimuli\	0.8	1097.375	1	608.3	0.9	797.777777777778	1	636.3	0.9	875.222222222222	0.7	669.857142857143	1	944	1	653.6	13	335752	2	335740	26	39	335778	-999999	335755	0	31	TrialsPROC	TO_024_TOOL24_BA.png	2	2	38	SessionSelectionList														nonlure	3	Tools	0-Back	33	80	32	0	0	100	1	39	156812	1	13	59	154773	-1	155503	1	730	3	3	2039	52	156825	-53	0																38												
WM080112	133982_fnca	2	1	1	1776790652	1	75.031	75.031	2.0.10.147	2.0.10.242	2.0.10.242	1.0.0.439	7	234	2	3	Verdana	1	80	0	0	0	WM Stimuli\	0.8	1097.375	1	608.3	0.9	797.777777777778	1	636.3	0.9	875.222222222222	0.7	669.857142857143	1	944	1	653.6	13	335752	2	335740	26	39	335778	-999999	335755	0	31	TrialsPROC	TO_019_TOOL19_BA.png	2	2	39	SessionSelectionList														target	2	Tools	0-Back	34	80	33	0	0	100	1	39	159371	1	13	59	157332	-1	157939	1	607	2	2	2039	52	159384	-53	0																39												
WM080112	133982_fnca	2	1	1	1776790652	1	75.031	75.031	2.0.10.147	2.0.10.242	2.0.10.242	1.0.0.439	7	234	2	3	Verdana	1	80	0	0	0	WM Stimuli\	0.8	1097.375	1	608.3	0.9	797.777777777778	1	636.3	0.9	875.222222222222	0.7	669.857142857143	1	944	1	653.6	13	335752	2	335740	26	39	335778	-999999	335755	0	31	TrialsPROC	TO_023_TOOL23_BA.png	2	2	40	SessionSelectionList														nonlure	3	Tools	0-Back	35	80	34	0	0	100	1	39	161930	1	13	59	159891	-1	160518	1	627	3	3	2039	52	161943	-53	0																40												
WM080112	133982_fnca	2	1	1	1776790652	1	75.031	75.031	2.0.10.147	2.0.10.242	2.0.10.242	1.0.0.439	7	234	2	3	Verdana	1	80	0	0	0	WM Stimuli\	0.8	1097.375	1	608.3	0.9	797.777777777778	1	636.3	0.9	875.222222222222	0.7	669.857142857143	1	944	1	653.6	13	335752	2	335740	26	39	335778	-999999	335755	0	31	TrialsPROC	TO_020_TOOL20_BA.png	2	2	41	SessionSelectionList														nonlure	3	Tools	0-Back	36	80	35	0	0	100	2	39	164489	1	13	59	162450	-1	163051	1	601	3	3	2039	52	164502	-53	0																41												
WM080112	133982_fnca	2	1	1	1776790652	1	75.031	75.031	2.0.10.147	2.0.10.242	2.0.10.242	1.0.0.439	7	234	2	3	Verdana	1	80	0	0	0	WM Stimuli\	0.8	1097.375	1	608.3	0.9	797.777777777778	1	636.3	0.9	875.222222222222	0.7	669.857142857143	1	944	1	653.6	13	335752	2	335740	26	39	335778	-999999	335755	0	31	TrialsPROC	TO_020_TOOL20_BA.png	2	2	42	SessionSelectionList														lure	3	Tools	0-Back	37	80	36	0	0	100	3	40	167048	1	13	58	165008	-1	165497	1	489	3	3	2040	53	167061	-54	0																42												
WM080112	133982_fnca	2	1	1	1776790652	1	75.031	75.031	2.0.10.147	2.0.10.242	2.0.10.242	1.0.0.439	7	234	2	3	Verdana	1	80	0	0	0	WM Stimuli\	0.8	1097.375	1	608.3	0.9	797.777777777778	1	636.3	0.9	875.222222222222	0.7	669.857142857143	1	944	1	653.6	13	335752	2	335740	26	39	335778	-999999	335755	0	31	TrialsPROC	TO_022_TOOL22_BA.png	2	2	43	SessionSelectionList														nonlure	3	Tools	0-Back	38	80	37	0	0	100	4	39	169607	1	13	60	167568	-1	168144	1	576	3	3	2039	52	169620	-53	0																43												
WM080112	133982_fnca	2	1	1	1776790652	1	75.031	75.031	2.0.10.147	2.0.10.242	2.0.10.242	1.0.0.439	7	234	2	3	Verdana	1	80	0	0	0	WM Stimuli\	0.8	1097.375	1	608.3	0.9	797.777777777778	1	636.3	0.9	875.222222222222	0.7	669.857142857143	1	944	1	653.6	13	335752	2	335740	26	39	335778	-999999	335755	0	31	TrialsPROC	TO_022_TOOL22_BA.png	2	2	44	SessionSelectionList														lure	3	Tools	0-Back	39	80	38	0	0	100	5	39	172165	2	14	58	170126	-1	170630	1	504	3	3	2039	53	172179	-54	0																44												
WM080112	133982_fnca	2	1	1	1776790652	1	75.031	75.031	2.0.10.147	2.0.10.242	2.0.10.242	1.0.0.439	7	234	2	3	Verdana	1	80	0	0	0	WM Stimuli\	0.8	1097.375	1	608.3	0.9	797.777777777778	1	636.3	0.9	875.222222222222	0.7	669.857142857143	1	944	1	653.6	13	335752	2	335740	26	39	335778	-999999	335755	0	31	TrialsPROC	TO_021_TOOL21_BA.png	2	2	45	SessionSelectionList														nonlure	3	Tools	0-Back	40	80	39	0	0	100	6	39	174724	2	14	59	172685	-1	173458	1	773	3	3	2039	53	174738	-54	0																45												
WM080112	133982_fnca	2	1	1	1776790652	1	75.031	75.031	2.0.10.147	2.0.10.242	2.0.10.242	1.0.0.439	7	234	2	3	Verdana	1	80	0	0	0	WM Stimuli\	0.8	1097.375	1	608.3	0.9	797.777777777778	1	636.3	0.9	875.222222222222	0.7	669.857142857143	1	944	1	653.6	13	335752	2	335740	26	39	335778	-999999	335755	0	31	TrialsPROC	TO_021_TOOL21_BA.png	2	2	46	SessionSelectionList														lure	3	Tools	0-Back	41	80	40	0	0	100	7	39	177283	2	14	59	175244	-1	175782	1	538	3	3	2039	53	177297	-54	0																46												
WM080112	133982_fnca	2	1	1	1776790652	1	75.031	75.031	2.0.10.147	2.0.10.242	2.0.10.242	1.0.0.439	7	234	2	3	Verdana	1	80	0	0	0	WM Stimuli\	0.8	1097.375	1	608.3	0.9	797.777777777778	1	636.3	0.9	875.222222222222	0.7	669.857142857143	1	944	1	653.6	13	335752	2	335740	26	39	335778	-999999	335755	0	32	Fix15secPROC	""	2	2	47	SessionSelectionList																																															6	177750	-7	0							47												
WM080112	133982_fnca	2	1	1	1776790652	1	75.031	75.031	2.0.10.147	2.0.10.242	2.0.10.242	1.0.0.439	7	234	2	3	Verdana	1	80	0	0	0	WM Stimuli\	0.8	1097.375	1	608.3	0.9	797.777777777778	1	636.3	0.9	875.222222222222	0.7	669.857142857143	1	944	1	653.6	13	335752	2	335740	26	39	335778	-999999	335755	0	33	Cue2BackPROC	""	2	2	48	SessionSelectionList									13	192757	-14	0																																													48												
WM080112	133982_fnca	2	1	1	1776790652	1	75.031	75.031	2.0.10.147	2.0.10.242	2.0.10.242	1.0.0.439	7	234	2	3	Verdana	1	80	0	0	0	WM Stimuli\	0.8	1097.375	1	608.3	0.9	797.777777777778	1	636.3	0.9	875.222222222222	0.7	669.857142857143	1	944	1	653.6	13	335752	2	335740	26	39	335778	-999999	335755	0	34	TrialsPROC	BP_020_H17-T_BA.png	2	2	49	SessionSelectionList														nonlure	3	Body	2-Back	42	80	41	0	0	100	8	39	197355	2	14	72	195316	-1	196434	1	1118	3	3	2039	53	197369	-54	0																49												
WM080112	133982_fnca	2	1	1	1776790652	1	75.031	75.031	2.0.10.147	2.0.10.242	2.0.10.242	1.0.0.439	7	234	2	3	Verdana	1	80	0	0	0	WM Stimuli\	0.8	1097.375	1	608.3	0.9	797.777777777778	1	636.3	0.9	875.222222222222	0.7	669.857142857143	1	944	1	653.6	13	335752	2	335740	26	39	335778	-999999	335755	0	34	TrialsPROC	BP_019_H14-T_BA.png	2	2	50	SessionSelectionList														nonlure	3	Body	2-Back	43	80	42	0	0	100	9	39	199927	2	14	72	197888	-1	198737	1	849	3	3	2039	53	199941	-54	0																50												
WM080112	133982_fnca	2	1	1	1776790652	1	75.031	75.031	2.0.10.147	2.0.10.242	2.0.10.242	1.0.0.439	7	234	2	3	Verdana	1	80	0	0	0	WM Stimuli\	0.8	1097.375	1	608.3	0.9	797.777777777778	1	636.3	0.9	875.222222222222	0.7	669.857142857143	1	944	1	653.6	13	335752	2	335740	26	39	335778	-999999	335755	0	34	TrialsPROC	BP_020_H17-T_BA.png	2	2	51	SessionSelectionList														target	2	Body	2-Back	44	80	43	0	0	100	1	39	202486	2	14	59	200447	-1	201446	1	999	2	2	2039	53	202500	-54	0																51												
WM080112	133982_fnca	2	1	1	1776790652	1	75.031	75.031	2.0.10.147	2.0.10.242	2.0.10.242	1.0.0.439	7	234	2	3	Verdana	1	80	0	0	0	WM Stimuli\	0.8	1097.375	1	608.3	0.9	797.777777777778	1	636.3	0.9	875.222222222222	0.7	669.857142857143	1	944	1	653.6	13	335752	2	335740	26	39	335778	-999999	335755	0	34	TrialsPROC	BP_019_H14-T_BA.png	2	2	52	SessionSelectionList														target	2	Body	2-Back	45	80	44	0	0	100	2	39	205046	1	13	60	203007	-1	203927	1	920	2	2	2039	52	205059	-53	0																52												
WM080112	133982_fnca	2	1	1	1776790652	1	75.031	75.031	2.0.10.147	2.0.10.242	2.0.10.242	1.0.0.439	7	234	2	3	Verdana	1	80	0	0	0	WM Stimuli\	0.8	1097.375	1	608.3	0.9	797.777777777778	1	636.3	0.9	875.222222222222	0.7	669.857142857143	1	944	1	653.6	13	335752	2	335740	26	39	335778	-999999	335755	0	34	TrialsPROC	BP_024_H3-T_BA.png	2	2	53	SessionSelectionList														nonlure	3	Body	2-Back	46	80	45	0	0	100	3	40	207618	1	13	71	205578	-1	206930	0	1352	2	3	2040	53	207631	-54	0																53												
WM080112	133982_fnca	2	1	1	1776790652	1	75.031	75.031	2.0.10.147	2.0.10.242	2.0.10.242	1.0.0.439	7	234	2	3	Verdana	1	80	0	0	0	WM Stimuli\	0.8	1097.375	1	608.3	0.9	797.777777777778	1	636.3	0.9	875.222222222222	0.7	669.857142857143	1	944	1	653.6	13	335752	2	335740	26	39	335778	-999999	335755	0	34	TrialsPROC	BP_024_H3-T_BA.png	2	2	54	SessionSelectionList														lure	3	Body	2-Back	47	80	46	0	0	100	1	38	210176	2	14	60	208138	-1	209699	1	1561	3	3	2038	52	210190	-53	0																54												
WM080112	133982_fnca	2	1	1	1776790652	1	75.031	75.031	2.0.10.147	2.0.10.242	2.0.10.242	1.0.0.439	7	234	2	3	Verdana	1	80	0	0	0	WM Stimuli\	0.8	1097.375	1	608.3	0.9	797.777777777778	1	636.3	0.9	875.222222222222	0.7	669.857142857143	1	944	1	653.6	13	335752	2	335740	26	39	335778	-999999	335755	0	34	TrialsPROC	BP_025_H5-T_BA.png	2	2	55	SessionSelectionList														nonlure	3	Body	2-Back	48	80	47	0	0	100	2	39	212749	1	13	72	210710	-1	212414	1	1704	3	3	2039	52	212762	-53	0																55												
WM080112	133982_fnca	2	1	1	1776790652	1	75.031	75.031	2.0.10.147	2.0.10.242	2.0.10.242	1.0.0.439	7	234	2	3	Verdana	1	80	0	0	0	WM Stimuli\	0.8	1097.375	1	608.3	0.9	797.777777777778	1	636.3	0.9	875.222222222222	0.7	669.857142857143	1	944	1	653.6	13	335752	2	335740	26	39	335778	-999999	335755	0	34	TrialsPROC	BP_023_H25-T_BA.png	2	2	56	SessionSelectionList														nonlure	3	Body	2-Back	49	80	48	0	0	100	1	39	215321	1	13	72	213282	-1	213921	0	639	2	3	2039	52	215334	-53	0																56												
WM080112	133982_fnca	2	1	1	1776790652	1	75.031	75.031	2.0.10.147	2.0.10.242	2.0.10.242	1.0.0.439	7	234	2	3	Verdana	1	80	0	0	0	WM Stimuli\	0.8	1097.375	1	608.3	0.9	797.777777777778	1	636.3	0.9	875.222222222222	0.7	669.857142857143	1	944	1	653.6	13	335752	2	335740	26	39	335778	-999999	335755	0	34	TrialsPROC	BP_022_H24-T_BA.png	2	2	57	SessionSelectionList														nonlure	3	Body	2-Back	50	80	49	0	0	100	1	39	217880	1	13	59	215841	-1	216532	1	691	3	3	2039	52	217893	-53	0																57												
WM080112	133982_fnca	2	1	1	1776790652	1	75.031	75.031	2.0.10.147	2.0.10.242	2.0.10.242	1.0.0.439	7	234	2	3	Verdana	1	80	0	0	0	WM Stimuli\	0.8	1097.375	1	608.3	0.9	797.777777777778	1	636.3	0.9	875.222222222222	0.7	669.857142857143	1	944	1	653.6	13	335752	2	335740	26	39	335778	-999999	335755	0	34	TrialsPROC	BP_022_H24-T_BA.png	2	2	58	SessionSelectionList														lure	3	Body	2-Back	51	80	50	0	0	100	2	39	220439	1	13	59	218400	-1	219337	1	937	3	3	2039	52	220452	-53	0																58												
WM080112	133982_fnca	2	1	1	1776790652	1	75.031	75.031	2.0.10.147	2.0.10.242	2.0.10.242	1.0.0.439	7	234	2	3	Verdana	1	80	0	0	0	WM Stimuli\	0.8	1097.375	1	608.3	0.9	797.777777777778	1	636.3	0.9	875.222222222222	0.7	669.857142857143	1	944	1	653.6	13	335752	2	335740	26	39	335778	-999999	335755	0	35	Cue2BackPROC	""	2	2	59	SessionSelectionList									5	220905	-6	0																																													59												
WM080112	133982_fnca	2	1	1	1776790652	1	75.031	75.031	2.0.10.147	2.0.10.242	2.0.10.242	1.0.0.439	7	234	2	3	Verdana	1	80	0	0	0	WM Stimuli\	0.8	1097.375	1	608.3	0.9	797.777777777778	1	636.3	0.9	875.222222222222	0.7	669.857142857143	1	944	1	653.6	13	335752	2	335740	26	39	335778	-999999	335755	0	36	TrialsPROC	PL_019_SCENE_05.png	2	2	60	SessionSelectionList														nonlure	3	Place	2-Back	52	80	51	0	0	100	3	40	225504	1	13	64	223464	-1	224801	1	1337	3	3	2040	53	225517	-54	0																60												
WM080112	133982_fnca	2	1	1	1776790652	1	75.031	75.031	2.0.10.147	2.0.10.242	2.0.10.242	1.0.0.439	7	234	2	3	Verdana	1	80	0	0	0	WM Stimuli\	0.8	1097.375	1	608.3	0.9	797.777777777778	1	636.3	0.9	875.222222222222	0.7	669.857142857143	1	944	1	653.6	13	335752	2	335740	26	39	335778	-999999	335755	0	36	TrialsPROC	PL_017_SCENE_03.png	2	2	61	SessionSelectionList														nonlure	3	Place	2-Back	53	80	52	0	0	100	4	39	228076	1	13	73	226037	-1	227020	1	983	3	3	2039	52	228089	-53	0																61												
WM080112	133982_fnca	2	1	1	1776790652	1	75.031	75.031	2.0.10.147	2.0.10.242	2.0.10.242	1.0.0.439	7	234	2	3	Verdana	1	80	0	0	0	WM Stimuli\	0.8	1097.375	1	608.3	0.9	797.777777777778	1	636.3	0.9	875.222222222222	0.7	669.857142857143	1	944	1	653.6	13	335752	2	335740	26	39	335778	-999999	335755	0	36	TrialsPROC	PL_017_SCENE_03.png	2	2	62	SessionSelectionList														lure	3	Place	2-Back	54	80	53	0	0	100	5	39	230648	1	14	72	228609	-1	229382	1	773	3	3	2039	53	230662	-54	0																62												
WM080112	133982_fnca	2	1	1	1776790652	1	75.031	75.031	2.0.10.147	2.0.10.242	2.0.10.242	1.0.0.439	7	234	2	3	Verdana	1	80	0	0	0	WM Stimuli\	0.8	1097.375	1	608.3	0.9	797.777777777778	1	636.3	0.9	875.222222222222	0.7	669.857142857143	1	944	1	653.6	13	335752	2	335740	26	39	335778	-999999	335755	0	36	TrialsPROC	PL_016_SCENE_02.png	2	2	63	SessionSelectionList														nonlure	3	Place	2-Back	55	80	54	0	0	100	6	39	233234	1	13	86	231195	-1	231821	1	626	3	3	2039	52	233247	-53	0																63												
WM080112	133982_fnca	2	1	1	1776790652	1	75.031	75.031	2.0.10.147	2.0.10.242	2.0.10.242	1.0.0.439	7	234	2	3	Verdana	1	80	0	0	0	WM Stimuli\	0.8	1097.375	1	608.3	0.9	797.777777777778	1	636.3	0.9	875.222222222222	0.7	669.857142857143	1	944	1	653.6	13	335752	2	335740	26	39	335778	-999999	335755	0	36	TrialsPROC	PL_015_SCENE_01.png	2	2	64	SessionSelectionList														nonlure	3	Place	2-Back	56	80	55	0	0	100	7	39	235819	2	14	85	233780	-1	234436	1	656	3	3	2039	53	235833	-54	0																64												
WM080112	133982_fnca	2	1	1	1776790652	1	75.031	75.031	2.0.10.147	2.0.10.242	2.0.10.242	1.0.0.439	7	234	2	3	Verdana	1	80	0	0	0	WM Stimuli\	0.8	1097.375	1	608.3	0.9	797.777777777778	1	636.3	0.9	875.222222222222	0.7	669.857142857143	1	944	1	653.6	13	335752	2	335740	26	39	335778	-999999	335755	0	36	TrialsPROC	PL_016_SCENE_02.png	2	2	65	SessionSelectionList														target	2	Place	2-Back	57	80	56	0	0	100	1	40	238392	1	13	72	236352	-1	237151	1	799	2	2	2040	53	238405	-54	0																65												
WM080112	133982_fnca	2	1	1	1776790652	1	75.031	75.031	2.0.10.147	2.0.10.242	2.0.10.242	1.0.0.439	7	234	2	3	Verdana	1	80	0	0	0	WM Stimuli\	0.8	1097.375	1	608.3	0.9	797.777777777778	1	636.3	0.9	875.222222222222	0.7	669.857142857143	1	944	1	653.6	13	335752	2	335740	26	39	335778	-999999	335755	0	36	TrialsPROC	PL_015_SCENE_01.png	2	2	66	SessionSelectionList														target	2	Place	2-Back	58	80	57	0	0	100	1	39	240964	1	13	73	238925	-1	239981	0	1056	3	2	2039	52	240977	-53	0																66												
WM080112	133982_fnca	2	1	1	1776790652	1	75.031	75.031	2.0.10.147	2.0.10.242	2.0.10.242	1.0.0.439	7	234	2	3	Verdana	1	80	0	0	0	WM Stimuli\	0.8	1097.375	1	608.3	0.9	797.777777777778	1	636.3	0.9	875.222222222222	0.7	669.857142857143	1	944	1	653.6	13	335752	2	335740	26	39	335778	-999999	335755	0	36	TrialsPROC	PL_020_SCENE_06.png	2	2	67	SessionSelectionList														nonlure	3	Place	2-Back	59	80	58	0	0	100	2	39	243549	2	14	85	241510	-1	242521	1	1011	3	3	2039	53	243563	-54	0																67												
WM080112	133982_fnca	2	1	1	1776790652	1	75.031	75.031	2.0.10.147	2.0.10.242	2.0.10.242	1.0.0.439	7	234	2	3	Verdana	1	80	0	0	0	WM Stimuli\	0.8	1097.375	1	608.3	0.9	797.777777777778	1	636.3	0.9	875.222222222222	0.7	669.857142857143	1	944	1	653.6	13	335752	2	335740	26	39	335778	-999999	335755	0	36	TrialsPROC	PL_020_SCENE_06.png	2	2	68	SessionSelectionList														lure	3	Place	2-Back	60	80	59	0	0	100	3	39	246122	1	13	73	244083	-1	245030	1	947	3	3	2039	52	246135	-53	0																68												
WM080112	133982_fnca	2	1	1	1776790652	1	75.031	75.031	2.0.10.147	2.0.10.242	2.0.10.242	1.0.0.439	7	234	2	3	Verdana	1	80	0	0	0	WM Stimuli\	0.8	1097.375	1	608.3	0.9	797.777777777778	1	636.3	0.9	875.222222222222	0.7	669.857142857143	1	944	1	653.6	13	335752	2	335740	26	39	335778	-999999	335755	0	36	TrialsPROC	PL_018_SCENE_04.png	2	2	69	SessionSelectionList														nonlure	3	Place	2-Back	61	80	60	0	0	100	4	39	248721	1	13	99	246682	-1	247427	1	745	3	3	2039	52	248734	-53	0																69												
WM080112	133982_fnca	2	1	1	1776790652	1	75.031	75.031	2.0.10.147	2.0.10.242	2.0.10.242	1.0.0.439	7	234	2	3	Verdana	1	80	0	0	0	WM Stimuli\	0.8	1097.375	1	608.3	0.9	797.777777777778	1	636.3	0.9	875.222222222222	0.7	669.857142857143	1	944	1	653.6	13	335752	2	335740	26	39	335778	-999999	335755	0	37	Fix15secPROC	""	2	2	70	SessionSelectionList																																															5	249187	-6	0							70												
WM080112	133982_fnca	2	1	1	1776790652	1	75.031	75.031	2.0.10.147	2.0.10.242	2.0.10.242	1.0.0.439	7	234	2	3	Verdana	1	80	0	0	0	WM Stimuli\	0.8	1097.375	1	608.3	0.9	797.777777777778	1	636.3	0.9	875.222222222222	0.7	669.857142857143	1	944	1	653.6	13	335752	2	335740	26	39	335778	-999999	335755	0	38	Cue0BackPROC	FC_020_F10.png	2	2	71	SessionSelectionList																																										39	264221	-40	0												71												
WM080112	133982_fnca	2	1	1	1776790652	1	75.031	75.031	2.0.10.147	2.0.10.242	2.0.10.242	1.0.0.439	7	234	2	3	Verdana	1	80	0	0	0	WM Stimuli\	0.8	1097.375	1	608.3	0.9	797.777777777778	1	636.3	0.9	875.222222222222	0.7	669.857142857143	1	944	1	653.6	13	335752	2	335740	26	39	335778	-999999	335755	0	39	TrialsPROC	FC_024_F12.png	2	2	72	SessionSelectionList														nonlure	3	Face	0-Back	62	80	61	0	0	100	5	39	268806	1	13	85	266767	-1	267518	1	751	3	3	2039	52	268819	-53	0																72												
WM080112	133982_fnca	2	1	1	1776790652	1	75.031	75.031	2.0.10.147	2.0.10.242	2.0.10.242	1.0.0.439	7	234	2	3	Verdana	1	80	0	0	0	WM Stimuli\	0.8	1097.375	1	608.3	0.9	797.777777777778	1	636.3	0.9	875.222222222222	0.7	669.857142857143	1	944	1	653.6	13	335752	2	335740	26	39	335778	-999999	335755	0	39	TrialsPROC	FC_023_M12.png	2	2	73	SessionSelectionList														nonlure	3	Face	0-Back	63	80	62	0	0	100	6	39	271391	2	14	85	269352	-1	269777	1	425	3	3	2039	53	271405	-54	0																73												
WM080112	133982_fnca	2	1	1	1776790652	1	75.031	75.031	2.0.10.147	2.0.10.242	2.0.10.242	1.0.0.439	7	234	2	3	Verdana	1	80	0	0	0	WM Stimuli\	0.8	1097.375	1	608.3	0.9	797.777777777778	1	636.3	0.9	875.222222222222	0.7	669.857142857143	1	944	1	653.6	13	335752	2	335740	26	39	335778	-999999	335755	0	39	TrialsPROC	FC_020_F10.png	2	2	74	SessionSelectionList														target	2	Face	0-Back	64	80	63	0	0	100	1	40	273964	1	13	72	271924	-1	272463	1	539	2	2	2040	53	273977	-54	0																74												
WM080112	133982_fnca	2	1	1	1776790652	1	75.031	75.031	2.0.10.147	2.0.10.242	2.0.10.242	1.0.0.439	7	234	2	3	Verdana	1	80	0	0	0	WM Stimuli\	0.8	1097.375	1	608.3	0.9	797.777777777778	1	636.3	0.9	875.222222222222	0.7	669.857142857143	1	944	1	653.6	13	335752	2	335740	26	39	335778	-999999	335755	0	39	TrialsPROC	FC_024_F12.png	2	2	75	SessionSelectionList														lure	3	Face	0-Back	65	80	64	0	0	100	1	39	276536	1	13	73	274497	-1	275031	1	534	3	3	2039	52	276549	-53	0																75												
WM080112	133982_fnca	2	1	1	1776790652	1	75.031	75.031	2.0.10.147	2.0.10.242	2.0.10.242	1.0.0.439	7	234	2	3	Verdana	1	80	0	0	0	WM Stimuli\	0.8	1097.375	1	608.3	0.9	797.777777777778	1	636.3	0.9	875.222222222222	0.7	669.857142857143	1	944	1	653.6	13	335752	2	335740	26	39	335778	-999999	335755	0	39	TrialsPROC	FC_020_F10.png	2	2	76	SessionSelectionList														target	2	Face	0-Back	66	80	65	0	0	100	1	39	279108	2	14	72	277069	-1	277684	1	615	2	2	2039	53	279122	-54	0																76												
WM080112	133982_fnca	2	1	1	1776790652	1	75.031	75.031	2.0.10.147	2.0.10.242	2.0.10.242	1.0.0.439	7	234	2	3	Verdana	1	80	0	0	0	WM Stimuli\	0.8	1097.375	1	608.3	0.9	797.777777777778	1	636.3	0.9	875.222222222222	0.7	669.857142857143	1	944	1	653.6	13	335752	2	335740	26	39	335778	-999999	335755	0	39	TrialsPROC	FC_022_F11.png	2	2	77	SessionSelectionList														nonlure	3	Face	0-Back	67	80	66	0	0	100	1	39	281694	1	13	86	279655	-1	280179	1	524	3	3	2039	52	281707	-53	0																77												
WM080112	133982_fnca	2	1	1	1776790652	1	75.031	75.031	2.0.10.147	2.0.10.242	2.0.10.242	1.0.0.439	7	234	2	3	Verdana	1	80	0	0	0	WM Stimuli\	0.8	1097.375	1	608.3	0.9	797.777777777778	1	636.3	0.9	875.222222222222	0.7	669.857142857143	1	944	1	653.6	13	335752	2	335740	26	39	335778	-999999	335755	0	39	TrialsPROC	FC_023_M12.png	2	2	78	SessionSelectionList														lure	3	Face	0-Back	68	80	67	0	0	100	2	39	284266	1	14	72	282227	-1	283423	1	1196	3	3	2039	53	284280	-54	0																78												
WM080112	133982_fnca	2	1	1	1776790652	1	75.031	75.031	2.0.10.147	2.0.10.242	2.0.10.242	1.0.0.439	7	234	2	3	Verdana	1	80	0	0	0	WM Stimuli\	0.8	1097.375	1	608.3	0.9	797.777777777778	1	636.3	0.9	875.222222222222	0.7	669.857142857143	1	944	1	653.6	13	335752	2	335740	26	39	335778	-999999	335755	0	39	TrialsPROC	FC_021_M11.png	2	2	79	SessionSelectionList														nonlure	3	Face	0-Back	69	80	68	0	0	100	3	39	286852	1	13	86	284813	-1	285537	1	724	3	3	2039	52	286865	-53	0																79												
WM080112	133982_fnca	2	1	1	1776790652	1	75.031	75.031	2.0.10.147	2.0.10.242	2.0.10.242	1.0.0.439	7	234	2	3	Verdana	1	80	0	0	0	WM Stimuli\	0.8	1097.375	1	608.3	0.9	797.777777777778	1	636.3	0.9	875.222222222222	0.7	669.857142857143	1	944	1	653.6	13	335752	2	335740	26	39	335778	-999999	335755	0	39	TrialsPROC	FC_021_M11.png	2	2	80	SessionSelectionList														lure	3	Face	0-Back	70	80	69	0	0	100	4	39	289424	1	13	72	287385	-1	287901	1	516	3	3	2039	52	289437	-53	0																80												
WM080112	133982_fnca	2	1	1	1776790652	1	75.031	75.031	2.0.10.147	2.0.10.242	2.0.10.242	1.0.0.439	7	234	2	3	Verdana	1	80	0	0	0	WM Stimuli\	0.8	1097.375	1	608.3	0.9	797.777777777778	1	636.3	0.9	875.222222222222	0.7	669.857142857143	1	944	1	653.6	13	335752	2	335740	26	39	335778	-999999	335755	0	39	TrialsPROC	FC_019_M10.png	2	2	81	SessionSelectionList														nonlure	3	Face	0-Back	71	80	70	0	0	100	5	40	292010	1	13	85	289970	-1	290509	1	539	3	3	2040	53	292023	-54	0																81												
WM080112	133982_fnca	2	1	1	1776790652	1	75.031	75.031	2.0.10.147	2.0.10.242	2.0.10.242	1.0.0.439	7	234	2	3	Verdana	1	80	0	0	0	WM Stimuli\	0.8	1097.375	1	608.3	0.9	797.777777777778	1	636.3	0.9	875.222222222222	0.7	669.857142857143	1	944	1	653.6	13	335752	2	335740	26	39	335778	-999999	335755	0	40	Cue0BackPROC	PL_021_SCENE_07.png	2	2	82	SessionSelectionList																																										46	292516	-47	0												82												
WM080112	133982_fnca	2	1	1	1776790652	1	75.031	75.031	2.0.10.147	2.0.10.242	2.0.10.242	1.0.0.439	7	234	2	3	Verdana	1	80	0	0	0	WM Stimuli\	0.8	1097.375	1	608.3	0.9	797.777777777778	1	636.3	0.9	875.222222222222	0.7	669.857142857143	1	944	1	653.6	13	335752	2	335740	26	39	335778	-999999	335755	0	41	TrialsPROC	PL_025_SCENE_18.png	2	2	83	SessionSelectionList														nonlure	3	Place	0-Back	72	80	71	0	0	100	6	39	297087	2	14	78	295048	-1	296586	1	1538	3	3	2039	53	297101	-54	0																83												
WM080112	133982_fnca	2	1	1	1776790652	1	75.031	75.031	2.0.10.147	2.0.10.242	2.0.10.242	1.0.0.439	7	234	2	3	Verdana	1	80	0	0	0	WM Stimuli\	0.8	1097.375	1	608.3	0.9	797.777777777778	1	636.3	0.9	875.222222222222	0.7	669.857142857143	1	944	1	653.6	13	335752	2	335740	26	39	335778	-999999	335755	0	41	TrialsPROC	PL_026_SCENE_24.png	2	2	84	SessionSelectionList														nonlure	3	Place	0-Back	73	80	72	0	0	100	7	39	299673	2	14	86	297634	-1	298243	1	609	3	3	2039	53	299687	-54	0																84												
WM080112	133982_fnca	2	1	1	1776790652	1	75.031	75.031	2.0.10.147	2.0.10.242	2.0.10.242	1.0.0.439	7	234	2	3	Verdana	1	80	0	0	0	WM Stimuli\	0.8	1097.375	1	608.3	0.9	797.777777777778	1	636.3	0.9	875.222222222222	0.7	669.857142857143	1	944	1	653.6	13	335752	2	335740	26	39	335778	-999999	335755	0	41	TrialsPROC	PL_025_SCENE_18.png	2	2	85	SessionSelectionList														lure	3	Place	0-Back	74	80	73	0	0	97	1	39	302245	2	14	72	300206	-1	300741	0	535	2	3	2039	53	302259	-54	0																85												
WM080112	133982_fnca	2	1	1	1776790652	1	75.031	75.031	2.0.10.147	2.0.10.242	2.0.10.242	1.0.0.439	7	234	2	3	Verdana	1	80	0	0	0	WM Stimuli\	0.8	1097.375	1	608.3	0.9	797.777777777778	1	636.3	0.9	875.222222222222	0.7	669.857142857143	1	944	1	653.6	13	335752	2	335740	26	39	335778	-999999	335755	0	41	TrialsPROC	PL_022_SCENE_08.png	2	2	86	SessionSelectionList														nonlure	3	Place	0-Back	75	80	74	0	0	97	1	39	304831	1	13	86	302792	-1	303360	1	568	3	3	2039	52	304844	-53	0																86												
WM080112	133982_fnca	2	1	1	1776790652	1	75.031	75.031	2.0.10.147	2.0.10.242	2.0.10.242	1.0.0.439	7	234	2	3	Verdana	1	80	0	0	0	WM Stimuli\	0.8	1097.375	1	608.3	0.9	797.777777777778	1	636.3	0.9	875.222222222222	0.7	669.857142857143	1	944	1	653.6	13	335752	2	335740	26	39	335778	-999999	335755	0	41	TrialsPROC	PL_026_SCENE_24.png	2	2	87	SessionSelectionList														lure	3	Place	0-Back	76	80	75	0	0	97	2	39	307403	2	14	72	305364	-1	305800	1	436	3	3	2039	53	307417	-54	0																87												
WM080112	133982_fnca	2	1	1	1776790652	1	75.031	75.031	2.0.10.147	2.0.10.242	2.0.10.242	1.0.0.439	7	234	2	3	Verdana	1	80	0	0	0	WM Stimuli\	0.8	1097.375	1	608.3	0.9	797.777777777778	1	636.3	0.9	875.222222222222	0.7	669.857142857143	1	944	1	653.6	13	335752	2	335740	26	39	335778	-999999	335755	0	41	TrialsPROC	PL_021_SCENE_07.png	2	2	88	SessionSelectionList														target	2	Place	0-Back	77	80	76	0	0	94	3	40	309976	1	13	72	307936	-1	308596	0	660	3	2	2040	53	309989	-54	0																88												
WM080112	133982_fnca	2	1	1	1776790652	1	75.031	75.031	2.0.10.147	2.0.10.242	2.0.10.242	1.0.0.439	7	234	2	3	Verdana	1	80	0	0	0	WM Stimuli\	0.8	1097.375	1	608.3	0.9	797.777777777778	1	636.3	0.9	875.222222222222	0.7	669.857142857143	1	944	1	653.6	13	335752	2	335740	26	39	335778	-999999	335755	0	41	TrialsPROC	PL_021_SCENE_07.png	2	2	89	SessionSelectionList														target	2	Place	0-Back	78	80	77	0	0	92	4	39	312548	1	13	73	310509	-1	311090	0	581	3	2	2039	52	312561	-53	0																89												
WM080112	133982_fnca	2	1	1	1776790652	1	75.031	75.031	2.0.10.147	2.0.10.242	2.0.10.242	1.0.0.439	7	234	2	3	Verdana	1	80	0	0	0	WM Stimuli\	0.8	1097.375	1	608.3	0.9	797.777777777778	1	636.3	0.9	875.222222222222	0.7	669.857142857143	1	944	1	653.6	13	335752	2	335740	26	39	335778	-999999	335755	0	41	TrialsPROC	PL_023_SCENE_09.png	2	2	90	SessionSelectionList														nonlure	3	Place	0-Back	79	80	78	0	0	92	5	39	315133	2	14	85	313094	-1	313617	1	523	3	3	2039	53	315147	-54	0																90												
WM080112	133982_fnca	2	1	1	1776790652	1	75.031	75.031	2.0.10.147	2.0.10.242	2.0.10.242	1.0.0.439	7	234	2	3	Verdana	1	80	0	0	0	WM Stimuli\	0.8	1097.375	1	608.3	0.9	797.777777777778	1	636.3	0.9	875.222222222222	0.7	669.857142857143	1	944	1	653.6	13	335752	2	335740	26	39	335778	-999999	335755	0	41	TrialsPROC	PL_024_SCENE_10.png	2	2	91	SessionSelectionList														nonlure	3	Place	0-Back	80	80	79	0	0	92	6	39	317706	1	13	73	315667	-1	316173	1	506	3	3	2039	52	317719	-53	0																91												
WM080112	133982_fnca	2	1	1	1776790652	1	75.031	75.031	2.0.10.147	2.0.10.242	2.0.10.242	1.0.0.439	7	234	2	3	Verdana	1	80	0	0	0	WM Stimuli\	0.8	1097.375	1	608.3	0.9	797.777777777778	1	636.3	0.9	875.222222222222	0.7	669.857142857143	1	944	1	653.6	13	335752	2	335740	26	39	335778	-999999	335755	0	41	TrialsPROC	PL_022_SCENE_08.png	2	2	92	SessionSelectionList														lure	3	Place	0-Back	80	80	80	0	0	92	7	39	320278	1	13	72	318239	-1	318748	1	509	3	3	2039	52	320291	-53	0																92												
WM080112	133982_fnca	2	1	1	1776790652	1	75.031	75.031	2.0.10.147	2.0.10.242	2.0.10.242	1.0.0.439	7	234	2	3	Verdana	1	80	0	0	0	WM Stimuli\	0.8	1097.375	1	608.3	0.9	797.777777777778	1	636.3	0.9	875.222222222222	0.7	669.857142857143	1	944	1	653.6	13	335752	2	335740	26	39	335778	-999999	335755	0	42	Fix15secPROC	""	2	2	93	SessionSelectionList																																															6	320745	-7	0							93												
