ExperimentName	HCPID	RunNumber	Subject	Session	RandomSeed	Group	Laptop.RefreshRate	ScannerD2.RefreshRate	StudioVersion	RuntimeVersion	RuntimeVersionExpected	ExperimentVersion	triggercode	Allowed	Target	Nontarget	FontStyle	RunTrialNumber[Session]	TrialsPerRun[Session]	TotalRespGreater200[Session]	ConsecRTLess200[Session]	ConsecNonResp[Session]	StimuliDir	ACC_2_Back_Body	Avg_RT_For_Correct_Trials_2_Back_Body	ACC_0_Back_Body	Avg_RT_For_Correct_Trials_0_Back_Body	ACC_2_Back_Face	Avg_RT_For_Correct_Trials_2_Back_Face	ACC_0_Back_Face	Avg_RT_For_Correct_Trials_0_Back_Face	ACC_2_Back_Place	Avg_RT_For_Correct_Trials_2_Back_Place	ACC_0_Back_Place	Avg_RT_For_Correct_Trials_0_Back_Place	ACC_2_Back_Tools	Avg_RT_For_Correct_Trials_2_Back_Tools	ACC_0_Back_Tools	Avg_RT_For_Correct_Trials_0_Back_Tools	ExpInstrucFeelFreeToRest.OnsetDelay	ExpInstrucFeelFreeToRest.OnsetTime	ExpInstrucFeelFreeToRest.DurationError	ExpInstrucFeelFreeToRest.StartTime	ExpInstrucFeelFreeToRest.OnsetToOnsetTime	FeelFreeToRest.OnsetDelay	FeelFreeToRest.OnsetTime	FeelFreeToRest.DurationError	FeelFreeToRest.StartTime	FeelFreeToRest.OnsetToOnsetTime	SessionSelectionList	Procedure[Block]	Stimulus[Block]	RunNumberFilterValue	SessionSelectionList.Cycle	SessionSelectionList.Sample	Running[Block]	IntroButtonMap.OnsetDelay	IntroButtonMap.OnsetTime	IntroButtonMap.DurationError	IntroButtonMap.OnsetToOnsetTime	GetReady.OnsetDelay	GetReady.OnsetTime	GetReady.DurationError	GetReady.OnsetToOnsetTime	Cue2Back.OnsetDelay	Cue2Back.OnsetTime	Cue2Back.DurationError	Cue2Back.OnsetToOnsetTime	Run1Block1	TargetType	CorrectResponse	StimType	BlockType	RunTrialNumber[Block]	TrialsPerRun[Block]	TotalRespGreater200[Block]	ConsecRTLess200[Block]	ConsecNonResp[Block]	ControlAcc	ConsecSameResp	ExperimenterWindow.OnsetDelay	ExperimenterWindow.OnsetTime	ExperimenterWindow.DurationError	ExperimenterWindow.OnsetToOnsetTime	Stim.OnsetDelay	Stim.OnsetTime	Stim.DurationError	Stim.RTTime	Stim.ACC	Stim.RT	Stim.RESP	Stim.CRESP	Stim.OnsetToOnsetTime	Fix.OnsetDelay	Fix.OnsetTime	Fix.DurationError	Fix.OnsetToOnsetTime	CueTarget.OnsetDelay	CueTarget.OnsetTime	CueTarget.DurationError	CueTarget.OnsetToOnsetTime	Run1Block2	Fix15sec.OnsetDelay	Fix15sec.OnsetTime	Fix15sec.DurationError	Fix15sec.OnsetToOnsetTime	Run1Block3	Run1Block4	Run1Block5	Run1Block6	Run1Block7	Run1Block8	Block	Procedure[Trial]	Stimulus[Trial]	ReadyList	Running[Trial]	ReadyList.Cycle	ReadyList.Sample	SyncSlide.OnsetDelay	SyncSlide.OnsetTime	SyncSlide.DurationError	SyncSlide.FinishTime	SyncSlide.OnsetToOnsetTime	Trial
WM080112	133019_fnca	2	1	1	1377951685	1	75.031	75.030	2.0.10.147	2.0.10.242	2.0.10.242	1.0.0.439	7	234	2	3	Verdana	1	80	0	0	0	WM Stimuli\	0.7	898.714285714286	1	759.8	0.7	891	1	589	1	915.6	1	740.7	0.8	890.375	0.9	624.333333333333	13	315694	2	315682	27	40	315721	-999999	315697	0	22	TRSyncPROC	""	2	2	1	SessionSelectionList	102	7792	-999999	0	28	8832	-999999	0																																																	1	InitialTR	4	1	ReadyList	1	1	12	22160	-13	24147	0	1
WM080112	133019_fnca	2	1	1	1377951685	1	75.031	75.030	2.0.10.147	2.0.10.242	2.0.10.242	1.0.0.439	7	234	2	3	Verdana	1	80	0	0	0	WM Stimuli\	0.7	898.714285714286	1	759.8	0.7	891	1	589	1	915.6	1	740.7	0.8	890.375	0.9	624.333333333333	13	315694	2	315682	27	40	315721	-999999	315697	0	22	TRSyncPROC	""	2	2	1	SessionSelectionList	102	7792	-999999	0	28	8832	-999999	0																																																	1	InitialTR	3	2	ReadyList	1	2	11	24159	-12	26147	0	2
WM080112	133019_fnca	2	1	1	1377951685	1	75.031	75.030	2.0.10.147	2.0.10.242	2.0.10.242	1.0.0.439	7	234	2	3	Verdana	1	80	0	0	0	WM Stimuli\	0.7	898.714285714286	1	759.8	0.7	891	1	589	1	915.6	1	740.7	0.8	890.375	0.9	624.333333333333	13	315694	2	315682	27	40	315721	-999999	315697	0	22	TRSyncPROC	""	2	2	1	SessionSelectionList	102	7792	-999999	0	28	8832	-999999	0																																																	1	InitialTR	2	3	ReadyList	1	3	10	26158	-11	28147	0	3
WM080112	133019_fnca	2	1	1	1377951685	1	75.031	75.030	2.0.10.147	2.0.10.242	2.0.10.242	1.0.0.439	7	234	2	3	Verdana	1	80	0	0	0	WM Stimuli\	0.7	898.714285714286	1	759.8	0.7	891	1	589	1	915.6	1	740.7	0.8	890.375	0.9	624.333333333333	13	315694	2	315682	27	40	315721	-999999	315697	0	22	TRSyncPROC	""	2	2	1	SessionSelectionList	102	7792	-999999	0	28	8832	-999999	0																																																	1	InitialTR	1	4	ReadyList	1	4	9	28157	-10	30147	0	4
WM080112	133019_fnca	2	1	1	1377951685	1	75.031	75.030	2.0.10.147	2.0.10.242	2.0.10.242	1.0.0.439	7	234	2	3	Verdana	1	80	0	0	0	WM Stimuli\	0.7	898.714285714286	1	759.8	0.7	891	1	589	1	915.6	1	740.7	0.8	890.375	0.9	624.333333333333	13	315694	2	315682	27	40	315721	-999999	315697	0	23	Cue2BackPROC	""	2	2	2	SessionSelectionList									8	30156	-9	0																																													2												
WM080112	133019_fnca	2	1	1	1377951685	1	75.031	75.030	2.0.10.147	2.0.10.242	2.0.10.242	1.0.0.439	7	234	2	3	Verdana	1	80	0	0	0	WM Stimuli\	0.7	898.714285714286	1	759.8	0.7	891	1	589	1	915.6	1	740.7	0.8	890.375	0.9	624.333333333333	13	315694	2	315682	27	40	315721	-999999	315697	0	24	TrialsPROC	TO_014_TOOL14_BA.png	2	2	3	SessionSelectionList														nonlure	3	Tools	2-Back	2	80	1	0	0	0	1	52	34781	3	14	81	32729	-1	34331	1	1602	3	3	2052	66	34795	-67	0																3												
WM080112	133019_fnca	2	1	1	1377951685	1	75.031	75.030	2.0.10.147	2.0.10.242	2.0.10.242	1.0.0.439	7	234	2	3	Verdana	1	80	0	0	0	WM Stimuli\	0.7	898.714285714286	1	759.8	0.7	891	1	589	1	915.6	1	740.7	0.8	890.375	0.9	624.333333333333	13	315694	2	315682	27	40	315721	-999999	315697	0	24	TrialsPROC	TO_013_TOOL13_BA.png	2	2	4	SessionSelectionList														nonlure	3	Tools	2-Back	3	80	2	0	0	0	2	39	37327	2	13	59	35288	-1	35744	1	456	3	3	2039	52	37340	-53	0																4												
WM080112	133019_fnca	2	1	1	1377951685	1	75.031	75.030	2.0.10.147	2.0.10.242	2.0.10.242	1.0.0.439	7	234	2	3	Verdana	1	80	0	0	0	WM Stimuli\	0.7	898.714285714286	1	759.8	0.7	891	1	589	1	915.6	1	740.7	0.8	890.375	0.9	624.333333333333	13	315694	2	315682	27	40	315721	-999999	315697	0	24	TrialsPROC	TO_016_TOOL16_BA.png	2	2	5	SessionSelectionList														nonlure	3	Tools	2-Back	4	80	3	0	0	0	3	39	39899	1	14	72	37860	-1	38471	1	611	3	3	2039	53	39913	-54	0																5												
WM080112	133019_fnca	2	1	1	1377951685	1	75.031	75.030	2.0.10.147	2.0.10.242	2.0.10.242	1.0.0.439	7	234	2	3	Verdana	1	80	0	0	0	WM Stimuli\	0.7	898.714285714286	1	759.8	0.7	891	1	589	1	915.6	1	740.7	0.8	890.375	0.9	624.333333333333	13	315694	2	315682	27	40	315721	-999999	315697	0	24	TrialsPROC	TO_014_TOOL14_BA.png	2	2	6	SessionSelectionList														lure	3	Tools	2-Back	5	80	4	0	0	0	1	39	42471	2	14	72	40432	-1	41127	0	695	2	3	2039	53	42485	-54	0																6												
WM080112	133019_fnca	2	1	1	1377951685	1	75.031	75.030	2.0.10.147	2.0.10.242	2.0.10.242	1.0.0.439	7	234	2	3	Verdana	1	80	0	0	0	WM Stimuli\	0.7	898.714285714286	1	759.8	0.7	891	1	589	1	915.6	1	740.7	0.8	890.375	0.9	624.333333333333	13	315694	2	315682	27	40	315721	-999999	315697	0	24	TrialsPROC	TO_016_TOOL16_BA.png	2	2	7	SessionSelectionList														target	2	Tools	2-Back	6	80	5	0	0	0	2	39	45030	2	14	59	42991	-1	43944	1	953	2	2	2039	53	45044	-54	0																7												
WM080112	133019_fnca	2	1	1	1377951685	1	75.031	75.030	2.0.10.147	2.0.10.242	2.0.10.242	1.0.0.439	7	234	2	3	Verdana	1	80	0	0	0	WM Stimuli\	0.7	898.714285714286	1	759.8	0.7	891	1	589	1	915.6	1	740.7	0.8	890.375	0.9	624.333333333333	13	315694	2	315682	27	40	315721	-999999	315697	0	24	TrialsPROC	TO_018_TOOL18_BA.png	2	2	8	SessionSelectionList														nonlure	3	Tools	2-Back	7	80	6	0	0	0	1	39	47589	3	14	59	45550	-1	46182	1	632	3	3	2039	53	47603	-54	0																8												
WM080112	133019_fnca	2	1	1	1377951685	1	75.031	75.030	2.0.10.147	2.0.10.242	2.0.10.242	1.0.0.439	7	234	2	3	Verdana	1	80	0	0	0	WM Stimuli\	0.7	898.714285714286	1	759.8	0.7	891	1	589	1	915.6	1	740.7	0.8	890.375	0.9	624.333333333333	13	315694	2	315682	27	40	315721	-999999	315697	0	24	TrialsPROC	TO_017_TOOL17_BA.png	2	2	9	SessionSelectionList														nonlure	3	Tools	2-Back	8	80	7	0	0	0	2	39	50148	2	14	59	48109	-1	48761	1	652	3	3	2039	53	50162	-54	0																9												
WM080112	133019_fnca	2	1	1	1377951685	1	75.031	75.030	2.0.10.147	2.0.10.242	2.0.10.242	1.0.0.439	7	234	2	3	Verdana	1	80	0	0	0	WM Stimuli\	0.7	898.714285714286	1	759.8	0.7	891	1	589	1	915.6	1	740.7	0.8	890.375	0.9	624.333333333333	13	315694	2	315682	27	40	315721	-999999	315697	0	24	TrialsPROC	TO_018_TOOL18_BA.png	2	2	10	SessionSelectionList														target	2	Tools	2-Back	9	80	8	0	0	0	1	39	52707	2	14	59	50668	-1	51418	1	750	2	2	2039	53	52721	-54	0																10												
WM080112	133019_fnca	2	1	1	1377951685	1	75.031	75.030	2.0.10.147	2.0.10.242	2.0.10.242	1.0.0.439	7	234	2	3	Verdana	1	80	0	0	0	WM Stimuli\	0.7	898.714285714286	1	759.8	0.7	891	1	589	1	915.6	1	740.7	0.8	890.375	0.9	624.333333333333	13	315694	2	315682	27	40	315721	-999999	315697	0	24	TrialsPROC	TO_015_TOOL15_BA.png	2	2	11	SessionSelectionList														nonlure	3	Tools	2-Back	10	80	9	0	0	0	1	39	55266	3	14	59	53227	-1	54694	1	1467	3	3	2039	53	55280	-54	0																11												
WM080112	133019_fnca	2	1	1	1377951685	1	75.031	75.030	2.0.10.147	2.0.10.242	2.0.10.242	1.0.0.439	7	234	2	3	Verdana	1	80	0	0	0	WM Stimuli\	0.7	898.714285714286	1	759.8	0.7	891	1	589	1	915.6	1	740.7	0.8	890.375	0.9	624.333333333333	13	315694	2	315682	27	40	315721	-999999	315697	0	24	TrialsPROC	TO_017_TOOL17_BA.png	2	2	12	SessionSelectionList														lure	3	Tools	2-Back	11	80	10	0	0	0	1	39	57825	1	14	59	55786	-1	56551	0	765	2	3	2039	53	57839	-54	0																12												
WM080112	133019_fnca	2	1	1	1377951685	1	75.031	75.030	2.0.10.147	2.0.10.242	2.0.10.242	1.0.0.439	7	234	2	3	Verdana	1	80	0	0	0	WM Stimuli\	0.7	898.714285714286	1	759.8	0.7	891	1	589	1	915.6	1	740.7	0.8	890.375	0.9	624.333333333333	13	315694	2	315682	27	40	315721	-999999	315697	0	25	Cue0BackPROC	BP_013_BP7_BA.png	2	2	13	SessionSelectionList																																										19	58305	-20	0												13												
WM080112	133019_fnca	2	1	1	1377951685	1	75.031	75.030	2.0.10.147	2.0.10.242	2.0.10.242	1.0.0.439	7	234	2	3	Verdana	1	80	0	0	0	WM Stimuli\	0.7	898.714285714286	1	759.8	0.7	891	1	589	1	915.6	1	740.7	0.8	890.375	0.9	624.333333333333	13	315694	2	315682	27	40	315721	-999999	315697	0	26	TrialsPROC	BP_015_H10-T_BA.png	2	2	14	SessionSelectionList														nonlure	3	Body	0-Back	12	80	11	0	0	100	1	39	62890	2	13	65	60851	-1	61709	1	858	3	3	2039	52	62903	-53	0																14												
WM080112	133019_fnca	2	1	1	1377951685	1	75.031	75.030	2.0.10.147	2.0.10.242	2.0.10.242	1.0.0.439	7	234	2	3	Verdana	1	80	0	0	0	WM Stimuli\	0.7	898.714285714286	1	759.8	0.7	891	1	589	1	915.6	1	740.7	0.8	890.375	0.9	624.333333333333	13	315694	2	315682	27	40	315721	-999999	315697	0	26	TrialsPROC	BP_018_H13-T_BA.png	2	2	15	SessionSelectionList														nonlure	3	Body	0-Back	13	80	12	0	0	100	2	39	65462	1	14	72	63423	-1	63861	1	438	3	3	2039	53	65476	-54	0																15												
WM080112	133019_fnca	2	1	1	1377951685	1	75.031	75.030	2.0.10.147	2.0.10.242	2.0.10.242	1.0.0.439	7	234	2	3	Verdana	1	80	0	0	0	WM Stimuli\	0.7	898.714285714286	1	759.8	0.7	891	1	589	1	915.6	1	740.7	0.8	890.375	0.9	624.333333333333	13	315694	2	315682	27	40	315721	-999999	315697	0	26	TrialsPROC	BP_014_BP9_BA.png	2	2	16	SessionSelectionList														nonlure	3	Body	0-Back	14	80	13	0	0	100	3	39	68034	3	14	72	65995	-1	66524	1	529	3	3	2039	53	68048	-54	0																16												
WM080112	133019_fnca	2	1	1	1377951685	1	75.031	75.030	2.0.10.147	2.0.10.242	2.0.10.242	1.0.0.439	7	234	2	3	Verdana	1	80	0	0	0	WM Stimuli\	0.7	898.714285714286	1	759.8	0.7	891	1	589	1	915.6	1	740.7	0.8	890.375	0.9	624.333333333333	13	315694	2	315682	27	40	315721	-999999	315697	0	26	TrialsPROC	BP_018_H13-T_BA.png	2	2	17	SessionSelectionList														lure	3	Body	0-Back	15	80	14	0	0	100	4	38	70593	3	14	60	68555	-1	69123	1	568	3	3	2038	52	70607	-53	0																17												
WM080112	133019_fnca	2	1	1	1377951685	1	75.031	75.030	2.0.10.147	2.0.10.242	2.0.10.242	1.0.0.439	7	234	2	3	Verdana	1	80	0	0	0	WM Stimuli\	0.7	898.714285714286	1	759.8	0.7	891	1	589	1	915.6	1	740.7	0.8	890.375	0.9	624.333333333333	13	315694	2	315682	27	40	315721	-999999	315697	0	26	TrialsPROC	BP_013_BP7_BA.png	2	2	18	SessionSelectionList														target	2	Body	0-Back	16	80	15	0	0	100	1	39	73152	2	14	58	71113	-1	71930	1	817	2	2	2039	53	73166	-54	0																18												
WM080112	133019_fnca	2	1	1	1377951685	1	75.031	75.030	2.0.10.147	2.0.10.242	2.0.10.242	1.0.0.439	7	234	2	3	Verdana	1	80	0	0	0	WM Stimuli\	0.7	898.714285714286	1	759.8	0.7	891	1	589	1	915.6	1	740.7	0.8	890.375	0.9	624.333333333333	13	315694	2	315682	27	40	315721	-999999	315697	0	26	TrialsPROC	BP_015_H10-T_BA.png	2	2	19	SessionSelectionList														lure	3	Body	0-Back	17	80	16	0	0	100	1	39	75711	2	14	59	73672	-1	74449	1	777	3	3	2039	53	75725	-54	0																19												
WM080112	133019_fnca	2	1	1	1377951685	1	75.031	75.030	2.0.10.147	2.0.10.242	2.0.10.242	1.0.0.439	7	234	2	3	Verdana	1	80	0	0	0	WM Stimuli\	0.7	898.714285714286	1	759.8	0.7	891	1	589	1	915.6	1	740.7	0.8	890.375	0.9	624.333333333333	13	315694	2	315682	27	40	315721	-999999	315697	0	26	TrialsPROC	BP_016_H11-T_BA.png	2	2	20	SessionSelectionList														nonlure	3	Body	0-Back	18	80	17	0	0	100	2	39	78283	2	14	72	76244	-1	76981	1	737	3	3	2039	53	78297	-54	0																20												
WM080112	133019_fnca	2	1	1	1377951685	1	75.031	75.030	2.0.10.147	2.0.10.242	2.0.10.242	1.0.0.439	7	234	2	3	Verdana	1	80	0	0	0	WM Stimuli\	0.7	898.714285714286	1	759.8	0.7	891	1	589	1	915.6	1	740.7	0.8	890.375	0.9	624.333333333333	13	315694	2	315682	27	40	315721	-999999	315697	0	26	TrialsPROC	BP_013_BP7_BA.png	2	2	21	SessionSelectionList														target	2	Body	0-Back	19	80	18	0	0	100	1	38	80842	2	14	60	78804	-1	79628	1	824	2	2	2038	52	80856	-53	0																21												
WM080112	133019_fnca	2	1	1	1377951685	1	75.031	75.030	2.0.10.147	2.0.10.242	2.0.10.242	1.0.0.439	7	234	2	3	Verdana	1	80	0	0	0	WM Stimuli\	0.7	898.714285714286	1	759.8	0.7	891	1	589	1	915.6	1	740.7	0.8	890.375	0.9	624.333333333333	13	315694	2	315682	27	40	315721	-999999	315697	0	26	TrialsPROC	BP_017_H12-T_BA.png	2	2	22	SessionSelectionList														nonlure	3	Body	0-Back	20	80	19	0	0	100	1	38	83401	3	14	59	81363	-1	82016	1	653	3	3	2038	52	83415	-53	0																22												
WM080112	133019_fnca	2	1	1	1377951685	1	75.031	75.030	2.0.10.147	2.0.10.242	2.0.10.242	1.0.0.439	7	234	2	3	Verdana	1	80	0	0	0	WM Stimuli\	0.7	898.714285714286	1	759.8	0.7	891	1	589	1	915.6	1	740.7	0.8	890.375	0.9	624.333333333333	13	315694	2	315682	27	40	315721	-999999	315697	0	26	TrialsPROC	BP_014_BP9_BA.png	2	2	23	SessionSelectionList														lure	3	Body	0-Back	21	80	20	0	0	100	2	39	85960	2	14	58	83921	-1	85318	1	1397	3	3	2039	53	85974	-54	0																23												
WM080112	133019_fnca	2	1	1	1377951685	1	75.031	75.030	2.0.10.147	2.0.10.242	2.0.10.242	1.0.0.439	7	234	2	3	Verdana	1	80	0	0	0	WM Stimuli\	0.7	898.714285714286	1	759.8	0.7	891	1	589	1	915.6	1	740.7	0.8	890.375	0.9	624.333333333333	13	315694	2	315682	27	40	315721	-999999	315697	0	27	Fix15secPROC	""	2	2	24	SessionSelectionList																																															6	86427	-7	0							24												
WM080112	133019_fnca	2	1	1	1377951685	1	75.031	75.030	2.0.10.147	2.0.10.242	2.0.10.242	1.0.0.439	7	234	2	3	Verdana	1	80	0	0	0	WM Stimuli\	0.7	898.714285714286	1	759.8	0.7	891	1	589	1	915.6	1	740.7	0.8	890.375	0.9	624.333333333333	13	315694	2	315682	27	40	315721	-999999	315697	0	28	Cue2BackPROC	""	2	2	25	SessionSelectionList									13	101434	-14	0																																													25												
WM080112	133019_fnca	2	1	1	1377951685	1	75.031	75.030	2.0.10.147	2.0.10.242	2.0.10.242	1.0.0.439	7	234	2	3	Verdana	1	80	0	0	0	WM Stimuli\	0.7	898.714285714286	1	759.8	0.7	891	1	589	1	915.6	1	740.7	0.8	890.375	0.9	624.333333333333	13	315694	2	315682	27	40	315721	-999999	315697	0	29	TrialsPROC	FC_015_M8.png	2	2	26	SessionSelectionList														nonlure	3	Face	2-Back	22	80	20	0	1	100	2	39	106032	2	14	72	103993	-1	0	0	0	""	3	2039	53	106046	-54	0																26												
WM080112	133019_fnca	2	1	1	1377951685	1	75.031	75.030	2.0.10.147	2.0.10.242	2.0.10.242	1.0.0.439	7	234	2	3	Verdana	1	80	0	0	0	WM Stimuli\	0.7	898.714285714286	1	759.8	0.7	891	1	589	1	915.6	1	740.7	0.8	890.375	0.9	624.333333333333	13	315694	2	315682	27	40	315721	-999999	315697	0	29	TrialsPROC	FC_018_F9.png	2	2	27	SessionSelectionList														nonlure	3	Face	2-Back	23	80	21	0	0	100	1	40	108605	1	13	72	106565	-1	107225	1	660	3	3	2040	53	108618	-54	0																27												
WM080112	133019_fnca	2	1	1	1377951685	1	75.031	75.030	2.0.10.147	2.0.10.242	2.0.10.242	1.0.0.439	7	234	2	3	Verdana	1	80	0	0	0	WM Stimuli\	0.7	898.714285714286	1	759.8	0.7	891	1	589	1	915.6	1	740.7	0.8	890.375	0.9	624.333333333333	13	315694	2	315682	27	40	315721	-999999	315697	0	29	TrialsPROC	FC_018_F9.png	2	2	28	SessionSelectionList														lure	3	Face	2-Back	24	80	22	0	0	100	2	39	111177	2	14	73	109138	-1	110541	1	1403	3	3	2039	53	111191	-54	0																28												
WM080112	133019_fnca	2	1	1	1377951685	1	75.031	75.030	2.0.10.147	2.0.10.242	2.0.10.242	1.0.0.439	7	234	2	3	Verdana	1	80	0	0	0	WM Stimuli\	0.7	898.714285714286	1	759.8	0.7	891	1	589	1	915.6	1	740.7	0.8	890.375	0.9	624.333333333333	13	315694	2	315682	27	40	315721	-999999	315697	0	29	TrialsPROC	FC_017_M9.png	2	2	29	SessionSelectionList														nonlure	3	Face	2-Back	25	80	23	0	0	100	3	39	113749	2	14	72	111710	-1	112699	1	989	3	3	2039	53	113763	-54	0																29												
WM080112	133019_fnca	2	1	1	1377951685	1	75.031	75.030	2.0.10.147	2.0.10.242	2.0.10.242	1.0.0.439	7	234	2	3	Verdana	1	80	0	0	0	WM Stimuli\	0.7	898.714285714286	1	759.8	0.7	891	1	589	1	915.6	1	740.7	0.8	890.375	0.9	624.333333333333	13	315694	2	315682	27	40	315721	-999999	315697	0	29	TrialsPROC	FC_017_M9.png	2	2	30	SessionSelectionList														lure	3	Face	2-Back	26	80	24	0	0	100	4	39	116321	3	14	72	114282	-1	115885	1	1603	3	3	2039	53	116335	-54	0																30												
WM080112	133019_fnca	2	1	1	1377951685	1	75.031	75.030	2.0.10.147	2.0.10.242	2.0.10.242	1.0.0.439	7	234	2	3	Verdana	1	80	0	0	0	WM Stimuli\	0.7	898.714285714286	1	759.8	0.7	891	1	589	1	915.6	1	740.7	0.8	890.375	0.9	624.333333333333	13	315694	2	315682	27	40	315721	-999999	315697	0	29	TrialsPROC	FC_016_F8.png	2	2	31	SessionSelectionList														nonlure	3	Face	2-Back	27	80	25	0	0	100	5	39	118894	1	13	73	116855	-1	117344	1	489	3	3	2039	52	118907	-53	0																31												
WM080112	133019_fnca	2	1	1	1377951685	1	75.031	75.030	2.0.10.147	2.0.10.242	2.0.10.242	1.0.0.439	7	234	2	3	Verdana	1	80	0	0	0	WM Stimuli\	0.7	898.714285714286	1	759.8	0.7	891	1	589	1	915.6	1	740.7	0.8	890.375	0.9	624.333333333333	13	315694	2	315682	27	40	315721	-999999	315697	0	29	TrialsPROC	FC_013_M7.png	2	2	32	SessionSelectionList														nonlure	3	Face	2-Back	28	80	26	0	0	100	1	39	121466	1	14	72	119427	-1	120202	0	775	2	3	2039	53	121480	-54	0																32												
WM080112	133019_fnca	2	1	1	1377951685	1	75.031	75.030	2.0.10.147	2.0.10.242	2.0.10.242	1.0.0.439	7	234	2	3	Verdana	1	80	0	0	0	WM Stimuli\	0.7	898.714285714286	1	759.8	0.7	891	1	589	1	915.6	1	740.7	0.8	890.375	0.9	624.333333333333	13	315694	2	315682	27	40	315721	-999999	315697	0	29	TrialsPROC	FC_014_F7.png	2	2	33	SessionSelectionList														nonlure	3	Face	2-Back	29	80	27	0	0	100	1	39	124038	3	14	72	121999	-1	122401	1	402	3	3	2039	53	124052	-54	0																33												
WM080112	133019_fnca	2	1	1	1377951685	1	75.031	75.030	2.0.10.147	2.0.10.242	2.0.10.242	1.0.0.439	7	234	2	3	Verdana	1	80	0	0	0	WM Stimuli\	0.7	898.714285714286	1	759.8	0.7	891	1	589	1	915.6	1	740.7	0.8	890.375	0.9	624.333333333333	13	315694	2	315682	27	40	315721	-999999	315697	0	29	TrialsPROC	FC_013_M7.png	2	2	34	SessionSelectionList														target	2	Face	2-Back	30	80	28	0	0	100	1	40	126611	2	13	72	124571	-1	125262	1	691	2	2	2040	53	126624	-54	0																34												
WM080112	133019_fnca	2	1	1	1377951685	1	75.031	75.030	2.0.10.147	2.0.10.242	2.0.10.242	1.0.0.439	7	234	2	3	Verdana	1	80	0	0	0	WM Stimuli\	0.7	898.714285714286	1	759.8	0.7	891	1	589	1	915.6	1	740.7	0.8	890.375	0.9	624.333333333333	13	315694	2	315682	27	40	315721	-999999	315697	0	29	TrialsPROC	FC_014_F7.png	2	2	35	SessionSelectionList														target	2	Face	2-Back	31	80	29	0	0	100	1	39	129183	2	14	73	127144	-1	127573	0	429	3	2	2039	53	129197	-54	0																35												
WM080112	133019_fnca	2	1	1	1377951685	1	75.031	75.030	2.0.10.147	2.0.10.242	2.0.10.242	1.0.0.439	7	234	2	3	Verdana	1	80	0	0	0	WM Stimuli\	0.7	898.714285714286	1	759.8	0.7	891	1	589	1	915.6	1	740.7	0.8	890.375	0.9	624.333333333333	13	315694	2	315682	27	40	315721	-999999	315697	0	30	Cue0BackPROC	TO_019_TOOL19_BA.png	2	2	36	SessionSelectionList																																										19	129663	-20	0												36												
WM080112	133019_fnca	2	1	1	1377951685	1	75.031	75.030	2.0.10.147	2.0.10.242	2.0.10.242	1.0.0.439	7	234	2	3	Verdana	1	80	0	0	0	WM Stimuli\	0.7	898.714285714286	1	759.8	0.7	891	1	589	1	915.6	1	740.7	0.8	890.375	0.9	624.333333333333	13	315694	2	315682	27	40	315721	-999999	315697	0	31	TrialsPROC	TO_019_TOOL19_BA.png	2	2	37	SessionSelectionList														target	2	Tools	0-Back	32	80	30	0	0	100	1	39	134234	2	14	51	132195	-1	132941	1	746	2	2	2039	53	134248	-54	0																37												
WM080112	133019_fnca	2	1	1	1377951685	1	75.031	75.030	2.0.10.147	2.0.10.242	2.0.10.242	1.0.0.439	7	234	2	3	Verdana	1	80	0	0	0	WM Stimuli\	0.7	898.714285714286	1	759.8	0.7	891	1	589	1	915.6	1	740.7	0.8	890.375	0.9	624.333333333333	13	315694	2	315682	27	40	315721	-999999	315697	0	31	TrialsPROC	TO_024_TOOL24_BA.png	2	2	38	SessionSelectionList														nonlure	3	Tools	0-Back	33	80	31	0	0	100	1	39	136793	2	14	59	134754	-1	135578	1	824	3	3	2039	53	136807	-54	0																38												
WM080112	133019_fnca	2	1	1	1377951685	1	75.031	75.030	2.0.10.147	2.0.10.242	2.0.10.242	1.0.0.439	7	234	2	3	Verdana	1	80	0	0	0	WM Stimuli\	0.7	898.714285714286	1	759.8	0.7	891	1	589	1	915.6	1	740.7	0.8	890.375	0.9	624.333333333333	13	315694	2	315682	27	40	315721	-999999	315697	0	31	TrialsPROC	TO_019_TOOL19_BA.png	2	2	39	SessionSelectionList														target	2	Tools	0-Back	34	80	32	0	0	92	2	39	139352	3	14	59	137313	-1	138725	0	1412	3	2	2039	53	139366	-54	0																39												
WM080112	133019_fnca	2	1	1	1377951685	1	75.031	75.030	2.0.10.147	2.0.10.242	2.0.10.242	1.0.0.439	7	234	2	3	Verdana	1	80	0	0	0	WM Stimuli\	0.7	898.714285714286	1	759.8	0.7	891	1	589	1	915.6	1	740.7	0.8	890.375	0.9	624.333333333333	13	315694	2	315682	27	40	315721	-999999	315697	0	31	TrialsPROC	TO_023_TOOL23_BA.png	2	2	40	SessionSelectionList														nonlure	3	Tools	0-Back	35	80	33	0	0	93	3	39	141924	2	14	72	139885	-1	140684	1	799	3	3	2039	53	141938	-54	0																40												
WM080112	133019_fnca	2	1	1	1377951685	1	75.031	75.030	2.0.10.147	2.0.10.242	2.0.10.242	1.0.0.439	7	234	2	3	Verdana	1	80	0	0	0	WM Stimuli\	0.7	898.714285714286	1	759.8	0.7	891	1	589	1	915.6	1	740.7	0.8	890.375	0.9	624.333333333333	13	315694	2	315682	27	40	315721	-999999	315697	0	31	TrialsPROC	TO_020_TOOL20_BA.png	2	2	41	SessionSelectionList														nonlure	3	Tools	0-Back	36	80	34	0	0	93	4	39	144483	2	14	59	142444	-1	143034	1	590	3	3	2039	53	144497	-54	0																41												
WM080112	133019_fnca	2	1	1	1377951685	1	75.031	75.030	2.0.10.147	2.0.10.242	2.0.10.242	1.0.0.439	7	234	2	3	Verdana	1	80	0	0	0	WM Stimuli\	0.7	898.714285714286	1	759.8	0.7	891	1	589	1	915.6	1	740.7	0.8	890.375	0.9	624.333333333333	13	315694	2	315682	27	40	315721	-999999	315697	0	31	TrialsPROC	TO_020_TOOL20_BA.png	2	2	42	SessionSelectionList														lure	3	Tools	0-Back	37	80	35	0	0	94	5	39	147042	2	14	59	145003	-1	145417	1	414	3	3	2039	53	147056	-54	0																42												
WM080112	133019_fnca	2	1	1	1377951685	1	75.031	75.030	2.0.10.147	2.0.10.242	2.0.10.242	1.0.0.439	7	234	2	3	Verdana	1	80	0	0	0	WM Stimuli\	0.7	898.714285714286	1	759.8	0.7	891	1	589	1	915.6	1	740.7	0.8	890.375	0.9	624.333333333333	13	315694	2	315682	27	40	315721	-999999	315697	0	31	TrialsPROC	TO_022_TOOL22_BA.png	2	2	43	SessionSelectionList														nonlure	3	Tools	0-Back	38	80	36	0	0	94	6	38	149601	2	14	60	147563	-1	148127	1	564	3	3	2038	52	149615	-53	0																43												
WM080112	133019_fnca	2	1	1	1377951685	1	75.031	75.030	2.0.10.147	2.0.10.242	2.0.10.242	1.0.0.439	7	234	2	3	Verdana	1	80	0	0	0	WM Stimuli\	0.7	898.714285714286	1	759.8	0.7	891	1	589	1	915.6	1	740.7	0.8	890.375	0.9	624.333333333333	13	315694	2	315682	27	40	315721	-999999	315697	0	31	TrialsPROC	TO_022_TOOL22_BA.png	2	2	44	SessionSelectionList														lure	3	Tools	0-Back	39	80	37	0	0	94	7	39	152160	3	14	58	150121	-1	150524	1	403	3	3	2039	53	152174	-54	0																44												
WM080112	133019_fnca	2	1	1	1377951685	1	75.031	75.030	2.0.10.147	2.0.10.242	2.0.10.242	1.0.0.439	7	234	2	3	Verdana	1	80	0	0	0	WM Stimuli\	0.7	898.714285714286	1	759.8	0.7	891	1	589	1	915.6	1	740.7	0.8	890.375	0.9	624.333333333333	13	315694	2	315682	27	40	315721	-999999	315697	0	31	TrialsPROC	TO_021_TOOL21_BA.png	2	2	45	SessionSelectionList														nonlure	3	Tools	0-Back	40	80	38	0	0	95	8	39	154719	2	14	59	152680	-1	153353	1	673	3	3	2039	53	154733	-54	0																45												
WM080112	133019_fnca	2	1	1	1377951685	1	75.031	75.030	2.0.10.147	2.0.10.242	2.0.10.242	1.0.0.439	7	234	2	3	Verdana	1	80	0	0	0	WM Stimuli\	0.7	898.714285714286	1	759.8	0.7	891	1	589	1	915.6	1	740.7	0.8	890.375	0.9	624.333333333333	13	315694	2	315682	27	40	315721	-999999	315697	0	31	TrialsPROC	TO_021_TOOL21_BA.png	2	2	46	SessionSelectionList														lure	3	Tools	0-Back	41	80	39	0	0	95	9	39	157278	2	14	59	155239	-1	155845	1	606	3	3	2039	53	157292	-54	0																46												
WM080112	133019_fnca	2	1	1	1377951685	1	75.031	75.030	2.0.10.147	2.0.10.242	2.0.10.242	1.0.0.439	7	234	2	3	Verdana	1	80	0	0	0	WM Stimuli\	0.7	898.714285714286	1	759.8	0.7	891	1	589	1	915.6	1	740.7	0.8	890.375	0.9	624.333333333333	13	315694	2	315682	27	40	315721	-999999	315697	0	32	Fix15secPROC	""	2	2	47	SessionSelectionList																																															6	157745	-7	0							47												
WM080112	133019_fnca	2	1	1	1377951685	1	75.031	75.030	2.0.10.147	2.0.10.242	2.0.10.242	1.0.0.439	7	234	2	3	Verdana	1	80	0	0	0	WM Stimuli\	0.7	898.714285714286	1	759.8	0.7	891	1	589	1	915.6	1	740.7	0.8	890.375	0.9	624.333333333333	13	315694	2	315682	27	40	315721	-999999	315697	0	33	Cue2BackPROC	""	2	2	48	SessionSelectionList									13	172752	-14	0																																													48												
WM080112	133019_fnca	2	1	1	1377951685	1	75.031	75.030	2.0.10.147	2.0.10.242	2.0.10.242	1.0.0.439	7	234	2	3	Verdana	1	80	0	0	0	WM Stimuli\	0.7	898.714285714286	1	759.8	0.7	891	1	589	1	915.6	1	740.7	0.8	890.375	0.9	624.333333333333	13	315694	2	315682	27	40	315721	-999999	315697	0	34	TrialsPROC	BP_020_H17-T_BA.png	2	2	49	SessionSelectionList														nonlure	3	Body	2-Back	42	80	39	0	1	95	9	39	177350	2	14	72	175311	-1	0	0	0	""	3	2039	53	177364	-54	0																49												
WM080112	133019_fnca	2	1	1	1377951685	1	75.031	75.030	2.0.10.147	2.0.10.242	2.0.10.242	1.0.0.439	7	234	2	3	Verdana	1	80	0	0	0	WM Stimuli\	0.7	898.714285714286	1	759.8	0.7	891	1	589	1	915.6	1	740.7	0.8	890.375	0.9	624.333333333333	13	315694	2	315682	27	40	315721	-999999	315697	0	34	TrialsPROC	BP_019_H14-T_BA.png	2	2	50	SessionSelectionList														nonlure	3	Body	2-Back	43	80	40	0	0	95	1	39	179922	2	14	72	177883	-1	179467	1	1584	3	3	2039	53	179936	-54	0																50												
WM080112	133019_fnca	2	1	1	1377951685	1	75.031	75.030	2.0.10.147	2.0.10.242	2.0.10.242	1.0.0.439	7	234	2	3	Verdana	1	80	0	0	0	WM Stimuli\	0.7	898.714285714286	1	759.8	0.7	891	1	589	1	915.6	1	740.7	0.8	890.375	0.9	624.333333333333	13	315694	2	315682	27	40	315721	-999999	315697	0	34	TrialsPROC	BP_020_H17-T_BA.png	2	2	51	SessionSelectionList														target	2	Body	2-Back	44	80	41	0	0	95	1	39	182481	2	14	59	180442	-1	181706	1	1264	2	2	2039	53	182495	-54	0																51												
WM080112	133019_fnca	2	1	1	1377951685	1	75.031	75.030	2.0.10.147	2.0.10.242	2.0.10.242	1.0.0.439	7	234	2	3	Verdana	1	80	0	0	0	WM Stimuli\	0.7	898.714285714286	1	759.8	0.7	891	1	589	1	915.6	1	740.7	0.8	890.375	0.9	624.333333333333	13	315694	2	315682	27	40	315721	-999999	315697	0	34	TrialsPROC	BP_019_H14-T_BA.png	2	2	52	SessionSelectionList														target	2	Body	2-Back	45	80	42	0	0	95	1	38	185040	2	14	60	183002	-1	183695	0	693	3	2	2038	52	185054	-53	0																52												
WM080112	133019_fnca	2	1	1	1377951685	1	75.031	75.030	2.0.10.147	2.0.10.242	2.0.10.242	1.0.0.439	7	234	2	3	Verdana	1	80	0	0	0	WM Stimuli\	0.7	898.714285714286	1	759.8	0.7	891	1	589	1	915.6	1	740.7	0.8	890.375	0.9	624.333333333333	13	315694	2	315682	27	40	315721	-999999	315697	0	34	TrialsPROC	BP_024_H3-T_BA.png	2	2	53	SessionSelectionList														nonlure	3	Body	2-Back	46	80	43	0	0	95	2	40	187613	1	13	71	185573	-1	186522	1	949	3	3	2040	53	187626	-54	0																53												
WM080112	133019_fnca	2	1	1	1377951685	1	75.031	75.030	2.0.10.147	2.0.10.242	2.0.10.242	1.0.0.439	7	234	2	3	Verdana	1	80	0	0	0	WM Stimuli\	0.7	898.714285714286	1	759.8	0.7	891	1	589	1	915.6	1	740.7	0.8	890.375	0.9	624.333333333333	13	315694	2	315682	27	40	315721	-999999	315697	0	34	TrialsPROC	BP_024_H3-T_BA.png	2	2	54	SessionSelectionList														lure	3	Body	2-Back	47	80	44	0	0	95	3	39	190172	2	13	60	188133	-1	188812	1	679	3	3	2039	52	190185	-53	0																54												
WM080112	133019_fnca	2	1	1	1377951685	1	75.031	75.030	2.0.10.147	2.0.10.242	2.0.10.242	1.0.0.439	7	234	2	3	Verdana	1	80	0	0	0	WM Stimuli\	0.7	898.714285714286	1	759.8	0.7	891	1	589	1	915.6	1	740.7	0.8	890.375	0.9	624.333333333333	13	315694	2	315682	27	40	315721	-999999	315697	0	34	TrialsPROC	BP_025_H5-T_BA.png	2	2	55	SessionSelectionList														nonlure	3	Body	2-Back	48	80	45	0	0	95	4	39	192731	2	13	59	190692	-1	191256	1	564	3	3	2039	52	192744	-53	0																55												
WM080112	133019_fnca	2	1	1	1377951685	1	75.031	75.030	2.0.10.147	2.0.10.242	2.0.10.242	1.0.0.439	7	234	2	3	Verdana	1	80	0	0	0	WM Stimuli\	0.7	898.714285714286	1	759.8	0.7	891	1	589	1	915.6	1	740.7	0.8	890.375	0.9	624.333333333333	13	315694	2	315682	27	40	315721	-999999	315697	0	34	TrialsPROC	BP_023_H25-T_BA.png	2	2	56	SessionSelectionList														nonlure	3	Body	2-Back	49	80	46	0	0	95	1	39	195303	2	14	72	193264	-1	193775	0	511	2	3	2039	53	195317	-54	0																56												
WM080112	133019_fnca	2	1	1	1377951685	1	75.031	75.030	2.0.10.147	2.0.10.242	2.0.10.242	1.0.0.439	7	234	2	3	Verdana	1	80	0	0	0	WM Stimuli\	0.7	898.714285714286	1	759.8	0.7	891	1	589	1	915.6	1	740.7	0.8	890.375	0.9	624.333333333333	13	315694	2	315682	27	40	315721	-999999	315697	0	34	TrialsPROC	BP_022_H24-T_BA.png	2	2	57	SessionSelectionList														nonlure	3	Body	2-Back	50	80	47	0	0	95	1	39	197875	1	14	72	195836	-1	196589	1	753	3	3	2039	53	197889	-54	0																57												
WM080112	133019_fnca	2	1	1	1377951685	1	75.031	75.030	2.0.10.147	2.0.10.242	2.0.10.242	1.0.0.439	7	234	2	3	Verdana	1	80	0	0	0	WM Stimuli\	0.7	898.714285714286	1	759.8	0.7	891	1	589	1	915.6	1	740.7	0.8	890.375	0.9	624.333333333333	13	315694	2	315682	27	40	315721	-999999	315697	0	34	TrialsPROC	BP_022_H24-T_BA.png	2	2	58	SessionSelectionList														lure	3	Body	2-Back	51	80	48	0	0	95	2	39	200434	3	14	59	198395	-1	198893	1	498	3	3	2039	53	200448	-54	0																58												
WM080112	133019_fnca	2	1	1	1377951685	1	75.031	75.030	2.0.10.147	2.0.10.242	2.0.10.242	1.0.0.439	7	234	2	3	Verdana	1	80	0	0	0	WM Stimuli\	0.7	898.714285714286	1	759.8	0.7	891	1	589	1	915.6	1	740.7	0.8	890.375	0.9	624.333333333333	13	315694	2	315682	27	40	315721	-999999	315697	0	35	Cue2BackPROC	""	2	2	59	SessionSelectionList									6	200901	-7	0																																													59												
WM080112	133019_fnca	2	1	1	1377951685	1	75.031	75.030	2.0.10.147	2.0.10.242	2.0.10.242	1.0.0.439	7	234	2	3	Verdana	1	80	0	0	0	WM Stimuli\	0.7	898.714285714286	1	759.8	0.7	891	1	589	1	915.6	1	740.7	0.8	890.375	0.9	624.333333333333	13	315694	2	315682	27	40	315721	-999999	315697	0	36	TrialsPROC	PL_019_SCENE_05.png	2	2	60	SessionSelectionList														nonlure	3	Place	2-Back	52	80	49	0	0	95	3	39	205499	1	13	65	203460	-1	204453	1	993	3	3	2039	52	205512	-53	0																60												
WM080112	133019_fnca	2	1	1	1377951685	1	75.031	75.030	2.0.10.147	2.0.10.242	2.0.10.242	1.0.0.439	7	234	2	3	Verdana	1	80	0	0	0	WM Stimuli\	0.7	898.714285714286	1	759.8	0.7	891	1	589	1	915.6	1	740.7	0.8	890.375	0.9	624.333333333333	13	315694	2	315682	27	40	315721	-999999	315697	0	36	TrialsPROC	PL_017_SCENE_03.png	2	2	61	SessionSelectionList														nonlure	3	Place	2-Back	53	80	50	0	0	95	4	39	208071	2	14	72	206032	-1	206926	1	894	3	3	2039	53	208085	-54	0																61												
WM080112	133019_fnca	2	1	1	1377951685	1	75.031	75.030	2.0.10.147	2.0.10.242	2.0.10.242	1.0.0.439	7	234	2	3	Verdana	1	80	0	0	0	WM Stimuli\	0.7	898.714285714286	1	759.8	0.7	891	1	589	1	915.6	1	740.7	0.8	890.375	0.9	624.333333333333	13	315694	2	315682	27	40	315721	-999999	315697	0	36	TrialsPROC	PL_017_SCENE_03.png	2	2	62	SessionSelectionList														lure	3	Place	2-Back	54	80	51	0	0	95	5	39	210643	2	14	72	208604	-1	209485	1	881	3	3	2039	53	210657	-54	0																62												
WM080112	133019_fnca	2	1	1	1377951685	1	75.031	75.030	2.0.10.147	2.0.10.242	2.0.10.242	1.0.0.439	7	234	2	3	Verdana	1	80	0	0	0	WM Stimuli\	0.7	898.714285714286	1	759.8	0.7	891	1	589	1	915.6	1	740.7	0.8	890.375	0.9	624.333333333333	13	315694	2	315682	27	40	315721	-999999	315697	0	36	TrialsPROC	PL_016_SCENE_02.png	2	2	63	SessionSelectionList														nonlure	3	Place	2-Back	55	80	52	0	0	95	6	40	213216	1	13	72	211176	-1	212081	1	905	3	3	2040	53	213229	-54	0																63												
WM080112	133019_fnca	2	1	1	1377951685	1	75.031	75.030	2.0.10.147	2.0.10.242	2.0.10.242	1.0.0.439	7	234	2	3	Verdana	1	80	0	0	0	WM Stimuli\	0.7	898.714285714286	1	759.8	0.7	891	1	589	1	915.6	1	740.7	0.8	890.375	0.9	624.333333333333	13	315694	2	315682	27	40	315721	-999999	315697	0	36	TrialsPROC	PL_015_SCENE_01.png	2	2	64	SessionSelectionList														nonlure	3	Place	2-Back	56	80	53	0	0	95	7	39	215788	1	14	73	213749	-1	214328	1	579	3	3	2039	53	215802	-54	0																64												
WM080112	133019_fnca	2	1	1	1377951685	1	75.031	75.030	2.0.10.147	2.0.10.242	2.0.10.242	1.0.0.439	7	234	2	3	Verdana	1	80	0	0	0	WM Stimuli\	0.7	898.714285714286	1	759.8	0.7	891	1	589	1	915.6	1	740.7	0.8	890.375	0.9	624.333333333333	13	315694	2	315682	27	40	315721	-999999	315697	0	36	TrialsPROC	PL_016_SCENE_02.png	2	2	65	SessionSelectionList														target	2	Place	2-Back	57	80	54	0	0	95	1	39	218360	2	14	72	216321	-1	217360	1	1039	2	2	2039	53	218374	-54	0																65												
WM080112	133019_fnca	2	1	1	1377951685	1	75.031	75.030	2.0.10.147	2.0.10.242	2.0.10.242	1.0.0.439	7	234	2	3	Verdana	1	80	0	0	0	WM Stimuli\	0.7	898.714285714286	1	759.8	0.7	891	1	589	1	915.6	1	740.7	0.8	890.375	0.9	624.333333333333	13	315694	2	315682	27	40	315721	-999999	315697	0	36	TrialsPROC	PL_015_SCENE_01.png	2	2	66	SessionSelectionList														target	2	Place	2-Back	58	80	55	0	0	95	2	39	220932	3	14	72	218893	-1	219740	1	847	2	2	2039	53	220946	-54	0																66												
WM080112	133019_fnca	2	1	1	1377951685	1	75.031	75.030	2.0.10.147	2.0.10.242	2.0.10.242	1.0.0.439	7	234	2	3	Verdana	1	80	0	0	0	WM Stimuli\	0.7	898.714285714286	1	759.8	0.7	891	1	589	1	915.6	1	740.7	0.8	890.375	0.9	624.333333333333	13	315694	2	315682	27	40	315721	-999999	315697	0	36	TrialsPROC	PL_020_SCENE_06.png	2	2	67	SessionSelectionList														nonlure	3	Place	2-Back	59	80	56	0	0	95	1	39	223505	2	13	73	221466	-1	222547	1	1081	3	3	2039	52	223518	-53	0																67												
WM080112	133019_fnca	2	1	1	1377951685	1	75.031	75.030	2.0.10.147	2.0.10.242	2.0.10.242	1.0.0.439	7	234	2	3	Verdana	1	80	0	0	0	WM Stimuli\	0.7	898.714285714286	1	759.8	0.7	891	1	589	1	915.6	1	740.7	0.8	890.375	0.9	624.333333333333	13	315694	2	315682	27	40	315721	-999999	315697	0	36	TrialsPROC	PL_020_SCENE_06.png	2	2	68	SessionSelectionList														lure	3	Place	2-Back	60	80	57	0	0	95	2	39	226077	1	14	72	224038	-1	224969	1	931	3	3	2039	53	226091	-54	0																68												
WM080112	133019_fnca	2	1	1	1377951685	1	75.031	75.030	2.0.10.147	2.0.10.242	2.0.10.242	1.0.0.439	7	234	2	3	Verdana	1	80	0	0	0	WM Stimuli\	0.7	898.714285714286	1	759.8	0.7	891	1	589	1	915.6	1	740.7	0.8	890.375	0.9	624.333333333333	13	315694	2	315682	27	40	315721	-999999	315697	0	36	TrialsPROC	PL_018_SCENE_04.png	2	2	69	SessionSelectionList														nonlure	3	Place	2-Back	61	80	58	0	0	95	3	39	228649	2	14	72	226610	-1	227616	1	1006	3	3	2039	53	228663	-54	0																69												
WM080112	133019_fnca	2	1	1	1377951685	1	75.031	75.030	2.0.10.147	2.0.10.242	2.0.10.242	1.0.0.439	7	234	2	3	Verdana	1	80	0	0	0	WM Stimuli\	0.7	898.714285714286	1	759.8	0.7	891	1	589	1	915.6	1	740.7	0.8	890.375	0.9	624.333333333333	13	315694	2	315682	27	40	315721	-999999	315697	0	37	Fix15secPROC	""	2	2	70	SessionSelectionList																																															6	229116	-7	0							70												
WM080112	133019_fnca	2	1	1	1377951685	1	75.031	75.030	2.0.10.147	2.0.10.242	2.0.10.242	1.0.0.439	7	234	2	3	Verdana	1	80	0	0	0	WM Stimuli\	0.7	898.714285714286	1	759.8	0.7	891	1	589	1	915.6	1	740.7	0.8	890.375	0.9	624.333333333333	13	315694	2	315682	27	40	315721	-999999	315697	0	38	Cue0BackPROC	FC_020_F10.png	2	2	71	SessionSelectionList																																										40	244150	-41	0												71												
WM080112	133019_fnca	2	1	1	1377951685	1	75.031	75.030	2.0.10.147	2.0.10.242	2.0.10.242	1.0.0.439	7	234	2	3	Verdana	1	80	0	0	0	WM Stimuli\	0.7	898.714285714286	1	759.8	0.7	891	1	589	1	915.6	1	740.7	0.8	890.375	0.9	624.333333333333	13	315694	2	315682	27	40	315721	-999999	315697	0	39	TrialsPROC	FC_024_F12.png	2	2	72	SessionSelectionList														nonlure	3	Face	0-Back	62	80	59	0	0	95	4	40	248735	1	13	85	246695	-1	247192	1	497	3	3	2040	53	248748	-54	0																72												
WM080112	133019_fnca	2	1	1	1377951685	1	75.031	75.030	2.0.10.147	2.0.10.242	2.0.10.242	1.0.0.439	7	234	2	3	Verdana	1	80	0	0	0	WM Stimuli\	0.7	898.714285714286	1	759.8	0.7	891	1	589	1	915.6	1	740.7	0.8	890.375	0.9	624.333333333333	13	315694	2	315682	27	40	315721	-999999	315697	0	39	TrialsPROC	FC_023_M12.png	2	2	73	SessionSelectionList														nonlure	3	Face	0-Back	63	80	60	0	0	95	5	39	251333	2	14	99	249294	-1	249749	1	455	3	3	2039	53	251347	-54	0																73												
WM080112	133019_fnca	2	1	1	1377951685	1	75.031	75.030	2.0.10.147	2.0.10.242	2.0.10.242	1.0.0.439	7	234	2	3	Verdana	1	80	0	0	0	WM Stimuli\	0.7	898.714285714286	1	759.8	0.7	891	1	589	1	915.6	1	740.7	0.8	890.375	0.9	624.333333333333	13	315694	2	315682	27	40	315721	-999999	315697	0	39	TrialsPROC	FC_020_F10.png	2	2	74	SessionSelectionList														target	2	Face	0-Back	64	80	61	0	0	96	1	39	253906	2	14	73	251867	-1	252490	1	623	2	2	2039	53	253920	-54	0																74												
WM080112	133019_fnca	2	1	1	1377951685	1	75.031	75.030	2.0.10.147	2.0.10.242	2.0.10.242	1.0.0.439	7	234	2	3	Verdana	1	80	0	0	0	WM Stimuli\	0.7	898.714285714286	1	759.8	0.7	891	1	589	1	915.6	1	740.7	0.8	890.375	0.9	624.333333333333	13	315694	2	315682	27	40	315721	-999999	315697	0	39	TrialsPROC	FC_024_F12.png	2	2	75	SessionSelectionList														lure	3	Face	0-Back	65	80	62	0	0	96	1	39	256478	2	14	72	254439	-1	254875	1	436	3	3	2039	53	256492	-54	0																75												
WM080112	133019_fnca	2	1	1	1377951685	1	75.031	75.030	2.0.10.147	2.0.10.242	2.0.10.242	1.0.0.439	7	234	2	3	Verdana	1	80	0	0	0	WM Stimuli\	0.7	898.714285714286	1	759.8	0.7	891	1	589	1	915.6	1	740.7	0.8	890.375	0.9	624.333333333333	13	315694	2	315682	27	40	315721	-999999	315697	0	39	TrialsPROC	FC_020_F10.png	2	2	76	SessionSelectionList														target	2	Face	0-Back	66	80	63	0	0	96	1	39	259050	2	14	72	257011	-1	258032	1	1021	2	2	2039	53	259064	-54	0																76												
WM080112	133019_fnca	2	1	1	1377951685	1	75.031	75.030	2.0.10.147	2.0.10.242	2.0.10.242	1.0.0.439	7	234	2	3	Verdana	1	80	0	0	0	WM Stimuli\	0.7	898.714285714286	1	759.8	0.7	891	1	589	1	915.6	1	740.7	0.8	890.375	0.9	624.333333333333	13	315694	2	315682	27	40	315721	-999999	315697	0	39	TrialsPROC	FC_022_F11.png	2	2	77	SessionSelectionList														nonlure	3	Face	0-Back	67	80	64	0	0	96	1	39	261636	1	14	86	259597	-1	260114	1	517	3	3	2039	53	261650	-54	0																77												
WM080112	133019_fnca	2	1	1	1377951685	1	75.031	75.030	2.0.10.147	2.0.10.242	2.0.10.242	1.0.0.439	7	234	2	3	Verdana	1	80	0	0	0	WM Stimuli\	0.7	898.714285714286	1	759.8	0.7	891	1	589	1	915.6	1	740.7	0.8	890.375	0.9	624.333333333333	13	315694	2	315682	27	40	315721	-999999	315697	0	39	TrialsPROC	FC_023_M12.png	2	2	78	SessionSelectionList														lure	3	Face	0-Back	68	80	65	0	0	96	2	39	264208	3	14	72	262169	-1	262696	1	527	3	3	2039	53	264222	-54	0																78												
WM080112	133019_fnca	2	1	1	1377951685	1	75.031	75.030	2.0.10.147	2.0.10.242	2.0.10.242	1.0.0.439	7	234	2	3	Verdana	1	80	0	0	0	WM Stimuli\	0.7	898.714285714286	1	759.8	0.7	891	1	589	1	915.6	1	740.7	0.8	890.375	0.9	624.333333333333	13	315694	2	315682	27	40	315721	-999999	315697	0	39	TrialsPROC	FC_021_M11.png	2	2	79	SessionSelectionList														nonlure	3	Face	0-Back	69	80	66	0	0	96	3	39	266794	1	14	86	264755	-1	265235	1	480	3	3	2039	53	266808	-54	0																79												
WM080112	133019_fnca	2	1	1	1377951685	1	75.031	75.030	2.0.10.147	2.0.10.242	2.0.10.242	1.0.0.439	7	234	2	3	Verdana	1	80	0	0	0	WM Stimuli\	0.7	898.714285714286	1	759.8	0.7	891	1	589	1	915.6	1	740.7	0.8	890.375	0.9	624.333333333333	13	315694	2	315682	27	40	315721	-999999	315697	0	39	TrialsPROC	FC_021_M11.png	2	2	80	SessionSelectionList														lure	3	Face	0-Back	70	80	67	0	0	97	4	39	269366	3	14	72	267327	-1	268000	1	673	3	3	2039	53	269380	-54	0																80												
WM080112	133019_fnca	2	1	1	1377951685	1	75.031	75.030	2.0.10.147	2.0.10.242	2.0.10.242	1.0.0.439	7	234	2	3	Verdana	1	80	0	0	0	WM Stimuli\	0.7	898.714285714286	1	759.8	0.7	891	1	589	1	915.6	1	740.7	0.8	890.375	0.9	624.333333333333	13	315694	2	315682	27	40	315721	-999999	315697	0	39	TrialsPROC	FC_019_M10.png	2	2	81	SessionSelectionList														nonlure	3	Face	0-Back	71	80	68	0	0	97	5	39	271952	2	14	86	269913	-1	270574	1	661	3	3	2039	53	271966	-54	0																81												
WM080112	133019_fnca	2	1	1	1377951685	1	75.031	75.030	2.0.10.147	2.0.10.242	2.0.10.242	1.0.0.439	7	234	2	3	Verdana	1	80	0	0	0	WM Stimuli\	0.7	898.714285714286	1	759.8	0.7	891	1	589	1	915.6	1	740.7	0.8	890.375	0.9	624.333333333333	13	315694	2	315682	27	40	315721	-999999	315697	0	40	Cue0BackPROC	PL_021_SCENE_07.png	2	2	82	SessionSelectionList																																										32	272445	-33	0												82												
WM080112	133019_fnca	2	1	1	1377951685	1	75.031	75.030	2.0.10.147	2.0.10.242	2.0.10.242	1.0.0.439	7	234	2	3	Verdana	1	80	0	0	0	WM Stimuli\	0.7	898.714285714286	1	759.8	0.7	891	1	589	1	915.6	1	740.7	0.8	890.375	0.9	624.333333333333	13	315694	2	315682	27	40	315721	-999999	315697	0	41	TrialsPROC	PL_025_SCENE_18.png	2	2	83	SessionSelectionList														nonlure	3	Place	0-Back	72	80	69	0	0	97	6	39	277030	1	14	78	274991	-1	275743	1	752	3	3	2039	53	277044	-54	0																83												
WM080112	133019_fnca	2	1	1	1377951685	1	75.031	75.030	2.0.10.147	2.0.10.242	2.0.10.242	1.0.0.439	7	234	2	3	Verdana	1	80	0	0	0	WM Stimuli\	0.7	898.714285714286	1	759.8	0.7	891	1	589	1	915.6	1	740.7	0.8	890.375	0.9	624.333333333333	13	315694	2	315682	27	40	315721	-999999	315697	0	41	TrialsPROC	PL_026_SCENE_24.png	2	2	84	SessionSelectionList														nonlure	3	Place	0-Back	73	80	70	0	0	97	7	39	279615	2	14	85	277576	-1	278140	1	564	3	3	2039	53	279629	-54	0																84												
WM080112	133019_fnca	2	1	1	1377951685	1	75.031	75.030	2.0.10.147	2.0.10.242	2.0.10.242	1.0.0.439	7	234	2	3	Verdana	1	80	0	0	0	WM Stimuli\	0.7	898.714285714286	1	759.8	0.7	891	1	589	1	915.6	1	740.7	0.8	890.375	0.9	624.333333333333	13	315694	2	315682	27	40	315721	-999999	315697	0	41	TrialsPROC	PL_025_SCENE_18.png	2	2	85	SessionSelectionList														lure	3	Place	0-Back	74	80	71	0	0	97	8	40	282188	2	13	72	280148	-1	280678	1	530	3	3	2040	53	282201	-54	0																85												
WM080112	133019_fnca	2	1	1	1377951685	1	75.031	75.030	2.0.10.147	2.0.10.242	2.0.10.242	1.0.0.439	7	234	2	3	Verdana	1	80	0	0	0	WM Stimuli\	0.7	898.714285714286	1	759.8	0.7	891	1	589	1	915.6	1	740.7	0.8	890.375	0.9	624.333333333333	13	315694	2	315682	27	40	315721	-999999	315697	0	41	TrialsPROC	PL_022_SCENE_08.png	2	2	86	SessionSelectionList														nonlure	3	Place	0-Back	75	80	72	0	0	97	9	39	284773	2	14	86	282734	-1	283479	1	745	3	3	2039	53	284787	-54	0																86												
WM080112	133019_fnca	2	1	1	1377951685	1	75.031	75.030	2.0.10.147	2.0.10.242	2.0.10.242	1.0.0.439	7	234	2	3	Verdana	1	80	0	0	0	WM Stimuli\	0.7	898.714285714286	1	759.8	0.7	891	1	589	1	915.6	1	740.7	0.8	890.375	0.9	624.333333333333	13	315694	2	315682	27	40	315721	-999999	315697	0	41	TrialsPROC	PL_026_SCENE_24.png	2	2	87	SessionSelectionList														lure	3	Place	0-Back	76	80	73	0	0	97	10	40	287346	2	13	72	285306	-1	286061	1	755	3	3	2040	53	287359	-54	0																87												
WM080112	133019_fnca	2	1	1	1377951685	1	75.031	75.030	2.0.10.147	2.0.10.242	2.0.10.242	1.0.0.439	7	234	2	3	Verdana	1	80	0	0	0	WM Stimuli\	0.7	898.714285714286	1	759.8	0.7	891	1	589	1	915.6	1	740.7	0.8	890.375	0.9	624.333333333333	13	315694	2	315682	27	40	315721	-999999	315697	0	41	TrialsPROC	PL_021_SCENE_07.png	2	2	88	SessionSelectionList														target	2	Place	0-Back	77	80	74	0	0	97	1	39	289918	2	14	73	287879	-1	288481	1	602	2	2	2039	53	289932	-54	0																88												
WM080112	133019_fnca	2	1	1	1377951685	1	75.031	75.030	2.0.10.147	2.0.10.242	2.0.10.242	1.0.0.439	7	234	2	3	Verdana	1	80	0	0	0	WM Stimuli\	0.7	898.714285714286	1	759.8	0.7	891	1	589	1	915.6	1	740.7	0.8	890.375	0.9	624.333333333333	13	315694	2	315682	27	40	315721	-999999	315697	0	41	TrialsPROC	PL_021_SCENE_07.png	2	2	89	SessionSelectionList														target	2	Place	0-Back	78	80	75	0	0	97	2	39	292490	2	14	72	290451	-1	291182	1	731	2	2	2039	53	292504	-54	0																89												
WM080112	133019_fnca	2	1	1	1377951685	1	75.031	75.030	2.0.10.147	2.0.10.242	2.0.10.242	1.0.0.439	7	234	2	3	Verdana	1	80	0	0	0	WM Stimuli\	0.7	898.714285714286	1	759.8	0.7	891	1	589	1	915.6	1	740.7	0.8	890.375	0.9	624.333333333333	13	315694	2	315682	27	40	315721	-999999	315697	0	41	TrialsPROC	PL_023_SCENE_09.png	2	2	90	SessionSelectionList														nonlure	3	Place	0-Back	79	80	76	0	0	97	1	39	295076	2	14	86	293037	-1	293925	1	888	3	3	2039	53	295090	-54	0																90												
WM080112	133019_fnca	2	1	1	1377951685	1	75.031	75.030	2.0.10.147	2.0.10.242	2.0.10.242	1.0.0.439	7	234	2	3	Verdana	1	80	0	0	0	WM Stimuli\	0.7	898.714285714286	1	759.8	0.7	891	1	589	1	915.6	1	740.7	0.8	890.375	0.9	624.333333333333	13	315694	2	315682	27	40	315721	-999999	315697	0	41	TrialsPROC	PL_024_SCENE_10.png	2	2	91	SessionSelectionList														nonlure	3	Place	0-Back	80	80	77	0	0	97	2	39	297648	1	14	72	295609	-1	296532	1	923	3	3	2039	53	297662	-54	0																91												
WM080112	133019_fnca	2	1	1	1377951685	1	75.031	75.030	2.0.10.147	2.0.10.242	2.0.10.242	1.0.0.439	7	234	2	3	Verdana	1	80	0	0	0	WM Stimuli\	0.7	898.714285714286	1	759.8	0.7	891	1	589	1	915.6	1	740.7	0.8	890.375	0.9	624.333333333333	13	315694	2	315682	27	40	315721	-999999	315697	0	41	TrialsPROC	PL_022_SCENE_08.png	2	2	92	SessionSelectionList														lure	3	Place	0-Back	80	80	78	0	0	98	3	39	300220	3	14	72	298181	-1	299098	1	917	3	3	2039	53	300234	-54	0																92												
WM080112	133019_fnca	2	1	1	1377951685	1	75.031	75.030	2.0.10.147	2.0.10.242	2.0.10.242	1.0.0.439	7	234	2	3	Verdana	1	80	0	0	0	WM Stimuli\	0.7	898.714285714286	1	759.8	0.7	891	1	589	1	915.6	1	740.7	0.8	890.375	0.9	624.333333333333	13	315694	2	315682	27	40	315721	-999999	315697	0	42	Fix15secPROC	""	2	2	93	SessionSelectionList																																															6	300687	-7	0							93												
