ExperimentName	HCPID	RunNumber	Subject	Session	RandomSeed	Group	Laptop.RefreshRate	ScannerD2.RefreshRate	StudioVersion	RuntimeVersion	RuntimeVersionExpected	ExperimentVersion	triggercode	Allowed	Target	Nontarget	FontStyle	RunTrialNumber[Session]	TrialsPerRun[Session]	TotalRespGreater200[Session]	ConsecRTLess200[Session]	ConsecNonResp[Session]	StimuliDir	ACC_2_Back_Body	Avg_RT_For_Correct_Trials_2_Back_Body	ACC_0_Back_Body	Avg_RT_For_Correct_Trials_0_Back_Body	ACC_2_Back_Face	Avg_RT_For_Correct_Trials_2_Back_Face	ACC_0_Back_Face	Avg_RT_For_Correct_Trials_0_Back_Face	ACC_2_Back_Place	Avg_RT_For_Correct_Trials_2_Back_Place	ACC_0_Back_Place	Avg_RT_For_Correct_Trials_0_Back_Place	ACC_2_Back_Tools	Avg_RT_For_Correct_Trials_2_Back_Tools	ACC_0_Back_Tools	Avg_RT_For_Correct_Trials_0_Back_Tools	ExpInstrucFeelFreeToRest.OnsetDelay	ExpInstrucFeelFreeToRest.OnsetTime	ExpInstrucFeelFreeToRest.DurationError	ExpInstrucFeelFreeToRest.StartTime	ExpInstrucFeelFreeToRest.OnsetToOnsetTime	FeelFreeToRest.OnsetDelay	FeelFreeToRest.OnsetTime	FeelFreeToRest.DurationError	FeelFreeToRest.StartTime	FeelFreeToRest.OnsetToOnsetTime	SessionSelectionList	Procedure[Block]	Stimulus[Block]	RunNumberFilterValue	SessionSelectionList.Cycle	SessionSelectionList.Sample	Running[Block]	IntroButtonMap.OnsetDelay	IntroButtonMap.OnsetTime	IntroButtonMap.DurationError	IntroButtonMap.OnsetToOnsetTime	GetReady.OnsetDelay	GetReady.OnsetTime	GetReady.DurationError	GetReady.OnsetToOnsetTime	Cue2Back.OnsetDelay	Cue2Back.OnsetTime	Cue2Back.DurationError	Cue2Back.OnsetToOnsetTime	Run1Block1	TargetType	CorrectResponse	StimType	BlockType	RunTrialNumber[Block]	TrialsPerRun[Block]	TotalRespGreater200[Block]	ConsecRTLess200[Block]	ConsecNonResp[Block]	ControlAcc	ConsecSameResp	ExperimenterWindow.OnsetDelay	ExperimenterWindow.OnsetTime	ExperimenterWindow.DurationError	ExperimenterWindow.OnsetToOnsetTime	Stim.OnsetDelay	Stim.OnsetTime	Stim.DurationError	Stim.RTTime	Stim.ACC	Stim.RT	Stim.RESP	Stim.CRESP	Stim.OnsetToOnsetTime	Fix.OnsetDelay	Fix.OnsetTime	Fix.DurationError	Fix.OnsetToOnsetTime	CueTarget.OnsetDelay	CueTarget.OnsetTime	CueTarget.DurationError	CueTarget.OnsetToOnsetTime	Run1Block2	Fix15sec.OnsetDelay	Fix15sec.OnsetTime	Fix15sec.DurationError	Fix15sec.OnsetToOnsetTime	Run1Block3	Run1Block4	Run1Block5	Run1Block6	Run1Block7	Run1Block8	Block	Procedure[Trial]	Stimulus[Trial]	ReadyList	Running[Trial]	ReadyList.Cycle	ReadyList.Sample	SyncSlide.OnsetDelay	SyncSlide.OnsetTime	SyncSlide.DurationError	SyncSlide.FinishTime	SyncSlide.OnsetToOnsetTime	Trial
WM080112	118730_fnca	2	1	1	933337378	1	75.031	75.031	2.0.10.147	2.0.10.242	2.0.10.242	1.0.0.439	7	234	2	3	Verdana	1	80	0	0	0	WM Stimuli\	0.7	1056.85714285714	1	824.8	1	1191	0.9	733.333333333333	1	1103.1	0.9	868.111111111111	0.9	826.666666666667	0.9	706.111111111111	12	336501	3	336490	28	40	336529	-999999	336504	0	22	TRSyncPROC	""	2	2	1	SessionSelectionList	119	22913	-999999	0	32	23486	-999999	0																																																	1	InitialTR	4	1	ReadyList	1	1	10	43038	-11	45027	0	1
WM080112	118730_fnca	2	1	1	933337378	1	75.031	75.031	2.0.10.147	2.0.10.242	2.0.10.242	1.0.0.439	7	234	2	3	Verdana	1	80	0	0	0	WM Stimuli\	0.7	1056.85714285714	1	824.8	1	1191	0.9	733.333333333333	1	1103.1	0.9	868.111111111111	0.9	826.666666666667	0.9	706.111111111111	12	336501	3	336490	28	40	336529	-999999	336504	0	22	TRSyncPROC	""	2	2	1	SessionSelectionList	119	22913	-999999	0	32	23486	-999999	0																																																	1	InitialTR	3	2	ReadyList	1	2	9	45037	-10	47027	0	2
WM080112	118730_fnca	2	1	1	933337378	1	75.031	75.031	2.0.10.147	2.0.10.242	2.0.10.242	1.0.0.439	7	234	2	3	Verdana	1	80	0	0	0	WM Stimuli\	0.7	1056.85714285714	1	824.8	1	1191	0.9	733.333333333333	1	1103.1	0.9	868.111111111111	0.9	826.666666666667	0.9	706.111111111111	12	336501	3	336490	28	40	336529	-999999	336504	0	22	TRSyncPROC	""	2	2	1	SessionSelectionList	119	22913	-999999	0	32	23486	-999999	0																																																	1	InitialTR	2	3	ReadyList	1	3	8	47036	-9	49027	0	3
WM080112	118730_fnca	2	1	1	933337378	1	75.031	75.031	2.0.10.147	2.0.10.242	2.0.10.242	1.0.0.439	7	234	2	3	Verdana	1	80	0	0	0	WM Stimuli\	0.7	1056.85714285714	1	824.8	1	1191	0.9	733.333333333333	1	1103.1	0.9	868.111111111111	0.9	826.666666666667	0.9	706.111111111111	12	336501	3	336490	28	40	336529	-999999	336504	0	22	TRSyncPROC	""	2	2	1	SessionSelectionList	119	22913	-999999	0	32	23486	-999999	0																																																	1	InitialTR	1	4	ReadyList	1	4	7	49035	-8	51027	0	4
WM080112	118730_fnca	2	1	1	933337378	1	75.031	75.031	2.0.10.147	2.0.10.242	2.0.10.242	1.0.0.439	7	234	2	3	Verdana	1	80	0	0	0	WM Stimuli\	0.7	1056.85714285714	1	824.8	1	1191	0.9	733.333333333333	1	1103.1	0.9	868.111111111111	0.9	826.666666666667	0.9	706.111111111111	12	336501	3	336490	28	40	336529	-999999	336504	0	23	Cue2BackPROC	""	2	2	2	SessionSelectionList									6	51034	-7	0																																													2												
WM080112	118730_fnca	2	1	1	933337378	1	75.031	75.031	2.0.10.147	2.0.10.242	2.0.10.242	1.0.0.439	7	234	2	3	Verdana	1	80	0	0	0	WM Stimuli\	0.7	1056.85714285714	1	824.8	1	1191	0.9	733.333333333333	1	1103.1	0.9	868.111111111111	0.9	826.666666666667	0.9	706.111111111111	12	336501	3	336490	28	40	336529	-999999	336504	0	24	TrialsPROC	TO_014_TOOL14_BA.png	2	2	3	SessionSelectionList														nonlure	3	Tools	2-Back	2	80	1	0	0	0	1	52	55659	3	14	79	53607	-1	54042	1	435	3	3	2052	66	55673	-67	0																3												
WM080112	118730_fnca	2	1	1	933337378	1	75.031	75.031	2.0.10.147	2.0.10.242	2.0.10.242	1.0.0.439	7	234	2	3	Verdana	1	80	0	0	0	WM Stimuli\	0.7	1056.85714285714	1	824.8	1	1191	0.9	733.333333333333	1	1103.1	0.9	868.111111111111	0.9	826.666666666667	0.9	706.111111111111	12	336501	3	336490	28	40	336529	-999999	336504	0	24	TrialsPROC	TO_013_TOOL13_BA.png	2	2	4	SessionSelectionList														nonlure	3	Tools	2-Back	3	80	2	0	0	0	2	39	58205	2	14	59	56166	-1	56886	1	720	3	3	2039	53	58219	-54	0																4												
WM080112	118730_fnca	2	1	1	933337378	1	75.031	75.031	2.0.10.147	2.0.10.242	2.0.10.242	1.0.0.439	7	234	2	3	Verdana	1	80	0	0	0	WM Stimuli\	0.7	1056.85714285714	1	824.8	1	1191	0.9	733.333333333333	1	1103.1	0.9	868.111111111111	0.9	826.666666666667	0.9	706.111111111111	12	336501	3	336490	28	40	336529	-999999	336504	0	24	TrialsPROC	TO_016_TOOL16_BA.png	2	2	5	SessionSelectionList														nonlure	3	Tools	2-Back	4	80	3	0	0	0	3	39	60764	1	14	59	58725	-1	59432	1	707	3	3	2039	53	60778	-54	0																5												
WM080112	118730_fnca	2	1	1	933337378	1	75.031	75.031	2.0.10.147	2.0.10.242	2.0.10.242	1.0.0.439	7	234	2	3	Verdana	1	80	0	0	0	WM Stimuli\	0.7	1056.85714285714	1	824.8	1	1191	0.9	733.333333333333	1	1103.1	0.9	868.111111111111	0.9	826.666666666667	0.9	706.111111111111	12	336501	3	336490	28	40	336529	-999999	336504	0	24	TrialsPROC	TO_014_TOOL14_BA.png	2	2	6	SessionSelectionList														lure	3	Tools	2-Back	5	80	4	0	0	0	4	39	63336	1	14	72	61297	-1	62651	1	1354	3	3	2039	53	63350	-54	0																6												
WM080112	118730_fnca	2	1	1	933337378	1	75.031	75.031	2.0.10.147	2.0.10.242	2.0.10.242	1.0.0.439	7	234	2	3	Verdana	1	80	0	0	0	WM Stimuli\	0.7	1056.85714285714	1	824.8	1	1191	0.9	733.333333333333	1	1103.1	0.9	868.111111111111	0.9	826.666666666667	0.9	706.111111111111	12	336501	3	336490	28	40	336529	-999999	336504	0	24	TrialsPROC	TO_016_TOOL16_BA.png	2	2	7	SessionSelectionList														target	2	Tools	2-Back	6	80	5	0	0	0	1	39	65895	2	14	59	63856	-1	65089	1	1233	2	2	2039	53	65909	-54	0																7												
WM080112	118730_fnca	2	1	1	933337378	1	75.031	75.031	2.0.10.147	2.0.10.242	2.0.10.242	1.0.0.439	7	234	2	3	Verdana	1	80	0	0	0	WM Stimuli\	0.7	1056.85714285714	1	824.8	1	1191	0.9	733.333333333333	1	1103.1	0.9	868.111111111111	0.9	826.666666666667	0.9	706.111111111111	12	336501	3	336490	28	40	336529	-999999	336504	0	24	TrialsPROC	TO_018_TOOL18_BA.png	2	2	8	SessionSelectionList														nonlure	3	Tools	2-Back	7	80	6	0	0	0	1	39	68454	1	14	59	66415	-1	67102	1	687	3	3	2039	53	68468	-54	0																8												
WM080112	118730_fnca	2	1	1	933337378	1	75.031	75.031	2.0.10.147	2.0.10.242	2.0.10.242	1.0.0.439	7	234	2	3	Verdana	1	80	0	0	0	WM Stimuli\	0.7	1056.85714285714	1	824.8	1	1191	0.9	733.333333333333	1	1103.1	0.9	868.111111111111	0.9	826.666666666667	0.9	706.111111111111	12	336501	3	336490	28	40	336529	-999999	336504	0	24	TrialsPROC	TO_017_TOOL17_BA.png	2	2	9	SessionSelectionList														nonlure	3	Tools	2-Back	8	80	7	0	0	0	2	39	71013	1	14	59	68974	-1	69808	1	834	3	3	2039	53	71027	-54	0																9												
WM080112	118730_fnca	2	1	1	933337378	1	75.031	75.031	2.0.10.147	2.0.10.242	2.0.10.242	1.0.0.439	7	234	2	3	Verdana	1	80	0	0	0	WM Stimuli\	0.7	1056.85714285714	1	824.8	1	1191	0.9	733.333333333333	1	1103.1	0.9	868.111111111111	0.9	826.666666666667	0.9	706.111111111111	12	336501	3	336490	28	40	336529	-999999	336504	0	24	TrialsPROC	TO_018_TOOL18_BA.png	2	2	10	SessionSelectionList														target	2	Tools	2-Back	9	80	8	0	0	0	1	39	73572	1	14	59	71533	-1	72247	1	714	2	2	2039	53	73586	-54	0																10												
WM080112	118730_fnca	2	1	1	933337378	1	75.031	75.031	2.0.10.147	2.0.10.242	2.0.10.242	1.0.0.439	7	234	2	3	Verdana	1	80	0	0	0	WM Stimuli\	0.7	1056.85714285714	1	824.8	1	1191	0.9	733.333333333333	1	1103.1	0.9	868.111111111111	0.9	826.666666666667	0.9	706.111111111111	12	336501	3	336490	28	40	336529	-999999	336504	0	24	TrialsPROC	TO_015_TOOL15_BA.png	2	2	11	SessionSelectionList														nonlure	3	Tools	2-Back	10	80	9	0	0	0	1	39	76131	1	13	59	74092	-1	74848	1	756	3	3	2039	52	76144	-53	0																11												
WM080112	118730_fnca	2	1	1	933337378	1	75.031	75.031	2.0.10.147	2.0.10.242	2.0.10.242	1.0.0.439	7	234	2	3	Verdana	1	80	0	0	0	WM Stimuli\	0.7	1056.85714285714	1	824.8	1	1191	0.9	733.333333333333	1	1103.1	0.9	868.111111111111	0.9	826.666666666667	0.9	706.111111111111	12	336501	3	336490	28	40	336529	-999999	336504	0	24	TrialsPROC	TO_017_TOOL17_BA.png	2	2	12	SessionSelectionList														lure	3	Tools	2-Back	11	80	10	0	0	0	1	40	78690	1	13	58	76650	-1	77548	0	898	2	3	2040	53	78703	-54	0																12												
WM080112	118730_fnca	2	1	1	933337378	1	75.031	75.031	2.0.10.147	2.0.10.242	2.0.10.242	1.0.0.439	7	234	2	3	Verdana	1	80	0	0	0	WM Stimuli\	0.7	1056.85714285714	1	824.8	1	1191	0.9	733.333333333333	1	1103.1	0.9	868.111111111111	0.9	826.666666666667	0.9	706.111111111111	12	336501	3	336490	28	40	336529	-999999	336504	0	25	Cue0BackPROC	BP_013_BP7_BA.png	2	2	13	SessionSelectionList																																										19	79169	-20	0												13												
WM080112	118730_fnca	2	1	1	933337378	1	75.031	75.031	2.0.10.147	2.0.10.242	2.0.10.242	1.0.0.439	7	234	2	3	Verdana	1	80	0	0	0	WM Stimuli\	0.7	1056.85714285714	1	824.8	1	1191	0.9	733.333333333333	1	1103.1	0.9	868.111111111111	0.9	826.666666666667	0.9	706.111111111111	12	336501	3	336490	28	40	336529	-999999	336504	0	26	TrialsPROC	BP_015_H10-T_BA.png	2	2	14	SessionSelectionList														nonlure	3	Body	0-Back	12	80	11	0	0	100	1	39	83754	2	14	65	81715	-1	82891	1	1176	3	3	2039	53	83768	-54	0																14												
WM080112	118730_fnca	2	1	1	933337378	1	75.031	75.031	2.0.10.147	2.0.10.242	2.0.10.242	1.0.0.439	7	234	2	3	Verdana	1	80	0	0	0	WM Stimuli\	0.7	1056.85714285714	1	824.8	1	1191	0.9	733.333333333333	1	1103.1	0.9	868.111111111111	0.9	826.666666666667	0.9	706.111111111111	12	336501	3	336490	28	40	336529	-999999	336504	0	26	TrialsPROC	BP_018_H13-T_BA.png	2	2	15	SessionSelectionList														nonlure	3	Body	0-Back	13	80	12	0	0	100	2	39	86313	1	14	59	84274	-1	85066	1	792	3	3	2039	53	86327	-54	0																15												
WM080112	118730_fnca	2	1	1	933337378	1	75.031	75.031	2.0.10.147	2.0.10.242	2.0.10.242	1.0.0.439	7	234	2	3	Verdana	1	80	0	0	0	WM Stimuli\	0.7	1056.85714285714	1	824.8	1	1191	0.9	733.333333333333	1	1103.1	0.9	868.111111111111	0.9	826.666666666667	0.9	706.111111111111	12	336501	3	336490	28	40	336529	-999999	336504	0	26	TrialsPROC	BP_014_BP9_BA.png	2	2	16	SessionSelectionList														nonlure	3	Body	0-Back	14	80	13	0	0	100	3	39	88885	2	14	72	86846	-1	88287	1	1441	3	3	2039	53	88899	-54	0																16												
WM080112	118730_fnca	2	1	1	933337378	1	75.031	75.031	2.0.10.147	2.0.10.242	2.0.10.242	1.0.0.439	7	234	2	3	Verdana	1	80	0	0	0	WM Stimuli\	0.7	1056.85714285714	1	824.8	1	1191	0.9	733.333333333333	1	1103.1	0.9	868.111111111111	0.9	826.666666666667	0.9	706.111111111111	12	336501	3	336490	28	40	336529	-999999	336504	0	26	TrialsPROC	BP_018_H13-T_BA.png	2	2	17	SessionSelectionList														lure	3	Body	0-Back	15	80	14	0	0	100	4	39	91444	2	14	59	89405	-1	90305	1	900	3	3	2039	53	91458	-54	0																17												
WM080112	118730_fnca	2	1	1	933337378	1	75.031	75.031	2.0.10.147	2.0.10.242	2.0.10.242	1.0.0.439	7	234	2	3	Verdana	1	80	0	0	0	WM Stimuli\	0.7	1056.85714285714	1	824.8	1	1191	0.9	733.333333333333	1	1103.1	0.9	868.111111111111	0.9	826.666666666667	0.9	706.111111111111	12	336501	3	336490	28	40	336529	-999999	336504	0	26	TrialsPROC	BP_013_BP7_BA.png	2	2	18	SessionSelectionList														target	2	Body	0-Back	16	80	15	0	0	100	1	39	94003	2	14	59	91964	-1	92577	1	613	2	2	2039	53	94017	-54	0																18												
WM080112	118730_fnca	2	1	1	933337378	1	75.031	75.031	2.0.10.147	2.0.10.242	2.0.10.242	1.0.0.439	7	234	2	3	Verdana	1	80	0	0	0	WM Stimuli\	0.7	1056.85714285714	1	824.8	1	1191	0.9	733.333333333333	1	1103.1	0.9	868.111111111111	0.9	826.666666666667	0.9	706.111111111111	12	336501	3	336490	28	40	336529	-999999	336504	0	26	TrialsPROC	BP_015_H10-T_BA.png	2	2	19	SessionSelectionList														lure	3	Body	0-Back	17	80	16	0	0	100	1	39	96562	1	14	59	94523	-1	95093	1	570	3	3	2039	53	96576	-54	0																19												
WM080112	118730_fnca	2	1	1	933337378	1	75.031	75.031	2.0.10.147	2.0.10.242	2.0.10.242	1.0.0.439	7	234	2	3	Verdana	1	80	0	0	0	WM Stimuli\	0.7	1056.85714285714	1	824.8	1	1191	0.9	733.333333333333	1	1103.1	0.9	868.111111111111	0.9	826.666666666667	0.9	706.111111111111	12	336501	3	336490	28	40	336529	-999999	336504	0	26	TrialsPROC	BP_016_H11-T_BA.png	2	2	20	SessionSelectionList														nonlure	3	Body	0-Back	18	80	17	0	0	100	2	39	99121	1	14	59	97082	-1	97906	1	824	3	3	2039	53	99135	-54	0																20												
WM080112	118730_fnca	2	1	1	933337378	1	75.031	75.031	2.0.10.147	2.0.10.242	2.0.10.242	1.0.0.439	7	234	2	3	Verdana	1	80	0	0	0	WM Stimuli\	0.7	1056.85714285714	1	824.8	1	1191	0.9	733.333333333333	1	1103.1	0.9	868.111111111111	0.9	826.666666666667	0.9	706.111111111111	12	336501	3	336490	28	40	336529	-999999	336504	0	26	TrialsPROC	BP_013_BP7_BA.png	2	2	21	SessionSelectionList														target	2	Body	0-Back	19	80	18	0	0	100	1	39	101680	1	14	59	99641	-1	100286	1	645	2	2	2039	53	101694	-54	0																21												
WM080112	118730_fnca	2	1	1	933337378	1	75.031	75.031	2.0.10.147	2.0.10.242	2.0.10.242	1.0.0.439	7	234	2	3	Verdana	1	80	0	0	0	WM Stimuli\	0.7	1056.85714285714	1	824.8	1	1191	0.9	733.333333333333	1	1103.1	0.9	868.111111111111	0.9	826.666666666667	0.9	706.111111111111	12	336501	3	336490	28	40	336529	-999999	336504	0	26	TrialsPROC	BP_017_H12-T_BA.png	2	2	22	SessionSelectionList														nonlure	3	Body	0-Back	20	80	19	0	0	100	1	39	104239	1	14	59	102200	-1	102721	1	521	3	3	2039	53	104253	-54	0																22												
WM080112	118730_fnca	2	1	1	933337378	1	75.031	75.031	2.0.10.147	2.0.10.242	2.0.10.242	1.0.0.439	7	234	2	3	Verdana	1	80	0	0	0	WM Stimuli\	0.7	1056.85714285714	1	824.8	1	1191	0.9	733.333333333333	1	1103.1	0.9	868.111111111111	0.9	826.666666666667	0.9	706.111111111111	12	336501	3	336490	28	40	336529	-999999	336504	0	26	TrialsPROC	BP_014_BP9_BA.png	2	2	23	SessionSelectionList														lure	3	Body	0-Back	21	80	20	0	0	100	2	39	106798	1	14	59	104759	-1	105525	1	766	3	3	2039	53	106812	-54	0																23												
WM080112	118730_fnca	2	1	1	933337378	1	75.031	75.031	2.0.10.147	2.0.10.242	2.0.10.242	1.0.0.439	7	234	2	3	Verdana	1	80	0	0	0	WM Stimuli\	0.7	1056.85714285714	1	824.8	1	1191	0.9	733.333333333333	1	1103.1	0.9	868.111111111111	0.9	826.666666666667	0.9	706.111111111111	12	336501	3	336490	28	40	336529	-999999	336504	0	27	Fix15secPROC	""	2	2	24	SessionSelectionList																																															6	107265	-7	0							24												
WM080112	118730_fnca	2	1	1	933337378	1	75.031	75.031	2.0.10.147	2.0.10.242	2.0.10.242	1.0.0.439	7	234	2	3	Verdana	1	80	0	0	0	WM Stimuli\	0.7	1056.85714285714	1	824.8	1	1191	0.9	733.333333333333	1	1103.1	0.9	868.111111111111	0.9	826.666666666667	0.9	706.111111111111	12	336501	3	336490	28	40	336529	-999999	336504	0	28	Cue2BackPROC	""	2	2	25	SessionSelectionList									12	122271	-13	0																																													25												
WM080112	118730_fnca	2	1	1	933337378	1	75.031	75.031	2.0.10.147	2.0.10.242	2.0.10.242	1.0.0.439	7	234	2	3	Verdana	1	80	0	0	0	WM Stimuli\	0.7	1056.85714285714	1	824.8	1	1191	0.9	733.333333333333	1	1103.1	0.9	868.111111111111	0.9	826.666666666667	0.9	706.111111111111	12	336501	3	336490	28	40	336529	-999999	336504	0	29	TrialsPROC	FC_015_M8.png	2	2	26	SessionSelectionList														nonlure	3	Face	2-Back	22	80	21	0	0	100	3	39	126869	2	14	71	124830	-1	126618	1	1788	3	3	2039	53	126883	-54	0																26												
WM080112	118730_fnca	2	1	1	933337378	1	75.031	75.031	2.0.10.147	2.0.10.242	2.0.10.242	1.0.0.439	7	234	2	3	Verdana	1	80	0	0	0	WM Stimuli\	0.7	1056.85714285714	1	824.8	1	1191	0.9	733.333333333333	1	1103.1	0.9	868.111111111111	0.9	826.666666666667	0.9	706.111111111111	12	336501	3	336490	28	40	336529	-999999	336504	0	29	TrialsPROC	FC_018_F9.png	2	2	27	SessionSelectionList														nonlure	3	Face	2-Back	23	80	22	0	0	100	4	40	129442	1	13	72	127402	-1	128309	1	907	3	3	2040	53	129455	-54	0																27												
WM080112	118730_fnca	2	1	1	933337378	1	75.031	75.031	2.0.10.147	2.0.10.242	2.0.10.242	1.0.0.439	7	234	2	3	Verdana	1	80	0	0	0	WM Stimuli\	0.7	1056.85714285714	1	824.8	1	1191	0.9	733.333333333333	1	1103.1	0.9	868.111111111111	0.9	826.666666666667	0.9	706.111111111111	12	336501	3	336490	28	40	336529	-999999	336504	0	29	TrialsPROC	FC_018_F9.png	2	2	28	SessionSelectionList														lure	3	Face	2-Back	24	80	23	0	0	100	5	39	132014	1	14	73	129975	-1	131242	1	1267	3	3	2039	53	132028	-54	0																28												
WM080112	118730_fnca	2	1	1	933337378	1	75.031	75.031	2.0.10.147	2.0.10.242	2.0.10.242	1.0.0.439	7	234	2	3	Verdana	1	80	0	0	0	WM Stimuli\	0.7	1056.85714285714	1	824.8	1	1191	0.9	733.333333333333	1	1103.1	0.9	868.111111111111	0.9	826.666666666667	0.9	706.111111111111	12	336501	3	336490	28	40	336529	-999999	336504	0	29	TrialsPROC	FC_017_M9.png	2	2	29	SessionSelectionList														nonlure	3	Face	2-Back	25	80	24	0	0	100	6	39	134586	2	14	72	132547	-1	133460	1	913	3	3	2039	53	134600	-54	0																29												
WM080112	118730_fnca	2	1	1	933337378	1	75.031	75.031	2.0.10.147	2.0.10.242	2.0.10.242	1.0.0.439	7	234	2	3	Verdana	1	80	0	0	0	WM Stimuli\	0.7	1056.85714285714	1	824.8	1	1191	0.9	733.333333333333	1	1103.1	0.9	868.111111111111	0.9	826.666666666667	0.9	706.111111111111	12	336501	3	336490	28	40	336529	-999999	336504	0	29	TrialsPROC	FC_017_M9.png	2	2	30	SessionSelectionList														lure	3	Face	2-Back	26	80	25	0	0	100	7	39	137158	2	14	72	135119	-1	136863	1	1744	3	3	2039	53	137172	-54	0																30												
WM080112	118730_fnca	2	1	1	933337378	1	75.031	75.031	2.0.10.147	2.0.10.242	2.0.10.242	1.0.0.439	7	234	2	3	Verdana	1	80	0	0	0	WM Stimuli\	0.7	1056.85714285714	1	824.8	1	1191	0.9	733.333333333333	1	1103.1	0.9	868.111111111111	0.9	826.666666666667	0.9	706.111111111111	12	336501	3	336490	28	40	336529	-999999	336504	0	29	TrialsPROC	FC_016_F8.png	2	2	31	SessionSelectionList														nonlure	3	Face	2-Back	27	80	26	0	0	100	8	39	139731	1	13	73	137692	-1	138892	1	1200	3	3	2039	52	139744	-53	0																31												
WM080112	118730_fnca	2	1	1	933337378	1	75.031	75.031	2.0.10.147	2.0.10.242	2.0.10.242	1.0.0.439	7	234	2	3	Verdana	1	80	0	0	0	WM Stimuli\	0.7	1056.85714285714	1	824.8	1	1191	0.9	733.333333333333	1	1103.1	0.9	868.111111111111	0.9	826.666666666667	0.9	706.111111111111	12	336501	3	336490	28	40	336529	-999999	336504	0	29	TrialsPROC	FC_013_M7.png	2	2	32	SessionSelectionList														nonlure	3	Face	2-Back	28	80	27	0	0	100	9	39	142303	1	14	72	140264	-1	141020	1	756	3	3	2039	53	142317	-54	0																32												
WM080112	118730_fnca	2	1	1	933337378	1	75.031	75.031	2.0.10.147	2.0.10.242	2.0.10.242	1.0.0.439	7	234	2	3	Verdana	1	80	0	0	0	WM Stimuli\	0.7	1056.85714285714	1	824.8	1	1191	0.9	733.333333333333	1	1103.1	0.9	868.111111111111	0.9	826.666666666667	0.9	706.111111111111	12	336501	3	336490	28	40	336529	-999999	336504	0	29	TrialsPROC	FC_014_F7.png	2	2	33	SessionSelectionList														nonlure	3	Face	2-Back	29	80	28	0	0	100	10	39	144875	2	14	72	142836	-1	143519	1	683	3	3	2039	53	144889	-54	0																33												
WM080112	118730_fnca	2	1	1	933337378	1	75.031	75.031	2.0.10.147	2.0.10.242	2.0.10.242	1.0.0.439	7	234	2	3	Verdana	1	80	0	0	0	WM Stimuli\	0.7	1056.85714285714	1	824.8	1	1191	0.9	733.333333333333	1	1103.1	0.9	868.111111111111	0.9	826.666666666667	0.9	706.111111111111	12	336501	3	336490	28	40	336529	-999999	336504	0	29	TrialsPROC	FC_013_M7.png	2	2	34	SessionSelectionList														target	2	Face	2-Back	30	80	29	0	0	100	1	39	147447	2	14	72	145408	-1	146244	1	836	2	2	2039	53	147461	-54	0																34												
WM080112	118730_fnca	2	1	1	933337378	1	75.031	75.031	2.0.10.147	2.0.10.242	2.0.10.242	1.0.0.439	7	234	2	3	Verdana	1	80	0	0	0	WM Stimuli\	0.7	1056.85714285714	1	824.8	1	1191	0.9	733.333333333333	1	1103.1	0.9	868.111111111111	0.9	826.666666666667	0.9	706.111111111111	12	336501	3	336490	28	40	336529	-999999	336504	0	29	TrialsPROC	FC_014_F7.png	2	2	35	SessionSelectionList														target	2	Face	2-Back	31	80	30	0	0	100	2	39	150020	1	13	73	147981	-1	149797	1	1816	2	2	2039	52	150033	-53	0																35												
WM080112	118730_fnca	2	1	1	933337378	1	75.031	75.031	2.0.10.147	2.0.10.242	2.0.10.242	1.0.0.439	7	234	2	3	Verdana	1	80	0	0	0	WM Stimuli\	0.7	1056.85714285714	1	824.8	1	1191	0.9	733.333333333333	1	1103.1	0.9	868.111111111111	0.9	826.666666666667	0.9	706.111111111111	12	336501	3	336490	28	40	336529	-999999	336504	0	30	Cue0BackPROC	TO_019_TOOL19_BA.png	2	2	36	SessionSelectionList																																										18	150499	-19	0												36												
WM080112	118730_fnca	2	1	1	933337378	1	75.031	75.031	2.0.10.147	2.0.10.242	2.0.10.242	1.0.0.439	7	234	2	3	Verdana	1	80	0	0	0	WM Stimuli\	0.7	1056.85714285714	1	824.8	1	1191	0.9	733.333333333333	1	1103.1	0.9	868.111111111111	0.9	826.666666666667	0.9	706.111111111111	12	336501	3	336490	28	40	336529	-999999	336504	0	31	TrialsPROC	TO_019_TOOL19_BA.png	2	2	37	SessionSelectionList														target	2	Tools	0-Back	32	80	31	0	0	100	3	39	155071	1	14	51	153032	-1	154013	1	981	2	2	2039	53	155085	-54	0																37												
WM080112	118730_fnca	2	1	1	933337378	1	75.031	75.031	2.0.10.147	2.0.10.242	2.0.10.242	1.0.0.439	7	234	2	3	Verdana	1	80	0	0	0	WM Stimuli\	0.7	1056.85714285714	1	824.8	1	1191	0.9	733.333333333333	1	1103.1	0.9	868.111111111111	0.9	826.666666666667	0.9	706.111111111111	12	336501	3	336490	28	40	336529	-999999	336504	0	31	TrialsPROC	TO_024_TOOL24_BA.png	2	2	38	SessionSelectionList														nonlure	3	Tools	0-Back	33	80	32	0	0	100	1	39	157630	1	14	59	155591	-1	156245	1	654	3	3	2039	53	157644	-54	0																38												
WM080112	118730_fnca	2	1	1	933337378	1	75.031	75.031	2.0.10.147	2.0.10.242	2.0.10.242	1.0.0.439	7	234	2	3	Verdana	1	80	0	0	0	WM Stimuli\	0.7	1056.85714285714	1	824.8	1	1191	0.9	733.333333333333	1	1103.1	0.9	868.111111111111	0.9	826.666666666667	0.9	706.111111111111	12	336501	3	336490	28	40	336529	-999999	336504	0	31	TrialsPROC	TO_019_TOOL19_BA.png	2	2	39	SessionSelectionList														target	2	Tools	0-Back	34	80	33	0	0	100	1	39	160189	1	14	59	158150	-1	158694	1	544	2	2	2039	53	160203	-54	0																39												
WM080112	118730_fnca	2	1	1	933337378	1	75.031	75.031	2.0.10.147	2.0.10.242	2.0.10.242	1.0.0.439	7	234	2	3	Verdana	1	80	0	0	0	WM Stimuli\	0.7	1056.85714285714	1	824.8	1	1191	0.9	733.333333333333	1	1103.1	0.9	868.111111111111	0.9	826.666666666667	0.9	706.111111111111	12	336501	3	336490	28	40	336529	-999999	336504	0	31	TrialsPROC	TO_023_TOOL23_BA.png	2	2	40	SessionSelectionList														nonlure	3	Tools	0-Back	35	80	34	0	0	100	1	39	162748	1	13	59	160709	-1	161270	1	561	3	3	2039	52	162761	-53	0																40												
WM080112	118730_fnca	2	1	1	933337378	1	75.031	75.031	2.0.10.147	2.0.10.242	2.0.10.242	1.0.0.439	7	234	2	3	Verdana	1	80	0	0	0	WM Stimuli\	0.7	1056.85714285714	1	824.8	1	1191	0.9	733.333333333333	1	1103.1	0.9	868.111111111111	0.9	826.666666666667	0.9	706.111111111111	12	336501	3	336490	28	40	336529	-999999	336504	0	31	TrialsPROC	TO_020_TOOL20_BA.png	2	2	41	SessionSelectionList														nonlure	3	Tools	0-Back	36	80	35	0	0	100	2	40	165307	1	13	58	163267	-1	164021	1	754	3	3	2040	53	165320	-54	0																41												
WM080112	118730_fnca	2	1	1	933337378	1	75.031	75.031	2.0.10.147	2.0.10.242	2.0.10.242	1.0.0.439	7	234	2	3	Verdana	1	80	0	0	0	WM Stimuli\	0.7	1056.85714285714	1	824.8	1	1191	0.9	733.333333333333	1	1103.1	0.9	868.111111111111	0.9	826.666666666667	0.9	706.111111111111	12	336501	3	336490	28	40	336529	-999999	336504	0	31	TrialsPROC	TO_020_TOOL20_BA.png	2	2	42	SessionSelectionList														lure	3	Tools	0-Back	37	80	36	0	0	100	3	39	167865	2	14	59	165826	-1	166471	1	645	3	3	2039	53	167879	-54	0																42												
WM080112	118730_fnca	2	1	1	933337378	1	75.031	75.031	2.0.10.147	2.0.10.242	2.0.10.242	1.0.0.439	7	234	2	3	Verdana	1	80	0	0	0	WM Stimuli\	0.7	1056.85714285714	1	824.8	1	1191	0.9	733.333333333333	1	1103.1	0.9	868.111111111111	0.9	826.666666666667	0.9	706.111111111111	12	336501	3	336490	28	40	336529	-999999	336504	0	31	TrialsPROC	TO_022_TOOL22_BA.png	2	2	43	SessionSelectionList														nonlure	3	Tools	0-Back	38	80	37	0	0	100	4	39	170425	1	13	60	168386	-1	169370	1	984	3	3	2039	52	170438	-53	0																43												
WM080112	118730_fnca	2	1	1	933337378	1	75.031	75.031	2.0.10.147	2.0.10.242	2.0.10.242	1.0.0.439	7	234	2	3	Verdana	1	80	0	0	0	WM Stimuli\	0.7	1056.85714285714	1	824.8	1	1191	0.9	733.333333333333	1	1103.1	0.9	868.111111111111	0.9	826.666666666667	0.9	706.111111111111	12	336501	3	336490	28	40	336529	-999999	336504	0	31	TrialsPROC	TO_022_TOOL22_BA.png	2	2	44	SessionSelectionList														lure	3	Tools	0-Back	39	80	38	0	0	100	5	39	172983	2	14	58	170944	-1	171940	1	996	3	3	2039	53	172997	-54	0																44												
WM080112	118730_fnca	2	1	1	933337378	1	75.031	75.031	2.0.10.147	2.0.10.242	2.0.10.242	1.0.0.439	7	234	2	3	Verdana	1	80	0	0	0	WM Stimuli\	0.7	1056.85714285714	1	824.8	1	1191	0.9	733.333333333333	1	1103.1	0.9	868.111111111111	0.9	826.666666666667	0.9	706.111111111111	12	336501	3	336490	28	40	336529	-999999	336504	0	31	TrialsPROC	TO_021_TOOL21_BA.png	2	2	45	SessionSelectionList														nonlure	3	Tools	0-Back	40	80	39	0	0	95	1	39	175542	2	14	59	173503	-1	174552	0	1049	2	3	2039	53	175556	-54	0																45												
WM080112	118730_fnca	2	1	1	933337378	1	75.031	75.031	2.0.10.147	2.0.10.242	2.0.10.242	1.0.0.439	7	234	2	3	Verdana	1	80	0	0	0	WM Stimuli\	0.7	1056.85714285714	1	824.8	1	1191	0.9	733.333333333333	1	1103.1	0.9	868.111111111111	0.9	826.666666666667	0.9	706.111111111111	12	336501	3	336490	28	40	336529	-999999	336504	0	31	TrialsPROC	TO_021_TOOL21_BA.png	2	2	46	SessionSelectionList														lure	3	Tools	0-Back	41	80	40	0	0	95	1	39	178101	2	14	59	176062	-1	176298	1	236	3	3	2039	53	178115	-54	0																46												
WM080112	118730_fnca	2	1	1	933337378	1	75.031	75.031	2.0.10.147	2.0.10.242	2.0.10.242	1.0.0.439	7	234	2	3	Verdana	1	80	0	0	0	WM Stimuli\	0.7	1056.85714285714	1	824.8	1	1191	0.9	733.333333333333	1	1103.1	0.9	868.111111111111	0.9	826.666666666667	0.9	706.111111111111	12	336501	3	336490	28	40	336529	-999999	336504	0	32	Fix15secPROC	""	2	2	47	SessionSelectionList																																															6	178568	-7	0							47												
WM080112	118730_fnca	2	1	1	933337378	1	75.031	75.031	2.0.10.147	2.0.10.242	2.0.10.242	1.0.0.439	7	234	2	3	Verdana	1	80	0	0	0	WM Stimuli\	0.7	1056.85714285714	1	824.8	1	1191	0.9	733.333333333333	1	1103.1	0.9	868.111111111111	0.9	826.666666666667	0.9	706.111111111111	12	336501	3	336490	28	40	336529	-999999	336504	0	33	Cue2BackPROC	""	2	2	48	SessionSelectionList									13	193575	-14	0																																													48												
WM080112	118730_fnca	2	1	1	933337378	1	75.031	75.031	2.0.10.147	2.0.10.242	2.0.10.242	1.0.0.439	7	234	2	3	Verdana	1	80	0	0	0	WM Stimuli\	0.7	1056.85714285714	1	824.8	1	1191	0.9	733.333333333333	1	1103.1	0.9	868.111111111111	0.9	826.666666666667	0.9	706.111111111111	12	336501	3	336490	28	40	336529	-999999	336504	0	34	TrialsPROC	BP_020_H17-T_BA.png	2	2	49	SessionSelectionList														nonlure	3	Body	2-Back	42	80	41	0	0	95	2	39	198173	1	14	72	196134	-1	197200	1	1066	3	3	2039	53	198187	-54	0																49												
WM080112	118730_fnca	2	1	1	933337378	1	75.031	75.031	2.0.10.147	2.0.10.242	2.0.10.242	1.0.0.439	7	234	2	3	Verdana	1	80	0	0	0	WM Stimuli\	0.7	1056.85714285714	1	824.8	1	1191	0.9	733.333333333333	1	1103.1	0.9	868.111111111111	0.9	826.666666666667	0.9	706.111111111111	12	336501	3	336490	28	40	336529	-999999	336504	0	34	TrialsPROC	BP_019_H14-T_BA.png	2	2	50	SessionSelectionList														nonlure	3	Body	2-Back	43	80	42	0	0	95	3	39	200745	2	14	72	198706	-1	199462	1	756	3	3	2039	53	200759	-54	0																50												
WM080112	118730_fnca	2	1	1	933337378	1	75.031	75.031	2.0.10.147	2.0.10.242	2.0.10.242	1.0.0.439	7	234	2	3	Verdana	1	80	0	0	0	WM Stimuli\	0.7	1056.85714285714	1	824.8	1	1191	0.9	733.333333333333	1	1103.1	0.9	868.111111111111	0.9	826.666666666667	0.9	706.111111111111	12	336501	3	336490	28	40	336529	-999999	336504	0	34	TrialsPROC	BP_020_H17-T_BA.png	2	2	51	SessionSelectionList														target	2	Body	2-Back	44	80	43	0	0	95	4	39	203304	1	14	59	201265	-1	202268	0	1003	3	2	2039	53	203318	-54	0																51												
WM080112	118730_fnca	2	1	1	933337378	1	75.031	75.031	2.0.10.147	2.0.10.242	2.0.10.242	1.0.0.439	7	234	2	3	Verdana	1	80	0	0	0	WM Stimuli\	0.7	1056.85714285714	1	824.8	1	1191	0.9	733.333333333333	1	1103.1	0.9	868.111111111111	0.9	826.666666666667	0.9	706.111111111111	12	336501	3	336490	28	40	336529	-999999	336504	0	34	TrialsPROC	BP_019_H14-T_BA.png	2	2	52	SessionSelectionList														target	2	Body	2-Back	45	80	44	0	0	95	5	39	205863	1	14	59	203824	-1	205456	0	1632	3	2	2039	53	205877	-54	0																52												
WM080112	118730_fnca	2	1	1	933337378	1	75.031	75.031	2.0.10.147	2.0.10.242	2.0.10.242	1.0.0.439	7	234	2	3	Verdana	1	80	0	0	0	WM Stimuli\	0.7	1056.85714285714	1	824.8	1	1191	0.9	733.333333333333	1	1103.1	0.9	868.111111111111	0.9	826.666666666667	0.9	706.111111111111	12	336501	3	336490	28	40	336529	-999999	336504	0	34	TrialsPROC	BP_024_H3-T_BA.png	2	2	53	SessionSelectionList														nonlure	3	Body	2-Back	46	80	45	0	0	95	6	39	208422	1	14	59	206383	-1	207308	1	925	3	3	2039	53	208436	-54	0																53												
WM080112	118730_fnca	2	1	1	933337378	1	75.031	75.031	2.0.10.147	2.0.10.242	2.0.10.242	1.0.0.439	7	234	2	3	Verdana	1	80	0	0	0	WM Stimuli\	0.7	1056.85714285714	1	824.8	1	1191	0.9	733.333333333333	1	1103.1	0.9	868.111111111111	0.9	826.666666666667	0.9	706.111111111111	12	336501	3	336490	28	40	336529	-999999	336504	0	34	TrialsPROC	BP_024_H3-T_BA.png	2	2	54	SessionSelectionList														lure	3	Body	2-Back	47	80	46	0	0	95	1	39	210981	1	14	59	208942	-1	209964	0	1022	2	3	2039	53	210995	-54	0																54												
WM080112	118730_fnca	2	1	1	933337378	1	75.031	75.031	2.0.10.147	2.0.10.242	2.0.10.242	1.0.0.439	7	234	2	3	Verdana	1	80	0	0	0	WM Stimuli\	0.7	1056.85714285714	1	824.8	1	1191	0.9	733.333333333333	1	1103.1	0.9	868.111111111111	0.9	826.666666666667	0.9	706.111111111111	12	336501	3	336490	28	40	336529	-999999	336504	0	34	TrialsPROC	BP_025_H5-T_BA.png	2	2	55	SessionSelectionList														nonlure	3	Body	2-Back	48	80	47	0	0	95	1	39	213553	1	14	72	211514	-1	212476	1	962	3	3	2039	53	213567	-54	0																55												
WM080112	118730_fnca	2	1	1	933337378	1	75.031	75.031	2.0.10.147	2.0.10.242	2.0.10.242	1.0.0.439	7	234	2	3	Verdana	1	80	0	0	0	WM Stimuli\	0.7	1056.85714285714	1	824.8	1	1191	0.9	733.333333333333	1	1103.1	0.9	868.111111111111	0.9	826.666666666667	0.9	706.111111111111	12	336501	3	336490	28	40	336529	-999999	336504	0	34	TrialsPROC	BP_023_H25-T_BA.png	2	2	56	SessionSelectionList														nonlure	3	Body	2-Back	49	80	48	0	0	95	2	39	216125	2	14	72	214086	-1	215151	1	1065	3	3	2039	53	216139	-54	0																56												
WM080112	118730_fnca	2	1	1	933337378	1	75.031	75.031	2.0.10.147	2.0.10.242	2.0.10.242	1.0.0.439	7	234	2	3	Verdana	1	80	0	0	0	WM Stimuli\	0.7	1056.85714285714	1	824.8	1	1191	0.9	733.333333333333	1	1103.1	0.9	868.111111111111	0.9	826.666666666667	0.9	706.111111111111	12	336501	3	336490	28	40	336529	-999999	336504	0	34	TrialsPROC	BP_022_H24-T_BA.png	2	2	57	SessionSelectionList														nonlure	3	Body	2-Back	50	80	49	0	0	95	3	39	218684	2	14	59	216645	-1	217477	1	832	3	3	2039	53	218698	-54	0																57												
WM080112	118730_fnca	2	1	1	933337378	1	75.031	75.031	2.0.10.147	2.0.10.242	2.0.10.242	1.0.0.439	7	234	2	3	Verdana	1	80	0	0	0	WM Stimuli\	0.7	1056.85714285714	1	824.8	1	1191	0.9	733.333333333333	1	1103.1	0.9	868.111111111111	0.9	826.666666666667	0.9	706.111111111111	12	336501	3	336490	28	40	336529	-999999	336504	0	34	TrialsPROC	BP_022_H24-T_BA.png	2	2	58	SessionSelectionList														lure	3	Body	2-Back	51	80	50	0	0	95	4	39	221243	2	14	59	219204	-1	220996	1	1792	3	3	2039	53	221257	-54	0																58												
WM080112	118730_fnca	2	1	1	933337378	1	75.031	75.031	2.0.10.147	2.0.10.242	2.0.10.242	1.0.0.439	7	234	2	3	Verdana	1	80	0	0	0	WM Stimuli\	0.7	1056.85714285714	1	824.8	1	1191	0.9	733.333333333333	1	1103.1	0.9	868.111111111111	0.9	826.666666666667	0.9	706.111111111111	12	336501	3	336490	28	40	336529	-999999	336504	0	35	Cue2BackPROC	""	2	2	59	SessionSelectionList									6	221710	-7	0																																													59												
WM080112	118730_fnca	2	1	1	933337378	1	75.031	75.031	2.0.10.147	2.0.10.242	2.0.10.242	1.0.0.439	7	234	2	3	Verdana	1	80	0	0	0	WM Stimuli\	0.7	1056.85714285714	1	824.8	1	1191	0.9	733.333333333333	1	1103.1	0.9	868.111111111111	0.9	826.666666666667	0.9	706.111111111111	12	336501	3	336490	28	40	336529	-999999	336504	0	36	TrialsPROC	PL_019_SCENE_05.png	2	2	60	SessionSelectionList														nonlure	3	Place	2-Back	52	80	51	0	0	95	5	39	226308	1	13	65	224269	-1	225681	1	1412	3	3	2039	52	226321	-53	0																60												
WM080112	118730_fnca	2	1	1	933337378	1	75.031	75.031	2.0.10.147	2.0.10.242	2.0.10.242	1.0.0.439	7	234	2	3	Verdana	1	80	0	0	0	WM Stimuli\	0.7	1056.85714285714	1	824.8	1	1191	0.9	733.333333333333	1	1103.1	0.9	868.111111111111	0.9	826.666666666667	0.9	706.111111111111	12	336501	3	336490	28	40	336529	-999999	336504	0	36	TrialsPROC	PL_017_SCENE_03.png	2	2	61	SessionSelectionList														nonlure	3	Place	2-Back	53	80	52	0	0	95	6	39	228880	1	14	72	226841	-1	227878	1	1037	3	3	2039	53	228894	-54	0																61												
WM080112	118730_fnca	2	1	1	933337378	1	75.031	75.031	2.0.10.147	2.0.10.242	2.0.10.242	1.0.0.439	7	234	2	3	Verdana	1	80	0	0	0	WM Stimuli\	0.7	1056.85714285714	1	824.8	1	1191	0.9	733.333333333333	1	1103.1	0.9	868.111111111111	0.9	826.666666666667	0.9	706.111111111111	12	336501	3	336490	28	40	336529	-999999	336504	0	36	TrialsPROC	PL_017_SCENE_03.png	2	2	62	SessionSelectionList														lure	3	Place	2-Back	54	80	53	0	0	95	7	39	231452	2	14	72	229413	-1	230695	1	1282	3	3	2039	53	231466	-54	0																62												
WM080112	118730_fnca	2	1	1	933337378	1	75.031	75.031	2.0.10.147	2.0.10.242	2.0.10.242	1.0.0.439	7	234	2	3	Verdana	1	80	0	0	0	WM Stimuli\	0.7	1056.85714285714	1	824.8	1	1191	0.9	733.333333333333	1	1103.1	0.9	868.111111111111	0.9	826.666666666667	0.9	706.111111111111	12	336501	3	336490	28	40	336529	-999999	336504	0	36	TrialsPROC	PL_016_SCENE_02.png	2	2	63	SessionSelectionList														nonlure	3	Place	2-Back	55	80	54	0	0	95	8	39	234024	2	14	72	231985	-1	233368	1	1383	3	3	2039	53	234038	-54	0																63												
WM080112	118730_fnca	2	1	1	933337378	1	75.031	75.031	2.0.10.147	2.0.10.242	2.0.10.242	1.0.0.439	7	234	2	3	Verdana	1	80	0	0	0	WM Stimuli\	0.7	1056.85714285714	1	824.8	1	1191	0.9	733.333333333333	1	1103.1	0.9	868.111111111111	0.9	826.666666666667	0.9	706.111111111111	12	336501	3	336490	28	40	336529	-999999	336504	0	36	TrialsPROC	PL_015_SCENE_01.png	2	2	64	SessionSelectionList														nonlure	3	Place	2-Back	56	80	55	0	0	95	9	39	236597	1	13	73	234558	-1	235345	1	787	3	3	2039	52	236610	-53	0																64												
WM080112	118730_fnca	2	1	1	933337378	1	75.031	75.031	2.0.10.147	2.0.10.242	2.0.10.242	1.0.0.439	7	234	2	3	Verdana	1	80	0	0	0	WM Stimuli\	0.7	1056.85714285714	1	824.8	1	1191	0.9	733.333333333333	1	1103.1	0.9	868.111111111111	0.9	826.666666666667	0.9	706.111111111111	12	336501	3	336490	28	40	336529	-999999	336504	0	36	TrialsPROC	PL_016_SCENE_02.png	2	2	65	SessionSelectionList														target	2	Place	2-Back	57	80	56	0	0	95	1	39	239169	1	14	72	237130	-1	237779	1	649	2	2	2039	53	239183	-54	0																65												
WM080112	118730_fnca	2	1	1	933337378	1	75.031	75.031	2.0.10.147	2.0.10.242	2.0.10.242	1.0.0.439	7	234	2	3	Verdana	1	80	0	0	0	WM Stimuli\	0.7	1056.85714285714	1	824.8	1	1191	0.9	733.333333333333	1	1103.1	0.9	868.111111111111	0.9	826.666666666667	0.9	706.111111111111	12	336501	3	336490	28	40	336529	-999999	336504	0	36	TrialsPROC	PL_015_SCENE_01.png	2	2	66	SessionSelectionList														target	2	Place	2-Back	58	80	57	0	0	95	2	39	241741	2	14	72	239702	-1	241044	1	1342	2	2	2039	53	241755	-54	0																66												
WM080112	118730_fnca	2	1	1	933337378	1	75.031	75.031	2.0.10.147	2.0.10.242	2.0.10.242	1.0.0.439	7	234	2	3	Verdana	1	80	0	0	0	WM Stimuli\	0.7	1056.85714285714	1	824.8	1	1191	0.9	733.333333333333	1	1103.1	0.9	868.111111111111	0.9	826.666666666667	0.9	706.111111111111	12	336501	3	336490	28	40	336529	-999999	336504	0	36	TrialsPROC	PL_020_SCENE_06.png	2	2	67	SessionSelectionList														nonlure	3	Place	2-Back	59	80	58	0	0	95	1	39	244327	1	14	86	242288	-1	242966	1	678	3	3	2039	53	244341	-54	0																67												
WM080112	118730_fnca	2	1	1	933337378	1	75.031	75.031	2.0.10.147	2.0.10.242	2.0.10.242	1.0.0.439	7	234	2	3	Verdana	1	80	0	0	0	WM Stimuli\	0.7	1056.85714285714	1	824.8	1	1191	0.9	733.333333333333	1	1103.1	0.9	868.111111111111	0.9	826.666666666667	0.9	706.111111111111	12	336501	3	336490	28	40	336529	-999999	336504	0	36	TrialsPROC	PL_020_SCENE_06.png	2	2	68	SessionSelectionList														lure	3	Place	2-Back	60	80	59	0	0	95	2	39	246899	2	14	72	244860	-1	246083	1	1223	3	3	2039	53	246913	-54	0																68												
WM080112	118730_fnca	2	1	1	933337378	1	75.031	75.031	2.0.10.147	2.0.10.242	2.0.10.242	1.0.0.439	7	234	2	3	Verdana	1	80	0	0	0	WM Stimuli\	0.7	1056.85714285714	1	824.8	1	1191	0.9	733.333333333333	1	1103.1	0.9	868.111111111111	0.9	826.666666666667	0.9	706.111111111111	12	336501	3	336490	28	40	336529	-999999	336504	0	36	TrialsPROC	PL_018_SCENE_04.png	2	2	69	SessionSelectionList														nonlure	3	Place	2-Back	61	80	60	0	0	95	3	40	249485	1	13	85	247445	-1	248683	1	1238	3	3	2040	53	249498	-54	0																69												
WM080112	118730_fnca	2	1	1	933337378	1	75.031	75.031	2.0.10.147	2.0.10.242	2.0.10.242	1.0.0.439	7	234	2	3	Verdana	1	80	0	0	0	WM Stimuli\	0.7	1056.85714285714	1	824.8	1	1191	0.9	733.333333333333	1	1103.1	0.9	868.111111111111	0.9	826.666666666667	0.9	706.111111111111	12	336501	3	336490	28	40	336529	-999999	336504	0	37	Fix15secPROC	""	2	2	70	SessionSelectionList																																															7	249952	-8	0							70												
WM080112	118730_fnca	2	1	1	933337378	1	75.031	75.031	2.0.10.147	2.0.10.242	2.0.10.242	1.0.0.439	7	234	2	3	Verdana	1	80	0	0	0	WM Stimuli\	0.7	1056.85714285714	1	824.8	1	1191	0.9	733.333333333333	1	1103.1	0.9	868.111111111111	0.9	826.666666666667	0.9	706.111111111111	12	336501	3	336490	28	40	336529	-999999	336504	0	38	Cue0BackPROC	FC_020_F10.png	2	2	71	SessionSelectionList																																										40	264985	-41	0												71												
WM080112	118730_fnca	2	1	1	933337378	1	75.031	75.031	2.0.10.147	2.0.10.242	2.0.10.242	1.0.0.439	7	234	2	3	Verdana	1	80	0	0	0	WM Stimuli\	0.7	1056.85714285714	1	824.8	1	1191	0.9	733.333333333333	1	1103.1	0.9	868.111111111111	0.9	826.666666666667	0.9	706.111111111111	12	336501	3	336490	28	40	336529	-999999	336504	0	39	TrialsPROC	FC_024_F12.png	2	2	72	SessionSelectionList														nonlure	3	Face	0-Back	62	80	61	0	0	95	4	40	269570	1	13	85	267530	-1	268264	1	734	3	3	2040	53	269583	-54	0																72												
WM080112	118730_fnca	2	1	1	933337378	1	75.031	75.031	2.0.10.147	2.0.10.242	2.0.10.242	1.0.0.439	7	234	2	3	Verdana	1	80	0	0	0	WM Stimuli\	0.7	1056.85714285714	1	824.8	1	1191	0.9	733.333333333333	1	1103.1	0.9	868.111111111111	0.9	826.666666666667	0.9	706.111111111111	12	336501	3	336490	28	40	336529	-999999	336504	0	39	TrialsPROC	FC_023_M12.png	2	2	73	SessionSelectionList														nonlure	3	Face	0-Back	63	80	62	0	0	95	5	39	272155	2	14	86	270116	-1	270709	1	593	3	3	2039	53	272169	-54	0																73												
WM080112	118730_fnca	2	1	1	933337378	1	75.031	75.031	2.0.10.147	2.0.10.242	2.0.10.242	1.0.0.439	7	234	2	3	Verdana	1	80	0	0	0	WM Stimuli\	0.7	1056.85714285714	1	824.8	1	1191	0.9	733.333333333333	1	1103.1	0.9	868.111111111111	0.9	826.666666666667	0.9	706.111111111111	12	336501	3	336490	28	40	336529	-999999	336504	0	39	TrialsPROC	FC_020_F10.png	2	2	74	SessionSelectionList														target	2	Face	0-Back	64	80	63	0	0	96	1	39	274727	2	14	72	272688	-1	273376	1	688	2	2	2039	53	274741	-54	0																74												
WM080112	118730_fnca	2	1	1	933337378	1	75.031	75.031	2.0.10.147	2.0.10.242	2.0.10.242	1.0.0.439	7	234	2	3	Verdana	1	80	0	0	0	WM Stimuli\	0.7	1056.85714285714	1	824.8	1	1191	0.9	733.333333333333	1	1103.1	0.9	868.111111111111	0.9	826.666666666667	0.9	706.111111111111	12	336501	3	336490	28	40	336529	-999999	336504	0	39	TrialsPROC	FC_024_F12.png	2	2	75	SessionSelectionList														lure	3	Face	0-Back	65	80	64	0	0	96	1	39	277300	1	13	73	275261	-1	275839	1	578	3	3	2039	52	277313	-53	0																75												
WM080112	118730_fnca	2	1	1	933337378	1	75.031	75.031	2.0.10.147	2.0.10.242	2.0.10.242	1.0.0.439	7	234	2	3	Verdana	1	80	0	0	0	WM Stimuli\	0.7	1056.85714285714	1	824.8	1	1191	0.9	733.333333333333	1	1103.1	0.9	868.111111111111	0.9	826.666666666667	0.9	706.111111111111	12	336501	3	336490	28	40	336529	-999999	336504	0	39	TrialsPROC	FC_020_F10.png	2	2	76	SessionSelectionList														target	2	Face	0-Back	66	80	65	0	0	92	2	39	279872	1	14	72	277833	-1	278982	0	1149	3	2	2039	53	279886	-54	0																76												
WM080112	118730_fnca	2	1	1	933337378	1	75.031	75.031	2.0.10.147	2.0.10.242	2.0.10.242	1.0.0.439	7	234	2	3	Verdana	1	80	0	0	0	WM Stimuli\	0.7	1056.85714285714	1	824.8	1	1191	0.9	733.333333333333	1	1103.1	0.9	868.111111111111	0.9	826.666666666667	0.9	706.111111111111	12	336501	3	336490	28	40	336529	-999999	336504	0	39	TrialsPROC	FC_022_F11.png	2	2	77	SessionSelectionList														nonlure	3	Face	0-Back	67	80	66	0	0	92	3	39	282458	1	13	86	280419	-1	281239	1	820	3	3	2039	52	282471	-53	0																77												
WM080112	118730_fnca	2	1	1	933337378	1	75.031	75.031	2.0.10.147	2.0.10.242	2.0.10.242	1.0.0.439	7	234	2	3	Verdana	1	80	0	0	0	WM Stimuli\	0.7	1056.85714285714	1	824.8	1	1191	0.9	733.333333333333	1	1103.1	0.9	868.111111111111	0.9	826.666666666667	0.9	706.111111111111	12	336501	3	336490	28	40	336529	-999999	336504	0	39	TrialsPROC	FC_023_M12.png	2	2	78	SessionSelectionList														lure	3	Face	0-Back	68	80	67	0	0	93	4	39	285030	1	14	72	282991	-1	284006	1	1015	3	3	2039	53	285044	-54	0																78												
WM080112	118730_fnca	2	1	1	933337378	1	75.031	75.031	2.0.10.147	2.0.10.242	2.0.10.242	1.0.0.439	7	234	2	3	Verdana	1	80	0	0	0	WM Stimuli\	0.7	1056.85714285714	1	824.8	1	1191	0.9	733.333333333333	1	1103.1	0.9	868.111111111111	0.9	826.666666666667	0.9	706.111111111111	12	336501	3	336490	28	40	336529	-999999	336504	0	39	TrialsPROC	FC_021_M11.png	2	2	79	SessionSelectionList														nonlure	3	Face	0-Back	69	80	68	0	0	93	5	39	287615	2	14	85	285576	-1	286220	1	644	3	3	2039	53	287629	-54	0																79												
WM080112	118730_fnca	2	1	1	933337378	1	75.031	75.031	2.0.10.147	2.0.10.242	2.0.10.242	1.0.0.439	7	234	2	3	Verdana	1	80	0	0	0	WM Stimuli\	0.7	1056.85714285714	1	824.8	1	1191	0.9	733.333333333333	1	1103.1	0.9	868.111111111111	0.9	826.666666666667	0.9	706.111111111111	12	336501	3	336490	28	40	336529	-999999	336504	0	39	TrialsPROC	FC_021_M11.png	2	2	80	SessionSelectionList														lure	3	Face	0-Back	70	80	69	0	0	93	6	40	290188	1	13	72	288148	-1	288898	1	750	3	3	2040	53	290201	-54	0																80												
WM080112	118730_fnca	2	1	1	933337378	1	75.031	75.031	2.0.10.147	2.0.10.242	2.0.10.242	1.0.0.439	7	234	2	3	Verdana	1	80	0	0	0	WM Stimuli\	0.7	1056.85714285714	1	824.8	1	1191	0.9	733.333333333333	1	1103.1	0.9	868.111111111111	0.9	826.666666666667	0.9	706.111111111111	12	336501	3	336490	28	40	336529	-999999	336504	0	39	TrialsPROC	FC_019_M10.png	2	2	81	SessionSelectionList														nonlure	3	Face	0-Back	71	80	70	0	0	93	7	39	292773	2	14	86	290734	-1	291512	1	778	3	3	2039	53	292787	-54	0																81												
WM080112	118730_fnca	2	1	1	933337378	1	75.031	75.031	2.0.10.147	2.0.10.242	2.0.10.242	1.0.0.439	7	234	2	3	Verdana	1	80	0	0	0	WM Stimuli\	0.7	1056.85714285714	1	824.8	1	1191	0.9	733.333333333333	1	1103.1	0.9	868.111111111111	0.9	826.666666666667	0.9	706.111111111111	12	336501	3	336490	28	40	336529	-999999	336504	0	40	Cue0BackPROC	PL_021_SCENE_07.png	2	2	82	SessionSelectionList																																										32	293266	-33	0												82												
WM080112	118730_fnca	2	1	1	933337378	1	75.031	75.031	2.0.10.147	2.0.10.242	2.0.10.242	1.0.0.439	7	234	2	3	Verdana	1	80	0	0	0	WM Stimuli\	0.7	1056.85714285714	1	824.8	1	1191	0.9	733.333333333333	1	1103.1	0.9	868.111111111111	0.9	826.666666666667	0.9	706.111111111111	12	336501	3	336490	28	40	336529	-999999	336504	0	41	TrialsPROC	PL_025_SCENE_18.png	2	2	83	SessionSelectionList														nonlure	3	Place	0-Back	72	80	71	0	0	94	8	39	297851	1	14	78	295812	-1	296516	1	704	3	3	2039	53	297865	-54	0																83												
WM080112	118730_fnca	2	1	1	933337378	1	75.031	75.031	2.0.10.147	2.0.10.242	2.0.10.242	1.0.0.439	7	234	2	3	Verdana	1	80	0	0	0	WM Stimuli\	0.7	1056.85714285714	1	824.8	1	1191	0.9	733.333333333333	1	1103.1	0.9	868.111111111111	0.9	826.666666666667	0.9	706.111111111111	12	336501	3	336490	28	40	336529	-999999	336504	0	41	TrialsPROC	PL_026_SCENE_24.png	2	2	84	SessionSelectionList														nonlure	3	Place	0-Back	73	80	72	0	0	94	9	40	300437	1	13	85	298397	-1	299302	1	905	3	3	2040	53	300450	-54	0																84												
WM080112	118730_fnca	2	1	1	933337378	1	75.031	75.031	2.0.10.147	2.0.10.242	2.0.10.242	1.0.0.439	7	234	2	3	Verdana	1	80	0	0	0	WM Stimuli\	0.7	1056.85714285714	1	824.8	1	1191	0.9	733.333333333333	1	1103.1	0.9	868.111111111111	0.9	826.666666666667	0.9	706.111111111111	12	336501	3	336490	28	40	336529	-999999	336504	0	41	TrialsPROC	PL_025_SCENE_18.png	2	2	85	SessionSelectionList														lure	3	Place	0-Back	74	80	73	0	0	94	10	39	303009	1	14	73	300970	-1	302569	1	1599	3	3	2039	53	303023	-54	0																85												
WM080112	118730_fnca	2	1	1	933337378	1	75.031	75.031	2.0.10.147	2.0.10.242	2.0.10.242	1.0.0.439	7	234	2	3	Verdana	1	80	0	0	0	WM Stimuli\	0.7	1056.85714285714	1	824.8	1	1191	0.9	733.333333333333	1	1103.1	0.9	868.111111111111	0.9	826.666666666667	0.9	706.111111111111	12	336501	3	336490	28	40	336529	-999999	336504	0	41	TrialsPROC	PL_022_SCENE_08.png	2	2	86	SessionSelectionList														nonlure	3	Place	0-Back	75	80	74	0	0	94	11	39	305581	2	14	72	303542	-1	304631	1	1089	3	3	2039	53	305595	-54	0																86												
WM080112	118730_fnca	2	1	1	933337378	1	75.031	75.031	2.0.10.147	2.0.10.242	2.0.10.242	1.0.0.439	7	234	2	3	Verdana	1	80	0	0	0	WM Stimuli\	0.7	1056.85714285714	1	824.8	1	1191	0.9	733.333333333333	1	1103.1	0.9	868.111111111111	0.9	826.666666666667	0.9	706.111111111111	12	336501	3	336490	28	40	336529	-999999	336504	0	41	TrialsPROC	PL_026_SCENE_24.png	2	2	87	SessionSelectionList														lure	3	Place	0-Back	76	80	75	0	0	94	12	39	308153	2	14	72	306114	-1	306662	1	548	3	3	2039	53	308167	-54	0																87												
WM080112	118730_fnca	2	1	1	933337378	1	75.031	75.031	2.0.10.147	2.0.10.242	2.0.10.242	1.0.0.439	7	234	2	3	Verdana	1	80	0	0	0	WM Stimuli\	0.7	1056.85714285714	1	824.8	1	1191	0.9	733.333333333333	1	1103.1	0.9	868.111111111111	0.9	826.666666666667	0.9	706.111111111111	12	336501	3	336490	28	40	336529	-999999	336504	0	41	TrialsPROC	PL_021_SCENE_07.png	2	2	88	SessionSelectionList														target	2	Place	0-Back	77	80	76	0	0	94	1	40	310726	1	13	72	308686	-1	309306	1	620	2	2	2040	53	310739	-54	0																88												
WM080112	118730_fnca	2	1	1	933337378	1	75.031	75.031	2.0.10.147	2.0.10.242	2.0.10.242	1.0.0.439	7	234	2	3	Verdana	1	80	0	0	0	WM Stimuli\	0.7	1056.85714285714	1	824.8	1	1191	0.9	733.333333333333	1	1103.1	0.9	868.111111111111	0.9	826.666666666667	0.9	706.111111111111	12	336501	3	336490	28	40	336529	-999999	336504	0	41	TrialsPROC	PL_021_SCENE_07.png	2	2	89	SessionSelectionList														target	2	Place	0-Back	78	80	77	0	0	95	2	39	313298	1	14	73	311259	-1	311945	1	686	2	2	2039	53	313312	-54	0																89												
WM080112	118730_fnca	2	1	1	933337378	1	75.031	75.031	2.0.10.147	2.0.10.242	2.0.10.242	1.0.0.439	7	234	2	3	Verdana	1	80	0	0	0	WM Stimuli\	0.7	1056.85714285714	1	824.8	1	1191	0.9	733.333333333333	1	1103.1	0.9	868.111111111111	0.9	826.666666666667	0.9	706.111111111111	12	336501	3	336490	28	40	336529	-999999	336504	0	41	TrialsPROC	PL_023_SCENE_09.png	2	2	90	SessionSelectionList														nonlure	3	Place	0-Back	79	80	78	0	0	92	3	39	315883	2	14	85	313844	-1	314783	0	939	2	3	2039	53	315897	-54	0																90												
WM080112	118730_fnca	2	1	1	933337378	1	75.031	75.031	2.0.10.147	2.0.10.242	2.0.10.242	1.0.0.439	7	234	2	3	Verdana	1	80	0	0	0	WM Stimuli\	0.7	1056.85714285714	1	824.8	1	1191	0.9	733.333333333333	1	1103.1	0.9	868.111111111111	0.9	826.666666666667	0.9	706.111111111111	12	336501	3	336490	28	40	336529	-999999	336504	0	41	TrialsPROC	PL_024_SCENE_10.png	2	2	91	SessionSelectionList														nonlure	3	Place	0-Back	80	80	79	0	0	92	1	39	318456	1	14	73	316417	-1	317153	1	736	3	3	2039	53	318470	-54	0																91												
WM080112	118730_fnca	2	1	1	933337378	1	75.031	75.031	2.0.10.147	2.0.10.242	2.0.10.242	1.0.0.439	7	234	2	3	Verdana	1	80	0	0	0	WM Stimuli\	0.7	1056.85714285714	1	824.8	1	1191	0.9	733.333333333333	1	1103.1	0.9	868.111111111111	0.9	826.666666666667	0.9	706.111111111111	12	336501	3	336490	28	40	336529	-999999	336504	0	41	TrialsPROC	PL_022_SCENE_08.png	2	2	92	SessionSelectionList														lure	3	Place	0-Back	80	80	80	0	0	92	2	39	321028	1	14	72	318989	-1	319915	1	926	3	3	2039	53	321042	-54	0																92												
WM080112	118730_fnca	2	1	1	933337378	1	75.031	75.031	2.0.10.147	2.0.10.242	2.0.10.242	1.0.0.439	7	234	2	3	Verdana	1	80	0	0	0	WM Stimuli\	0.7	1056.85714285714	1	824.8	1	1191	0.9	733.333333333333	1	1103.1	0.9	868.111111111111	0.9	826.666666666667	0.9	706.111111111111	12	336501	3	336490	28	40	336529	-999999	336504	0	42	Fix15secPROC	""	2	2	93	SessionSelectionList																																															6	321495	-7	0							93												
