ExperimentName	HCPID	RunNumber	Subject	Session	RandomSeed	Group	Laptop.RefreshRate	ScannerD2.RefreshRate	StudioVersion	RuntimeVersion	RuntimeVersionExpected	ExperimentVersion	triggercode	Allowed	Target	Nontarget	FontStyle	RunTrialNumber[Session]	TrialsPerRun[Session]	TotalRespGreater200[Session]	ConsecRTLess200[Session]	ConsecNonResp[Session]	StimuliDir	ACC_2_Back_Body	Avg_RT_For_Correct_Trials_2_Back_Body	ACC_0_Back_Body	Avg_RT_For_Correct_Trials_0_Back_Body	ACC_2_Back_Face	Avg_RT_For_Correct_Trials_2_Back_Face	ACC_0_Back_Face	Avg_RT_For_Correct_Trials_0_Back_Face	ACC_2_Back_Place	Avg_RT_For_Correct_Trials_2_Back_Place	ACC_0_Back_Place	Avg_RT_For_Correct_Trials_0_Back_Place	ACC_2_Back_Tools	Avg_RT_For_Correct_Trials_2_Back_Tools	ACC_0_Back_Tools	Avg_RT_For_Correct_Trials_0_Back_Tools	ExpInstrucFeelFreeToRest.OnsetDelay	ExpInstrucFeelFreeToRest.OnsetTime	ExpInstrucFeelFreeToRest.DurationError	ExpInstrucFeelFreeToRest.StartTime	ExpInstrucFeelFreeToRest.OnsetToOnsetTime	FeelFreeToRest.OnsetDelay	FeelFreeToRest.OnsetTime	FeelFreeToRest.DurationError	FeelFreeToRest.StartTime	FeelFreeToRest.OnsetToOnsetTime	SessionSelectionList	Procedure[Block]	Stimulus[Block]	RunNumberFilterValue	SessionSelectionList.Cycle	SessionSelectionList.Sample	Running[Block]	IntroButtonMap.OnsetDelay	IntroButtonMap.OnsetTime	IntroButtonMap.DurationError	IntroButtonMap.OnsetToOnsetTime	GetReady.OnsetDelay	GetReady.OnsetTime	GetReady.DurationError	GetReady.OnsetToOnsetTime	Cue2Back.OnsetDelay	Cue2Back.OnsetTime	Cue2Back.DurationError	Cue2Back.OnsetToOnsetTime	Run1Block1	TargetType	CorrectResponse	StimType	BlockType	RunTrialNumber[Block]	TrialsPerRun[Block]	TotalRespGreater200[Block]	ConsecRTLess200[Block]	ConsecNonResp[Block]	ControlAcc	ConsecSameResp	ExperimenterWindow.OnsetDelay	ExperimenterWindow.OnsetTime	ExperimenterWindow.DurationError	ExperimenterWindow.OnsetToOnsetTime	Stim.OnsetDelay	Stim.OnsetTime	Stim.DurationError	Stim.RTTime	Stim.ACC	Stim.RT	Stim.RESP	Stim.CRESP	Stim.OnsetToOnsetTime	Fix.OnsetDelay	Fix.OnsetTime	Fix.DurationError	Fix.OnsetToOnsetTime	CueTarget.OnsetDelay	CueTarget.OnsetTime	CueTarget.DurationError	CueTarget.OnsetToOnsetTime	Run1Block2	Fix15sec.OnsetDelay	Fix15sec.OnsetTime	Fix15sec.DurationError	Fix15sec.OnsetToOnsetTime	Run1Block3	Run1Block4	Run1Block5	Run1Block6	Run1Block7	Run1Block8	Block	Procedure[Trial]	Stimulus[Trial]	ReadyList	Running[Trial]	ReadyList.Cycle	ReadyList.Sample	SyncSlide.OnsetDelay	SyncSlide.OnsetTime	SyncSlide.DurationError	SyncSlide.FinishTime	SyncSlide.OnsetToOnsetTime	Trial
WM080112	122317_fnca	1	1	1	624805660	1	75.031	75.030	2.0.10.147	2.0.10.242	2.0.10.242	1.0.0.439	7	234	2	3	Verdana	1	80	0	0	0	WM Stimuli\	0.9	1400	0.5	1264.8	0.6	1285.5	0.7	1358.28571428571	0.9	1255.11111111111	1	1160.6	0.8	1314.25	1	830.6	13	547136	2	547124	26	39	547162	-999999	547139	0	1	TRSyncPROC	""	1	2	1	SessionSelectionList	115	64386	-999999	0	38	239395	-999999	0																																																	1	InitialTR	4	1	ReadyList	1	1	21	253856	-22	255834	0	1
WM080112	122317_fnca	1	1	1	624805660	1	75.031	75.030	2.0.10.147	2.0.10.242	2.0.10.242	1.0.0.439	7	234	2	3	Verdana	1	80	0	0	0	WM Stimuli\	0.9	1400	0.5	1264.8	0.6	1285.5	0.7	1358.28571428571	0.9	1255.11111111111	1	1160.6	0.8	1314.25	1	830.6	13	547136	2	547124	26	39	547162	-999999	547139	0	1	TRSyncPROC	""	1	2	1	SessionSelectionList	115	64386	-999999	0	38	239395	-999999	0																																																	1	InitialTR	3	2	ReadyList	1	2	20	255855	-21	257834	0	2
WM080112	122317_fnca	1	1	1	624805660	1	75.031	75.030	2.0.10.147	2.0.10.242	2.0.10.242	1.0.0.439	7	234	2	3	Verdana	1	80	0	0	0	WM Stimuli\	0.9	1400	0.5	1264.8	0.6	1285.5	0.7	1358.28571428571	0.9	1255.11111111111	1	1160.6	0.8	1314.25	1	830.6	13	547136	2	547124	26	39	547162	-999999	547139	0	1	TRSyncPROC	""	1	2	1	SessionSelectionList	115	64386	-999999	0	38	239395	-999999	0																																																	1	InitialTR	2	3	ReadyList	1	3	6	257841	-7	259834	0	3
WM080112	122317_fnca	1	1	1	624805660	1	75.031	75.030	2.0.10.147	2.0.10.242	2.0.10.242	1.0.0.439	7	234	2	3	Verdana	1	80	0	0	0	WM Stimuli\	0.9	1400	0.5	1264.8	0.6	1285.5	0.7	1358.28571428571	0.9	1255.11111111111	1	1160.6	0.8	1314.25	1	830.6	13	547136	2	547124	26	39	547162	-999999	547139	0	1	TRSyncPROC	""	1	2	1	SessionSelectionList	115	64386	-999999	0	38	239395	-999999	0																																																	1	InitialTR	1	4	ReadyList	1	4	5	259840	-6	261834	0	4
WM080112	122317_fnca	1	1	1	624805660	1	75.031	75.030	2.0.10.147	2.0.10.242	2.0.10.242	1.0.0.439	7	234	2	3	Verdana	1	80	0	0	0	WM Stimuli\	0.9	1400	0.5	1264.8	0.6	1285.5	0.7	1358.28571428571	0.9	1255.11111111111	1	1160.6	0.8	1314.25	1	830.6	13	547136	2	547124	26	39	547162	-999999	547139	0	2	Cue2BackPROC	""	1	2	2	SessionSelectionList									17	261852	-18	0																																													2												
WM080112	122317_fnca	1	1	1	624805660	1	75.031	75.030	2.0.10.147	2.0.10.242	2.0.10.242	1.0.0.439	7	234	2	3	Verdana	1	80	0	0	0	WM Stimuli\	0.9	1400	0.5	1264.8	0.6	1285.5	0.7	1358.28571428571	0.9	1255.11111111111	1	1160.6	0.8	1314.25	1	830.6	13	547136	2	547124	26	39	547162	-999999	547139	0	3	TrialsPROC	BP_002_BP10_BA.png	1	2	3	SessionSelectionList													1	nonlure	3	Body	2-Back	2	80	1	0	0	0	1	53	266464	3	13	76	264411	-1	265414	1	1003	3	3	2053	66	266477	-67	0																3												
WM080112	122317_fnca	1	1	1	624805660	1	75.031	75.030	2.0.10.147	2.0.10.242	2.0.10.242	1.0.0.439	7	234	2	3	Verdana	1	80	0	0	0	WM Stimuli\	0.9	1400	0.5	1264.8	0.6	1285.5	0.7	1358.28571428571	0.9	1255.11111111111	1	1160.6	0.8	1314.25	1	830.6	13	547136	2	547124	26	39	547162	-999999	547139	0	3	TrialsPROC	BP_001_BP1_BA.png	1	2	4	SessionSelectionList													2	nonlure	3	Body	2-Back	3	80	2	0	0	0	2	39	269023	2	13	73	266984	-1	267955	1	971	3	3	2039	52	269036	-53	0																4												
WM080112	122317_fnca	1	1	1	624805660	1	75.031	75.030	2.0.10.147	2.0.10.242	2.0.10.242	1.0.0.439	7	234	2	3	Verdana	1	80	0	0	0	WM Stimuli\	0.9	1400	0.5	1264.8	0.6	1285.5	0.7	1358.28571428571	0.9	1255.11111111111	1	1160.6	0.8	1314.25	1	830.6	13	547136	2	547124	26	39	547162	-999999	547139	0	3	TrialsPROC	BP_006_BP2_BA.png	1	2	5	SessionSelectionList													3	nonlure	3	Body	2-Back	4	80	2	0	1	0	2	40	271582	1	13	58	269542	-1	0	0	0	""	3	2040	53	271595	-54	0																5												
WM080112	122317_fnca	1	1	1	624805660	1	75.031	75.030	2.0.10.147	2.0.10.242	2.0.10.242	1.0.0.439	7	234	2	3	Verdana	1	80	0	0	0	WM Stimuli\	0.9	1400	0.5	1264.8	0.6	1285.5	0.7	1358.28571428571	0.9	1255.11111111111	1	1160.6	0.8	1314.25	1	830.6	13	547136	2	547124	26	39	547162	-999999	547139	0	3	TrialsPROC	BP_001_BP1_BA.png	1	2	6	SessionSelectionList													4	target	2	Body	2-Back	5	80	3	0	0	0	1	39	274154	1	13	73	272115	-1	273827	1	1712	2	2	2039	52	274167	-53	0																6												
WM080112	122317_fnca	1	1	1	624805660	1	75.031	75.030	2.0.10.147	2.0.10.242	2.0.10.242	1.0.0.439	7	234	2	3	Verdana	1	80	0	0	0	WM Stimuli\	0.9	1400	0.5	1264.8	0.6	1285.5	0.7	1358.28571428571	0.9	1255.11111111111	1	1160.6	0.8	1314.25	1	830.6	13	547136	2	547124	26	39	547162	-999999	547139	0	3	TrialsPROC	BP_005_BP19_BA.png	1	2	7	SessionSelectionList													5	nonlure	3	Body	2-Back	6	80	4	0	0	0	1	39	276726	2	14	72	274687	-1	275890	1	1203	3	3	2039	53	276740	-54	0																7												
WM080112	122317_fnca	1	1	1	624805660	1	75.031	75.030	2.0.10.147	2.0.10.242	2.0.10.242	1.0.0.439	7	234	2	3	Verdana	1	80	0	0	0	WM Stimuli\	0.9	1400	0.5	1264.8	0.6	1285.5	0.7	1358.28571428571	0.9	1255.11111111111	1	1160.6	0.8	1314.25	1	830.6	13	547136	2	547124	26	39	547162	-999999	547139	0	3	TrialsPROC	BP_003_BP16_BA.png	1	2	8	SessionSelectionList													6	nonlure	3	Body	2-Back	7	80	5	0	0	0	2	39	279285	2	14	59	277246	-1	278586	1	1340	3	3	2039	53	279299	-54	0																8												
WM080112	122317_fnca	1	1	1	624805660	1	75.031	75.030	2.0.10.147	2.0.10.242	2.0.10.242	1.0.0.439	7	234	2	3	Verdana	1	80	0	0	0	WM Stimuli\	0.9	1400	0.5	1264.8	0.6	1285.5	0.7	1358.28571428571	0.9	1255.11111111111	1	1160.6	0.8	1314.25	1	830.6	13	547136	2	547124	26	39	547162	-999999	547139	0	3	TrialsPROC	BP_006_BP2_BA.png	1	2	9	SessionSelectionList													7	lure	3	Body	2-Back	8	80	6	0	0	0	3	39	281844	2	14	59	279805	-1	281606	1	1801	3	3	2039	53	281858	-54	0																9												
WM080112	122317_fnca	1	1	1	624805660	1	75.031	75.030	2.0.10.147	2.0.10.242	2.0.10.242	1.0.0.439	7	234	2	3	Verdana	1	80	0	0	0	WM Stimuli\	0.9	1400	0.5	1264.8	0.6	1285.5	0.7	1358.28571428571	0.9	1255.11111111111	1	1160.6	0.8	1314.25	1	830.6	13	547136	2	547124	26	39	547162	-999999	547139	0	3	TrialsPROC	BP_004_BP18_BA.png	1	2	10	SessionSelectionList													8	nonlure	3	Body	2-Back	9	80	7	0	0	0	4	39	284403	1	14	59	282364	-1	283955	1	1591	3	3	2039	53	284417	-54	0																10												
WM080112	122317_fnca	1	1	1	624805660	1	75.031	75.030	2.0.10.147	2.0.10.242	2.0.10.242	1.0.0.439	7	234	2	3	Verdana	1	80	0	0	0	WM Stimuli\	0.9	1400	0.5	1264.8	0.6	1285.5	0.7	1358.28571428571	0.9	1255.11111111111	1	1160.6	0.8	1314.25	1	830.6	13	547136	2	547124	26	39	547162	-999999	547139	0	3	TrialsPROC	BP_005_BP19_BA.png	1	2	11	SessionSelectionList													9	lure	3	Body	2-Back	10	80	8	0	0	0	5	39	286962	1	13	59	284923	-1	286718	1	1795	3	3	2039	52	286975	-53	0																11												
WM080112	122317_fnca	1	1	1	624805660	1	75.031	75.030	2.0.10.147	2.0.10.242	2.0.10.242	1.0.0.439	7	234	2	3	Verdana	1	80	0	0	0	WM Stimuli\	0.9	1400	0.5	1264.8	0.6	1285.5	0.7	1358.28571428571	0.9	1255.11111111111	1	1160.6	0.8	1314.25	1	830.6	13	547136	2	547124	26	39	547162	-999999	547139	0	3	TrialsPROC	BP_004_BP18_BA.png	1	2	12	SessionSelectionList													10	target	2	Body	2-Back	11	80	9	0	0	0	1	39	289521	1	13	59	287482	-1	288666	1	1184	2	2	2039	52	289534	-53	0																12												
WM080112	122317_fnca	1	1	1	624805660	1	75.031	75.030	2.0.10.147	2.0.10.242	2.0.10.242	1.0.0.439	7	234	2	3	Verdana	1	80	0	0	0	WM Stimuli\	0.9	1400	0.5	1264.8	0.6	1285.5	0.7	1358.28571428571	0.9	1255.11111111111	1	1160.6	0.8	1314.25	1	830.6	13	547136	2	547124	26	39	547162	-999999	547139	0	4	Cue0BackPROC	FC_001_M1.png	1	2	13	SessionSelectionList																																										19	290001	-20	0												13												
WM080112	122317_fnca	1	1	1	624805660	1	75.031	75.030	2.0.10.147	2.0.10.242	2.0.10.242	1.0.0.439	7	234	2	3	Verdana	1	80	0	0	0	WM Stimuli\	0.9	1400	0.5	1264.8	0.6	1285.5	0.7	1358.28571428571	0.9	1255.11111111111	1	1160.6	0.8	1314.25	1	830.6	13	547136	2	547124	26	39	547162	-999999	547139	0	5	TrialsPROC	FC_005_M3.png	1	2	14	SessionSelectionList														nonlure	3	Face	0-Back	12	80	9	0	1	0	1	40	294586	1	13	64	292546	-1	0	0	0	""	3	2040	53	294599	-54	0					1											14												
WM080112	122317_fnca	1	1	1	624805660	1	75.031	75.030	2.0.10.147	2.0.10.242	2.0.10.242	1.0.0.439	7	234	2	3	Verdana	1	80	0	0	0	WM Stimuli\	0.9	1400	0.5	1264.8	0.6	1285.5	0.7	1358.28571428571	0.9	1255.11111111111	1	1160.6	0.8	1314.25	1	830.6	13	547136	2	547124	26	39	547162	-999999	547139	0	5	TrialsPROC	FC_001_M1.png	1	2	15	SessionSelectionList														target	2	Face	0-Back	13	80	9	0	2	0	1	39	297158	1	13	73	295119	-1	0	0	0	""	2	2039	52	297171	-53	0					2											15												
WM080112	122317_fnca	1	1	1	624805660	1	75.031	75.030	2.0.10.147	2.0.10.242	2.0.10.242	1.0.0.439	7	234	2	3	Verdana	1	80	0	0	0	WM Stimuli\	0.9	1400	0.5	1264.8	0.6	1285.5	0.7	1358.28571428571	0.9	1255.11111111111	1	1160.6	0.8	1314.25	1	830.6	13	547136	2	547124	26	39	547162	-999999	547139	0	5	TrialsPROC	FC_003_M2.png	1	2	16	SessionSelectionList														nonlure	3	Face	0-Back	14	80	10	0	0	33	1	39	299730	2	14	72	297691	-1	299052	1	1361	3	3	2039	53	299744	-54	0					3											16												
WM080112	122317_fnca	1	1	1	624805660	1	75.031	75.030	2.0.10.147	2.0.10.242	2.0.10.242	1.0.0.439	7	234	2	3	Verdana	1	80	0	0	0	WM Stimuli\	0.9	1400	0.5	1264.8	0.6	1285.5	0.7	1358.28571428571	0.9	1255.11111111111	1	1160.6	0.8	1314.25	1	830.6	13	547136	2	547124	26	39	547162	-999999	547139	0	5	TrialsPROC	FC_004_F2.png	1	2	17	SessionSelectionList														nonlure	3	Face	0-Back	15	80	11	0	0	50	2	39	302302	2	14	72	300263	-1	301836	1	1573	3	3	2039	53	302316	-54	0					4											17												
WM080112	122317_fnca	1	1	1	624805660	1	75.031	75.030	2.0.10.147	2.0.10.242	2.0.10.242	1.0.0.439	7	234	2	3	Verdana	1	80	0	0	0	WM Stimuli\	0.9	1400	0.5	1264.8	0.6	1285.5	0.7	1358.28571428571	0.9	1255.11111111111	1	1160.6	0.8	1314.25	1	830.6	13	547136	2	547124	26	39	547162	-999999	547139	0	5	TrialsPROC	FC_004_F2.png	1	2	18	SessionSelectionList														lure	3	Face	0-Back	16	80	12	0	0	60	3	40	304875	1	13	72	302835	-1	303887	1	1052	3	3	2040	53	304888	-54	0					5											18												
WM080112	122317_fnca	1	1	1	624805660	1	75.031	75.030	2.0.10.147	2.0.10.242	2.0.10.242	1.0.0.439	7	234	2	3	Verdana	1	80	0	0	0	WM Stimuli\	0.9	1400	0.5	1264.8	0.6	1285.5	0.7	1358.28571428571	0.9	1255.11111111111	1	1160.6	0.8	1314.25	1	830.6	13	547136	2	547124	26	39	547162	-999999	547139	0	5	TrialsPROC	FC_001_M1.png	1	2	19	SessionSelectionList														target	2	Face	0-Back	17	80	13	0	0	67	1	39	307447	1	13	73	305408	-1	306898	1	1490	2	2	2039	52	307460	-53	0					6											19												
WM080112	122317_fnca	1	1	1	624805660	1	75.031	75.030	2.0.10.147	2.0.10.242	2.0.10.242	1.0.0.439	7	234	2	3	Verdana	1	80	0	0	0	WM Stimuli\	0.9	1400	0.5	1264.8	0.6	1285.5	0.7	1358.28571428571	0.9	1255.11111111111	1	1160.6	0.8	1314.25	1	830.6	13	547136	2	547124	26	39	547162	-999999	547139	0	5	TrialsPROC	FC_006_F3.png	1	2	20	SessionSelectionList														nonlure	3	Face	0-Back	18	80	14	0	0	71	1	39	310019	2	14	72	307980	-1	308821	1	841	3	3	2039	53	310033	-54	0					7											20												
WM080112	122317_fnca	1	1	1	624805660	1	75.031	75.030	2.0.10.147	2.0.10.242	2.0.10.242	1.0.0.439	7	234	2	3	Verdana	1	80	0	0	0	WM Stimuli\	0.9	1400	0.5	1264.8	0.6	1285.5	0.7	1358.28571428571	0.9	1255.11111111111	1	1160.6	0.8	1314.25	1	830.6	13	547136	2	547124	26	39	547162	-999999	547139	0	5	TrialsPROC	FC_006_F3.png	1	2	21	SessionSelectionList														lure	3	Face	0-Back	19	80	15	0	0	75	2	40	312592	1	13	72	310552	-1	312186	1	1634	3	3	2040	53	312605	-54	0					8											21												
WM080112	122317_fnca	1	1	1	624805660	1	75.031	75.030	2.0.10.147	2.0.10.242	2.0.10.242	1.0.0.439	7	234	2	3	Verdana	1	80	0	0	0	WM Stimuli\	0.9	1400	0.5	1264.8	0.6	1285.5	0.7	1358.28571428571	0.9	1255.11111111111	1	1160.6	0.8	1314.25	1	830.6	13	547136	2	547124	26	39	547162	-999999	547139	0	5	TrialsPROC	FC_003_M2.png	1	2	22	SessionSelectionList														lure	3	Face	0-Back	20	80	16	0	0	67	1	39	315164	1	13	73	313125	-1	314460	0	1335	2	3	2039	52	315177	-53	0					9											22												
WM080112	122317_fnca	1	1	1	624805660	1	75.031	75.030	2.0.10.147	2.0.10.242	2.0.10.242	1.0.0.439	7	234	2	3	Verdana	1	80	0	0	0	WM Stimuli\	0.9	1400	0.5	1264.8	0.6	1285.5	0.7	1358.28571428571	0.9	1255.11111111111	1	1160.6	0.8	1314.25	1	830.6	13	547136	2	547124	26	39	547162	-999999	547139	0	5	TrialsPROC	FC_002_F1.png	1	2	23	SessionSelectionList														nonlure	3	Face	0-Back	21	80	17	0	0	70	1	39	317736	2	14	72	315697	-1	317254	1	1557	3	3	2039	53	317750	-54	0					10											23												
WM080112	122317_fnca	1	1	1	624805660	1	75.031	75.030	2.0.10.147	2.0.10.242	2.0.10.242	1.0.0.439	7	234	2	3	Verdana	1	80	0	0	0	WM Stimuli\	0.9	1400	0.5	1264.8	0.6	1285.5	0.7	1358.28571428571	0.9	1255.11111111111	1	1160.6	0.8	1314.25	1	830.6	13	547136	2	547124	26	39	547162	-999999	547139	0	6	Fix15secPROC	""	1	2	24	SessionSelectionList																																															6	318203	-7	0							24												
WM080112	122317_fnca	1	1	1	624805660	1	75.031	75.030	2.0.10.147	2.0.10.242	2.0.10.242	1.0.0.439	7	234	2	3	Verdana	1	80	0	0	0	WM Stimuli\	0.9	1400	0.5	1264.8	0.6	1285.5	0.7	1358.28571428571	0.9	1255.11111111111	1	1160.6	0.8	1314.25	1	830.6	13	547136	2	547124	26	39	547162	-999999	547139	0	7	Cue2BackPROC	""	1	2	25	SessionSelectionList									13	333210	-14	0																																													25												
WM080112	122317_fnca	1	1	1	624805660	1	75.031	75.030	2.0.10.147	2.0.10.242	2.0.10.242	1.0.0.439	7	234	2	3	Verdana	1	80	0	0	0	WM Stimuli\	0.9	1400	0.5	1264.8	0.6	1285.5	0.7	1358.28571428571	0.9	1255.11111111111	1	1160.6	0.8	1314.25	1	830.6	13	547136	2	547124	26	39	547162	-999999	547139	0	8	TrialsPROC	TO_001_TOOL1_BA.png	1	2	26	SessionSelectionList														nonlure	3	Tools	2-Back	22	80	18	0	0	70	2	40	337795	1	13	58	335755	-1	336901	1	1146	3	3	2040	53	337808	-54	0										1						26												
WM080112	122317_fnca	1	1	1	624805660	1	75.031	75.030	2.0.10.147	2.0.10.242	2.0.10.242	1.0.0.439	7	234	2	3	Verdana	1	80	0	0	0	WM Stimuli\	0.9	1400	0.5	1264.8	0.6	1285.5	0.7	1358.28571428571	0.9	1255.11111111111	1	1160.6	0.8	1314.25	1	830.6	13	547136	2	547124	26	39	547162	-999999	547139	0	8	TrialsPROC	TO_002_TOOL2_BA.png	1	2	27	SessionSelectionList														nonlure	3	Tools	2-Back	23	80	19	0	0	70	3	39	340353	3	14	59	338314	-1	339440	1	1126	3	3	2039	53	340367	-54	0										2						27												
WM080112	122317_fnca	1	1	1	624805660	1	75.031	75.030	2.0.10.147	2.0.10.242	2.0.10.242	1.0.0.439	7	234	2	3	Verdana	1	80	0	0	0	WM Stimuli\	0.9	1400	0.5	1264.8	0.6	1285.5	0.7	1358.28571428571	0.9	1255.11111111111	1	1160.6	0.8	1314.25	1	830.6	13	547136	2	547124	26	39	547162	-999999	547139	0	8	TrialsPROC	TO_004_TOOL4_BA.png	1	2	28	SessionSelectionList														nonlure	3	Tools	2-Back	24	80	20	0	0	70	4	39	342912	2	14	59	340873	-1	342064	1	1191	3	3	2039	53	342926	-54	0										3						28												
WM080112	122317_fnca	1	1	1	624805660	1	75.031	75.030	2.0.10.147	2.0.10.242	2.0.10.242	1.0.0.439	7	234	2	3	Verdana	1	80	0	0	0	WM Stimuli\	0.9	1400	0.5	1264.8	0.6	1285.5	0.7	1358.28571428571	0.9	1255.11111111111	1	1160.6	0.8	1314.25	1	830.6	13	547136	2	547124	26	39	547162	-999999	547139	0	8	TrialsPROC	TO_002_TOOL2_BA.png	1	2	29	SessionSelectionList														target	2	Tools	2-Back	25	80	21	0	0	70	1	39	345471	2	14	59	343432	-1	344436	1	1004	2	2	2039	53	345485	-54	0										4						29												
WM080112	122317_fnca	1	1	1	624805660	1	75.031	75.030	2.0.10.147	2.0.10.242	2.0.10.242	1.0.0.439	7	234	2	3	Verdana	1	80	0	0	0	WM Stimuli\	0.9	1400	0.5	1264.8	0.6	1285.5	0.7	1358.28571428571	0.9	1255.11111111111	1	1160.6	0.8	1314.25	1	830.6	13	547136	2	547124	26	39	547162	-999999	547139	0	8	TrialsPROC	TO_001_TOOL1_BA.png	1	2	30	SessionSelectionList														lure	3	Tools	2-Back	26	80	22	0	0	70	2	39	348030	2	14	59	345991	-1	347304	0	1313	2	3	2039	53	348044	-54	0										5						30												
WM080112	122317_fnca	1	1	1	624805660	1	75.031	75.030	2.0.10.147	2.0.10.242	2.0.10.242	1.0.0.439	7	234	2	3	Verdana	1	80	0	0	0	WM Stimuli\	0.9	1400	0.5	1264.8	0.6	1285.5	0.7	1358.28571428571	0.9	1255.11111111111	1	1160.6	0.8	1314.25	1	830.6	13	547136	2	547124	26	39	547162	-999999	547139	0	8	TrialsPROC	TO_004_TOOL4_BA.png	1	2	31	SessionSelectionList														lure	3	Tools	2-Back	27	80	23	0	0	70	1	39	350589	2	14	59	348550	-1	350173	1	1623	3	3	2039	53	350603	-54	0										6						31												
WM080112	122317_fnca	1	1	1	624805660	1	75.031	75.030	2.0.10.147	2.0.10.242	2.0.10.242	1.0.0.439	7	234	2	3	Verdana	1	80	0	0	0	WM Stimuli\	0.9	1400	0.5	1264.8	0.6	1285.5	0.7	1358.28571428571	0.9	1255.11111111111	1	1160.6	0.8	1314.25	1	830.6	13	547136	2	547124	26	39	547162	-999999	547139	0	8	TrialsPROC	TO_006_TOOL6_BA.png	1	2	32	SessionSelectionList														nonlure	3	Tools	2-Back	28	80	24	0	0	70	2	39	353148	2	14	59	351109	-1	352856	1	1747	3	3	2039	53	353162	-54	0										7						32												
WM080112	122317_fnca	1	1	1	624805660	1	75.031	75.030	2.0.10.147	2.0.10.242	2.0.10.242	1.0.0.439	7	234	2	3	Verdana	1	80	0	0	0	WM Stimuli\	0.9	1400	0.5	1264.8	0.6	1285.5	0.7	1358.28571428571	0.9	1255.11111111111	1	1160.6	0.8	1314.25	1	830.6	13	547136	2	547124	26	39	547162	-999999	547139	0	8	TrialsPROC	TO_005_TOOL5_BA.png	1	2	33	SessionSelectionList														nonlure	3	Tools	2-Back	29	80	25	0	0	70	3	39	355707	2	14	59	353668	-1	354796	1	1128	3	3	2039	53	355721	-54	0										8						33												
WM080112	122317_fnca	1	1	1	624805660	1	75.031	75.030	2.0.10.147	2.0.10.242	2.0.10.242	1.0.0.439	7	234	2	3	Verdana	1	80	0	0	0	WM Stimuli\	0.9	1400	0.5	1264.8	0.6	1285.5	0.7	1358.28571428571	0.9	1255.11111111111	1	1160.6	0.8	1314.25	1	830.6	13	547136	2	547124	26	39	547162	-999999	547139	0	8	TrialsPROC	TO_006_TOOL6_BA.png	1	2	34	SessionSelectionList														target	2	Tools	2-Back	30	80	26	0	0	70	4	39	358266	2	14	59	356227	-1	358104	0	1877	3	2	2039	53	358280	-54	0										9						34												
WM080112	122317_fnca	1	1	1	624805660	1	75.031	75.030	2.0.10.147	2.0.10.242	2.0.10.242	1.0.0.439	7	234	2	3	Verdana	1	80	0	0	0	WM Stimuli\	0.9	1400	0.5	1264.8	0.6	1285.5	0.7	1358.28571428571	0.9	1255.11111111111	1	1160.6	0.8	1314.25	1	830.6	13	547136	2	547124	26	39	547162	-999999	547139	0	8	TrialsPROC	TO_003_TOOL3_BA.png	1	2	35	SessionSelectionList														nonlure	3	Tools	2-Back	31	80	27	0	0	70	5	39	360825	2	14	59	358786	-1	360335	1	1549	3	3	2039	53	360839	-54	0										10						35												
WM080112	122317_fnca	1	1	1	624805660	1	75.031	75.030	2.0.10.147	2.0.10.242	2.0.10.242	1.0.0.439	7	234	2	3	Verdana	1	80	0	0	0	WM Stimuli\	0.9	1400	0.5	1264.8	0.6	1285.5	0.7	1358.28571428571	0.9	1255.11111111111	1	1160.6	0.8	1314.25	1	830.6	13	547136	2	547124	26	39	547162	-999999	547139	0	9	Cue0BackPROC	BP_007_BP20_BA.png	1	2	36	SessionSelectionList																																										19	361305	-20	0												36												
WM080112	122317_fnca	1	1	1	624805660	1	75.031	75.030	2.0.10.147	2.0.10.242	2.0.10.242	1.0.0.439	7	234	2	3	Verdana	1	80	0	0	0	WM Stimuli\	0.9	1400	0.5	1264.8	0.6	1285.5	0.7	1358.28571428571	0.9	1255.11111111111	1	1160.6	0.8	1314.25	1	830.6	13	547136	2	547124	26	39	547162	-999999	547139	0	10	TrialsPROC	BP_007_BP20_BA.png	1	2	37	SessionSelectionList														target	2	Body	0-Back	32	80	28	0	0	73	1	39	365876	2	14	51	363837	-1	365096	1	1259	2	2	2039	53	365890	-54	0											1					37												
WM080112	122317_fnca	1	1	1	624805660	1	75.031	75.030	2.0.10.147	2.0.10.242	2.0.10.242	1.0.0.439	7	234	2	3	Verdana	1	80	0	0	0	WM Stimuli\	0.9	1400	0.5	1264.8	0.6	1285.5	0.7	1358.28571428571	0.9	1255.11111111111	1	1160.6	0.8	1314.25	1	830.6	13	547136	2	547124	26	39	547162	-999999	547139	0	10	TrialsPROC	BP_011_BP4_BA.png	1	2	38	SessionSelectionList														nonlure	3	Body	0-Back	33	80	28	0	1	67	1	39	368435	2	14	59	366396	-1	0	0	0	""	3	2039	53	368449	-54	0											2					38												
WM080112	122317_fnca	1	1	1	624805660	1	75.031	75.030	2.0.10.147	2.0.10.242	2.0.10.242	1.0.0.439	7	234	2	3	Verdana	1	80	0	0	0	WM Stimuli\	0.9	1400	0.5	1264.8	0.6	1285.5	0.7	1358.28571428571	0.9	1255.11111111111	1	1160.6	0.8	1314.25	1	830.6	13	547136	2	547124	26	39	547162	-999999	547139	0	10	TrialsPROC	BP_010_BP3_BA.png	1	2	39	SessionSelectionList														nonlure	3	Body	0-Back	34	80	29	0	0	69	1	39	370994	2	14	59	368955	-1	370016	1	1061	3	3	2039	53	371008	-54	0											3					39												
WM080112	122317_fnca	1	1	1	624805660	1	75.031	75.030	2.0.10.147	2.0.10.242	2.0.10.242	1.0.0.439	7	234	2	3	Verdana	1	80	0	0	0	WM Stimuli\	0.9	1400	0.5	1264.8	0.6	1285.5	0.7	1358.28571428571	0.9	1255.11111111111	1	1160.6	0.8	1314.25	1	830.6	13	547136	2	547124	26	39	547162	-999999	547139	0	10	TrialsPROC	BP_008_BP21_BA.png	1	2	40	SessionSelectionList														nonlure	3	Body	0-Back	35	80	30	0	0	64	1	39	373553	2	14	59	371514	-1	373276	0	1762	2	3	2039	53	373567	-54	0											4					40												
WM080112	122317_fnca	1	1	1	624805660	1	75.031	75.030	2.0.10.147	2.0.10.242	2.0.10.242	1.0.0.439	7	234	2	3	Verdana	1	80	0	0	0	WM Stimuli\	0.9	1400	0.5	1264.8	0.6	1285.5	0.7	1358.28571428571	0.9	1255.11111111111	1	1160.6	0.8	1314.25	1	830.6	13	547136	2	547124	26	39	547162	-999999	547139	0	10	TrialsPROC	BP_011_BP4_BA.png	1	2	41	SessionSelectionList														lure	3	Body	0-Back	36	80	31	0	0	67	1	39	376112	2	14	59	374073	-1	375402	1	1329	3	3	2039	53	376126	-54	0											5					41												
WM080112	122317_fnca	1	1	1	624805660	1	75.031	75.030	2.0.10.147	2.0.10.242	2.0.10.242	1.0.0.439	7	234	2	3	Verdana	1	80	0	0	0	WM Stimuli\	0.9	1400	0.5	1264.8	0.6	1285.5	0.7	1358.28571428571	0.9	1255.11111111111	1	1160.6	0.8	1314.25	1	830.6	13	547136	2	547124	26	39	547162	-999999	547139	0	10	TrialsPROC	BP_009_BP22_BA.png	1	2	42	SessionSelectionList														nonlure	3	Body	0-Back	37	80	32	0	0	69	2	39	378671	2	14	59	376632	-1	377640	1	1008	3	3	2039	53	378685	-54	0											6					42												
WM080112	122317_fnca	1	1	1	624805660	1	75.031	75.030	2.0.10.147	2.0.10.242	2.0.10.242	1.0.0.439	7	234	2	3	Verdana	1	80	0	0	0	WM Stimuli\	0.9	1400	0.5	1264.8	0.6	1285.5	0.7	1358.28571428571	0.9	1255.11111111111	1	1160.6	0.8	1314.25	1	830.6	13	547136	2	547124	26	39	547162	-999999	547139	0	10	TrialsPROC	BP_009_BP22_BA.png	1	2	43	SessionSelectionList														lure	3	Body	0-Back	38	80	33	0	0	71	3	39	381230	1	14	59	379191	-1	380858	1	1667	3	3	2039	53	381244	-54	0											7					43												
WM080112	122317_fnca	1	1	1	624805660	1	75.031	75.030	2.0.10.147	2.0.10.242	2.0.10.242	1.0.0.439	7	234	2	3	Verdana	1	80	0	0	0	WM Stimuli\	0.9	1400	0.5	1264.8	0.6	1285.5	0.7	1358.28571428571	0.9	1255.11111111111	1	1160.6	0.8	1314.25	1	830.6	13	547136	2	547124	26	39	547162	-999999	547139	0	10	TrialsPROC	BP_008_BP21_BA.png	1	2	44	SessionSelectionList														lure	3	Body	0-Back	39	80	33	0	1	67	3	39	383789	1	13	59	381750	-1	0	0	0	""	3	2039	52	383802	-53	0											8					44												
WM080112	122317_fnca	1	1	1	624805660	1	75.031	75.030	2.0.10.147	2.0.10.242	2.0.10.242	1.0.0.439	7	234	2	3	Verdana	1	80	0	0	0	WM Stimuli\	0.9	1400	0.5	1264.8	0.6	1285.5	0.7	1358.28571428571	0.9	1255.11111111111	1	1160.6	0.8	1314.25	1	830.6	13	547136	2	547124	26	39	547162	-999999	547139	0	10	TrialsPROC	BP_007_BP20_BA.png	1	2	45	SessionSelectionList														target	2	Body	0-Back	40	80	33	0	2	63	3	39	386348	1	13	59	384309	-1	0	0	0	""	2	2039	52	386361	-53	0											9					45												
WM080112	122317_fnca	1	1	1	624805660	1	75.031	75.030	2.0.10.147	2.0.10.242	2.0.10.242	1.0.0.439	7	234	2	3	Verdana	1	80	0	0	0	WM Stimuli\	0.9	1400	0.5	1264.8	0.6	1285.5	0.7	1358.28571428571	0.9	1255.11111111111	1	1160.6	0.8	1314.25	1	830.6	13	547136	2	547124	26	39	547162	-999999	547139	0	10	TrialsPROC	BP_012_BP5_BA.png	1	2	46	SessionSelectionList														nonlure	3	Body	0-Back	41	80	34	0	0	60	1	39	388907	1	13	59	386868	-1	388298	0	1430	2	3	2039	52	388920	-53	0											10					46												
WM080112	122317_fnca	1	1	1	624805660	1	75.031	75.030	2.0.10.147	2.0.10.242	2.0.10.242	1.0.0.439	7	234	2	3	Verdana	1	80	0	0	0	WM Stimuli\	0.9	1400	0.5	1264.8	0.6	1285.5	0.7	1358.28571428571	0.9	1255.11111111111	1	1160.6	0.8	1314.25	1	830.6	13	547136	2	547124	26	39	547162	-999999	547139	0	11	Fix15secPROC	""	1	2	47	SessionSelectionList																																															6	389374	-7	0							47												
WM080112	122317_fnca	1	1	1	624805660	1	75.031	75.030	2.0.10.147	2.0.10.242	2.0.10.242	1.0.0.439	7	234	2	3	Verdana	1	80	0	0	0	WM Stimuli\	0.9	1400	0.5	1264.8	0.6	1285.5	0.7	1358.28571428571	0.9	1255.11111111111	1	1160.6	0.8	1314.25	1	830.6	13	547136	2	547124	26	39	547162	-999999	547139	0	12	Cue0BackPROC	PL_001_92012.png	1	2	48	SessionSelectionList																																										13	404381	-14	0												48												
WM080112	122317_fnca	1	1	1	624805660	1	75.031	75.030	2.0.10.147	2.0.10.242	2.0.10.242	1.0.0.439	7	234	2	3	Verdana	1	80	0	0	0	WM Stimuli\	0.9	1400	0.5	1264.8	0.6	1285.5	0.7	1358.28571428571	0.9	1255.11111111111	1	1160.6	0.8	1314.25	1	830.6	13	547136	2	547124	26	39	547162	-999999	547139	0	13	TrialsPROC	PL_003_92016.png	1	2	49	SessionSelectionList														nonlure	3	Place	0-Back	42	80	35	0	0	62	1	39	408979	1	13	72	406940	-1	408349	1	1409	3	3	2039	52	408992	-53	0												1				49												
WM080112	122317_fnca	1	1	1	624805660	1	75.031	75.030	2.0.10.147	2.0.10.242	2.0.10.242	1.0.0.439	7	234	2	3	Verdana	1	80	0	0	0	WM Stimuli\	0.9	1400	0.5	1264.8	0.6	1285.5	0.7	1358.28571428571	0.9	1255.11111111111	1	1160.6	0.8	1314.25	1	830.6	13	547136	2	547124	26	39	547162	-999999	547139	0	13	TrialsPROC	PL_003_92016.png	1	2	50	SessionSelectionList														lure	3	Place	0-Back	43	80	36	0	0	64	2	39	411538	1	13	59	409499	-1	410829	1	1330	3	3	2039	52	411551	-53	0												2				50												
WM080112	122317_fnca	1	1	1	624805660	1	75.031	75.030	2.0.10.147	2.0.10.242	2.0.10.242	1.0.0.439	7	234	2	3	Verdana	1	80	0	0	0	WM Stimuli\	0.9	1400	0.5	1264.8	0.6	1285.5	0.7	1358.28571428571	0.9	1255.11111111111	1	1160.6	0.8	1314.25	1	830.6	13	547136	2	547124	26	39	547162	-999999	547139	0	13	TrialsPROC	PL_006_92025.png	1	2	51	SessionSelectionList														nonlure	3	Place	0-Back	44	80	37	0	0	65	3	39	414110	1	13	72	412071	-1	413872	1	1801	3	3	2039	52	414123	-53	0												3				51												
WM080112	122317_fnca	1	1	1	624805660	1	75.031	75.030	2.0.10.147	2.0.10.242	2.0.10.242	1.0.0.439	7	234	2	3	Verdana	1	80	0	0	0	WM Stimuli\	0.9	1400	0.5	1264.8	0.6	1285.5	0.7	1358.28571428571	0.9	1255.11111111111	1	1160.6	0.8	1314.25	1	830.6	13	547136	2	547124	26	39	547162	-999999	547139	0	13	TrialsPROC	PL_001_92012.png	1	2	52	SessionSelectionList														target	2	Place	0-Back	45	80	38	0	0	67	1	39	416669	1	13	59	414630	-1	415979	1	1349	2	2	2039	52	416682	-53	0												4				52												
WM080112	122317_fnca	1	1	1	624805660	1	75.031	75.030	2.0.10.147	2.0.10.242	2.0.10.242	1.0.0.439	7	234	2	3	Verdana	1	80	0	0	0	WM Stimuli\	0.9	1400	0.5	1264.8	0.6	1285.5	0.7	1358.28571428571	0.9	1255.11111111111	1	1160.6	0.8	1314.25	1	830.6	13	547136	2	547124	26	39	547162	-999999	547139	0	13	TrialsPROC	PL_004_92023.png	1	2	53	SessionSelectionList														nonlure	3	Place	0-Back	46	80	39	0	0	68	1	39	419241	2	14	72	417202	-1	418298	1	1096	3	3	2039	53	419255	-54	0												5				53												
WM080112	122317_fnca	1	1	1	624805660	1	75.031	75.030	2.0.10.147	2.0.10.242	2.0.10.242	1.0.0.439	7	234	2	3	Verdana	1	80	0	0	0	WM Stimuli\	0.9	1400	0.5	1264.8	0.6	1285.5	0.7	1358.28571428571	0.9	1255.11111111111	1	1160.6	0.8	1314.25	1	830.6	13	547136	2	547124	26	39	547162	-999999	547139	0	13	TrialsPROC	PL_005_92024.png	1	2	54	SessionSelectionList														nonlure	3	Place	0-Back	47	80	40	0	0	69	2	39	421800	2	14	59	419761	-1	420677	1	916	3	3	2039	53	421814	-54	0												6				54												
WM080112	122317_fnca	1	1	1	624805660	1	75.031	75.030	2.0.10.147	2.0.10.242	2.0.10.242	1.0.0.439	7	234	2	3	Verdana	1	80	0	0	0	WM Stimuli\	0.9	1400	0.5	1264.8	0.6	1285.5	0.7	1358.28571428571	0.9	1255.11111111111	1	1160.6	0.8	1314.25	1	830.6	13	547136	2	547124	26	39	547162	-999999	547139	0	13	TrialsPROC	PL_001_92012.png	1	2	55	SessionSelectionList														target	2	Place	0-Back	48	80	41	0	0	70	1	39	424359	2	14	59	422320	-1	423343	1	1023	2	2	2039	53	424373	-54	0												7				55												
WM080112	122317_fnca	1	1	1	624805660	1	75.031	75.030	2.0.10.147	2.0.10.242	2.0.10.242	1.0.0.439	7	234	2	3	Verdana	1	80	0	0	0	WM Stimuli\	0.9	1400	0.5	1264.8	0.6	1285.5	0.7	1358.28571428571	0.9	1255.11111111111	1	1160.6	0.8	1314.25	1	830.6	13	547136	2	547124	26	39	547162	-999999	547139	0	13	TrialsPROC	PL_002_92014.png	1	2	56	SessionSelectionList														nonlure	3	Place	0-Back	49	80	42	0	0	71	1	39	426918	2	14	59	424879	-1	425698	1	819	3	3	2039	53	426932	-54	0												8				56												
WM080112	122317_fnca	1	1	1	624805660	1	75.031	75.030	2.0.10.147	2.0.10.242	2.0.10.242	1.0.0.439	7	234	2	3	Verdana	1	80	0	0	0	WM Stimuli\	0.9	1400	0.5	1264.8	0.6	1285.5	0.7	1358.28571428571	0.9	1255.11111111111	1	1160.6	0.8	1314.25	1	830.6	13	547136	2	547124	26	39	547162	-999999	547139	0	13	TrialsPROC	PL_004_92023.png	1	2	57	SessionSelectionList														lure	3	Place	0-Back	50	80	43	0	0	72	2	39	429477	1	13	59	427438	-1	428412	1	974	3	3	2039	52	429490	-53	0												9				57												
WM080112	122317_fnca	1	1	1	624805660	1	75.031	75.030	2.0.10.147	2.0.10.242	2.0.10.242	1.0.0.439	7	234	2	3	Verdana	1	80	0	0	0	WM Stimuli\	0.9	1400	0.5	1264.8	0.6	1285.5	0.7	1358.28571428571	0.9	1255.11111111111	1	1160.6	0.8	1314.25	1	830.6	13	547136	2	547124	26	39	547162	-999999	547139	0	13	TrialsPROC	PL_006_92025.png	1	2	58	SessionSelectionList														lure	3	Place	0-Back	51	80	44	0	0	73	3	39	432036	1	13	59	429997	-1	430886	1	889	3	3	2039	52	432049	-53	0												10				58												
WM080112	122317_fnca	1	1	1	624805660	1	75.031	75.030	2.0.10.147	2.0.10.242	2.0.10.242	1.0.0.439	7	234	2	3	Verdana	1	80	0	0	0	WM Stimuli\	0.9	1400	0.5	1264.8	0.6	1285.5	0.7	1358.28571428571	0.9	1255.11111111111	1	1160.6	0.8	1314.25	1	830.6	13	547136	2	547124	26	39	547162	-999999	547139	0	14	Cue2BackPROC	""	1	2	59	SessionSelectionList									5	432502	-6	0																																													59												
WM080112	122317_fnca	1	1	1	624805660	1	75.031	75.030	2.0.10.147	2.0.10.242	2.0.10.242	1.0.0.439	7	234	2	3	Verdana	1	80	0	0	0	WM Stimuli\	0.9	1400	0.5	1264.8	0.6	1285.5	0.7	1358.28571428571	0.9	1255.11111111111	1	1160.6	0.8	1314.25	1	830.6	13	547136	2	547124	26	39	547162	-999999	547139	0	15	TrialsPROC	FC_010_F5.png	1	2	60	SessionSelectionList														nonlure	3	Face	2-Back	52	80	44	0	1	73	3	40	437101	1	13	64	435061	-1	0	0	0	""	3	2040	53	437114	-54	0													1			60												
WM080112	122317_fnca	1	1	1	624805660	1	75.031	75.030	2.0.10.147	2.0.10.242	2.0.10.242	1.0.0.439	7	234	2	3	Verdana	1	80	0	0	0	WM Stimuli\	0.9	1400	0.5	1264.8	0.6	1285.5	0.7	1358.28571428571	0.9	1255.11111111111	1	1160.6	0.8	1314.25	1	830.6	13	547136	2	547124	26	39	547162	-999999	547139	0	15	TrialsPROC	FC_012_F6.png	1	2	61	SessionSelectionList														nonlure	3	Face	2-Back	53	80	45	0	0	73	1	39	439673	1	13	73	437634	-1	438430	1	796	3	3	2039	52	439686	-53	0													2			61												
WM080112	122317_fnca	1	1	1	624805660	1	75.031	75.030	2.0.10.147	2.0.10.242	2.0.10.242	1.0.0.439	7	234	2	3	Verdana	1	80	0	0	0	WM Stimuli\	0.9	1400	0.5	1264.8	0.6	1285.5	0.7	1358.28571428571	0.9	1255.11111111111	1	1160.6	0.8	1314.25	1	830.6	13	547136	2	547124	26	39	547162	-999999	547139	0	15	TrialsPROC	FC_010_F5.png	1	2	62	SessionSelectionList														target	2	Face	2-Back	54	80	46	0	0	73	1	39	442245	2	14	72	440206	-1	441311	1	1105	2	2	2039	53	442259	-54	0													3			62												
WM080112	122317_fnca	1	1	1	624805660	1	75.031	75.030	2.0.10.147	2.0.10.242	2.0.10.242	1.0.0.439	7	234	2	3	Verdana	1	80	0	0	0	WM Stimuli\	0.9	1400	0.5	1264.8	0.6	1285.5	0.7	1358.28571428571	0.9	1255.11111111111	1	1160.6	0.8	1314.25	1	830.6	13	547136	2	547124	26	39	547162	-999999	547139	0	15	TrialsPROC	FC_008_F4.png	1	2	63	SessionSelectionList														nonlure	3	Face	2-Back	55	80	47	0	0	73	1	39	444817	2	14	72	442778	-1	444097	1	1319	3	3	2039	53	444831	-54	0													4			63												
WM080112	122317_fnca	1	1	1	624805660	1	75.031	75.030	2.0.10.147	2.0.10.242	2.0.10.242	1.0.0.439	7	234	2	3	Verdana	1	80	0	0	0	WM Stimuli\	0.9	1400	0.5	1264.8	0.6	1285.5	0.7	1358.28571428571	0.9	1255.11111111111	1	1160.6	0.8	1314.25	1	830.6	13	547136	2	547124	26	39	547162	-999999	547139	0	15	TrialsPROC	FC_012_F6.png	1	2	64	SessionSelectionList														lure	3	Face	2-Back	56	80	47	0	1	73	1	39	447390	1	13	73	445351	-1	0	0	0	""	3	2039	52	447403	-53	0													5			64												
WM080112	122317_fnca	1	1	1	624805660	1	75.031	75.030	2.0.10.147	2.0.10.242	2.0.10.242	1.0.0.439	7	234	2	3	Verdana	1	80	0	0	0	WM Stimuli\	0.9	1400	0.5	1264.8	0.6	1285.5	0.7	1358.28571428571	0.9	1255.11111111111	1	1160.6	0.8	1314.25	1	830.6	13	547136	2	547124	26	39	547162	-999999	547139	0	15	TrialsPROC	FC_008_F4.png	1	2	65	SessionSelectionList														target	2	Face	2-Back	57	80	48	0	0	73	1	39	449962	1	13	72	447923	-1	448951	1	1028	2	2	2039	52	449975	-53	0													6			65												
WM080112	122317_fnca	1	1	1	624805660	1	75.031	75.030	2.0.10.147	2.0.10.242	2.0.10.242	1.0.0.439	7	234	2	3	Verdana	1	80	0	0	0	WM Stimuli\	0.9	1400	0.5	1264.8	0.6	1285.5	0.7	1358.28571428571	0.9	1255.11111111111	1	1160.6	0.8	1314.25	1	830.6	13	547136	2	547124	26	39	547162	-999999	547139	0	15	TrialsPROC	FC_007_M4.png	1	2	66	SessionSelectionList														nonlure	3	Face	2-Back	58	80	49	0	0	73	1	39	452534	2	14	72	450495	-1	452329	1	1834	3	3	2039	53	452548	-54	0													7			66												
WM080112	122317_fnca	1	1	1	624805660	1	75.031	75.030	2.0.10.147	2.0.10.242	2.0.10.242	1.0.0.439	7	234	2	3	Verdana	1	80	0	0	0	WM Stimuli\	0.9	1400	0.5	1264.8	0.6	1285.5	0.7	1358.28571428571	0.9	1255.11111111111	1	1160.6	0.8	1314.25	1	830.6	13	547136	2	547124	26	39	547162	-999999	547139	0	15	TrialsPROC	FC_007_M4.png	1	2	67	SessionSelectionList														lure	3	Face	2-Back	59	80	50	0	0	73	1	40	455107	1	13	72	453067	-1	454223	0	1156	2	3	2040	53	455120	-54	0													8			67												
WM080112	122317_fnca	1	1	1	624805660	1	75.031	75.030	2.0.10.147	2.0.10.242	2.0.10.242	1.0.0.439	7	234	2	3	Verdana	1	80	0	0	0	WM Stimuli\	0.9	1400	0.5	1264.8	0.6	1285.5	0.7	1358.28571428571	0.9	1255.11111111111	1	1160.6	0.8	1314.25	1	830.6	13	547136	2	547124	26	39	547162	-999999	547139	0	15	TrialsPROC	FC_009_M5.png	1	2	68	SessionSelectionList														nonlure	3	Face	2-Back	60	80	50	0	1	73	1	39	457692	2	14	86	455653	-1	0	0	0	""	3	2039	53	457706	-54	0													9			68												
WM080112	122317_fnca	1	1	1	624805660	1	75.031	75.030	2.0.10.147	2.0.10.242	2.0.10.242	1.0.0.439	7	234	2	3	Verdana	1	80	0	0	0	WM Stimuli\	0.9	1400	0.5	1264.8	0.6	1285.5	0.7	1358.28571428571	0.9	1255.11111111111	1	1160.6	0.8	1314.25	1	830.6	13	547136	2	547124	26	39	547162	-999999	547139	0	15	TrialsPROC	FC_011_M6.png	1	2	69	SessionSelectionList														nonlure	3	Face	2-Back	61	80	51	0	0	73	1	39	460278	1	13	86	458239	-1	459870	1	1631	3	3	2039	52	460291	-53	0													10			69												
WM080112	122317_fnca	1	1	1	624805660	1	75.031	75.030	2.0.10.147	2.0.10.242	2.0.10.242	1.0.0.439	7	234	2	3	Verdana	1	80	0	0	0	WM Stimuli\	0.9	1400	0.5	1264.8	0.6	1285.5	0.7	1358.28571428571	0.9	1255.11111111111	1	1160.6	0.8	1314.25	1	830.6	13	547136	2	547124	26	39	547162	-999999	547139	0	16	Fix15secPROC	""	1	2	70	SessionSelectionList																																															5	460744	-6	0							70												
WM080112	122317_fnca	1	1	1	624805660	1	75.031	75.030	2.0.10.147	2.0.10.242	2.0.10.242	1.0.0.439	7	234	2	3	Verdana	1	80	0	0	0	WM Stimuli\	0.9	1400	0.5	1264.8	0.6	1285.5	0.7	1358.28571428571	0.9	1255.11111111111	1	1160.6	0.8	1314.25	1	830.6	13	547136	2	547124	26	39	547162	-999999	547139	0	17	Cue0BackPROC	TO_007_TOOL7_BA.png	1	2	71	SessionSelectionList																																										39	475778	-40	0												71												
WM080112	122317_fnca	1	1	1	624805660	1	75.031	75.030	2.0.10.147	2.0.10.242	2.0.10.242	1.0.0.439	7	234	2	3	Verdana	1	80	0	0	0	WM Stimuli\	0.9	1400	0.5	1264.8	0.6	1285.5	0.7	1358.28571428571	0.9	1255.11111111111	1	1160.6	0.8	1314.25	1	830.6	13	547136	2	547124	26	39	547162	-999999	547139	0	18	TrialsPROC	TO_010_TOOL10_BA.png	1	2	72	SessionSelectionList														nonlure	3	Tools	0-Back	62	80	52	0	0	74	2	39	480363	1	13	85	478324	-1	479401	1	1077	3	3	2039	52	480376	-53	0														1		72												
WM080112	122317_fnca	1	1	1	624805660	1	75.031	75.030	2.0.10.147	2.0.10.242	2.0.10.242	1.0.0.439	7	234	2	3	Verdana	1	80	0	0	0	WM Stimuli\	0.9	1400	0.5	1264.8	0.6	1285.5	0.7	1358.28571428571	0.9	1255.11111111111	1	1160.6	0.8	1314.25	1	830.6	13	547136	2	547124	26	39	547162	-999999	547139	0	18	TrialsPROC	TO_009_TOOL9_BA.png	1	2	73	SessionSelectionList														nonlure	3	Tools	0-Back	63	80	53	0	0	75	3	39	482948	2	14	85	480909	-1	481530	1	621	3	3	2039	53	482962	-54	0														2		73												
WM080112	122317_fnca	1	1	1	624805660	1	75.031	75.030	2.0.10.147	2.0.10.242	2.0.10.242	1.0.0.439	7	234	2	3	Verdana	1	80	0	0	0	WM Stimuli\	0.9	1400	0.5	1264.8	0.6	1285.5	0.7	1358.28571428571	0.9	1255.11111111111	1	1160.6	0.8	1314.25	1	830.6	13	547136	2	547124	26	39	547162	-999999	547139	0	18	TrialsPROC	TO_009_TOOL9_BA.png	1	2	74	SessionSelectionList														lure	3	Tools	0-Back	64	80	54	0	0	76	4	39	485507	2	14	59	483468	-1	484767	1	1299	3	3	2039	53	485521	-54	0														3		74												
WM080112	122317_fnca	1	1	1	624805660	1	75.031	75.030	2.0.10.147	2.0.10.242	2.0.10.242	1.0.0.439	7	234	2	3	Verdana	1	80	0	0	0	WM Stimuli\	0.9	1400	0.5	1264.8	0.6	1285.5	0.7	1358.28571428571	0.9	1255.11111111111	1	1160.6	0.8	1314.25	1	830.6	13	547136	2	547124	26	39	547162	-999999	547139	0	18	TrialsPROC	TO_008_TOOL8_BA.png	1	2	75	SessionSelectionList														nonlure	3	Tools	0-Back	65	80	55	0	0	76	5	39	488093	1	13	86	486054	-1	486732	1	678	3	3	2039	52	488106	-53	0														4		75												
WM080112	122317_fnca	1	1	1	624805660	1	75.031	75.030	2.0.10.147	2.0.10.242	2.0.10.242	1.0.0.439	7	234	2	3	Verdana	1	80	0	0	0	WM Stimuli\	0.9	1400	0.5	1264.8	0.6	1285.5	0.7	1358.28571428571	0.9	1255.11111111111	1	1160.6	0.8	1314.25	1	830.6	13	547136	2	547124	26	39	547162	-999999	547139	0	18	TrialsPROC	TO_011_TOOL11_BA.png	1	2	76	SessionSelectionList														nonlure	3	Tools	0-Back	66	80	56	0	0	77	6	39	490665	2	14	72	488626	-1	489225	1	599	3	3	2039	53	490679	-54	0														5		76												
WM080112	122317_fnca	1	1	1	624805660	1	75.031	75.030	2.0.10.147	2.0.10.242	2.0.10.242	1.0.0.439	7	234	2	3	Verdana	1	80	0	0	0	WM Stimuli\	0.9	1400	0.5	1264.8	0.6	1285.5	0.7	1358.28571428571	0.9	1255.11111111111	1	1160.6	0.8	1314.25	1	830.6	13	547136	2	547124	26	39	547162	-999999	547139	0	18	TrialsPROC	TO_012_TOOL12_BA.png	1	2	77	SessionSelectionList														nonlure	3	Tools	0-Back	67	80	57	0	0	78	7	39	493251	1	13	86	491212	-1	491913	1	701	3	3	2039	52	493264	-53	0														6		77												
WM080112	122317_fnca	1	1	1	624805660	1	75.031	75.030	2.0.10.147	2.0.10.242	2.0.10.242	1.0.0.439	7	234	2	3	Verdana	1	80	0	0	0	WM Stimuli\	0.9	1400	0.5	1264.8	0.6	1285.5	0.7	1358.28571428571	0.9	1255.11111111111	1	1160.6	0.8	1314.25	1	830.6	13	547136	2	547124	26	39	547162	-999999	547139	0	18	TrialsPROC	TO_010_TOOL10_BA.png	1	2	78	SessionSelectionList														lure	3	Tools	0-Back	68	80	58	0	0	78	8	39	495810	1	13	59	493771	-1	494451	1	680	3	3	2039	52	495823	-53	0														7		78												
WM080112	122317_fnca	1	1	1	624805660	1	75.031	75.030	2.0.10.147	2.0.10.242	2.0.10.242	1.0.0.439	7	234	2	3	Verdana	1	80	0	0	0	WM Stimuli\	0.9	1400	0.5	1264.8	0.6	1285.5	0.7	1358.28571428571	0.9	1255.11111111111	1	1160.6	0.8	1314.25	1	830.6	13	547136	2	547124	26	39	547162	-999999	547139	0	18	TrialsPROC	TO_007_TOOL7_BA.png	1	2	79	SessionSelectionList														target	2	Tools	0-Back	69	80	59	0	0	79	1	39	498369	1	13	59	496330	-1	497093	1	763	2	2	2039	52	498382	-53	0														8		79												
WM080112	122317_fnca	1	1	1	624805660	1	75.031	75.030	2.0.10.147	2.0.10.242	2.0.10.242	1.0.0.439	7	234	2	3	Verdana	1	80	0	0	0	WM Stimuli\	0.9	1400	0.5	1264.8	0.6	1285.5	0.7	1358.28571428571	0.9	1255.11111111111	1	1160.6	0.8	1314.25	1	830.6	13	547136	2	547124	26	39	547162	-999999	547139	0	18	TrialsPROC	TO_008_TOOL8_BA.png	1	2	80	SessionSelectionList														lure	3	Tools	0-Back	70	80	60	0	0	79	1	39	500928	1	13	59	498889	-1	499716	1	827	3	3	2039	52	500941	-53	0														9		80												
WM080112	122317_fnca	1	1	1	624805660	1	75.031	75.030	2.0.10.147	2.0.10.242	2.0.10.242	1.0.0.439	7	234	2	3	Verdana	1	80	0	0	0	WM Stimuli\	0.9	1400	0.5	1264.8	0.6	1285.5	0.7	1358.28571428571	0.9	1255.11111111111	1	1160.6	0.8	1314.25	1	830.6	13	547136	2	547124	26	39	547162	-999999	547139	0	18	TrialsPROC	TO_007_TOOL7_BA.png	1	2	81	SessionSelectionList														target	2	Tools	0-Back	71	80	61	0	0	80	1	39	503487	1	13	59	501448	-1	502509	1	1061	2	2	2039	52	503500	-53	0														10		81												
WM080112	122317_fnca	1	1	1	624805660	1	75.031	75.030	2.0.10.147	2.0.10.242	2.0.10.242	1.0.0.439	7	234	2	3	Verdana	1	80	0	0	0	WM Stimuli\	0.9	1400	0.5	1264.8	0.6	1285.5	0.7	1358.28571428571	0.9	1255.11111111111	1	1160.6	0.8	1314.25	1	830.6	13	547136	2	547124	26	39	547162	-999999	547139	0	19	Cue2BackPROC	""	1	2	82	SessionSelectionList									5	503953	-6	0																																													82												
WM080112	122317_fnca	1	1	1	624805660	1	75.031	75.030	2.0.10.147	2.0.10.242	2.0.10.242	1.0.0.439	7	234	2	3	Verdana	1	80	0	0	0	WM Stimuli\	0.9	1400	0.5	1264.8	0.6	1285.5	0.7	1358.28571428571	0.9	1255.11111111111	1	1160.6	0.8	1314.25	1	830.6	13	547136	2	547124	26	39	547162	-999999	547139	0	20	TrialsPROC	PL_007_92026.png	1	2	83	SessionSelectionList														nonlure	3	Place	2-Back	72	80	62	0	0	80	1	39	508551	2	14	64	506512	-1	508346	1	1834	3	3	2039	53	508565	-54	0															1	83												
WM080112	122317_fnca	1	1	1	624805660	1	75.031	75.030	2.0.10.147	2.0.10.242	2.0.10.242	1.0.0.439	7	234	2	3	Verdana	1	80	0	0	0	WM Stimuli\	0.9	1400	0.5	1264.8	0.6	1285.5	0.7	1358.28571428571	0.9	1255.11111111111	1	1160.6	0.8	1314.25	1	830.6	13	547136	2	547124	26	39	547162	-999999	547139	0	20	TrialsPROC	PL_007_92026.png	1	2	84	SessionSelectionList														lure	3	Place	2-Back	73	80	63	0	0	80	2	39	511110	2	14	59	509071	-1	510202	1	1131	3	3	2039	53	511124	-54	0															2	84												
WM080112	122317_fnca	1	1	1	624805660	1	75.031	75.030	2.0.10.147	2.0.10.242	2.0.10.242	1.0.0.439	7	234	2	3	Verdana	1	80	0	0	0	WM Stimuli\	0.9	1400	0.5	1264.8	0.6	1285.5	0.7	1358.28571428571	0.9	1255.11111111111	1	1160.6	0.8	1314.25	1	830.6	13	547136	2	547124	26	39	547162	-999999	547139	0	20	TrialsPROC	PL_010_92038.png	1	2	85	SessionSelectionList														nonlure	3	Place	2-Back	74	80	64	0	0	80	3	40	513683	1	13	72	511643	-1	512695	1	1052	3	3	2040	53	513696	-54	0															3	85												
WM080112	122317_fnca	1	1	1	624805660	1	75.031	75.030	2.0.10.147	2.0.10.242	2.0.10.242	1.0.0.439	7	234	2	3	Verdana	1	80	0	0	0	WM Stimuli\	0.9	1400	0.5	1264.8	0.6	1285.5	0.7	1358.28571428571	0.9	1255.11111111111	1	1160.6	0.8	1314.25	1	830.6	13	547136	2	547124	26	39	547162	-999999	547139	0	20	TrialsPROC	PL_009_92037.png	1	2	86	SessionSelectionList														nonlure	3	Place	2-Back	75	80	65	0	0	80	4	39	516268	2	14	86	514229	-1	514934	1	705	3	3	2039	53	516282	-54	0															4	86												
WM080112	122317_fnca	1	1	1	624805660	1	75.031	75.030	2.0.10.147	2.0.10.242	2.0.10.242	1.0.0.439	7	234	2	3	Verdana	1	80	0	0	0	WM Stimuli\	0.9	1400	0.5	1264.8	0.6	1285.5	0.7	1358.28571428571	0.9	1255.11111111111	1	1160.6	0.8	1314.25	1	830.6	13	547136	2	547124	26	39	547162	-999999	547139	0	20	TrialsPROC	PL_010_92038.png	1	2	87	SessionSelectionList														target	2	Place	2-Back	76	80	66	0	0	80	1	39	518827	2	14	59	516788	-1	518238	1	1450	2	2	2039	53	518841	-54	0															5	87												
WM080112	122317_fnca	1	1	1	624805660	1	75.031	75.030	2.0.10.147	2.0.10.242	2.0.10.242	1.0.0.439	7	234	2	3	Verdana	1	80	0	0	0	WM Stimuli\	0.9	1400	0.5	1264.8	0.6	1285.5	0.7	1358.28571428571	0.9	1255.11111111111	1	1160.6	0.8	1314.25	1	830.6	13	547136	2	547124	26	39	547162	-999999	547139	0	20	TrialsPROC	PL_009_92037.png	1	2	88	SessionSelectionList														target	2	Place	2-Back	77	80	67	0	0	80	1	39	521386	1	14	59	519347	-1	520673	0	1326	3	2	2039	53	521400	-54	0															6	88												
WM080112	122317_fnca	1	1	1	624805660	1	75.031	75.030	2.0.10.147	2.0.10.242	2.0.10.242	1.0.0.439	7	234	2	3	Verdana	1	80	0	0	0	WM Stimuli\	0.9	1400	0.5	1264.8	0.6	1285.5	0.7	1358.28571428571	0.9	1255.11111111111	1	1160.6	0.8	1314.25	1	830.6	13	547136	2	547124	26	39	547162	-999999	547139	0	20	TrialsPROC	PL_008_92033.png	1	2	89	SessionSelectionList														nonlure	3	Place	2-Back	78	80	68	0	0	80	2	39	523958	2	14	72	521919	-1	523284	1	1365	3	3	2039	53	523972	-54	0															7	89												
WM080112	122317_fnca	1	1	1	624805660	1	75.031	75.030	2.0.10.147	2.0.10.242	2.0.10.242	1.0.0.439	7	234	2	3	Verdana	1	80	0	0	0	WM Stimuli\	0.9	1400	0.5	1264.8	0.6	1285.5	0.7	1358.28571428571	0.9	1255.11111111111	1	1160.6	0.8	1314.25	1	830.6	13	547136	2	547124	26	39	547162	-999999	547139	0	20	TrialsPROC	PL_012_92047.png	1	2	90	SessionSelectionList														nonlure	3	Place	2-Back	79	80	69	0	0	80	3	40	526531	1	13	72	524491	-1	525601	1	1110	3	3	2040	53	526544	-54	0															8	90												
WM080112	122317_fnca	1	1	1	624805660	1	75.031	75.030	2.0.10.147	2.0.10.242	2.0.10.242	1.0.0.439	7	234	2	3	Verdana	1	80	0	0	0	WM Stimuli\	0.9	1400	0.5	1264.8	0.6	1285.5	0.7	1358.28571428571	0.9	1255.11111111111	1	1160.6	0.8	1314.25	1	830.6	13	547136	2	547124	26	39	547162	-999999	547139	0	20	TrialsPROC	PL_012_92047.png	1	2	91	SessionSelectionList														lure	3	Place	2-Back	80	80	70	0	0	80	4	40	529090	1	13	59	527050	-1	528625	1	1575	3	3	2040	53	529103	-54	0															9	91												
WM080112	122317_fnca	1	1	1	624805660	1	75.031	75.030	2.0.10.147	2.0.10.242	2.0.10.242	1.0.0.439	7	234	2	3	Verdana	1	80	0	0	0	WM Stimuli\	0.9	1400	0.5	1264.8	0.6	1285.5	0.7	1358.28571428571	0.9	1255.11111111111	1	1160.6	0.8	1314.25	1	830.6	13	547136	2	547124	26	39	547162	-999999	547139	0	20	TrialsPROC	PL_011_92044.png	1	2	92	SessionSelectionList														nonlure	3	Place	2-Back	80	80	71	0	0	80	5	39	531662	1	13	73	529623	-1	530697	1	1074	3	3	2039	52	531675	-53	0															10	92												
WM080112	122317_fnca	1	1	1	624805660	1	75.031	75.030	2.0.10.147	2.0.10.242	2.0.10.242	1.0.0.439	7	234	2	3	Verdana	1	80	0	0	0	WM Stimuli\	0.9	1400	0.5	1264.8	0.6	1285.5	0.7	1358.28571428571	0.9	1255.11111111111	1	1160.6	0.8	1314.25	1	830.6	13	547136	2	547124	26	39	547162	-999999	547139	0	21	Fix15secPROC	""	1	2	93	SessionSelectionList																																															5	532128	-6	0							93												
