ExperimentName	HCPID	RunNumber	Subject	Session	RandomSeed	Group	Laptop.RefreshRate	ScannerD2.RefreshRate	StudioVersion	RuntimeVersion	RuntimeVersionExpected	ExperimentVersion	triggercode	Allowed	Target	Nontarget	FontStyle	RunTrialNumber[Session]	TrialsPerRun[Session]	TotalRespGreater200[Session]	ConsecRTLess200[Session]	ConsecNonResp[Session]	StimuliDir	ACC_2_Back_Body	Avg_RT_For_Correct_Trials_2_Back_Body	ACC_0_Back_Body	Avg_RT_For_Correct_Trials_0_Back_Body	ACC_2_Back_Face	Avg_RT_For_Correct_Trials_2_Back_Face	ACC_0_Back_Face	Avg_RT_For_Correct_Trials_0_Back_Face	ACC_2_Back_Place	Avg_RT_For_Correct_Trials_2_Back_Place	ACC_0_Back_Place	Avg_RT_For_Correct_Trials_0_Back_Place	ACC_2_Back_Tools	Avg_RT_For_Correct_Trials_2_Back_Tools	ACC_0_Back_Tools	Avg_RT_For_Correct_Trials_0_Back_Tools	ExpInstrucFeelFreeToRest.OnsetDelay	ExpInstrucFeelFreeToRest.OnsetTime	ExpInstrucFeelFreeToRest.DurationError	ExpInstrucFeelFreeToRest.StartTime	ExpInstrucFeelFreeToRest.OnsetToOnsetTime	FeelFreeToRest.OnsetDelay	FeelFreeToRest.OnsetTime	FeelFreeToRest.DurationError	FeelFreeToRest.StartTime	FeelFreeToRest.OnsetToOnsetTime	SessionSelectionList	Procedure[Block]	Stimulus[Block]	RunNumberFilterValue	SessionSelectionList.Cycle	SessionSelectionList.Sample	Running[Block]	IntroButtonMap.OnsetDelay	IntroButtonMap.OnsetTime	IntroButtonMap.DurationError	IntroButtonMap.OnsetToOnsetTime	GetReady.OnsetDelay	GetReady.OnsetTime	GetReady.DurationError	GetReady.OnsetToOnsetTime	Cue2Back.OnsetDelay	Cue2Back.OnsetTime	Cue2Back.DurationError	Cue2Back.OnsetToOnsetTime	Run1Block1	TargetType	CorrectResponse	StimType	BlockType	RunTrialNumber[Block]	TrialsPerRun[Block]	TotalRespGreater200[Block]	ConsecRTLess200[Block]	ConsecNonResp[Block]	ControlAcc	ConsecSameResp	ExperimenterWindow.OnsetDelay	ExperimenterWindow.OnsetTime	ExperimenterWindow.DurationError	ExperimenterWindow.OnsetToOnsetTime	Stim.OnsetDelay	Stim.OnsetTime	Stim.DurationError	Stim.RTTime	Stim.ACC	Stim.RT	Stim.RESP	Stim.CRESP	Stim.OnsetToOnsetTime	Fix.OnsetDelay	Fix.OnsetTime	Fix.DurationError	Fix.OnsetToOnsetTime	CueTarget.OnsetDelay	CueTarget.OnsetTime	CueTarget.DurationError	CueTarget.OnsetToOnsetTime	Run1Block2	Fix15sec.OnsetDelay	Fix15sec.OnsetTime	Fix15sec.DurationError	Fix15sec.OnsetToOnsetTime	Run1Block3	Run1Block4	Run1Block5	Run1Block6	Run1Block7	Run1Block8	Block	Procedure[Trial]	Stimulus[Trial]	ReadyList	Running[Trial]	ReadyList.Cycle	ReadyList.Sample	SyncSlide.OnsetDelay	SyncSlide.OnsetTime	SyncSlide.DurationError	SyncSlide.FinishTime	SyncSlide.OnsetToOnsetTime	Trial
WM080112	111716_fnca	1	1	1	-1161683674	1	75.031	75.030	2.0.10.147	2.0.10.242	2.0.10.242	1.0.0.439	7	234	2	3	Verdana	1	80	0	0	0	WM Stimuli\	0.6	1305	1	723.4	0.8	1055.625	1	913.5	0.9	999.333333333333	1	707.2	0.9	1012	0.7	705.714285714286	13	412595	3	412583	14	27	412609	-999999	412598	0	1	TRSyncPROC	""	1	2	1	SessionSelectionList	95	12279	-999999	0	30	105148	-999999	0																																																	1	InitialTR	4	1	ReadyList	1	1	19	119355	-20	121335	0	1
WM080112	111716_fnca	1	1	1	-1161683674	1	75.031	75.030	2.0.10.147	2.0.10.242	2.0.10.242	1.0.0.439	7	234	2	3	Verdana	1	80	0	0	0	WM Stimuli\	0.6	1305	1	723.4	0.8	1055.625	1	913.5	0.9	999.333333333333	1	707.2	0.9	1012	0.7	705.714285714286	13	412595	3	412583	14	27	412609	-999999	412598	0	1	TRSyncPROC	""	1	2	1	SessionSelectionList	95	12279	-999999	0	30	105148	-999999	0																																																	1	InitialTR	3	2	ReadyList	1	2	18	121354	-19	123335	0	2
WM080112	111716_fnca	1	1	1	-1161683674	1	75.031	75.030	2.0.10.147	2.0.10.242	2.0.10.242	1.0.0.439	7	234	2	3	Verdana	1	80	0	0	0	WM Stimuli\	0.6	1305	1	723.4	0.8	1055.625	1	913.5	0.9	999.333333333333	1	707.2	0.9	1012	0.7	705.714285714286	13	412595	3	412583	14	27	412609	-999999	412598	0	1	TRSyncPROC	""	1	2	1	SessionSelectionList	95	12279	-999999	0	30	105148	-999999	0																																																	1	InitialTR	2	3	ReadyList	1	3	4	123340	-5	125335	0	3
WM080112	111716_fnca	1	1	1	-1161683674	1	75.031	75.030	2.0.10.147	2.0.10.242	2.0.10.242	1.0.0.439	7	234	2	3	Verdana	1	80	0	0	0	WM Stimuli\	0.6	1305	1	723.4	0.8	1055.625	1	913.5	0.9	999.333333333333	1	707.2	0.9	1012	0.7	705.714285714286	13	412595	3	412583	14	27	412609	-999999	412598	0	1	TRSyncPROC	""	1	2	1	SessionSelectionList	95	12279	-999999	0	30	105148	-999999	0																																																	1	InitialTR	1	4	ReadyList	1	4	3	125339	-4	127335	0	4
WM080112	111716_fnca	1	1	1	-1161683674	1	75.031	75.030	2.0.10.147	2.0.10.242	2.0.10.242	1.0.0.439	7	234	2	3	Verdana	1	80	0	0	0	WM Stimuli\	0.6	1305	1	723.4	0.8	1055.625	1	913.5	0.9	999.333333333333	1	707.2	0.9	1012	0.7	705.714285714286	13	412595	3	412583	14	27	412609	-999999	412598	0	2	Cue2BackPROC	""	1	2	2	SessionSelectionList									16	127352	-17	0																																													2												
WM080112	111716_fnca	1	1	1	-1161683674	1	75.031	75.030	2.0.10.147	2.0.10.242	2.0.10.242	1.0.0.439	7	234	2	3	Verdana	1	80	0	0	0	WM Stimuli\	0.6	1305	1	723.4	0.8	1055.625	1	913.5	0.9	999.333333333333	1	707.2	0.9	1012	0.7	705.714285714286	13	412595	3	412583	14	27	412609	-999999	412598	0	3	TrialsPROC	BP_002_BP10_BA.png	1	2	3	SessionSelectionList													1	nonlure	3	Body	2-Back	2	80	0	0	1	0	0	52	131963	3	14	75	129911	-1	0	0	0	""	3	2052	66	131977	-67	0																3												
WM080112	111716_fnca	1	1	1	-1161683674	1	75.031	75.030	2.0.10.147	2.0.10.242	2.0.10.242	1.0.0.439	7	234	2	3	Verdana	1	80	0	0	0	WM Stimuli\	0.6	1305	1	723.4	0.8	1055.625	1	913.5	0.9	999.333333333333	1	707.2	0.9	1012	0.7	705.714285714286	13	412595	3	412583	14	27	412609	-999999	412598	0	3	TrialsPROC	BP_001_BP1_BA.png	1	2	4	SessionSelectionList													2	nonlure	3	Body	2-Back	3	80	1	0	0	0	1	39	134522	3	14	72	132483	-1	133368	1	885	3	3	2039	53	134536	-54	0																4												
WM080112	111716_fnca	1	1	1	-1161683674	1	75.031	75.030	2.0.10.147	2.0.10.242	2.0.10.242	1.0.0.439	7	234	2	3	Verdana	1	80	0	0	0	WM Stimuli\	0.6	1305	1	723.4	0.8	1055.625	1	913.5	0.9	999.333333333333	1	707.2	0.9	1012	0.7	705.714285714286	13	412595	3	412583	14	27	412609	-999999	412598	0	3	TrialsPROC	BP_006_BP2_BA.png	1	2	5	SessionSelectionList													3	nonlure	3	Body	2-Back	4	80	2	0	0	0	2	39	137081	2	14	59	135042	-1	136987	1	1945	3	3	2039	53	137095	-54	0																5												
WM080112	111716_fnca	1	1	1	-1161683674	1	75.031	75.030	2.0.10.147	2.0.10.242	2.0.10.242	1.0.0.439	7	234	2	3	Verdana	1	80	0	0	0	WM Stimuli\	0.6	1305	1	723.4	0.8	1055.625	1	913.5	0.9	999.333333333333	1	707.2	0.9	1012	0.7	705.714285714286	13	412595	3	412583	14	27	412609	-999999	412598	0	3	TrialsPROC	BP_001_BP1_BA.png	1	2	6	SessionSelectionList													4	target	2	Body	2-Back	5	80	3	0	0	0	1	39	139653	2	14	72	137614	-1	139190	1	1576	2	2	2039	53	139667	-54	0																6												
WM080112	111716_fnca	1	1	1	-1161683674	1	75.031	75.030	2.0.10.147	2.0.10.242	2.0.10.242	1.0.0.439	7	234	2	3	Verdana	1	80	0	0	0	WM Stimuli\	0.6	1305	1	723.4	0.8	1055.625	1	913.5	0.9	999.333333333333	1	707.2	0.9	1012	0.7	705.714285714286	13	412595	3	412583	14	27	412609	-999999	412598	0	3	TrialsPROC	BP_005_BP19_BA.png	1	2	7	SessionSelectionList													5	nonlure	3	Body	2-Back	6	80	4	0	0	0	1	39	142226	1	13	73	140187	-1	141493	1	1306	3	3	2039	52	142239	-53	0																7												
WM080112	111716_fnca	1	1	1	-1161683674	1	75.031	75.030	2.0.10.147	2.0.10.242	2.0.10.242	1.0.0.439	7	234	2	3	Verdana	1	80	0	0	0	WM Stimuli\	0.6	1305	1	723.4	0.8	1055.625	1	913.5	0.9	999.333333333333	1	707.2	0.9	1012	0.7	705.714285714286	13	412595	3	412583	14	27	412609	-999999	412598	0	3	TrialsPROC	BP_003_BP16_BA.png	1	2	8	SessionSelectionList													6	nonlure	3	Body	2-Back	7	80	5	0	0	0	2	40	144785	1	13	58	142745	-1	144000	1	1255	3	3	2040	53	144798	-54	0																8												
WM080112	111716_fnca	1	1	1	-1161683674	1	75.031	75.030	2.0.10.147	2.0.10.242	2.0.10.242	1.0.0.439	7	234	2	3	Verdana	1	80	0	0	0	WM Stimuli\	0.6	1305	1	723.4	0.8	1055.625	1	913.5	0.9	999.333333333333	1	707.2	0.9	1012	0.7	705.714285714286	13	412595	3	412583	14	27	412609	-999999	412598	0	3	TrialsPROC	BP_006_BP2_BA.png	1	2	9	SessionSelectionList													7	lure	3	Body	2-Back	8	80	6	0	0	0	1	40	147344	1	13	59	145304	-1	146161	0	857	2	3	2040	53	147357	-54	0																9												
WM080112	111716_fnca	1	1	1	-1161683674	1	75.031	75.030	2.0.10.147	2.0.10.242	2.0.10.242	1.0.0.439	7	234	2	3	Verdana	1	80	0	0	0	WM Stimuli\	0.6	1305	1	723.4	0.8	1055.625	1	913.5	0.9	999.333333333333	1	707.2	0.9	1012	0.7	705.714285714286	13	412595	3	412583	14	27	412609	-999999	412598	0	3	TrialsPROC	BP_004_BP18_BA.png	1	2	10	SessionSelectionList													8	nonlure	3	Body	2-Back	9	80	7	0	0	0	1	40	149903	1	13	59	147863	-1	148726	1	863	3	3	2040	53	149916	-54	0																10												
WM080112	111716_fnca	1	1	1	-1161683674	1	75.031	75.030	2.0.10.147	2.0.10.242	2.0.10.242	1.0.0.439	7	234	2	3	Verdana	1	80	0	0	0	WM Stimuli\	0.6	1305	1	723.4	0.8	1055.625	1	913.5	0.9	999.333333333333	1	707.2	0.9	1012	0.7	705.714285714286	13	412595	3	412583	14	27	412609	-999999	412598	0	3	TrialsPROC	BP_005_BP19_BA.png	1	2	11	SessionSelectionList													9	lure	3	Body	2-Back	10	80	8	0	0	0	1	40	152462	1	13	59	150422	-1	151455	0	1033	2	3	2040	53	152475	-54	0																11												
WM080112	111716_fnca	1	1	1	-1161683674	1	75.031	75.030	2.0.10.147	2.0.10.242	2.0.10.242	1.0.0.439	7	234	2	3	Verdana	1	80	0	0	0	WM Stimuli\	0.6	1305	1	723.4	0.8	1055.625	1	913.5	0.9	999.333333333333	1	707.2	0.9	1012	0.7	705.714285714286	13	412595	3	412583	14	27	412609	-999999	412598	0	3	TrialsPROC	BP_004_BP18_BA.png	1	2	12	SessionSelectionList													10	target	2	Body	2-Back	11	80	8	0	1	0	1	39	155020	2	14	59	152981	-1	0	0	0	""	2	2039	53	155034	-54	0																12												
WM080112	111716_fnca	1	1	1	-1161683674	1	75.031	75.030	2.0.10.147	2.0.10.242	2.0.10.242	1.0.0.439	7	234	2	3	Verdana	1	80	0	0	0	WM Stimuli\	0.6	1305	1	723.4	0.8	1055.625	1	913.5	0.9	999.333333333333	1	707.2	0.9	1012	0.7	705.714285714286	13	412595	3	412583	14	27	412609	-999999	412598	0	4	Cue0BackPROC	FC_001_M1.png	1	2	13	SessionSelectionList																																										19	155500	-20	0												13												
WM080112	111716_fnca	1	1	1	-1161683674	1	75.031	75.030	2.0.10.147	2.0.10.242	2.0.10.242	1.0.0.439	7	234	2	3	Verdana	1	80	0	0	0	WM Stimuli\	0.6	1305	1	723.4	0.8	1055.625	1	913.5	0.9	999.333333333333	1	707.2	0.9	1012	0.7	705.714285714286	13	412595	3	412583	14	27	412609	-999999	412598	0	5	TrialsPROC	FC_005_M3.png	1	2	14	SessionSelectionList														nonlure	3	Face	0-Back	12	80	9	0	0	100	1	39	160085	1	14	65	158046	-1	159064	1	1018	3	3	2039	53	160099	-54	0					1											14												
WM080112	111716_fnca	1	1	1	-1161683674	1	75.031	75.030	2.0.10.147	2.0.10.242	2.0.10.242	1.0.0.439	7	234	2	3	Verdana	1	80	0	0	0	WM Stimuli\	0.6	1305	1	723.4	0.8	1055.625	1	913.5	0.9	999.333333333333	1	707.2	0.9	1012	0.7	705.714285714286	13	412595	3	412583	14	27	412609	-999999	412598	0	5	TrialsPROC	FC_001_M1.png	1	2	15	SessionSelectionList														target	2	Face	0-Back	13	80	10	0	0	100	1	39	162657	2	14	72	160618	-1	161718	1	1100	2	2	2039	53	162671	-54	0					2											15												
WM080112	111716_fnca	1	1	1	-1161683674	1	75.031	75.030	2.0.10.147	2.0.10.242	2.0.10.242	1.0.0.439	7	234	2	3	Verdana	1	80	0	0	0	WM Stimuli\	0.6	1305	1	723.4	0.8	1055.625	1	913.5	0.9	999.333333333333	1	707.2	0.9	1012	0.7	705.714285714286	13	412595	3	412583	14	27	412609	-999999	412598	0	5	TrialsPROC	FC_003_M2.png	1	2	16	SessionSelectionList														nonlure	3	Face	0-Back	14	80	11	0	0	100	1	40	165230	1	13	72	163190	-1	164032	1	842	3	3	2040	53	165243	-54	0					3											16												
WM080112	111716_fnca	1	1	1	-1161683674	1	75.031	75.030	2.0.10.147	2.0.10.242	2.0.10.242	1.0.0.439	7	234	2	3	Verdana	1	80	0	0	0	WM Stimuli\	0.6	1305	1	723.4	0.8	1055.625	1	913.5	0.9	999.333333333333	1	707.2	0.9	1012	0.7	705.714285714286	13	412595	3	412583	14	27	412609	-999999	412598	0	5	TrialsPROC	FC_004_F2.png	1	2	17	SessionSelectionList														nonlure	3	Face	0-Back	15	80	12	0	0	100	2	39	167802	1	14	73	165763	-1	166781	1	1018	3	3	2039	53	167816	-54	0					4											17												
WM080112	111716_fnca	1	1	1	-1161683674	1	75.031	75.030	2.0.10.147	2.0.10.242	2.0.10.242	1.0.0.439	7	234	2	3	Verdana	1	80	0	0	0	WM Stimuli\	0.6	1305	1	723.4	0.8	1055.625	1	913.5	0.9	999.333333333333	1	707.2	0.9	1012	0.7	705.714285714286	13	412595	3	412583	14	27	412609	-999999	412598	0	5	TrialsPROC	FC_004_F2.png	1	2	18	SessionSelectionList														lure	3	Face	0-Back	16	80	13	0	0	100	3	39	170374	2	14	72	168335	-1	168946	1	611	3	3	2039	53	170388	-54	0					5											18												
WM080112	111716_fnca	1	1	1	-1161683674	1	75.031	75.030	2.0.10.147	2.0.10.242	2.0.10.242	1.0.0.439	7	234	2	3	Verdana	1	80	0	0	0	WM Stimuli\	0.6	1305	1	723.4	0.8	1055.625	1	913.5	0.9	999.333333333333	1	707.2	0.9	1012	0.7	705.714285714286	13	412595	3	412583	14	27	412609	-999999	412598	0	5	TrialsPROC	FC_001_M1.png	1	2	19	SessionSelectionList														target	2	Face	0-Back	17	80	14	0	0	100	1	40	172947	1	13	72	170907	-1	171749	1	842	2	2	2040	53	172960	-54	0					6											19												
WM080112	111716_fnca	1	1	1	-1161683674	1	75.031	75.030	2.0.10.147	2.0.10.242	2.0.10.242	1.0.0.439	7	234	2	3	Verdana	1	80	0	0	0	WM Stimuli\	0.6	1305	1	723.4	0.8	1055.625	1	913.5	0.9	999.333333333333	1	707.2	0.9	1012	0.7	705.714285714286	13	412595	3	412583	14	27	412609	-999999	412598	0	5	TrialsPROC	FC_006_F3.png	1	2	20	SessionSelectionList														nonlure	3	Face	0-Back	18	80	15	0	0	100	1	39	175519	1	14	73	173480	-1	174268	1	788	3	3	2039	53	175533	-54	0					7											20												
WM080112	111716_fnca	1	1	1	-1161683674	1	75.031	75.030	2.0.10.147	2.0.10.242	2.0.10.242	1.0.0.439	7	234	2	3	Verdana	1	80	0	0	0	WM Stimuli\	0.6	1305	1	723.4	0.8	1055.625	1	913.5	0.9	999.333333333333	1	707.2	0.9	1012	0.7	705.714285714286	13	412595	3	412583	14	27	412609	-999999	412598	0	5	TrialsPROC	FC_006_F3.png	1	2	21	SessionSelectionList														lure	3	Face	0-Back	19	80	16	0	0	100	2	39	178091	1	14	72	176052	-1	177129	1	1077	3	3	2039	53	178105	-54	0					8											21												
WM080112	111716_fnca	1	1	1	-1161683674	1	75.031	75.030	2.0.10.147	2.0.10.242	2.0.10.242	1.0.0.439	7	234	2	3	Verdana	1	80	0	0	0	WM Stimuli\	0.6	1305	1	723.4	0.8	1055.625	1	913.5	0.9	999.333333333333	1	707.2	0.9	1012	0.7	705.714285714286	13	412595	3	412583	14	27	412609	-999999	412598	0	5	TrialsPROC	FC_003_M2.png	1	2	22	SessionSelectionList														lure	3	Face	0-Back	20	80	17	0	0	100	3	39	180663	2	14	72	178624	-1	179681	1	1057	3	3	2039	53	180677	-54	0					9											22												
WM080112	111716_fnca	1	1	1	-1161683674	1	75.031	75.030	2.0.10.147	2.0.10.242	2.0.10.242	1.0.0.439	7	234	2	3	Verdana	1	80	0	0	0	WM Stimuli\	0.6	1305	1	723.4	0.8	1055.625	1	913.5	0.9	999.333333333333	1	707.2	0.9	1012	0.7	705.714285714286	13	412595	3	412583	14	27	412609	-999999	412598	0	5	TrialsPROC	FC_002_F1.png	1	2	23	SessionSelectionList														nonlure	3	Face	0-Back	21	80	18	0	0	100	4	40	183236	1	13	72	181196	-1	181978	1	782	3	3	2040	53	183249	-54	0					10											23												
WM080112	111716_fnca	1	1	1	-1161683674	1	75.031	75.030	2.0.10.147	2.0.10.242	2.0.10.242	1.0.0.439	7	234	2	3	Verdana	1	80	0	0	0	WM Stimuli\	0.6	1305	1	723.4	0.8	1055.625	1	913.5	0.9	999.333333333333	1	707.2	0.9	1012	0.7	705.714285714286	13	412595	3	412583	14	27	412609	-999999	412598	0	6	Fix15secPROC	""	1	2	24	SessionSelectionList																																															7	183703	-8	0							24												
WM080112	111716_fnca	1	1	1	-1161683674	1	75.031	75.030	2.0.10.147	2.0.10.242	2.0.10.242	1.0.0.439	7	234	2	3	Verdana	1	80	0	0	0	WM Stimuli\	0.6	1305	1	723.4	0.8	1055.625	1	913.5	0.9	999.333333333333	1	707.2	0.9	1012	0.7	705.714285714286	13	412595	3	412583	14	27	412609	-999999	412598	0	7	Cue2BackPROC	""	1	2	25	SessionSelectionList									13	198709	-14	0																																													25												
WM080112	111716_fnca	1	1	1	-1161683674	1	75.031	75.030	2.0.10.147	2.0.10.242	2.0.10.242	1.0.0.439	7	234	2	3	Verdana	1	80	0	0	0	WM Stimuli\	0.6	1305	1	723.4	0.8	1055.625	1	913.5	0.9	999.333333333333	1	707.2	0.9	1012	0.7	705.714285714286	13	412595	3	412583	14	27	412609	-999999	412598	0	8	TrialsPROC	TO_001_TOOL1_BA.png	1	2	26	SessionSelectionList														nonlure	3	Tools	2-Back	22	80	19	0	0	100	5	39	203294	2	14	59	201255	-1	202242	1	987	3	3	2039	53	203308	-54	0										1						26												
WM080112	111716_fnca	1	1	1	-1161683674	1	75.031	75.030	2.0.10.147	2.0.10.242	2.0.10.242	1.0.0.439	7	234	2	3	Verdana	1	80	0	0	0	WM Stimuli\	0.6	1305	1	723.4	0.8	1055.625	1	913.5	0.9	999.333333333333	1	707.2	0.9	1012	0.7	705.714285714286	13	412595	3	412583	14	27	412609	-999999	412598	0	8	TrialsPROC	TO_002_TOOL2_BA.png	1	2	27	SessionSelectionList														nonlure	3	Tools	2-Back	23	80	20	0	0	100	6	39	205853	1	14	59	203814	-1	204742	1	928	3	3	2039	53	205867	-54	0										2						27												
WM080112	111716_fnca	1	1	1	-1161683674	1	75.031	75.030	2.0.10.147	2.0.10.242	2.0.10.242	1.0.0.439	7	234	2	3	Verdana	1	80	0	0	0	WM Stimuli\	0.6	1305	1	723.4	0.8	1055.625	1	913.5	0.9	999.333333333333	1	707.2	0.9	1012	0.7	705.714285714286	13	412595	3	412583	14	27	412609	-999999	412598	0	8	TrialsPROC	TO_004_TOOL4_BA.png	1	2	28	SessionSelectionList														nonlure	3	Tools	2-Back	24	80	21	0	0	100	7	39	208412	2	14	59	206373	-1	207200	1	827	3	3	2039	53	208426	-54	0										3						28												
WM080112	111716_fnca	1	1	1	-1161683674	1	75.031	75.030	2.0.10.147	2.0.10.242	2.0.10.242	1.0.0.439	7	234	2	3	Verdana	1	80	0	0	0	WM Stimuli\	0.6	1305	1	723.4	0.8	1055.625	1	913.5	0.9	999.333333333333	1	707.2	0.9	1012	0.7	705.714285714286	13	412595	3	412583	14	27	412609	-999999	412598	0	8	TrialsPROC	TO_002_TOOL2_BA.png	1	2	29	SessionSelectionList														target	2	Tools	2-Back	25	80	22	0	0	100	1	39	210971	1	14	59	208932	-1	209786	1	854	2	2	2039	53	210985	-54	0										4						29												
WM080112	111716_fnca	1	1	1	-1161683674	1	75.031	75.030	2.0.10.147	2.0.10.242	2.0.10.242	1.0.0.439	7	234	2	3	Verdana	1	80	0	0	0	WM Stimuli\	0.6	1305	1	723.4	0.8	1055.625	1	913.5	0.9	999.333333333333	1	707.2	0.9	1012	0.7	705.714285714286	13	412595	3	412583	14	27	412609	-999999	412598	0	8	TrialsPROC	TO_001_TOOL1_BA.png	1	2	30	SessionSelectionList														lure	3	Tools	2-Back	26	80	23	0	0	100	1	39	213530	1	14	59	211491	-1	213349	1	1858	3	3	2039	53	213544	-54	0										5						30												
WM080112	111716_fnca	1	1	1	-1161683674	1	75.031	75.030	2.0.10.147	2.0.10.242	2.0.10.242	1.0.0.439	7	234	2	3	Verdana	1	80	0	0	0	WM Stimuli\	0.6	1305	1	723.4	0.8	1055.625	1	913.5	0.9	999.333333333333	1	707.2	0.9	1012	0.7	705.714285714286	13	412595	3	412583	14	27	412609	-999999	412598	0	8	TrialsPROC	TO_004_TOOL4_BA.png	1	2	31	SessionSelectionList														lure	3	Tools	2-Back	27	80	24	0	0	100	1	39	216089	1	14	59	214050	-1	215013	0	963	2	3	2039	53	216103	-54	0										6						31												
WM080112	111716_fnca	1	1	1	-1161683674	1	75.031	75.030	2.0.10.147	2.0.10.242	2.0.10.242	1.0.0.439	7	234	2	3	Verdana	1	80	0	0	0	WM Stimuli\	0.6	1305	1	723.4	0.8	1055.625	1	913.5	0.9	999.333333333333	1	707.2	0.9	1012	0.7	705.714285714286	13	412595	3	412583	14	27	412609	-999999	412598	0	8	TrialsPROC	TO_006_TOOL6_BA.png	1	2	32	SessionSelectionList														nonlure	3	Tools	2-Back	28	80	25	0	0	100	1	39	218648	1	14	59	216609	-1	217696	1	1087	3	3	2039	53	218662	-54	0										7						32												
WM080112	111716_fnca	1	1	1	-1161683674	1	75.031	75.030	2.0.10.147	2.0.10.242	2.0.10.242	1.0.0.439	7	234	2	3	Verdana	1	80	0	0	0	WM Stimuli\	0.6	1305	1	723.4	0.8	1055.625	1	913.5	0.9	999.333333333333	1	707.2	0.9	1012	0.7	705.714285714286	13	412595	3	412583	14	27	412609	-999999	412598	0	8	TrialsPROC	TO_005_TOOL5_BA.png	1	2	33	SessionSelectionList														nonlure	3	Tools	2-Back	29	80	26	0	0	100	2	39	221207	1	14	59	219168	-1	220156	1	988	3	3	2039	53	221221	-54	0										8						33												
WM080112	111716_fnca	1	1	1	-1161683674	1	75.031	75.030	2.0.10.147	2.0.10.242	2.0.10.242	1.0.0.439	7	234	2	3	Verdana	1	80	0	0	0	WM Stimuli\	0.6	1305	1	723.4	0.8	1055.625	1	913.5	0.9	999.333333333333	1	707.2	0.9	1012	0.7	705.714285714286	13	412595	3	412583	14	27	412609	-999999	412598	0	8	TrialsPROC	TO_006_TOOL6_BA.png	1	2	34	SessionSelectionList														target	2	Tools	2-Back	30	80	27	0	0	100	1	39	223766	1	13	59	221727	-1	222402	1	675	2	2	2039	52	223779	-53	0										9						34												
WM080112	111716_fnca	1	1	1	-1161683674	1	75.031	75.030	2.0.10.147	2.0.10.242	2.0.10.242	1.0.0.439	7	234	2	3	Verdana	1	80	0	0	0	WM Stimuli\	0.6	1305	1	723.4	0.8	1055.625	1	913.5	0.9	999.333333333333	1	707.2	0.9	1012	0.7	705.714285714286	13	412595	3	412583	14	27	412609	-999999	412598	0	8	TrialsPROC	TO_003_TOOL3_BA.png	1	2	35	SessionSelectionList														nonlure	3	Tools	2-Back	31	80	28	0	0	100	1	39	226325	1	13	59	224286	-1	225190	1	904	3	3	2039	52	226338	-53	0										10						35												
WM080112	111716_fnca	1	1	1	-1161683674	1	75.031	75.030	2.0.10.147	2.0.10.242	2.0.10.242	1.0.0.439	7	234	2	3	Verdana	1	80	0	0	0	WM Stimuli\	0.6	1305	1	723.4	0.8	1055.625	1	913.5	0.9	999.333333333333	1	707.2	0.9	1012	0.7	705.714285714286	13	412595	3	412583	14	27	412609	-999999	412598	0	9	Cue0BackPROC	BP_007_BP20_BA.png	1	2	36	SessionSelectionList																																										18	226804	-19	0												36												
WM080112	111716_fnca	1	1	1	-1161683674	1	75.031	75.030	2.0.10.147	2.0.10.242	2.0.10.242	1.0.0.439	7	234	2	3	Verdana	1	80	0	0	0	WM Stimuli\	0.6	1305	1	723.4	0.8	1055.625	1	913.5	0.9	999.333333333333	1	707.2	0.9	1012	0.7	705.714285714286	13	412595	3	412583	14	27	412609	-999999	412598	0	10	TrialsPROC	BP_007_BP20_BA.png	1	2	37	SessionSelectionList														target	2	Body	0-Back	32	80	29	0	0	100	1	39	231376	1	14	51	229337	-1	230363	1	1026	2	2	2039	53	231390	-54	0											1					37												
WM080112	111716_fnca	1	1	1	-1161683674	1	75.031	75.030	2.0.10.147	2.0.10.242	2.0.10.242	1.0.0.439	7	234	2	3	Verdana	1	80	0	0	0	WM Stimuli\	0.6	1305	1	723.4	0.8	1055.625	1	913.5	0.9	999.333333333333	1	707.2	0.9	1012	0.7	705.714285714286	13	412595	3	412583	14	27	412609	-999999	412598	0	10	TrialsPROC	BP_011_BP4_BA.png	1	2	38	SessionSelectionList														nonlure	3	Body	0-Back	33	80	30	0	0	100	1	39	233948	2	14	72	231909	-1	232409	1	500	3	3	2039	53	233962	-54	0											2					38												
WM080112	111716_fnca	1	1	1	-1161683674	1	75.031	75.030	2.0.10.147	2.0.10.242	2.0.10.242	1.0.0.439	7	234	2	3	Verdana	1	80	0	0	0	WM Stimuli\	0.6	1305	1	723.4	0.8	1055.625	1	913.5	0.9	999.333333333333	1	707.2	0.9	1012	0.7	705.714285714286	13	412595	3	412583	14	27	412609	-999999	412598	0	10	TrialsPROC	BP_010_BP3_BA.png	1	2	39	SessionSelectionList														nonlure	3	Body	0-Back	34	80	31	0	0	100	2	39	236507	2	14	59	234468	-1	235154	1	686	3	3	2039	53	236521	-54	0											3					39												
WM080112	111716_fnca	1	1	1	-1161683674	1	75.031	75.030	2.0.10.147	2.0.10.242	2.0.10.242	1.0.0.439	7	234	2	3	Verdana	1	80	0	0	0	WM Stimuli\	0.6	1305	1	723.4	0.8	1055.625	1	913.5	0.9	999.333333333333	1	707.2	0.9	1012	0.7	705.714285714286	13	412595	3	412583	14	27	412609	-999999	412598	0	10	TrialsPROC	BP_008_BP21_BA.png	1	2	40	SessionSelectionList														nonlure	3	Body	0-Back	35	80	32	0	0	100	3	39	239066	2	14	59	237027	-1	237883	1	856	3	3	2039	53	239080	-54	0											4					40												
WM080112	111716_fnca	1	1	1	-1161683674	1	75.031	75.030	2.0.10.147	2.0.10.242	2.0.10.242	1.0.0.439	7	234	2	3	Verdana	1	80	0	0	0	WM Stimuli\	0.6	1305	1	723.4	0.8	1055.625	1	913.5	0.9	999.333333333333	1	707.2	0.9	1012	0.7	705.714285714286	13	412595	3	412583	14	27	412609	-999999	412598	0	10	TrialsPROC	BP_011_BP4_BA.png	1	2	41	SessionSelectionList														lure	3	Body	0-Back	36	80	33	0	0	100	4	39	241638	2	14	72	239599	-1	240618	1	1019	3	3	2039	53	241652	-54	0											5					41												
WM080112	111716_fnca	1	1	1	-1161683674	1	75.031	75.030	2.0.10.147	2.0.10.242	2.0.10.242	1.0.0.439	7	234	2	3	Verdana	1	80	0	0	0	WM Stimuli\	0.6	1305	1	723.4	0.8	1055.625	1	913.5	0.9	999.333333333333	1	707.2	0.9	1012	0.7	705.714285714286	13	412595	3	412583	14	27	412609	-999999	412598	0	10	TrialsPROC	BP_009_BP22_BA.png	1	2	42	SessionSelectionList														nonlure	3	Body	0-Back	37	80	34	0	0	100	5	39	244197	2	14	59	242158	-1	242954	1	796	3	3	2039	53	244211	-54	0											6					42												
WM080112	111716_fnca	1	1	1	-1161683674	1	75.031	75.030	2.0.10.147	2.0.10.242	2.0.10.242	1.0.0.439	7	234	2	3	Verdana	1	80	0	0	0	WM Stimuli\	0.6	1305	1	723.4	0.8	1055.625	1	913.5	0.9	999.333333333333	1	707.2	0.9	1012	0.7	705.714285714286	13	412595	3	412583	14	27	412609	-999999	412598	0	10	TrialsPROC	BP_009_BP22_BA.png	1	2	43	SessionSelectionList														lure	3	Body	0-Back	38	80	35	0	0	100	6	39	246756	2	14	59	244717	-1	245315	1	598	3	3	2039	53	246770	-54	0											7					43												
WM080112	111716_fnca	1	1	1	-1161683674	1	75.031	75.030	2.0.10.147	2.0.10.242	2.0.10.242	1.0.0.439	7	234	2	3	Verdana	1	80	0	0	0	WM Stimuli\	0.6	1305	1	723.4	0.8	1055.625	1	913.5	0.9	999.333333333333	1	707.2	0.9	1012	0.7	705.714285714286	13	412595	3	412583	14	27	412609	-999999	412598	0	10	TrialsPROC	BP_008_BP21_BA.png	1	2	44	SessionSelectionList														lure	3	Body	0-Back	39	80	36	0	0	100	7	39	249315	2	14	59	247276	-1	247910	1	634	3	3	2039	53	249329	-54	0											8					44												
WM080112	111716_fnca	1	1	1	-1161683674	1	75.031	75.030	2.0.10.147	2.0.10.242	2.0.10.242	1.0.0.439	7	234	2	3	Verdana	1	80	0	0	0	WM Stimuli\	0.6	1305	1	723.4	0.8	1055.625	1	913.5	0.9	999.333333333333	1	707.2	0.9	1012	0.7	705.714285714286	13	412595	3	412583	14	27	412609	-999999	412598	0	10	TrialsPROC	BP_007_BP20_BA.png	1	2	45	SessionSelectionList														target	2	Body	0-Back	40	80	37	0	0	100	1	39	251874	2	14	59	249835	-1	250458	1	623	2	2	2039	53	251888	-54	0											9					45												
WM080112	111716_fnca	1	1	1	-1161683674	1	75.031	75.030	2.0.10.147	2.0.10.242	2.0.10.242	1.0.0.439	7	234	2	3	Verdana	1	80	0	0	0	WM Stimuli\	0.6	1305	1	723.4	0.8	1055.625	1	913.5	0.9	999.333333333333	1	707.2	0.9	1012	0.7	705.714285714286	13	412595	3	412583	14	27	412609	-999999	412598	0	10	TrialsPROC	BP_012_BP5_BA.png	1	2	46	SessionSelectionList														nonlure	3	Body	0-Back	41	80	38	0	0	100	1	39	254433	2	14	59	252394	-1	252890	1	496	3	3	2039	53	254447	-54	0											10					46												
WM080112	111716_fnca	1	1	1	-1161683674	1	75.031	75.030	2.0.10.147	2.0.10.242	2.0.10.242	1.0.0.439	7	234	2	3	Verdana	1	80	0	0	0	WM Stimuli\	0.6	1305	1	723.4	0.8	1055.625	1	913.5	0.9	999.333333333333	1	707.2	0.9	1012	0.7	705.714285714286	13	412595	3	412583	14	27	412609	-999999	412598	0	11	Fix15secPROC	""	1	2	47	SessionSelectionList																																															6	254900	-7	0							47												
WM080112	111716_fnca	1	1	1	-1161683674	1	75.031	75.030	2.0.10.147	2.0.10.242	2.0.10.242	1.0.0.439	7	234	2	3	Verdana	1	80	0	0	0	WM Stimuli\	0.6	1305	1	723.4	0.8	1055.625	1	913.5	0.9	999.333333333333	1	707.2	0.9	1012	0.7	705.714285714286	13	412595	3	412583	14	27	412609	-999999	412598	0	12	Cue0BackPROC	PL_001_92012.png	1	2	48	SessionSelectionList																																										13	269907	-14	0												48												
WM080112	111716_fnca	1	1	1	-1161683674	1	75.031	75.030	2.0.10.147	2.0.10.242	2.0.10.242	1.0.0.439	7	234	2	3	Verdana	1	80	0	0	0	WM Stimuli\	0.6	1305	1	723.4	0.8	1055.625	1	913.5	0.9	999.333333333333	1	707.2	0.9	1012	0.7	705.714285714286	13	412595	3	412583	14	27	412609	-999999	412598	0	13	TrialsPROC	PL_003_92016.png	1	2	49	SessionSelectionList														nonlure	3	Place	0-Back	42	80	39	0	0	100	2	39	274505	1	14	72	272466	-1	273357	1	891	3	3	2039	53	274519	-54	0												1				49												
WM080112	111716_fnca	1	1	1	-1161683674	1	75.031	75.030	2.0.10.147	2.0.10.242	2.0.10.242	1.0.0.439	7	234	2	3	Verdana	1	80	0	0	0	WM Stimuli\	0.6	1305	1	723.4	0.8	1055.625	1	913.5	0.9	999.333333333333	1	707.2	0.9	1012	0.7	705.714285714286	13	412595	3	412583	14	27	412609	-999999	412598	0	13	TrialsPROC	PL_003_92016.png	1	2	50	SessionSelectionList														lure	3	Place	0-Back	43	80	40	0	0	100	3	39	277077	2	14	72	275038	-1	275687	1	649	3	3	2039	53	277091	-54	0												2				50												
WM080112	111716_fnca	1	1	1	-1161683674	1	75.031	75.030	2.0.10.147	2.0.10.242	2.0.10.242	1.0.0.439	7	234	2	3	Verdana	1	80	0	0	0	WM Stimuli\	0.6	1305	1	723.4	0.8	1055.625	1	913.5	0.9	999.333333333333	1	707.2	0.9	1012	0.7	705.714285714286	13	412595	3	412583	14	27	412609	-999999	412598	0	13	TrialsPROC	PL_006_92025.png	1	2	51	SessionSelectionList														nonlure	3	Place	0-Back	44	80	41	0	0	100	4	40	279650	1	13	72	277610	-1	278357	1	747	3	3	2040	53	279663	-54	0												3				51												
WM080112	111716_fnca	1	1	1	-1161683674	1	75.031	75.030	2.0.10.147	2.0.10.242	2.0.10.242	1.0.0.439	7	234	2	3	Verdana	1	80	0	0	0	WM Stimuli\	0.6	1305	1	723.4	0.8	1055.625	1	913.5	0.9	999.333333333333	1	707.2	0.9	1012	0.7	705.714285714286	13	412595	3	412583	14	27	412609	-999999	412598	0	13	TrialsPROC	PL_001_92012.png	1	2	52	SessionSelectionList														target	2	Place	0-Back	45	80	42	0	0	100	1	39	282222	1	14	73	280183	-1	281375	1	1192	2	2	2039	53	282236	-54	0												4				52												
WM080112	111716_fnca	1	1	1	-1161683674	1	75.031	75.030	2.0.10.147	2.0.10.242	2.0.10.242	1.0.0.439	7	234	2	3	Verdana	1	80	0	0	0	WM Stimuli\	0.6	1305	1	723.4	0.8	1055.625	1	913.5	0.9	999.333333333333	1	707.2	0.9	1012	0.7	705.714285714286	13	412595	3	412583	14	27	412609	-999999	412598	0	13	TrialsPROC	PL_004_92023.png	1	2	53	SessionSelectionList														nonlure	3	Place	0-Back	46	80	43	0	0	100	1	39	284794	2	14	72	282755	-1	283284	1	529	3	3	2039	53	284808	-54	0												5				53												
WM080112	111716_fnca	1	1	1	-1161683674	1	75.031	75.030	2.0.10.147	2.0.10.242	2.0.10.242	1.0.0.439	7	234	2	3	Verdana	1	80	0	0	0	WM Stimuli\	0.6	1305	1	723.4	0.8	1055.625	1	913.5	0.9	999.333333333333	1	707.2	0.9	1012	0.7	705.714285714286	13	412595	3	412583	14	27	412609	-999999	412598	0	13	TrialsPROC	PL_005_92024.png	1	2	54	SessionSelectionList														nonlure	3	Place	0-Back	47	80	44	0	0	100	2	39	287366	2	14	72	285327	-1	285930	1	603	3	3	2039	53	287380	-54	0												6				54												
WM080112	111716_fnca	1	1	1	-1161683674	1	75.031	75.030	2.0.10.147	2.0.10.242	2.0.10.242	1.0.0.439	7	234	2	3	Verdana	1	80	0	0	0	WM Stimuli\	0.6	1305	1	723.4	0.8	1055.625	1	913.5	0.9	999.333333333333	1	707.2	0.9	1012	0.7	705.714285714286	13	412595	3	412583	14	27	412609	-999999	412598	0	13	TrialsPROC	PL_001_92012.png	1	2	55	SessionSelectionList														target	2	Place	0-Back	48	80	45	0	0	100	1	39	289939	1	13	73	287900	-1	288779	1	879	2	2	2039	52	289952	-53	0												7				55												
WM080112	111716_fnca	1	1	1	-1161683674	1	75.031	75.030	2.0.10.147	2.0.10.242	2.0.10.242	1.0.0.439	7	234	2	3	Verdana	1	80	0	0	0	WM Stimuli\	0.6	1305	1	723.4	0.8	1055.625	1	913.5	0.9	999.333333333333	1	707.2	0.9	1012	0.7	705.714285714286	13	412595	3	412583	14	27	412609	-999999	412598	0	13	TrialsPROC	PL_002_92014.png	1	2	56	SessionSelectionList														nonlure	3	Place	0-Back	49	80	46	0	0	100	1	39	292511	1	14	72	290472	-1	290973	1	501	3	3	2039	53	292525	-54	0												8				56												
WM080112	111716_fnca	1	1	1	-1161683674	1	75.031	75.030	2.0.10.147	2.0.10.242	2.0.10.242	1.0.0.439	7	234	2	3	Verdana	1	80	0	0	0	WM Stimuli\	0.6	1305	1	723.4	0.8	1055.625	1	913.5	0.9	999.333333333333	1	707.2	0.9	1012	0.7	705.714285714286	13	412595	3	412583	14	27	412609	-999999	412598	0	13	TrialsPROC	PL_004_92023.png	1	2	57	SessionSelectionList														lure	3	Place	0-Back	50	80	47	0	0	100	2	39	295083	2	14	72	293044	-1	293515	1	471	3	3	2039	53	295097	-54	0												9				57												
WM080112	111716_fnca	1	1	1	-1161683674	1	75.031	75.030	2.0.10.147	2.0.10.242	2.0.10.242	1.0.0.439	7	234	2	3	Verdana	1	80	0	0	0	WM Stimuli\	0.6	1305	1	723.4	0.8	1055.625	1	913.5	0.9	999.333333333333	1	707.2	0.9	1012	0.7	705.714285714286	13	412595	3	412583	14	27	412609	-999999	412598	0	13	TrialsPROC	PL_006_92025.png	1	2	58	SessionSelectionList														lure	3	Place	0-Back	51	80	48	0	0	100	3	40	297656	1	13	72	295616	-1	296226	1	610	3	3	2040	53	297669	-54	0												10				58												
WM080112	111716_fnca	1	1	1	-1161683674	1	75.031	75.030	2.0.10.147	2.0.10.242	2.0.10.242	1.0.0.439	7	234	2	3	Verdana	1	80	0	0	0	WM Stimuli\	0.6	1305	1	723.4	0.8	1055.625	1	913.5	0.9	999.333333333333	1	707.2	0.9	1012	0.7	705.714285714286	13	412595	3	412583	14	27	412609	-999999	412598	0	14	Cue2BackPROC	""	1	2	59	SessionSelectionList									6	298122	-7	0																																													59												
WM080112	111716_fnca	1	1	1	-1161683674	1	75.031	75.030	2.0.10.147	2.0.10.242	2.0.10.242	1.0.0.439	7	234	2	3	Verdana	1	80	0	0	0	WM Stimuli\	0.6	1305	1	723.4	0.8	1055.625	1	913.5	0.9	999.333333333333	1	707.2	0.9	1012	0.7	705.714285714286	13	412595	3	412583	14	27	412609	-999999	412598	0	15	TrialsPROC	FC_010_F5.png	1	2	60	SessionSelectionList														nonlure	3	Face	2-Back	52	80	48	0	1	100	3	39	302720	2	14	65	300681	-1	0	0	0	""	3	2039	53	302734	-54	0													1			60												
WM080112	111716_fnca	1	1	1	-1161683674	1	75.031	75.030	2.0.10.147	2.0.10.242	2.0.10.242	1.0.0.439	7	234	2	3	Verdana	1	80	0	0	0	WM Stimuli\	0.6	1305	1	723.4	0.8	1055.625	1	913.5	0.9	999.333333333333	1	707.2	0.9	1012	0.7	705.714285714286	13	412595	3	412583	14	27	412609	-999999	412598	0	15	TrialsPROC	FC_012_F6.png	1	2	61	SessionSelectionList														nonlure	3	Face	2-Back	53	80	49	0	0	100	1	39	305292	2	14	72	303253	-1	303881	1	628	3	3	2039	53	305306	-54	0													2			61												
WM080112	111716_fnca	1	1	1	-1161683674	1	75.031	75.030	2.0.10.147	2.0.10.242	2.0.10.242	1.0.0.439	7	234	2	3	Verdana	1	80	0	0	0	WM Stimuli\	0.6	1305	1	723.4	0.8	1055.625	1	913.5	0.9	999.333333333333	1	707.2	0.9	1012	0.7	705.714285714286	13	412595	3	412583	14	27	412609	-999999	412598	0	15	TrialsPROC	FC_010_F5.png	1	2	62	SessionSelectionList														target	2	Face	2-Back	54	80	50	0	0	100	1	39	307865	1	13	73	305826	-1	306624	1	798	2	2	2039	52	307878	-53	0													3			62												
WM080112	111716_fnca	1	1	1	-1161683674	1	75.031	75.030	2.0.10.147	2.0.10.242	2.0.10.242	1.0.0.439	7	234	2	3	Verdana	1	80	0	0	0	WM Stimuli\	0.6	1305	1	723.4	0.8	1055.625	1	913.5	0.9	999.333333333333	1	707.2	0.9	1012	0.7	705.714285714286	13	412595	3	412583	14	27	412609	-999999	412598	0	15	TrialsPROC	FC_008_F4.png	1	2	63	SessionSelectionList														nonlure	3	Face	2-Back	55	80	51	0	0	100	1	39	310437	1	14	72	308398	-1	308941	1	543	3	3	2039	53	310451	-54	0													4			63												
WM080112	111716_fnca	1	1	1	-1161683674	1	75.031	75.030	2.0.10.147	2.0.10.242	2.0.10.242	1.0.0.439	7	234	2	3	Verdana	1	80	0	0	0	WM Stimuli\	0.6	1305	1	723.4	0.8	1055.625	1	913.5	0.9	999.333333333333	1	707.2	0.9	1012	0.7	705.714285714286	13	412595	3	412583	14	27	412609	-999999	412598	0	15	TrialsPROC	FC_012_F6.png	1	2	64	SessionSelectionList														lure	3	Face	2-Back	56	80	52	0	0	100	1	39	313009	2	14	72	310970	-1	312235	0	1265	2	3	2039	53	313023	-54	0													5			64												
WM080112	111716_fnca	1	1	1	-1161683674	1	75.031	75.030	2.0.10.147	2.0.10.242	2.0.10.242	1.0.0.439	7	234	2	3	Verdana	1	80	0	0	0	WM Stimuli\	0.6	1305	1	723.4	0.8	1055.625	1	913.5	0.9	999.333333333333	1	707.2	0.9	1012	0.7	705.714285714286	13	412595	3	412583	14	27	412609	-999999	412598	0	15	TrialsPROC	FC_008_F4.png	1	2	65	SessionSelectionList														target	2	Face	2-Back	57	80	53	0	0	100	2	40	315582	1	13	72	313542	-1	315267	1	1725	2	2	2040	53	315595	-54	0													6			65												
WM080112	111716_fnca	1	1	1	-1161683674	1	75.031	75.030	2.0.10.147	2.0.10.242	2.0.10.242	1.0.0.439	7	234	2	3	Verdana	1	80	0	0	0	WM Stimuli\	0.6	1305	1	723.4	0.8	1055.625	1	913.5	0.9	999.333333333333	1	707.2	0.9	1012	0.7	705.714285714286	13	412595	3	412583	14	27	412609	-999999	412598	0	15	TrialsPROC	FC_007_M4.png	1	2	66	SessionSelectionList														nonlure	3	Face	2-Back	58	80	54	0	0	100	1	39	318154	1	14	73	316115	-1	317076	1	961	3	3	2039	53	318168	-54	0													7			66												
WM080112	111716_fnca	1	1	1	-1161683674	1	75.031	75.030	2.0.10.147	2.0.10.242	2.0.10.242	1.0.0.439	7	234	2	3	Verdana	1	80	0	0	0	WM Stimuli\	0.6	1305	1	723.4	0.8	1055.625	1	913.5	0.9	999.333333333333	1	707.2	0.9	1012	0.7	705.714285714286	13	412595	3	412583	14	27	412609	-999999	412598	0	15	TrialsPROC	FC_007_M4.png	1	2	67	SessionSelectionList														lure	3	Face	2-Back	59	80	55	0	0	100	2	39	320726	2	14	72	318687	-1	320227	1	1540	3	3	2039	53	320740	-54	0													8			67												
WM080112	111716_fnca	1	1	1	-1161683674	1	75.031	75.030	2.0.10.147	2.0.10.242	2.0.10.242	1.0.0.439	7	234	2	3	Verdana	1	80	0	0	0	WM Stimuli\	0.6	1305	1	723.4	0.8	1055.625	1	913.5	0.9	999.333333333333	1	707.2	0.9	1012	0.7	705.714285714286	13	412595	3	412583	14	27	412609	-999999	412598	0	15	TrialsPROC	FC_009_M5.png	1	2	68	SessionSelectionList														nonlure	3	Face	2-Back	60	80	56	0	0	100	3	39	323298	2	14	72	321259	-1	322630	1	1371	3	3	2039	53	323312	-54	0													9			68												
WM080112	111716_fnca	1	1	1	-1161683674	1	75.031	75.030	2.0.10.147	2.0.10.242	2.0.10.242	1.0.0.439	7	234	2	3	Verdana	1	80	0	0	0	WM Stimuli\	0.6	1305	1	723.4	0.8	1055.625	1	913.5	0.9	999.333333333333	1	707.2	0.9	1012	0.7	705.714285714286	13	412595	3	412583	14	27	412609	-999999	412598	0	15	TrialsPROC	FC_011_M6.png	1	2	69	SessionSelectionList														nonlure	3	Face	2-Back	61	80	57	0	0	100	4	39	325871	1	13	73	323832	-1	324711	1	879	3	3	2039	52	325884	-53	0													10			69												
WM080112	111716_fnca	1	1	1	-1161683674	1	75.031	75.030	2.0.10.147	2.0.10.242	2.0.10.242	1.0.0.439	7	234	2	3	Verdana	1	80	0	0	0	WM Stimuli\	0.6	1305	1	723.4	0.8	1055.625	1	913.5	0.9	999.333333333333	1	707.2	0.9	1012	0.7	705.714285714286	13	412595	3	412583	14	27	412609	-999999	412598	0	16	Fix15secPROC	""	1	2	70	SessionSelectionList																																															6	326338	-7	0							70												
WM080112	111716_fnca	1	1	1	-1161683674	1	75.031	75.030	2.0.10.147	2.0.10.242	2.0.10.242	1.0.0.439	7	234	2	3	Verdana	1	80	0	0	0	WM Stimuli\	0.6	1305	1	723.4	0.8	1055.625	1	913.5	0.9	999.333333333333	1	707.2	0.9	1012	0.7	705.714285714286	13	412595	3	412583	14	27	412609	-999999	412598	0	17	Cue0BackPROC	TO_007_TOOL7_BA.png	1	2	71	SessionSelectionList																																										12	341344	-13	0												71												
WM080112	111716_fnca	1	1	1	-1161683674	1	75.031	75.030	2.0.10.147	2.0.10.242	2.0.10.242	1.0.0.439	7	234	2	3	Verdana	1	80	0	0	0	WM Stimuli\	0.6	1305	1	723.4	0.8	1055.625	1	913.5	0.9	999.333333333333	1	707.2	0.9	1012	0.7	705.714285714286	13	412595	3	412583	14	27	412609	-999999	412598	0	18	TrialsPROC	TO_010_TOOL10_BA.png	1	2	72	SessionSelectionList														nonlure	3	Tools	0-Back	62	80	58	0	0	100	5	39	345929	2	14	58	343890	-1	345104	1	1214	3	3	2039	53	345943	-54	0														1		72												
WM080112	111716_fnca	1	1	1	-1161683674	1	75.031	75.030	2.0.10.147	2.0.10.242	2.0.10.242	1.0.0.439	7	234	2	3	Verdana	1	80	0	0	0	WM Stimuli\	0.6	1305	1	723.4	0.8	1055.625	1	913.5	0.9	999.333333333333	1	707.2	0.9	1012	0.7	705.714285714286	13	412595	3	412583	14	27	412609	-999999	412598	0	18	TrialsPROC	TO_009_TOOL9_BA.png	1	2	73	SessionSelectionList														nonlure	3	Tools	0-Back	63	80	59	0	0	100	6	39	348488	2	14	59	346449	-1	347103	1	654	3	3	2039	53	348502	-54	0														2		73												
WM080112	111716_fnca	1	1	1	-1161683674	1	75.031	75.030	2.0.10.147	2.0.10.242	2.0.10.242	1.0.0.439	7	234	2	3	Verdana	1	80	0	0	0	WM Stimuli\	0.6	1305	1	723.4	0.8	1055.625	1	913.5	0.9	999.333333333333	1	707.2	0.9	1012	0.7	705.714285714286	13	412595	3	412583	14	27	412609	-999999	412598	0	18	TrialsPROC	TO_009_TOOL9_BA.png	1	2	74	SessionSelectionList														lure	3	Tools	0-Back	64	80	60	0	0	100	7	39	351047	2	14	59	349008	-1	349761	1	753	3	3	2039	53	351061	-54	0														3		74												
WM080112	111716_fnca	1	1	1	-1161683674	1	75.031	75.030	2.0.10.147	2.0.10.242	2.0.10.242	1.0.0.439	7	234	2	3	Verdana	1	80	0	0	0	WM Stimuli\	0.6	1305	1	723.4	0.8	1055.625	1	913.5	0.9	999.333333333333	1	707.2	0.9	1012	0.7	705.714285714286	13	412595	3	412583	14	27	412609	-999999	412598	0	18	TrialsPROC	TO_008_TOOL8_BA.png	1	2	75	SessionSelectionList														nonlure	3	Tools	0-Back	65	80	61	0	0	100	8	39	353606	1	14	59	351567	-1	352238	1	671	3	3	2039	53	353620	-54	0														4		75												
WM080112	111716_fnca	1	1	1	-1161683674	1	75.031	75.030	2.0.10.147	2.0.10.242	2.0.10.242	1.0.0.439	7	234	2	3	Verdana	1	80	0	0	0	WM Stimuli\	0.6	1305	1	723.4	0.8	1055.625	1	913.5	0.9	999.333333333333	1	707.2	0.9	1012	0.7	705.714285714286	13	412595	3	412583	14	27	412609	-999999	412598	0	18	TrialsPROC	TO_011_TOOL11_BA.png	1	2	76	SessionSelectionList														nonlure	3	Tools	0-Back	66	80	62	0	0	100	9	39	356165	1	14	59	354126	-1	354667	1	541	3	3	2039	53	356179	-54	0														5		76												
WM080112	111716_fnca	1	1	1	-1161683674	1	75.031	75.030	2.0.10.147	2.0.10.242	2.0.10.242	1.0.0.439	7	234	2	3	Verdana	1	80	0	0	0	WM Stimuli\	0.6	1305	1	723.4	0.8	1055.625	1	913.5	0.9	999.333333333333	1	707.2	0.9	1012	0.7	705.714285714286	13	412595	3	412583	14	27	412609	-999999	412598	0	18	TrialsPROC	TO_012_TOOL12_BA.png	1	2	77	SessionSelectionList														nonlure	3	Tools	0-Back	67	80	63	0	0	100	10	39	358724	1	14	59	356685	-1	357169	1	484	3	3	2039	53	358738	-54	0														6		77												
WM080112	111716_fnca	1	1	1	-1161683674	1	75.031	75.030	2.0.10.147	2.0.10.242	2.0.10.242	1.0.0.439	7	234	2	3	Verdana	1	80	0	0	0	WM Stimuli\	0.6	1305	1	723.4	0.8	1055.625	1	913.5	0.9	999.333333333333	1	707.2	0.9	1012	0.7	705.714285714286	13	412595	3	412583	14	27	412609	-999999	412598	0	18	TrialsPROC	TO_010_TOOL10_BA.png	1	2	78	SessionSelectionList														lure	3	Tools	0-Back	68	80	64	0	0	97	1	39	361283	1	14	59	359244	-1	360128	0	884	2	3	2039	53	361297	-54	0														7		78												
WM080112	111716_fnca	1	1	1	-1161683674	1	75.031	75.030	2.0.10.147	2.0.10.242	2.0.10.242	1.0.0.439	7	234	2	3	Verdana	1	80	0	0	0	WM Stimuli\	0.6	1305	1	723.4	0.8	1055.625	1	913.5	0.9	999.333333333333	1	707.2	0.9	1012	0.7	705.714285714286	13	412595	3	412583	14	27	412609	-999999	412598	0	18	TrialsPROC	TO_007_TOOL7_BA.png	1	2	79	SessionSelectionList														target	2	Tools	0-Back	69	80	65	0	0	95	1	39	363842	1	14	59	361803	-1	362276	0	473	3	2	2039	53	363856	-54	0														8		79												
WM080112	111716_fnca	1	1	1	-1161683674	1	75.031	75.030	2.0.10.147	2.0.10.242	2.0.10.242	1.0.0.439	7	234	2	3	Verdana	1	80	0	0	0	WM Stimuli\	0.6	1305	1	723.4	0.8	1055.625	1	913.5	0.9	999.333333333333	1	707.2	0.9	1012	0.7	705.714285714286	13	412595	3	412583	14	27	412609	-999999	412598	0	18	TrialsPROC	TO_008_TOOL8_BA.png	1	2	80	SessionSelectionList														lure	3	Tools	0-Back	70	80	66	0	0	95	2	39	366401	1	14	59	364362	-1	364985	1	623	3	3	2039	53	366415	-54	0														9		80												
WM080112	111716_fnca	1	1	1	-1161683674	1	75.031	75.030	2.0.10.147	2.0.10.242	2.0.10.242	1.0.0.439	7	234	2	3	Verdana	1	80	0	0	0	WM Stimuli\	0.6	1305	1	723.4	0.8	1055.625	1	913.5	0.9	999.333333333333	1	707.2	0.9	1012	0.7	705.714285714286	13	412595	3	412583	14	27	412609	-999999	412598	0	18	TrialsPROC	TO_007_TOOL7_BA.png	1	2	81	SessionSelectionList														target	2	Tools	0-Back	71	80	67	0	0	92	3	39	368960	1	13	59	366921	-1	367845	0	924	3	2	2039	52	368973	-53	0														10		81												
WM080112	111716_fnca	1	1	1	-1161683674	1	75.031	75.030	2.0.10.147	2.0.10.242	2.0.10.242	1.0.0.439	7	234	2	3	Verdana	1	80	0	0	0	WM Stimuli\	0.6	1305	1	723.4	0.8	1055.625	1	913.5	0.9	999.333333333333	1	707.2	0.9	1012	0.7	705.714285714286	13	412595	3	412583	14	27	412609	-999999	412598	0	19	Cue2BackPROC	""	1	2	82	SessionSelectionList									5	369426	-6	0																																													82												
WM080112	111716_fnca	1	1	1	-1161683674	1	75.031	75.030	2.0.10.147	2.0.10.242	2.0.10.242	1.0.0.439	7	234	2	3	Verdana	1	80	0	0	0	WM Stimuli\	0.6	1305	1	723.4	0.8	1055.625	1	913.5	0.9	999.333333333333	1	707.2	0.9	1012	0.7	705.714285714286	13	412595	3	412583	14	27	412609	-999999	412598	0	20	TrialsPROC	PL_007_92026.png	1	2	83	SessionSelectionList														nonlure	3	Place	2-Back	72	80	67	0	1	92	3	39	374011	1	14	51	371972	-1	0	0	0	""	3	2039	53	374025	-54	0															1	83												
WM080112	111716_fnca	1	1	1	-1161683674	1	75.031	75.030	2.0.10.147	2.0.10.242	2.0.10.242	1.0.0.439	7	234	2	3	Verdana	1	80	0	0	0	WM Stimuli\	0.6	1305	1	723.4	0.8	1055.625	1	913.5	0.9	999.333333333333	1	707.2	0.9	1012	0.7	705.714285714286	13	412595	3	412583	14	27	412609	-999999	412598	0	20	TrialsPROC	PL_007_92026.png	1	2	84	SessionSelectionList														lure	3	Place	2-Back	73	80	68	0	0	92	1	39	376583	3	14	72	374544	-1	375316	1	772	3	3	2039	53	376597	-54	0															2	84												
WM080112	111716_fnca	1	1	1	-1161683674	1	75.031	75.030	2.0.10.147	2.0.10.242	2.0.10.242	1.0.0.439	7	234	2	3	Verdana	1	80	0	0	0	WM Stimuli\	0.6	1305	1	723.4	0.8	1055.625	1	913.5	0.9	999.333333333333	1	707.2	0.9	1012	0.7	705.714285714286	13	412595	3	412583	14	27	412609	-999999	412598	0	20	TrialsPROC	PL_010_92038.png	1	2	85	SessionSelectionList														nonlure	3	Place	2-Back	74	80	69	0	0	92	2	40	379156	1	13	72	377116	-1	378303	1	1187	3	3	2040	53	379169	-54	0															3	85												
WM080112	111716_fnca	1	1	1	-1161683674	1	75.031	75.030	2.0.10.147	2.0.10.242	2.0.10.242	1.0.0.439	7	234	2	3	Verdana	1	80	0	0	0	WM Stimuli\	0.6	1305	1	723.4	0.8	1055.625	1	913.5	0.9	999.333333333333	1	707.2	0.9	1012	0.7	705.714285714286	13	412595	3	412583	14	27	412609	-999999	412598	0	20	TrialsPROC	PL_009_92037.png	1	2	86	SessionSelectionList														nonlure	3	Place	2-Back	75	80	70	0	0	92	3	39	381715	1	13	60	379676	-1	380417	1	741	3	3	2039	52	381728	-53	0															4	86												
WM080112	111716_fnca	1	1	1	-1161683674	1	75.031	75.030	2.0.10.147	2.0.10.242	2.0.10.242	1.0.0.439	7	234	2	3	Verdana	1	80	0	0	0	WM Stimuli\	0.6	1305	1	723.4	0.8	1055.625	1	913.5	0.9	999.333333333333	1	707.2	0.9	1012	0.7	705.714285714286	13	412595	3	412583	14	27	412609	-999999	412598	0	20	TrialsPROC	PL_010_92038.png	1	2	87	SessionSelectionList														target	2	Place	2-Back	76	80	71	0	0	92	1	39	384273	2	14	58	382234	-1	383258	1	1024	2	2	2039	53	384287	-54	0															5	87												
WM080112	111716_fnca	1	1	1	-1161683674	1	75.031	75.030	2.0.10.147	2.0.10.242	2.0.10.242	1.0.0.439	7	234	2	3	Verdana	1	80	0	0	0	WM Stimuli\	0.6	1305	1	723.4	0.8	1055.625	1	913.5	0.9	999.333333333333	1	707.2	0.9	1012	0.7	705.714285714286	13	412595	3	412583	14	27	412609	-999999	412598	0	20	TrialsPROC	PL_009_92037.png	1	2	88	SessionSelectionList														target	2	Place	2-Back	77	80	72	0	0	92	2	39	386832	2	14	59	384793	-1	386107	1	1314	2	2	2039	53	386846	-54	0															6	88												
WM080112	111716_fnca	1	1	1	-1161683674	1	75.031	75.030	2.0.10.147	2.0.10.242	2.0.10.242	1.0.0.439	7	234	2	3	Verdana	1	80	0	0	0	WM Stimuli\	0.6	1305	1	723.4	0.8	1055.625	1	913.5	0.9	999.333333333333	1	707.2	0.9	1012	0.7	705.714285714286	13	412595	3	412583	14	27	412609	-999999	412598	0	20	TrialsPROC	PL_008_92033.png	1	2	89	SessionSelectionList														nonlure	3	Place	2-Back	78	80	73	0	0	92	1	39	389405	1	13	73	387366	-1	388156	1	790	3	3	2039	52	389418	-53	0															7	89												
WM080112	111716_fnca	1	1	1	-1161683674	1	75.031	75.030	2.0.10.147	2.0.10.242	2.0.10.242	1.0.0.439	7	234	2	3	Verdana	1	80	0	0	0	WM Stimuli\	0.6	1305	1	723.4	0.8	1055.625	1	913.5	0.9	999.333333333333	1	707.2	0.9	1012	0.7	705.714285714286	13	412595	3	412583	14	27	412609	-999999	412598	0	20	TrialsPROC	PL_012_92047.png	1	2	90	SessionSelectionList														nonlure	3	Place	2-Back	79	80	74	0	0	92	2	39	391977	1	14	72	389938	-1	390759	1	821	3	3	2039	53	391991	-54	0															8	90												
WM080112	111716_fnca	1	1	1	-1161683674	1	75.031	75.030	2.0.10.147	2.0.10.242	2.0.10.242	1.0.0.439	7	234	2	3	Verdana	1	80	0	0	0	WM Stimuli\	0.6	1305	1	723.4	0.8	1055.625	1	913.5	0.9	999.333333333333	1	707.2	0.9	1012	0.7	705.714285714286	13	412595	3	412583	14	27	412609	-999999	412598	0	20	TrialsPROC	PL_012_92047.png	1	2	91	SessionSelectionList														lure	3	Place	2-Back	80	80	75	0	0	92	3	39	394549	2	14	72	392510	-1	393863	1	1353	3	3	2039	53	394563	-54	0															9	91												
WM080112	111716_fnca	1	1	1	-1161683674	1	75.031	75.030	2.0.10.147	2.0.10.242	2.0.10.242	1.0.0.439	7	234	2	3	Verdana	1	80	0	0	0	WM Stimuli\	0.6	1305	1	723.4	0.8	1055.625	1	913.5	0.9	999.333333333333	1	707.2	0.9	1012	0.7	705.714285714286	13	412595	3	412583	14	27	412609	-999999	412598	0	20	TrialsPROC	PL_011_92044.png	1	2	92	SessionSelectionList														nonlure	3	Place	2-Back	80	80	76	0	0	92	4	40	397122	1	13	72	395082	-1	396074	1	992	3	3	2040	53	397135	-54	0															10	92												
WM080112	111716_fnca	1	1	1	-1161683674	1	75.031	75.030	2.0.10.147	2.0.10.242	2.0.10.242	1.0.0.439	7	234	2	3	Verdana	1	80	0	0	0	WM Stimuli\	0.6	1305	1	723.4	0.8	1055.625	1	913.5	0.9	999.333333333333	1	707.2	0.9	1012	0.7	705.714285714286	13	412595	3	412583	14	27	412609	-999999	412598	0	21	Fix15secPROC	""	1	2	93	SessionSelectionList																																															6	397588	-7	0							93												
