ExperimentName	HCPID	RunNumber	Subject	Session	RandomSeed	Group	Laptop.RefreshRate	ScannerD2.RefreshRate	StudioVersion	RuntimeVersion	RuntimeVersionExpected	ExperimentVersion	triggercode	Allowed	Target	Nontarget	FontStyle	RunTrialNumber[Session]	TrialsPerRun[Session]	TotalRespGreater200[Session]	ConsecRTLess200[Session]	ConsecNonResp[Session]	StimuliDir	ACC_2_Back_Body	Avg_RT_For_Correct_Trials_2_Back_Body	ACC_0_Back_Body	Avg_RT_For_Correct_Trials_0_Back_Body	ACC_2_Back_Face	Avg_RT_For_Correct_Trials_2_Back_Face	ACC_0_Back_Face	Avg_RT_For_Correct_Trials_0_Back_Face	ACC_2_Back_Place	Avg_RT_For_Correct_Trials_2_Back_Place	ACC_0_Back_Place	Avg_RT_For_Correct_Trials_0_Back_Place	ACC_2_Back_Tools	Avg_RT_For_Correct_Trials_2_Back_Tools	ACC_0_Back_Tools	Avg_RT_For_Correct_Trials_0_Back_Tools	ExpInstrucFeelFreeToRest.OnsetDelay	ExpInstrucFeelFreeToRest.OnsetTime	ExpInstrucFeelFreeToRest.DurationError	ExpInstrucFeelFreeToRest.StartTime	ExpInstrucFeelFreeToRest.OnsetToOnsetTime	FeelFreeToRest.OnsetDelay	FeelFreeToRest.OnsetTime	FeelFreeToRest.DurationError	FeelFreeToRest.StartTime	FeelFreeToRest.OnsetToOnsetTime	SessionSelectionList	Procedure[Block]	Stimulus[Block]	RunNumberFilterValue	SessionSelectionList.Cycle	SessionSelectionList.Sample	Running[Block]	IntroButtonMap.OnsetDelay	IntroButtonMap.OnsetTime	IntroButtonMap.DurationError	IntroButtonMap.OnsetToOnsetTime	GetReady.OnsetDelay	GetReady.OnsetTime	GetReady.DurationError	GetReady.OnsetToOnsetTime	Cue2Back.OnsetDelay	Cue2Back.OnsetTime	Cue2Back.DurationError	Cue2Back.OnsetToOnsetTime	Run1Block1	TargetType	CorrectResponse	StimType	BlockType	RunTrialNumber[Block]	TrialsPerRun[Block]	TotalRespGreater200[Block]	ConsecRTLess200[Block]	ConsecNonResp[Block]	ControlAcc	ConsecSameResp	ExperimenterWindow.OnsetDelay	ExperimenterWindow.OnsetTime	ExperimenterWindow.DurationError	ExperimenterWindow.OnsetToOnsetTime	Stim.OnsetDelay	Stim.OnsetTime	Stim.DurationError	Stim.RTTime	Stim.ACC	Stim.RT	Stim.RESP	Stim.CRESP	Stim.OnsetToOnsetTime	Fix.OnsetDelay	Fix.OnsetTime	Fix.DurationError	Fix.OnsetToOnsetTime	CueTarget.OnsetDelay	CueTarget.OnsetTime	CueTarget.DurationError	CueTarget.OnsetToOnsetTime	Run1Block2	Fix15sec.OnsetDelay	Fix15sec.OnsetTime	Fix15sec.DurationError	Fix15sec.OnsetToOnsetTime	Run1Block3	Run1Block4	Run1Block5	Run1Block6	Run1Block7	Run1Block8	Block	Procedure[Trial]	Stimulus[Trial]	ReadyList	Running[Trial]	ReadyList.Cycle	ReadyList.Sample	SyncSlide.OnsetDelay	SyncSlide.OnsetTime	SyncSlide.DurationError	SyncSlide.FinishTime	SyncSlide.OnsetToOnsetTime	Trial
WM080112	106016_fnca	2	1	1	-977211967	1	75.034	75.031	2.0.10.147	2.0.10.242	2.0.10.242	1.0.0.439	7	234	2	3	Verdana	1	80	0	0	0	WM Stimuli\	0.8	896.5	1	694.8	1	941.1	1	571.8	1	858.7	1	616.3	1	821.5	1	809.6	13	318558	3	318546	27	40	318585	-999999	318561	0	22	TRSyncPROC	""	2	2	1	SessionSelectionList	102	7073	-999999	0	30	8153	-999999	0																																																	1	InitialTR	4	1	ReadyList	1	1	17	25319	-18	27301	0	1
WM080112	106016_fnca	2	1	1	-977211967	1	75.034	75.031	2.0.10.147	2.0.10.242	2.0.10.242	1.0.0.439	7	234	2	3	Verdana	1	80	0	0	0	WM Stimuli\	0.8	896.5	1	694.8	1	941.1	1	571.8	1	858.7	1	616.3	1	821.5	1	809.6	13	318558	3	318546	27	40	318585	-999999	318561	0	22	TRSyncPROC	""	2	2	1	SessionSelectionList	102	7073	-999999	0	30	8153	-999999	0																																																	1	InitialTR	3	2	ReadyList	1	2	16	27318	-17	29301	0	2
WM080112	106016_fnca	2	1	1	-977211967	1	75.034	75.031	2.0.10.147	2.0.10.242	2.0.10.242	1.0.0.439	7	234	2	3	Verdana	1	80	0	0	0	WM Stimuli\	0.8	896.5	1	694.8	1	941.1	1	571.8	1	858.7	1	616.3	1	821.5	1	809.6	13	318558	3	318546	27	40	318585	-999999	318561	0	22	TRSyncPROC	""	2	2	1	SessionSelectionList	102	7073	-999999	0	30	8153	-999999	0																																																	1	InitialTR	2	3	ReadyList	1	3	15	29317	-16	31301	0	3
WM080112	106016_fnca	2	1	1	-977211967	1	75.034	75.031	2.0.10.147	2.0.10.242	2.0.10.242	1.0.0.439	7	234	2	3	Verdana	1	80	0	0	0	WM Stimuli\	0.8	896.5	1	694.8	1	941.1	1	571.8	1	858.7	1	616.3	1	821.5	1	809.6	13	318558	3	318546	27	40	318585	-999999	318561	0	22	TRSyncPROC	""	2	2	1	SessionSelectionList	102	7073	-999999	0	30	8153	-999999	0																																																	1	InitialTR	1	4	ReadyList	1	4	15	31317	-16	33301	0	4
WM080112	106016_fnca	2	1	1	-977211967	1	75.034	75.031	2.0.10.147	2.0.10.242	2.0.10.242	1.0.0.439	7	234	2	3	Verdana	1	80	0	0	0	WM Stimuli\	0.8	896.5	1	694.8	1	941.1	1	571.8	1	858.7	1	616.3	1	821.5	1	809.6	13	318558	3	318546	27	40	318585	-999999	318561	0	23	Cue2BackPROC	""	2	2	2	SessionSelectionList									14	33316	-15	0																																													2												
WM080112	106016_fnca	2	1	1	-977211967	1	75.034	75.031	2.0.10.147	2.0.10.242	2.0.10.242	1.0.0.439	7	234	2	3	Verdana	1	80	0	0	0	WM Stimuli\	0.8	896.5	1	694.8	1	941.1	1	571.8	1	858.7	1	616.3	1	821.5	1	809.6	13	318558	3	318546	27	40	318585	-999999	318561	0	24	TrialsPROC	TO_014_TOOL14_BA.png	2	2	3	SessionSelectionList														nonlure	3	Tools	2-Back	2	80	1	0	0	0	1	52	37927	3	14	73	35875	-1	37256	1	1381	3	3	2052	66	37941	-67	0																3												
WM080112	106016_fnca	2	1	1	-977211967	1	75.034	75.031	2.0.10.147	2.0.10.242	2.0.10.242	1.0.0.439	7	234	2	3	Verdana	1	80	0	0	0	WM Stimuli\	0.8	896.5	1	694.8	1	941.1	1	571.8	1	858.7	1	616.3	1	821.5	1	809.6	13	318558	3	318546	27	40	318585	-999999	318561	0	24	TrialsPROC	TO_013_TOOL13_BA.png	2	2	4	SessionSelectionList														nonlure	3	Tools	2-Back	3	80	2	0	0	0	2	39	40473	2	13	59	38434	-1	39036	1	602	3	3	2039	52	40486	-53	0																4												
WM080112	106016_fnca	2	1	1	-977211967	1	75.034	75.031	2.0.10.147	2.0.10.242	2.0.10.242	1.0.0.439	7	234	2	3	Verdana	1	80	0	0	0	WM Stimuli\	0.8	896.5	1	694.8	1	941.1	1	571.8	1	858.7	1	616.3	1	821.5	1	809.6	13	318558	3	318546	27	40	318585	-999999	318561	0	24	TrialsPROC	TO_016_TOOL16_BA.png	2	2	5	SessionSelectionList														nonlure	3	Tools	2-Back	4	80	3	0	0	0	3	39	43032	1	13	59	40993	-1	41540	1	547	3	3	2039	52	43045	-53	0																5												
WM080112	106016_fnca	2	1	1	-977211967	1	75.034	75.031	2.0.10.147	2.0.10.242	2.0.10.242	1.0.0.439	7	234	2	3	Verdana	1	80	0	0	0	WM Stimuli\	0.8	896.5	1	694.8	1	941.1	1	571.8	1	858.7	1	616.3	1	821.5	1	809.6	13	318558	3	318546	27	40	318585	-999999	318561	0	24	TrialsPROC	TO_014_TOOL14_BA.png	2	2	6	SessionSelectionList														lure	3	Tools	2-Back	5	80	4	0	0	0	4	39	45604	1	14	72	43565	-1	44705	1	1140	3	3	2039	53	45618	-54	0																6												
WM080112	106016_fnca	2	1	1	-977211967	1	75.034	75.031	2.0.10.147	2.0.10.242	2.0.10.242	1.0.0.439	7	234	2	3	Verdana	1	80	0	0	0	WM Stimuli\	0.8	896.5	1	694.8	1	941.1	1	571.8	1	858.7	1	616.3	1	821.5	1	809.6	13	318558	3	318546	27	40	318585	-999999	318561	0	24	TrialsPROC	TO_016_TOOL16_BA.png	2	2	7	SessionSelectionList														target	2	Tools	2-Back	6	80	5	0	0	0	1	39	48163	1	14	59	46124	-1	47187	1	1063	2	2	2039	53	48177	-54	0																7												
WM080112	106016_fnca	2	1	1	-977211967	1	75.034	75.031	2.0.10.147	2.0.10.242	2.0.10.242	1.0.0.439	7	234	2	3	Verdana	1	80	0	0	0	WM Stimuli\	0.8	896.5	1	694.8	1	941.1	1	571.8	1	858.7	1	616.3	1	821.5	1	809.6	13	318558	3	318546	27	40	318585	-999999	318561	0	24	TrialsPROC	TO_018_TOOL18_BA.png	2	2	8	SessionSelectionList														nonlure	3	Tools	2-Back	7	80	6	0	0	0	1	39	50722	1	14	59	48683	-1	49360	1	677	3	3	2039	53	50736	-54	0																8												
WM080112	106016_fnca	2	1	1	-977211967	1	75.034	75.031	2.0.10.147	2.0.10.242	2.0.10.242	1.0.0.439	7	234	2	3	Verdana	1	80	0	0	0	WM Stimuli\	0.8	896.5	1	694.8	1	941.1	1	571.8	1	858.7	1	616.3	1	821.5	1	809.6	13	318558	3	318546	27	40	318585	-999999	318561	0	24	TrialsPROC	TO_017_TOOL17_BA.png	2	2	9	SessionSelectionList														nonlure	3	Tools	2-Back	8	80	7	0	0	0	2	39	53281	1	13	59	51242	-1	51914	1	672	3	3	2039	52	53294	-53	0																9												
WM080112	106016_fnca	2	1	1	-977211967	1	75.034	75.031	2.0.10.147	2.0.10.242	2.0.10.242	1.0.0.439	7	234	2	3	Verdana	1	80	0	0	0	WM Stimuli\	0.8	896.5	1	694.8	1	941.1	1	571.8	1	858.7	1	616.3	1	821.5	1	809.6	13	318558	3	318546	27	40	318585	-999999	318561	0	24	TrialsPROC	TO_018_TOOL18_BA.png	2	2	10	SessionSelectionList														target	2	Tools	2-Back	9	80	8	0	0	0	1	39	55840	1	13	59	53801	-1	54575	1	774	2	2	2039	52	55853	-53	0																10												
WM080112	106016_fnca	2	1	1	-977211967	1	75.034	75.031	2.0.10.147	2.0.10.242	2.0.10.242	1.0.0.439	7	234	2	3	Verdana	1	80	0	0	0	WM Stimuli\	0.8	896.5	1	694.8	1	941.1	1	571.8	1	858.7	1	616.3	1	821.5	1	809.6	13	318558	3	318546	27	40	318585	-999999	318561	0	24	TrialsPROC	TO_015_TOOL15_BA.png	2	2	11	SessionSelectionList														nonlure	3	Tools	2-Back	10	80	9	0	0	0	1	39	58399	1	13	59	56360	-1	56972	1	612	3	3	2039	52	58412	-53	0																11												
WM080112	106016_fnca	2	1	1	-977211967	1	75.034	75.031	2.0.10.147	2.0.10.242	2.0.10.242	1.0.0.439	7	234	2	3	Verdana	1	80	0	0	0	WM Stimuli\	0.8	896.5	1	694.8	1	941.1	1	571.8	1	858.7	1	616.3	1	821.5	1	809.6	13	318558	3	318546	27	40	318585	-999999	318561	0	24	TrialsPROC	TO_017_TOOL17_BA.png	2	2	12	SessionSelectionList														lure	3	Tools	2-Back	11	80	10	0	0	0	2	39	60958	1	13	59	58919	-1	59666	1	747	3	3	2039	52	60971	-53	0																12												
WM080112	106016_fnca	2	1	1	-977211967	1	75.034	75.031	2.0.10.147	2.0.10.242	2.0.10.242	1.0.0.439	7	234	2	3	Verdana	1	80	0	0	0	WM Stimuli\	0.8	896.5	1	694.8	1	941.1	1	571.8	1	858.7	1	616.3	1	821.5	1	809.6	13	318558	3	318546	27	40	318585	-999999	318561	0	25	Cue0BackPROC	BP_013_BP7_BA.png	2	2	13	SessionSelectionList																																										18	61437	-19	0												13												
WM080112	106016_fnca	2	1	1	-977211967	1	75.034	75.031	2.0.10.147	2.0.10.242	2.0.10.242	1.0.0.439	7	234	2	3	Verdana	1	80	0	0	0	WM Stimuli\	0.8	896.5	1	694.8	1	941.1	1	571.8	1	858.7	1	616.3	1	821.5	1	809.6	13	318558	3	318546	27	40	318585	-999999	318561	0	26	TrialsPROC	BP_015_H10-T_BA.png	2	2	14	SessionSelectionList														nonlure	3	Body	0-Back	12	80	11	0	0	100	3	39	66009	1	14	51	63970	-1	64928	1	958	3	3	2039	53	66023	-54	0																14												
WM080112	106016_fnca	2	1	1	-977211967	1	75.034	75.031	2.0.10.147	2.0.10.242	2.0.10.242	1.0.0.439	7	234	2	3	Verdana	1	80	0	0	0	WM Stimuli\	0.8	896.5	1	694.8	1	941.1	1	571.8	1	858.7	1	616.3	1	821.5	1	809.6	13	318558	3	318546	27	40	318585	-999999	318561	0	26	TrialsPROC	BP_018_H13-T_BA.png	2	2	15	SessionSelectionList														nonlure	3	Body	0-Back	13	80	12	0	0	100	4	39	68568	1	13	59	66529	-1	67045	1	516	3	3	2039	52	68581	-53	0																15												
WM080112	106016_fnca	2	1	1	-977211967	1	75.034	75.031	2.0.10.147	2.0.10.242	2.0.10.242	1.0.0.439	7	234	2	3	Verdana	1	80	0	0	0	WM Stimuli\	0.8	896.5	1	694.8	1	941.1	1	571.8	1	858.7	1	616.3	1	821.5	1	809.6	13	318558	3	318546	27	40	318585	-999999	318561	0	26	TrialsPROC	BP_014_BP9_BA.png	2	2	16	SessionSelectionList														nonlure	3	Body	0-Back	14	80	13	0	0	100	5	39	71127	2	13	59	69088	-1	69725	1	637	3	3	2039	52	71140	-53	0																16												
WM080112	106016_fnca	2	1	1	-977211967	1	75.034	75.031	2.0.10.147	2.0.10.242	2.0.10.242	1.0.0.439	7	234	2	3	Verdana	1	80	0	0	0	WM Stimuli\	0.8	896.5	1	694.8	1	941.1	1	571.8	1	858.7	1	616.3	1	821.5	1	809.6	13	318558	3	318546	27	40	318585	-999999	318561	0	26	TrialsPROC	BP_018_H13-T_BA.png	2	2	17	SessionSelectionList														lure	3	Body	0-Back	15	80	14	0	0	100	6	39	73686	1	13	59	71647	-1	72184	1	537	3	3	2039	52	73699	-53	0																17												
WM080112	106016_fnca	2	1	1	-977211967	1	75.034	75.031	2.0.10.147	2.0.10.242	2.0.10.242	1.0.0.439	7	234	2	3	Verdana	1	80	0	0	0	WM Stimuli\	0.8	896.5	1	694.8	1	941.1	1	571.8	1	858.7	1	616.3	1	821.5	1	809.6	13	318558	3	318546	27	40	318585	-999999	318561	0	26	TrialsPROC	BP_013_BP7_BA.png	2	2	18	SessionSelectionList														target	2	Body	0-Back	16	80	15	0	0	100	1	39	76245	1	13	59	74206	-1	75142	1	936	2	2	2039	52	76258	-53	0																18												
WM080112	106016_fnca	2	1	1	-977211967	1	75.034	75.031	2.0.10.147	2.0.10.242	2.0.10.242	1.0.0.439	7	234	2	3	Verdana	1	80	0	0	0	WM Stimuli\	0.8	896.5	1	694.8	1	941.1	1	571.8	1	858.7	1	616.3	1	821.5	1	809.6	13	318558	3	318546	27	40	318585	-999999	318561	0	26	TrialsPROC	BP_015_H10-T_BA.png	2	2	19	SessionSelectionList														lure	3	Body	0-Back	17	80	16	0	0	100	1	39	78804	1	13	59	76765	-1	77310	1	545	3	3	2039	52	78817	-53	0																19												
WM080112	106016_fnca	2	1	1	-977211967	1	75.034	75.031	2.0.10.147	2.0.10.242	2.0.10.242	1.0.0.439	7	234	2	3	Verdana	1	80	0	0	0	WM Stimuli\	0.8	896.5	1	694.8	1	941.1	1	571.8	1	858.7	1	616.3	1	821.5	1	809.6	13	318558	3	318546	27	40	318585	-999999	318561	0	26	TrialsPROC	BP_016_H11-T_BA.png	2	2	20	SessionSelectionList														nonlure	3	Body	0-Back	18	80	17	0	0	100	2	39	81363	1	13	59	79324	-1	79840	1	516	3	3	2039	52	81376	-53	0																20												
WM080112	106016_fnca	2	1	1	-977211967	1	75.034	75.031	2.0.10.147	2.0.10.242	2.0.10.242	1.0.0.439	7	234	2	3	Verdana	1	80	0	0	0	WM Stimuli\	0.8	896.5	1	694.8	1	941.1	1	571.8	1	858.7	1	616.3	1	821.5	1	809.6	13	318558	3	318546	27	40	318585	-999999	318561	0	26	TrialsPROC	BP_013_BP7_BA.png	2	2	21	SessionSelectionList														target	2	Body	0-Back	19	80	18	0	0	100	1	39	83922	1	13	59	81883	-1	82964	1	1081	2	2	2039	52	83935	-53	0																21												
WM080112	106016_fnca	2	1	1	-977211967	1	75.034	75.031	2.0.10.147	2.0.10.242	2.0.10.242	1.0.0.439	7	234	2	3	Verdana	1	80	0	0	0	WM Stimuli\	0.8	896.5	1	694.8	1	941.1	1	571.8	1	858.7	1	616.3	1	821.5	1	809.6	13	318558	3	318546	27	40	318585	-999999	318561	0	26	TrialsPROC	BP_017_H12-T_BA.png	2	2	22	SessionSelectionList														nonlure	3	Body	0-Back	20	80	19	0	0	100	1	39	86480	2	14	58	84441	-1	85105	1	664	3	3	2039	53	86494	-54	0																22												
WM080112	106016_fnca	2	1	1	-977211967	1	75.034	75.031	2.0.10.147	2.0.10.242	2.0.10.242	1.0.0.439	7	234	2	3	Verdana	1	80	0	0	0	WM Stimuli\	0.8	896.5	1	694.8	1	941.1	1	571.8	1	858.7	1	616.3	1	821.5	1	809.6	13	318558	3	318546	27	40	318585	-999999	318561	0	26	TrialsPROC	BP_014_BP9_BA.png	2	2	23	SessionSelectionList														lure	3	Body	0-Back	21	80	20	0	0	100	2	39	89039	2	14	59	87000	-1	87558	1	558	3	3	2039	53	89053	-54	0																23												
WM080112	106016_fnca	2	1	1	-977211967	1	75.034	75.031	2.0.10.147	2.0.10.242	2.0.10.242	1.0.0.439	7	234	2	3	Verdana	1	80	0	0	0	WM Stimuli\	0.8	896.5	1	694.8	1	941.1	1	571.8	1	858.7	1	616.3	1	821.5	1	809.6	13	318558	3	318546	27	40	318585	-999999	318561	0	27	Fix15secPROC	""	2	2	24	SessionSelectionList																																															6	89506	-7	0							24												
WM080112	106016_fnca	2	1	1	-977211967	1	75.034	75.031	2.0.10.147	2.0.10.242	2.0.10.242	1.0.0.439	7	234	2	3	Verdana	1	80	0	0	0	WM Stimuli\	0.8	896.5	1	694.8	1	941.1	1	571.8	1	858.7	1	616.3	1	821.5	1	809.6	13	318558	3	318546	27	40	318585	-999999	318561	0	28	Cue2BackPROC	""	2	2	25	SessionSelectionList									13	104513	-14	0																																													25												
WM080112	106016_fnca	2	1	1	-977211967	1	75.034	75.031	2.0.10.147	2.0.10.242	2.0.10.242	1.0.0.439	7	234	2	3	Verdana	1	80	0	0	0	WM Stimuli\	0.8	896.5	1	694.8	1	941.1	1	571.8	1	858.7	1	616.3	1	821.5	1	809.6	13	318558	3	318546	27	40	318585	-999999	318561	0	29	TrialsPROC	FC_015_M8.png	2	2	26	SessionSelectionList														nonlure	3	Face	2-Back	22	80	21	0	0	100	3	39	109111	2	14	72	107072	-1	108322	1	1250	3	3	2039	53	109125	-54	0																26												
WM080112	106016_fnca	2	1	1	-977211967	1	75.034	75.031	2.0.10.147	2.0.10.242	2.0.10.242	1.0.0.439	7	234	2	3	Verdana	1	80	0	0	0	WM Stimuli\	0.8	896.5	1	694.8	1	941.1	1	571.8	1	858.7	1	616.3	1	821.5	1	809.6	13	318558	3	318546	27	40	318585	-999999	318561	0	29	TrialsPROC	FC_018_F9.png	2	2	27	SessionSelectionList														nonlure	3	Face	2-Back	23	80	22	0	0	100	4	39	111683	2	14	72	109644	-1	110609	1	965	3	3	2039	53	111697	-54	0																27												
WM080112	106016_fnca	2	1	1	-977211967	1	75.034	75.031	2.0.10.147	2.0.10.242	2.0.10.242	1.0.0.439	7	234	2	3	Verdana	1	80	0	0	0	WM Stimuli\	0.8	896.5	1	694.8	1	941.1	1	571.8	1	858.7	1	616.3	1	821.5	1	809.6	13	318558	3	318546	27	40	318585	-999999	318561	0	29	TrialsPROC	FC_018_F9.png	2	2	28	SessionSelectionList														lure	3	Face	2-Back	24	80	23	0	0	100	5	39	114256	1	13	73	112217	-1	113119	1	902	3	3	2039	52	114269	-53	0																28												
WM080112	106016_fnca	2	1	1	-977211967	1	75.034	75.031	2.0.10.147	2.0.10.242	2.0.10.242	1.0.0.439	7	234	2	3	Verdana	1	80	0	0	0	WM Stimuli\	0.8	896.5	1	694.8	1	941.1	1	571.8	1	858.7	1	616.3	1	821.5	1	809.6	13	318558	3	318546	27	40	318585	-999999	318561	0	29	TrialsPROC	FC_017_M9.png	2	2	29	SessionSelectionList														nonlure	3	Face	2-Back	25	80	24	0	0	100	6	39	116828	1	14	72	114789	-1	115848	1	1059	3	3	2039	53	116842	-54	0																29												
WM080112	106016_fnca	2	1	1	-977211967	1	75.034	75.031	2.0.10.147	2.0.10.242	2.0.10.242	1.0.0.439	7	234	2	3	Verdana	1	80	0	0	0	WM Stimuli\	0.8	896.5	1	694.8	1	941.1	1	571.8	1	858.7	1	616.3	1	821.5	1	809.6	13	318558	3	318546	27	40	318585	-999999	318561	0	29	TrialsPROC	FC_017_M9.png	2	2	30	SessionSelectionList														lure	3	Face	2-Back	26	80	25	0	0	100	7	39	119400	2	14	72	117361	-1	118203	1	842	3	3	2039	53	119414	-54	0																30												
WM080112	106016_fnca	2	1	1	-977211967	1	75.034	75.031	2.0.10.147	2.0.10.242	2.0.10.242	1.0.0.439	7	234	2	3	Verdana	1	80	0	0	0	WM Stimuli\	0.8	896.5	1	694.8	1	941.1	1	571.8	1	858.7	1	616.3	1	821.5	1	809.6	13	318558	3	318546	27	40	318585	-999999	318561	0	29	TrialsPROC	FC_016_F8.png	2	2	31	SessionSelectionList														nonlure	3	Face	2-Back	27	80	26	0	0	100	8	40	121973	1	13	72	119933	-1	120723	1	790	3	3	2040	53	121986	-54	0																31												
WM080112	106016_fnca	2	1	1	-977211967	1	75.034	75.031	2.0.10.147	2.0.10.242	2.0.10.242	1.0.0.439	7	234	2	3	Verdana	1	80	0	0	0	WM Stimuli\	0.8	896.5	1	694.8	1	941.1	1	571.8	1	858.7	1	616.3	1	821.5	1	809.6	13	318558	3	318546	27	40	318585	-999999	318561	0	29	TrialsPROC	FC_013_M7.png	2	2	32	SessionSelectionList														nonlure	3	Face	2-Back	28	80	27	0	0	100	9	39	124545	1	13	73	122506	-1	123459	1	953	3	3	2039	52	124558	-53	0																32												
WM080112	106016_fnca	2	1	1	-977211967	1	75.034	75.031	2.0.10.147	2.0.10.242	2.0.10.242	1.0.0.439	7	234	2	3	Verdana	1	80	0	0	0	WM Stimuli\	0.8	896.5	1	694.8	1	941.1	1	571.8	1	858.7	1	616.3	1	821.5	1	809.6	13	318558	3	318546	27	40	318585	-999999	318561	0	29	TrialsPROC	FC_014_F7.png	2	2	33	SessionSelectionList														nonlure	3	Face	2-Back	29	80	28	0	0	100	10	39	127117	2	14	72	125078	-1	125804	1	726	3	3	2039	53	127131	-54	0																33												
WM080112	106016_fnca	2	1	1	-977211967	1	75.034	75.031	2.0.10.147	2.0.10.242	2.0.10.242	1.0.0.439	7	234	2	3	Verdana	1	80	0	0	0	WM Stimuli\	0.8	896.5	1	694.8	1	941.1	1	571.8	1	858.7	1	616.3	1	821.5	1	809.6	13	318558	3	318546	27	40	318585	-999999	318561	0	29	TrialsPROC	FC_013_M7.png	2	2	34	SessionSelectionList														target	2	Face	2-Back	30	80	29	0	0	100	1	39	129689	2	14	72	127650	-1	128372	1	722	2	2	2039	53	129703	-54	0																34												
WM080112	106016_fnca	2	1	1	-977211967	1	75.034	75.031	2.0.10.147	2.0.10.242	2.0.10.242	1.0.0.439	7	234	2	3	Verdana	1	80	0	0	0	WM Stimuli\	0.8	896.5	1	694.8	1	941.1	1	571.8	1	858.7	1	616.3	1	821.5	1	809.6	13	318558	3	318546	27	40	318585	-999999	318561	0	29	TrialsPROC	FC_014_F7.png	2	2	35	SessionSelectionList														target	2	Face	2-Back	31	80	30	0	0	100	2	40	132262	1	13	72	130222	-1	131424	1	1202	2	2	2040	53	132275	-54	0																35												
WM080112	106016_fnca	2	1	1	-977211967	1	75.034	75.031	2.0.10.147	2.0.10.242	2.0.10.242	1.0.0.439	7	234	2	3	Verdana	1	80	0	0	0	WM Stimuli\	0.8	896.5	1	694.8	1	941.1	1	571.8	1	858.7	1	616.3	1	821.5	1	809.6	13	318558	3	318546	27	40	318585	-999999	318561	0	30	Cue0BackPROC	TO_019_TOOL19_BA.png	2	2	36	SessionSelectionList																																										19	132741	-20	0												36												
WM080112	106016_fnca	2	1	1	-977211967	1	75.034	75.031	2.0.10.147	2.0.10.242	2.0.10.242	1.0.0.439	7	234	2	3	Verdana	1	80	0	0	0	WM Stimuli\	0.8	896.5	1	694.8	1	941.1	1	571.8	1	858.7	1	616.3	1	821.5	1	809.6	13	318558	3	318546	27	40	318585	-999999	318561	0	31	TrialsPROC	TO_019_TOOL19_BA.png	2	2	37	SessionSelectionList														target	2	Tools	0-Back	32	80	31	0	0	100	3	39	137313	2	13	52	135274	-1	136422	1	1148	2	2	2039	52	137326	-53	0																37												
WM080112	106016_fnca	2	1	1	-977211967	1	75.034	75.031	2.0.10.147	2.0.10.242	2.0.10.242	1.0.0.439	7	234	2	3	Verdana	1	80	0	0	0	WM Stimuli\	0.8	896.5	1	694.8	1	941.1	1	571.8	1	858.7	1	616.3	1	821.5	1	809.6	13	318558	3	318546	27	40	318585	-999999	318561	0	31	TrialsPROC	TO_024_TOOL24_BA.png	2	2	38	SessionSelectionList														nonlure	3	Tools	0-Back	33	80	32	0	0	100	1	39	139872	1	13	59	137833	-1	138543	1	710	3	3	2039	52	139885	-53	0																38												
WM080112	106016_fnca	2	1	1	-977211967	1	75.034	75.031	2.0.10.147	2.0.10.242	2.0.10.242	1.0.0.439	7	234	2	3	Verdana	1	80	0	0	0	WM Stimuli\	0.8	896.5	1	694.8	1	941.1	1	571.8	1	858.7	1	616.3	1	821.5	1	809.6	13	318558	3	318546	27	40	318585	-999999	318561	0	31	TrialsPROC	TO_019_TOOL19_BA.png	2	2	39	SessionSelectionList														target	2	Tools	0-Back	34	80	33	0	0	100	1	39	142431	1	13	59	140392	-1	141421	1	1029	2	2	2039	52	142444	-53	0																39												
WM080112	106016_fnca	2	1	1	-977211967	1	75.034	75.031	2.0.10.147	2.0.10.242	2.0.10.242	1.0.0.439	7	234	2	3	Verdana	1	80	0	0	0	WM Stimuli\	0.8	896.5	1	694.8	1	941.1	1	571.8	1	858.7	1	616.3	1	821.5	1	809.6	13	318558	3	318546	27	40	318585	-999999	318561	0	31	TrialsPROC	TO_023_TOOL23_BA.png	2	2	40	SessionSelectionList														nonlure	3	Tools	0-Back	35	80	34	0	0	100	1	39	144990	1	13	59	142951	-1	143681	1	730	3	3	2039	52	145003	-53	0																40												
WM080112	106016_fnca	2	1	1	-977211967	1	75.034	75.031	2.0.10.147	2.0.10.242	2.0.10.242	1.0.0.439	7	234	2	3	Verdana	1	80	0	0	0	WM Stimuli\	0.8	896.5	1	694.8	1	941.1	1	571.8	1	858.7	1	616.3	1	821.5	1	809.6	13	318558	3	318546	27	40	318585	-999999	318561	0	31	TrialsPROC	TO_020_TOOL20_BA.png	2	2	41	SessionSelectionList														nonlure	3	Tools	0-Back	36	80	35	0	0	100	2	40	147549	1	13	58	145509	-1	145974	1	465	3	3	2040	53	147562	-54	0																41												
WM080112	106016_fnca	2	1	1	-977211967	1	75.034	75.031	2.0.10.147	2.0.10.242	2.0.10.242	1.0.0.439	7	234	2	3	Verdana	1	80	0	0	0	WM Stimuli\	0.8	896.5	1	694.8	1	941.1	1	571.8	1	858.7	1	616.3	1	821.5	1	809.6	13	318558	3	318546	27	40	318585	-999999	318561	0	31	TrialsPROC	TO_020_TOOL20_BA.png	2	2	42	SessionSelectionList														lure	3	Tools	0-Back	37	80	36	0	0	100	3	40	150108	1	13	59	148068	-1	148585	1	517	3	3	2040	53	150121	-54	0																42												
WM080112	106016_fnca	2	1	1	-977211967	1	75.034	75.031	2.0.10.147	2.0.10.242	2.0.10.242	1.0.0.439	7	234	2	3	Verdana	1	80	0	0	0	WM Stimuli\	0.8	896.5	1	694.8	1	941.1	1	571.8	1	858.7	1	616.3	1	821.5	1	809.6	13	318558	3	318546	27	40	318585	-999999	318561	0	31	TrialsPROC	TO_022_TOOL22_BA.png	2	2	43	SessionSelectionList														nonlure	3	Tools	0-Back	38	80	37	0	0	100	4	40	152667	1	13	59	150627	-1	152178	1	1551	3	3	2040	53	152680	-54	0																43												
WM080112	106016_fnca	2	1	1	-977211967	1	75.034	75.031	2.0.10.147	2.0.10.242	2.0.10.242	1.0.0.439	7	234	2	3	Verdana	1	80	0	0	0	WM Stimuli\	0.8	896.5	1	694.8	1	941.1	1	571.8	1	858.7	1	616.3	1	821.5	1	809.6	13	318558	3	318546	27	40	318585	-999999	318561	0	31	TrialsPROC	TO_022_TOOL22_BA.png	2	2	44	SessionSelectionList														lure	3	Tools	0-Back	39	80	38	0	0	100	5	39	155225	2	14	59	153186	-1	153651	1	465	3	3	2039	53	155239	-54	0																44												
WM080112	106016_fnca	2	1	1	-977211967	1	75.034	75.031	2.0.10.147	2.0.10.242	2.0.10.242	1.0.0.439	7	234	2	3	Verdana	1	80	0	0	0	WM Stimuli\	0.8	896.5	1	694.8	1	941.1	1	571.8	1	858.7	1	616.3	1	821.5	1	809.6	13	318558	3	318546	27	40	318585	-999999	318561	0	31	TrialsPROC	TO_021_TOOL21_BA.png	2	2	45	SessionSelectionList														nonlure	3	Tools	0-Back	40	80	39	0	0	100	6	39	157784	2	14	59	155745	-1	156400	1	655	3	3	2039	53	157798	-54	0																45												
WM080112	106016_fnca	2	1	1	-977211967	1	75.034	75.031	2.0.10.147	2.0.10.242	2.0.10.242	1.0.0.439	7	234	2	3	Verdana	1	80	0	0	0	WM Stimuli\	0.8	896.5	1	694.8	1	941.1	1	571.8	1	858.7	1	616.3	1	821.5	1	809.6	13	318558	3	318546	27	40	318585	-999999	318561	0	31	TrialsPROC	TO_021_TOOL21_BA.png	2	2	46	SessionSelectionList														lure	3	Tools	0-Back	41	80	40	0	0	100	7	39	160343	2	14	59	158304	-1	159130	1	826	3	3	2039	53	160357	-54	0																46												
WM080112	106016_fnca	2	1	1	-977211967	1	75.034	75.031	2.0.10.147	2.0.10.242	2.0.10.242	1.0.0.439	7	234	2	3	Verdana	1	80	0	0	0	WM Stimuli\	0.8	896.5	1	694.8	1	941.1	1	571.8	1	858.7	1	616.3	1	821.5	1	809.6	13	318558	3	318546	27	40	318585	-999999	318561	0	32	Fix15secPROC	""	2	2	47	SessionSelectionList																																															6	160810	-7	0							47												
WM080112	106016_fnca	2	1	1	-977211967	1	75.034	75.031	2.0.10.147	2.0.10.242	2.0.10.242	1.0.0.439	7	234	2	3	Verdana	1	80	0	0	0	WM Stimuli\	0.8	896.5	1	694.8	1	941.1	1	571.8	1	858.7	1	616.3	1	821.5	1	809.6	13	318558	3	318546	27	40	318585	-999999	318561	0	33	Cue2BackPROC	""	2	2	48	SessionSelectionList									13	175817	-14	0																																													48												
WM080112	106016_fnca	2	1	1	-977211967	1	75.034	75.031	2.0.10.147	2.0.10.242	2.0.10.242	1.0.0.439	7	234	2	3	Verdana	1	80	0	0	0	WM Stimuli\	0.8	896.5	1	694.8	1	941.1	1	571.8	1	858.7	1	616.3	1	821.5	1	809.6	13	318558	3	318546	27	40	318585	-999999	318561	0	34	TrialsPROC	BP_020_H17-T_BA.png	2	2	49	SessionSelectionList														nonlure	3	Body	2-Back	42	80	41	0	0	100	8	39	180402	1	13	59	178363	-1	178913	1	550	3	3	2039	52	180415	-53	0																49												
WM080112	106016_fnca	2	1	1	-977211967	1	75.034	75.031	2.0.10.147	2.0.10.242	2.0.10.242	1.0.0.439	7	234	2	3	Verdana	1	80	0	0	0	WM Stimuli\	0.8	896.5	1	694.8	1	941.1	1	571.8	1	858.7	1	616.3	1	821.5	1	809.6	13	318558	3	318546	27	40	318585	-999999	318561	0	34	TrialsPROC	BP_019_H14-T_BA.png	2	2	50	SessionSelectionList														nonlure	3	Body	2-Back	43	80	42	0	0	100	9	39	182961	1	13	59	180922	-1	181693	1	771	3	3	2039	52	182974	-53	0																50												
WM080112	106016_fnca	2	1	1	-977211967	1	75.034	75.031	2.0.10.147	2.0.10.242	2.0.10.242	1.0.0.439	7	234	2	3	Verdana	1	80	0	0	0	WM Stimuli\	0.8	896.5	1	694.8	1	941.1	1	571.8	1	858.7	1	616.3	1	821.5	1	809.6	13	318558	3	318546	27	40	318585	-999999	318561	0	34	TrialsPROC	BP_020_H17-T_BA.png	2	2	51	SessionSelectionList														target	2	Body	2-Back	44	80	43	0	0	100	1	39	185520	1	13	59	183481	-1	184073	1	592	2	2	2039	52	185533	-53	0																51												
WM080112	106016_fnca	2	1	1	-977211967	1	75.034	75.031	2.0.10.147	2.0.10.242	2.0.10.242	1.0.0.439	7	234	2	3	Verdana	1	80	0	0	0	WM Stimuli\	0.8	896.5	1	694.8	1	941.1	1	571.8	1	858.7	1	616.3	1	821.5	1	809.6	13	318558	3	318546	27	40	318585	-999999	318561	0	34	TrialsPROC	BP_019_H14-T_BA.png	2	2	52	SessionSelectionList														target	2	Body	2-Back	45	80	44	0	0	100	2	40	188079	1	13	58	186039	-1	186882	1	843	2	2	2040	53	188092	-54	0																52												
WM080112	106016_fnca	2	1	1	-977211967	1	75.034	75.031	2.0.10.147	2.0.10.242	2.0.10.242	1.0.0.439	7	234	2	3	Verdana	1	80	0	0	0	WM Stimuli\	0.8	896.5	1	694.8	1	941.1	1	571.8	1	858.7	1	616.3	1	821.5	1	809.6	13	318558	3	318546	27	40	318585	-999999	318561	0	34	TrialsPROC	BP_024_H3-T_BA.png	2	2	53	SessionSelectionList														nonlure	3	Body	2-Back	46	80	45	0	0	100	3	39	190638	1	13	60	188599	-1	189393	0	794	2	3	2039	52	190651	-53	0																53												
WM080112	106016_fnca	2	1	1	-977211967	1	75.034	75.031	2.0.10.147	2.0.10.242	2.0.10.242	1.0.0.439	7	234	2	3	Verdana	1	80	0	0	0	WM Stimuli\	0.8	896.5	1	694.8	1	941.1	1	571.8	1	858.7	1	616.3	1	821.5	1	809.6	13	318558	3	318546	27	40	318585	-999999	318561	0	34	TrialsPROC	BP_024_H3-T_BA.png	2	2	54	SessionSelectionList														lure	3	Body	2-Back	47	80	46	0	0	100	1	38	193196	2	14	59	191158	-1	191989	1	831	3	3	2038	52	193210	-53	0																54												
WM080112	106016_fnca	2	1	1	-977211967	1	75.034	75.031	2.0.10.147	2.0.10.242	2.0.10.242	1.0.0.439	7	234	2	3	Verdana	1	80	0	0	0	WM Stimuli\	0.8	896.5	1	694.8	1	941.1	1	571.8	1	858.7	1	616.3	1	821.5	1	809.6	13	318558	3	318546	27	40	318585	-999999	318561	0	34	TrialsPROC	BP_025_H5-T_BA.png	2	2	55	SessionSelectionList														nonlure	3	Body	2-Back	48	80	47	0	0	100	2	39	195755	2	14	58	193716	-1	194771	1	1055	3	3	2039	53	195769	-54	0																55												
WM080112	106016_fnca	2	1	1	-977211967	1	75.034	75.031	2.0.10.147	2.0.10.242	2.0.10.242	1.0.0.439	7	234	2	3	Verdana	1	80	0	0	0	WM Stimuli\	0.8	896.5	1	694.8	1	941.1	1	571.8	1	858.7	1	616.3	1	821.5	1	809.6	13	318558	3	318546	27	40	318585	-999999	318561	0	34	TrialsPROC	BP_023_H25-T_BA.png	2	2	56	SessionSelectionList														nonlure	3	Body	2-Back	49	80	48	0	0	100	1	38	198314	2	14	60	196276	-1	197766	0	1490	2	3	2038	52	198328	-53	0																56												
WM080112	106016_fnca	2	1	1	-977211967	1	75.034	75.031	2.0.10.147	2.0.10.242	2.0.10.242	1.0.0.439	7	234	2	3	Verdana	1	80	0	0	0	WM Stimuli\	0.8	896.5	1	694.8	1	941.1	1	571.8	1	858.7	1	616.3	1	821.5	1	809.6	13	318558	3	318546	27	40	318585	-999999	318561	0	34	TrialsPROC	BP_022_H24-T_BA.png	2	2	57	SessionSelectionList														nonlure	3	Body	2-Back	50	80	49	0	0	100	1	39	200873	2	14	58	198834	-1	200419	1	1585	3	3	2039	53	200887	-54	0																57												
WM080112	106016_fnca	2	1	1	-977211967	1	75.034	75.031	2.0.10.147	2.0.10.242	2.0.10.242	1.0.0.439	7	234	2	3	Verdana	1	80	0	0	0	WM Stimuli\	0.8	896.5	1	694.8	1	941.1	1	571.8	1	858.7	1	616.3	1	821.5	1	809.6	13	318558	3	318546	27	40	318585	-999999	318561	0	34	TrialsPROC	BP_022_H24-T_BA.png	2	2	58	SessionSelectionList														lure	3	Body	2-Back	51	80	50	0	0	100	2	39	203432	2	14	59	201393	-1	202338	1	945	3	3	2039	53	203446	-54	0																58												
WM080112	106016_fnca	2	1	1	-977211967	1	75.034	75.031	2.0.10.147	2.0.10.242	2.0.10.242	1.0.0.439	7	234	2	3	Verdana	1	80	0	0	0	WM Stimuli\	0.8	896.5	1	694.8	1	941.1	1	571.8	1	858.7	1	616.3	1	821.5	1	809.6	13	318558	3	318546	27	40	318585	-999999	318561	0	35	Cue2BackPROC	""	2	2	59	SessionSelectionList									6	203899	-7	0																																													59												
WM080112	106016_fnca	2	1	1	-977211967	1	75.034	75.031	2.0.10.147	2.0.10.242	2.0.10.242	1.0.0.439	7	234	2	3	Verdana	1	80	0	0	0	WM Stimuli\	0.8	896.5	1	694.8	1	941.1	1	571.8	1	858.7	1	616.3	1	821.5	1	809.6	13	318558	3	318546	27	40	318585	-999999	318561	0	36	TrialsPROC	PL_019_SCENE_05.png	2	2	60	SessionSelectionList														nonlure	3	Place	2-Back	52	80	51	0	0	100	3	39	208497	1	13	65	206458	-1	207777	1	1319	3	3	2039	52	208510	-53	0																60												
WM080112	106016_fnca	2	1	1	-977211967	1	75.034	75.031	2.0.10.147	2.0.10.242	2.0.10.242	1.0.0.439	7	234	2	3	Verdana	1	80	0	0	0	WM Stimuli\	0.8	896.5	1	694.8	1	941.1	1	571.8	1	858.7	1	616.3	1	821.5	1	809.6	13	318558	3	318546	27	40	318585	-999999	318561	0	36	TrialsPROC	PL_017_SCENE_03.png	2	2	61	SessionSelectionList														nonlure	3	Place	2-Back	53	80	52	0	0	100	4	39	211069	1	14	72	209030	-1	209995	1	965	3	3	2039	53	211083	-54	0																61												
WM080112	106016_fnca	2	1	1	-977211967	1	75.034	75.031	2.0.10.147	2.0.10.242	2.0.10.242	1.0.0.439	7	234	2	3	Verdana	1	80	0	0	0	WM Stimuli\	0.8	896.5	1	694.8	1	941.1	1	571.8	1	858.7	1	616.3	1	821.5	1	809.6	13	318558	3	318546	27	40	318585	-999999	318561	0	36	TrialsPROC	PL_017_SCENE_03.png	2	2	62	SessionSelectionList														lure	3	Place	2-Back	54	80	53	0	0	100	5	39	213641	2	14	72	211602	-1	212456	1	854	3	3	2039	53	213655	-54	0																62												
WM080112	106016_fnca	2	1	1	-977211967	1	75.034	75.031	2.0.10.147	2.0.10.242	2.0.10.242	1.0.0.439	7	234	2	3	Verdana	1	80	0	0	0	WM Stimuli\	0.8	896.5	1	694.8	1	941.1	1	571.8	1	858.7	1	616.3	1	821.5	1	809.6	13	318558	3	318546	27	40	318585	-999999	318561	0	36	TrialsPROC	PL_016_SCENE_02.png	2	2	63	SessionSelectionList														nonlure	3	Place	2-Back	55	80	54	0	0	100	6	39	216214	1	13	73	214175	-1	214848	1	673	3	3	2039	52	216227	-53	0																63												
WM080112	106016_fnca	2	1	1	-977211967	1	75.034	75.031	2.0.10.147	2.0.10.242	2.0.10.242	1.0.0.439	7	234	2	3	Verdana	1	80	0	0	0	WM Stimuli\	0.8	896.5	1	694.8	1	941.1	1	571.8	1	858.7	1	616.3	1	821.5	1	809.6	13	318558	3	318546	27	40	318585	-999999	318561	0	36	TrialsPROC	PL_015_SCENE_01.png	2	2	64	SessionSelectionList														nonlure	3	Place	2-Back	56	80	55	0	0	100	7	39	218786	1	14	72	216747	-1	217581	1	834	3	3	2039	53	218800	-54	0																64												
WM080112	106016_fnca	2	1	1	-977211967	1	75.034	75.031	2.0.10.147	2.0.10.242	2.0.10.242	1.0.0.439	7	234	2	3	Verdana	1	80	0	0	0	WM Stimuli\	0.8	896.5	1	694.8	1	941.1	1	571.8	1	858.7	1	616.3	1	821.5	1	809.6	13	318558	3	318546	27	40	318585	-999999	318561	0	36	TrialsPROC	PL_016_SCENE_02.png	2	2	65	SessionSelectionList														target	2	Place	2-Back	57	80	56	0	0	100	1	39	221358	2	14	72	219319	-1	220164	1	845	2	2	2039	53	221372	-54	0																65												
WM080112	106016_fnca	2	1	1	-977211967	1	75.034	75.031	2.0.10.147	2.0.10.242	2.0.10.242	1.0.0.439	7	234	2	3	Verdana	1	80	0	0	0	WM Stimuli\	0.8	896.5	1	694.8	1	941.1	1	571.8	1	858.7	1	616.3	1	821.5	1	809.6	13	318558	3	318546	27	40	318585	-999999	318561	0	36	TrialsPROC	PL_015_SCENE_01.png	2	2	66	SessionSelectionList														target	2	Place	2-Back	58	80	57	0	0	100	2	39	223930	2	14	72	221891	-1	222643	1	752	2	2	2039	53	223944	-54	0																66												
WM080112	106016_fnca	2	1	1	-977211967	1	75.034	75.031	2.0.10.147	2.0.10.242	2.0.10.242	1.0.0.439	7	234	2	3	Verdana	1	80	0	0	0	WM Stimuli\	0.8	896.5	1	694.8	1	941.1	1	571.8	1	858.7	1	616.3	1	821.5	1	809.6	13	318558	3	318546	27	40	318585	-999999	318561	0	36	TrialsPROC	PL_020_SCENE_06.png	2	2	67	SessionSelectionList														nonlure	3	Place	2-Back	59	80	58	0	0	100	1	39	226503	1	13	73	224464	-1	225340	1	876	3	3	2039	52	226516	-53	0																67												
WM080112	106016_fnca	2	1	1	-977211967	1	75.034	75.031	2.0.10.147	2.0.10.242	2.0.10.242	1.0.0.439	7	234	2	3	Verdana	1	80	0	0	0	WM Stimuli\	0.8	896.5	1	694.8	1	941.1	1	571.8	1	858.7	1	616.3	1	821.5	1	809.6	13	318558	3	318546	27	40	318585	-999999	318561	0	36	TrialsPROC	PL_020_SCENE_06.png	2	2	68	SessionSelectionList														lure	3	Place	2-Back	60	80	59	0	0	100	2	39	229075	1	14	72	227036	-1	227775	1	739	3	3	2039	53	229089	-54	0																68												
WM080112	106016_fnca	2	1	1	-977211967	1	75.034	75.031	2.0.10.147	2.0.10.242	2.0.10.242	1.0.0.439	7	234	2	3	Verdana	1	80	0	0	0	WM Stimuli\	0.8	896.5	1	694.8	1	941.1	1	571.8	1	858.7	1	616.3	1	821.5	1	809.6	13	318558	3	318546	27	40	318585	-999999	318561	0	36	TrialsPROC	PL_018_SCENE_04.png	2	2	69	SessionSelectionList														nonlure	3	Place	2-Back	61	80	60	0	0	100	3	39	231647	2	14	72	229608	-1	230338	1	730	3	3	2039	53	231661	-54	0																69												
WM080112	106016_fnca	2	1	1	-977211967	1	75.034	75.031	2.0.10.147	2.0.10.242	2.0.10.242	1.0.0.439	7	234	2	3	Verdana	1	80	0	0	0	WM Stimuli\	0.8	896.5	1	694.8	1	941.1	1	571.8	1	858.7	1	616.3	1	821.5	1	809.6	13	318558	3	318546	27	40	318585	-999999	318561	0	37	Fix15secPROC	""	2	2	70	SessionSelectionList																																															6	232114	-7	0							70												
WM080112	106016_fnca	2	1	1	-977211967	1	75.034	75.031	2.0.10.147	2.0.10.242	2.0.10.242	1.0.0.439	7	234	2	3	Verdana	1	80	0	0	0	WM Stimuli\	0.8	896.5	1	694.8	1	941.1	1	571.8	1	858.7	1	616.3	1	821.5	1	809.6	13	318558	3	318546	27	40	318585	-999999	318561	0	38	Cue0BackPROC	FC_020_F10.png	2	2	71	SessionSelectionList																																										26	247134	-27	0												71												
WM080112	106016_fnca	2	1	1	-977211967	1	75.034	75.031	2.0.10.147	2.0.10.242	2.0.10.242	1.0.0.439	7	234	2	3	Verdana	1	80	0	0	0	WM Stimuli\	0.8	896.5	1	694.8	1	941.1	1	571.8	1	858.7	1	616.3	1	821.5	1	809.6	13	318558	3	318546	27	40	318585	-999999	318561	0	39	TrialsPROC	FC_024_F12.png	2	2	72	SessionSelectionList														nonlure	3	Face	0-Back	62	80	61	0	0	100	4	39	251719	2	14	72	249680	-1	250573	1	893	3	3	2039	53	251733	-54	0																72												
WM080112	106016_fnca	2	1	1	-977211967	1	75.034	75.031	2.0.10.147	2.0.10.242	2.0.10.242	1.0.0.439	7	234	2	3	Verdana	1	80	0	0	0	WM Stimuli\	0.8	896.5	1	694.8	1	941.1	1	571.8	1	858.7	1	616.3	1	821.5	1	809.6	13	318558	3	318546	27	40	318585	-999999	318561	0	39	TrialsPROC	FC_023_M12.png	2	2	73	SessionSelectionList														nonlure	3	Face	0-Back	63	80	62	0	0	100	5	39	254291	3	14	72	252252	-1	252738	1	486	3	3	2039	53	254305	-54	0																73												
WM080112	106016_fnca	2	1	1	-977211967	1	75.034	75.031	2.0.10.147	2.0.10.242	2.0.10.242	1.0.0.439	7	234	2	3	Verdana	1	80	0	0	0	WM Stimuli\	0.8	896.5	1	694.8	1	941.1	1	571.8	1	858.7	1	616.3	1	821.5	1	809.6	13	318558	3	318546	27	40	318585	-999999	318561	0	39	TrialsPROC	FC_020_F10.png	2	2	74	SessionSelectionList														target	2	Face	0-Back	64	80	63	0	0	100	1	40	256864	1	13	72	254824	-1	255490	1	666	2	2	2040	53	256877	-54	0																74												
WM080112	106016_fnca	2	1	1	-977211967	1	75.034	75.031	2.0.10.147	2.0.10.242	2.0.10.242	1.0.0.439	7	234	2	3	Verdana	1	80	0	0	0	WM Stimuli\	0.8	896.5	1	694.8	1	941.1	1	571.8	1	858.7	1	616.3	1	821.5	1	809.6	13	318558	3	318546	27	40	318585	-999999	318561	0	39	TrialsPROC	FC_024_F12.png	2	2	75	SessionSelectionList														lure	3	Face	0-Back	65	80	64	0	0	100	1	39	259436	1	13	73	257397	-1	257964	1	567	3	3	2039	52	259449	-53	0																75												
WM080112	106016_fnca	2	1	1	-977211967	1	75.034	75.031	2.0.10.147	2.0.10.242	2.0.10.242	1.0.0.439	7	234	2	3	Verdana	1	80	0	0	0	WM Stimuli\	0.8	896.5	1	694.8	1	941.1	1	571.8	1	858.7	1	616.3	1	821.5	1	809.6	13	318558	3	318546	27	40	318585	-999999	318561	0	39	TrialsPROC	FC_020_F10.png	2	2	76	SessionSelectionList														target	2	Face	0-Back	66	80	65	0	0	100	1	39	262008	2	14	72	259969	-1	260661	1	692	2	2	2039	53	262022	-54	0																76												
WM080112	106016_fnca	2	1	1	-977211967	1	75.034	75.031	2.0.10.147	2.0.10.242	2.0.10.242	1.0.0.439	7	234	2	3	Verdana	1	80	0	0	0	WM Stimuli\	0.8	896.5	1	694.8	1	941.1	1	571.8	1	858.7	1	616.3	1	821.5	1	809.6	13	318558	3	318546	27	40	318585	-999999	318561	0	39	TrialsPROC	FC_022_F11.png	2	2	77	SessionSelectionList														nonlure	3	Face	0-Back	67	80	66	0	0	100	1	39	264580	2	14	72	262541	-1	263030	1	489	3	3	2039	53	264594	-54	0																77												
WM080112	106016_fnca	2	1	1	-977211967	1	75.034	75.031	2.0.10.147	2.0.10.242	2.0.10.242	1.0.0.439	7	234	2	3	Verdana	1	80	0	0	0	WM Stimuli\	0.8	896.5	1	694.8	1	941.1	1	571.8	1	858.7	1	616.3	1	821.5	1	809.6	13	318558	3	318546	27	40	318585	-999999	318561	0	39	TrialsPROC	FC_023_M12.png	2	2	78	SessionSelectionList														lure	3	Face	0-Back	68	80	67	0	0	100	2	40	267153	1	13	72	265113	-1	265564	1	451	3	3	2040	53	267166	-54	0																78												
WM080112	106016_fnca	2	1	1	-977211967	1	75.034	75.031	2.0.10.147	2.0.10.242	2.0.10.242	1.0.0.439	7	234	2	3	Verdana	1	80	0	0	0	WM Stimuli\	0.8	896.5	1	694.8	1	941.1	1	571.8	1	858.7	1	616.3	1	821.5	1	809.6	13	318558	3	318546	27	40	318585	-999999	318561	0	39	TrialsPROC	FC_021_M11.png	2	2	79	SessionSelectionList														nonlure	3	Face	0-Back	69	80	68	0	0	100	3	39	269725	1	14	73	267686	-1	268163	1	477	3	3	2039	53	269739	-54	0																79												
WM080112	106016_fnca	2	1	1	-977211967	1	75.034	75.031	2.0.10.147	2.0.10.242	2.0.10.242	1.0.0.439	7	234	2	3	Verdana	1	80	0	0	0	WM Stimuli\	0.8	896.5	1	694.8	1	941.1	1	571.8	1	858.7	1	616.3	1	821.5	1	809.6	13	318558	3	318546	27	40	318585	-999999	318561	0	39	TrialsPROC	FC_021_M11.png	2	2	80	SessionSelectionList														lure	3	Face	0-Back	70	80	69	0	0	100	4	39	272297	2	14	72	270258	-1	270773	1	515	3	3	2039	53	272311	-54	0																80												
WM080112	106016_fnca	2	1	1	-977211967	1	75.034	75.031	2.0.10.147	2.0.10.242	2.0.10.242	1.0.0.439	7	234	2	3	Verdana	1	80	0	0	0	WM Stimuli\	0.8	896.5	1	694.8	1	941.1	1	571.8	1	858.7	1	616.3	1	821.5	1	809.6	13	318558	3	318546	27	40	318585	-999999	318561	0	39	TrialsPROC	FC_019_M10.png	2	2	81	SessionSelectionList														nonlure	3	Face	0-Back	71	80	70	0	0	100	5	39	274869	2	14	72	272830	-1	273312	1	482	3	3	2039	53	274883	-54	0																81												
WM080112	106016_fnca	2	1	1	-977211967	1	75.034	75.031	2.0.10.147	2.0.10.242	2.0.10.242	1.0.0.439	7	234	2	3	Verdana	1	80	0	0	0	WM Stimuli\	0.8	896.5	1	694.8	1	941.1	1	571.8	1	858.7	1	616.3	1	821.5	1	809.6	13	318558	3	318546	27	40	318585	-999999	318561	0	40	Cue0BackPROC	PL_021_SCENE_07.png	2	2	82	SessionSelectionList																																										19	275349	-20	0												82												
WM080112	106016_fnca	2	1	1	-977211967	1	75.034	75.031	2.0.10.147	2.0.10.242	2.0.10.242	1.0.0.439	7	234	2	3	Verdana	1	80	0	0	0	WM Stimuli\	0.8	896.5	1	694.8	1	941.1	1	571.8	1	858.7	1	616.3	1	821.5	1	809.6	13	318558	3	318546	27	40	318585	-999999	318561	0	41	TrialsPROC	PL_025_SCENE_18.png	2	2	83	SessionSelectionList														nonlure	3	Place	0-Back	72	80	71	0	0	100	6	39	279934	1	14	65	277895	-1	278590	1	695	3	3	2039	53	279948	-54	0																83												
WM080112	106016_fnca	2	1	1	-977211967	1	75.034	75.031	2.0.10.147	2.0.10.242	2.0.10.242	1.0.0.439	7	234	2	3	Verdana	1	80	0	0	0	WM Stimuli\	0.8	896.5	1	694.8	1	941.1	1	571.8	1	858.7	1	616.3	1	821.5	1	809.6	13	318558	3	318546	27	40	318585	-999999	318561	0	41	TrialsPROC	PL_026_SCENE_24.png	2	2	84	SessionSelectionList														nonlure	3	Place	0-Back	73	80	72	0	0	100	7	39	282506	2	14	72	280467	-1	280920	1	453	3	3	2039	53	282520	-54	0																84												
WM080112	106016_fnca	2	1	1	-977211967	1	75.034	75.031	2.0.10.147	2.0.10.242	2.0.10.242	1.0.0.439	7	234	2	3	Verdana	1	80	0	0	0	WM Stimuli\	0.8	896.5	1	694.8	1	941.1	1	571.8	1	858.7	1	616.3	1	821.5	1	809.6	13	318558	3	318546	27	40	318585	-999999	318561	0	41	TrialsPROC	PL_025_SCENE_18.png	2	2	85	SessionSelectionList														lure	3	Place	0-Back	74	80	73	0	0	100	8	40	285079	1	13	72	283039	-1	283545	1	506	3	3	2040	53	285092	-54	0																85												
WM080112	106016_fnca	2	1	1	-977211967	1	75.034	75.031	2.0.10.147	2.0.10.242	2.0.10.242	1.0.0.439	7	234	2	3	Verdana	1	80	0	0	0	WM Stimuli\	0.8	896.5	1	694.8	1	941.1	1	571.8	1	858.7	1	616.3	1	821.5	1	809.6	13	318558	3	318546	27	40	318585	-999999	318561	0	41	TrialsPROC	PL_022_SCENE_08.png	2	2	86	SessionSelectionList														nonlure	3	Place	0-Back	75	80	74	0	0	100	9	39	287651	1	14	73	285612	-1	286482	1	870	3	3	2039	53	287665	-54	0																86												
WM080112	106016_fnca	2	1	1	-977211967	1	75.034	75.031	2.0.10.147	2.0.10.242	2.0.10.242	1.0.0.439	7	234	2	3	Verdana	1	80	0	0	0	WM Stimuli\	0.8	896.5	1	694.8	1	941.1	1	571.8	1	858.7	1	616.3	1	821.5	1	809.6	13	318558	3	318546	27	40	318585	-999999	318561	0	41	TrialsPROC	PL_026_SCENE_24.png	2	2	87	SessionSelectionList														lure	3	Place	0-Back	76	80	75	0	0	100	10	39	290223	2	14	72	288184	-1	288704	1	520	3	3	2039	53	290237	-54	0																87												
WM080112	106016_fnca	2	1	1	-977211967	1	75.034	75.031	2.0.10.147	2.0.10.242	2.0.10.242	1.0.0.439	7	234	2	3	Verdana	1	80	0	0	0	WM Stimuli\	0.8	896.5	1	694.8	1	941.1	1	571.8	1	858.7	1	616.3	1	821.5	1	809.6	13	318558	3	318546	27	40	318585	-999999	318561	0	41	TrialsPROC	PL_021_SCENE_07.png	2	2	88	SessionSelectionList														target	2	Place	0-Back	77	80	76	0	0	100	1	39	292795	2	14	72	290756	-1	291365	1	609	2	2	2039	53	292809	-54	0																88												
WM080112	106016_fnca	2	1	1	-977211967	1	75.034	75.031	2.0.10.147	2.0.10.242	2.0.10.242	1.0.0.439	7	234	2	3	Verdana	1	80	0	0	0	WM Stimuli\	0.8	896.5	1	694.8	1	941.1	1	571.8	1	858.7	1	616.3	1	821.5	1	809.6	13	318558	3	318546	27	40	318585	-999999	318561	0	41	TrialsPROC	PL_021_SCENE_07.png	2	2	89	SessionSelectionList														target	2	Place	0-Back	78	80	77	0	0	100	2	39	295368	1	13	73	293329	-1	293901	1	572	2	2	2039	52	295381	-53	0																89												
WM080112	106016_fnca	2	1	1	-977211967	1	75.034	75.031	2.0.10.147	2.0.10.242	2.0.10.242	1.0.0.439	7	234	2	3	Verdana	1	80	0	0	0	WM Stimuli\	0.8	896.5	1	694.8	1	941.1	1	571.8	1	858.7	1	616.3	1	821.5	1	809.6	13	318558	3	318546	27	40	318585	-999999	318561	0	41	TrialsPROC	PL_023_SCENE_09.png	2	2	90	SessionSelectionList														nonlure	3	Place	0-Back	79	80	78	0	0	100	1	39	297940	1	14	72	295901	-1	296486	1	585	3	3	2039	53	297954	-54	0																90												
WM080112	106016_fnca	2	1	1	-977211967	1	75.034	75.031	2.0.10.147	2.0.10.242	2.0.10.242	1.0.0.439	7	234	2	3	Verdana	1	80	0	0	0	WM Stimuli\	0.8	896.5	1	694.8	1	941.1	1	571.8	1	858.7	1	616.3	1	821.5	1	809.6	13	318558	3	318546	27	40	318585	-999999	318561	0	41	TrialsPROC	PL_024_SCENE_10.png	2	2	91	SessionSelectionList														nonlure	3	Place	0-Back	80	80	79	0	0	100	2	39	300512	2	14	72	298473	-1	299061	1	588	3	3	2039	53	300526	-54	0																91												
WM080112	106016_fnca	2	1	1	-977211967	1	75.034	75.031	2.0.10.147	2.0.10.242	2.0.10.242	1.0.0.439	7	234	2	3	Verdana	1	80	0	0	0	WM Stimuli\	0.8	896.5	1	694.8	1	941.1	1	571.8	1	858.7	1	616.3	1	821.5	1	809.6	13	318558	3	318546	27	40	318585	-999999	318561	0	41	TrialsPROC	PL_022_SCENE_08.png	2	2	92	SessionSelectionList														lure	3	Place	0-Back	80	80	80	0	0	100	3	40	303085	1	13	72	301045	-1	301810	1	765	3	3	2040	53	303098	-54	0																92												
WM080112	106016_fnca	2	1	1	-977211967	1	75.034	75.031	2.0.10.147	2.0.10.242	2.0.10.242	1.0.0.439	7	234	2	3	Verdana	1	80	0	0	0	WM Stimuli\	0.8	896.5	1	694.8	1	941.1	1	571.8	1	858.7	1	616.3	1	821.5	1	809.6	13	318558	3	318546	27	40	318585	-999999	318561	0	42	Fix15secPROC	""	2	2	93	SessionSelectionList																																															6	303551	-7	0							93												
