ExperimentName	HCPID	RunNumber	Subject	Session	RandomSeed	Group	Laptop.RefreshRate	ScannerD2.RefreshRate	StudioVersion	RuntimeVersion	RuntimeVersionExpected	ExperimentVersion	triggercode	Allowed	Target	Nontarget	FontStyle	RunTrialNumber[Session]	TrialsPerRun[Session]	TotalRespGreater200[Session]	ConsecRTLess200[Session]	ConsecNonResp[Session]	StimuliDir	ACC_2_Back_Body	Avg_RT_For_Correct_Trials_2_Back_Body	ACC_0_Back_Body	Avg_RT_For_Correct_Trials_0_Back_Body	ACC_2_Back_Face	Avg_RT_For_Correct_Trials_2_Back_Face	ACC_0_Back_Face	Avg_RT_For_Correct_Trials_0_Back_Face	ACC_2_Back_Place	Avg_RT_For_Correct_Trials_2_Back_Place	ACC_0_Back_Place	Avg_RT_For_Correct_Trials_0_Back_Place	ACC_2_Back_Tools	Avg_RT_For_Correct_Trials_2_Back_Tools	ACC_0_Back_Tools	Avg_RT_For_Correct_Trials_0_Back_Tools	ExpInstrucFeelFreeToRest.OnsetDelay	ExpInstrucFeelFreeToRest.OnsetTime	ExpInstrucFeelFreeToRest.DurationError	ExpInstrucFeelFreeToRest.StartTime	ExpInstrucFeelFreeToRest.OnsetToOnsetTime	FeelFreeToRest.OnsetDelay	FeelFreeToRest.OnsetTime	FeelFreeToRest.DurationError	FeelFreeToRest.StartTime	FeelFreeToRest.OnsetToOnsetTime	SessionSelectionList	Procedure[Block]	Stimulus[Block]	RunNumberFilterValue	SessionSelectionList.Cycle	SessionSelectionList.Sample	Running[Block]	IntroButtonMap.OnsetDelay	IntroButtonMap.OnsetTime	IntroButtonMap.DurationError	IntroButtonMap.OnsetToOnsetTime	GetReady.OnsetDelay	GetReady.OnsetTime	GetReady.DurationError	GetReady.OnsetToOnsetTime	Cue2Back.OnsetDelay	Cue2Back.OnsetTime	Cue2Back.DurationError	Cue2Back.OnsetToOnsetTime	Run1Block1	TargetType	CorrectResponse	StimType	BlockType	RunTrialNumber[Block]	TrialsPerRun[Block]	TotalRespGreater200[Block]	ConsecRTLess200[Block]	ConsecNonResp[Block]	ControlAcc	ConsecSameResp	ExperimenterWindow.OnsetDelay	ExperimenterWindow.OnsetTime	ExperimenterWindow.DurationError	ExperimenterWindow.OnsetToOnsetTime	Stim.OnsetDelay	Stim.OnsetTime	Stim.DurationError	Stim.RTTime	Stim.ACC	Stim.RT	Stim.RESP	Stim.CRESP	Stim.OnsetToOnsetTime	Fix.OnsetDelay	Fix.OnsetTime	Fix.DurationError	Fix.OnsetToOnsetTime	CueTarget.OnsetDelay	CueTarget.OnsetTime	CueTarget.DurationError	CueTarget.OnsetToOnsetTime	Run1Block2	Fix15sec.OnsetDelay	Fix15sec.OnsetTime	Fix15sec.DurationError	Fix15sec.OnsetToOnsetTime	Run1Block3	Run1Block4	Run1Block5	Run1Block6	Run1Block7	Run1Block8	Block	Procedure[Trial]	Stimulus[Trial]	ReadyList	Running[Trial]	ReadyList.Cycle	ReadyList.Sample	SyncSlide.OnsetDelay	SyncSlide.OnsetTime	SyncSlide.DurationError	SyncSlide.FinishTime	SyncSlide.OnsetToOnsetTime	Trial
WM080112	151627_fnca	1	1	1	626489286	1	75.031	75.031	2.0.10.147	2.0.10.242	2.0.10.242	1.0.0.439	7	234	2	3	Verdana	1	80	0	0	0	WM Stimuli\	0.5	1171.4	0.7	1282.42857142857	0.8	903.75	0.7	920.857142857143	0.9	1134.77777777778	1	861.5	0.9	1355.66666666667	1	760.6	13	376596	2	376584	27	40	376623	-999999	376599	0	1	TRSyncPROC	""	1	2	1	SessionSelectionList	103	18554	-999999	0	38	66868	-999999	0																																																	1	InitialTR	4	1	ReadyList	1	1	11	83381	-12	85369	0	1
WM080112	151627_fnca	1	1	1	626489286	1	75.031	75.031	2.0.10.147	2.0.10.242	2.0.10.242	1.0.0.439	7	234	2	3	Verdana	1	80	0	0	0	WM Stimuli\	0.5	1171.4	0.7	1282.42857142857	0.8	903.75	0.7	920.857142857143	0.9	1134.77777777778	1	861.5	0.9	1355.66666666667	1	760.6	13	376596	2	376584	27	40	376623	-999999	376599	0	1	TRSyncPROC	""	1	2	1	SessionSelectionList	103	18554	-999999	0	38	66868	-999999	0																																																	1	InitialTR	3	2	ReadyList	1	2	10	85380	-11	87369	0	2
WM080112	151627_fnca	1	1	1	626489286	1	75.031	75.031	2.0.10.147	2.0.10.242	2.0.10.242	1.0.0.439	7	234	2	3	Verdana	1	80	0	0	0	WM Stimuli\	0.5	1171.4	0.7	1282.42857142857	0.8	903.75	0.7	920.857142857143	0.9	1134.77777777778	1	861.5	0.9	1355.66666666667	1	760.6	13	376596	2	376584	27	40	376623	-999999	376599	0	1	TRSyncPROC	""	1	2	1	SessionSelectionList	103	18554	-999999	0	38	66868	-999999	0																																																	1	InitialTR	2	3	ReadyList	1	3	9	87379	-10	89369	0	3
WM080112	151627_fnca	1	1	1	626489286	1	75.031	75.031	2.0.10.147	2.0.10.242	2.0.10.242	1.0.0.439	7	234	2	3	Verdana	1	80	0	0	0	WM Stimuli\	0.5	1171.4	0.7	1282.42857142857	0.8	903.75	0.7	920.857142857143	0.9	1134.77777777778	1	861.5	0.9	1355.66666666667	1	760.6	13	376596	2	376584	27	40	376623	-999999	376599	0	1	TRSyncPROC	""	1	2	1	SessionSelectionList	103	18554	-999999	0	38	66868	-999999	0																																																	1	InitialTR	1	4	ReadyList	1	4	9	89379	-10	91369	0	4
WM080112	151627_fnca	1	1	1	626489286	1	75.031	75.031	2.0.10.147	2.0.10.242	2.0.10.242	1.0.0.439	7	234	2	3	Verdana	1	80	0	0	0	WM Stimuli\	0.5	1171.4	0.7	1282.42857142857	0.8	903.75	0.7	920.857142857143	0.9	1134.77777777778	1	861.5	0.9	1355.66666666667	1	760.6	13	376596	2	376584	27	40	376623	-999999	376599	0	2	Cue2BackPROC	""	1	2	2	SessionSelectionList									8	91378	-9	0																																													2												
WM080112	151627_fnca	1	1	1	626489286	1	75.031	75.031	2.0.10.147	2.0.10.242	2.0.10.242	1.0.0.439	7	234	2	3	Verdana	1	80	0	0	0	WM Stimuli\	0.5	1171.4	0.7	1282.42857142857	0.8	903.75	0.7	920.857142857143	0.9	1134.77777777778	1	861.5	0.9	1355.66666666667	1	760.6	13	376596	2	376584	27	40	376623	-999999	376599	0	3	TrialsPROC	BP_002_BP10_BA.png	1	2	3	SessionSelectionList													1	nonlure	3	Body	2-Back	2	80	1	0	0	0	1	53	96003	2	13	80	93950	-1	95317	1	1367	3	3	2053	66	96016	-67	0																3												
WM080112	151627_fnca	1	1	1	626489286	1	75.031	75.031	2.0.10.147	2.0.10.242	2.0.10.242	1.0.0.439	7	234	2	3	Verdana	1	80	0	0	0	WM Stimuli\	0.5	1171.4	0.7	1282.42857142857	0.8	903.75	0.7	920.857142857143	0.9	1134.77777777778	1	861.5	0.9	1355.66666666667	1	760.6	13	376596	2	376584	27	40	376623	-999999	376599	0	3	TrialsPROC	BP_001_BP1_BA.png	1	2	4	SessionSelectionList													2	nonlure	3	Body	2-Back	3	80	2	0	0	0	2	40	98562	2	13	72	96522	-1	97766	1	1244	3	3	2040	53	98575	-54	0																4												
WM080112	151627_fnca	1	1	1	626489286	1	75.031	75.031	2.0.10.147	2.0.10.242	2.0.10.242	1.0.0.439	7	234	2	3	Verdana	1	80	0	0	0	WM Stimuli\	0.5	1171.4	0.7	1282.42857142857	0.8	903.75	0.7	920.857142857143	0.9	1134.77777777778	1	861.5	0.9	1355.66666666667	1	760.6	13	376596	2	376584	27	40	376623	-999999	376599	0	3	TrialsPROC	BP_006_BP2_BA.png	1	2	5	SessionSelectionList													3	nonlure	3	Body	2-Back	4	80	3	0	0	0	1	39	101120	2	14	59	99081	-1	100018	0	937	2	3	2039	53	101134	-54	0																5												
WM080112	151627_fnca	1	1	1	626489286	1	75.031	75.031	2.0.10.147	2.0.10.242	2.0.10.242	1.0.0.439	7	234	2	3	Verdana	1	80	0	0	0	WM Stimuli\	0.5	1171.4	0.7	1282.42857142857	0.8	903.75	0.7	920.857142857143	0.9	1134.77777777778	1	861.5	0.9	1355.66666666667	1	760.6	13	376596	2	376584	27	40	376623	-999999	376599	0	3	TrialsPROC	BP_001_BP1_BA.png	1	2	6	SessionSelectionList													4	target	2	Body	2-Back	5	80	4	0	0	0	1	39	103693	1	13	73	101654	-1	103535	0	1881	3	2	2039	52	103706	-53	0																6												
WM080112	151627_fnca	1	1	1	626489286	1	75.031	75.031	2.0.10.147	2.0.10.242	2.0.10.242	1.0.0.439	7	234	2	3	Verdana	1	80	0	0	0	WM Stimuli\	0.5	1171.4	0.7	1282.42857142857	0.8	903.75	0.7	920.857142857143	0.9	1134.77777777778	1	861.5	0.9	1355.66666666667	1	760.6	13	376596	2	376584	27	40	376623	-999999	376599	0	3	TrialsPROC	BP_005_BP19_BA.png	1	2	7	SessionSelectionList													5	nonlure	3	Body	2-Back	6	80	5	0	0	0	1	39	106265	2	14	72	104226	-1	105190	0	964	2	3	2039	53	106279	-54	0																7												
WM080112	151627_fnca	1	1	1	626489286	1	75.031	75.031	2.0.10.147	2.0.10.242	2.0.10.242	1.0.0.439	7	234	2	3	Verdana	1	80	0	0	0	WM Stimuli\	0.5	1171.4	0.7	1282.42857142857	0.8	903.75	0.7	920.857142857143	0.9	1134.77777777778	1	861.5	0.9	1355.66666666667	1	760.6	13	376596	2	376584	27	40	376623	-999999	376599	0	3	TrialsPROC	BP_003_BP16_BA.png	1	2	8	SessionSelectionList													6	nonlure	3	Body	2-Back	7	80	6	0	0	0	1	39	108824	1	14	59	106785	-1	107688	1	903	3	3	2039	53	108838	-54	0																8												
WM080112	151627_fnca	1	1	1	626489286	1	75.031	75.031	2.0.10.147	2.0.10.242	2.0.10.242	1.0.0.439	7	234	2	3	Verdana	1	80	0	0	0	WM Stimuli\	0.5	1171.4	0.7	1282.42857142857	0.8	903.75	0.7	920.857142857143	0.9	1134.77777777778	1	861.5	0.9	1355.66666666667	1	760.6	13	376596	2	376584	27	40	376623	-999999	376599	0	3	TrialsPROC	BP_006_BP2_BA.png	1	2	9	SessionSelectionList													7	lure	3	Body	2-Back	8	80	7	0	0	0	1	39	111383	1	14	59	109344	-1	110986	0	1642	2	3	2039	53	111397	-54	0																9												
WM080112	151627_fnca	1	1	1	626489286	1	75.031	75.031	2.0.10.147	2.0.10.242	2.0.10.242	1.0.0.439	7	234	2	3	Verdana	1	80	0	0	0	WM Stimuli\	0.5	1171.4	0.7	1282.42857142857	0.8	903.75	0.7	920.857142857143	0.9	1134.77777777778	1	861.5	0.9	1355.66666666667	1	760.6	13	376596	2	376584	27	40	376623	-999999	376599	0	3	TrialsPROC	BP_004_BP18_BA.png	1	2	10	SessionSelectionList													8	nonlure	3	Body	2-Back	9	80	8	0	0	0	1	39	113942	1	14	59	111903	-1	112808	1	905	3	3	2039	53	113956	-54	0																10												
WM080112	151627_fnca	1	1	1	626489286	1	75.031	75.031	2.0.10.147	2.0.10.242	2.0.10.242	1.0.0.439	7	234	2	3	Verdana	1	80	0	0	0	WM Stimuli\	0.5	1171.4	0.7	1282.42857142857	0.8	903.75	0.7	920.857142857143	0.9	1134.77777777778	1	861.5	0.9	1355.66666666667	1	760.6	13	376596	2	376584	27	40	376623	-999999	376599	0	3	TrialsPROC	BP_005_BP19_BA.png	1	2	11	SessionSelectionList													9	lure	3	Body	2-Back	10	80	9	0	0	0	2	39	116501	1	14	59	114462	-1	115900	1	1438	3	3	2039	53	116515	-54	0																11												
WM080112	151627_fnca	1	1	1	626489286	1	75.031	75.031	2.0.10.147	2.0.10.242	2.0.10.242	1.0.0.439	7	234	2	3	Verdana	1	80	0	0	0	WM Stimuli\	0.5	1171.4	0.7	1282.42857142857	0.8	903.75	0.7	920.857142857143	0.9	1134.77777777778	1	861.5	0.9	1355.66666666667	1	760.6	13	376596	2	376584	27	40	376623	-999999	376599	0	3	TrialsPROC	BP_004_BP18_BA.png	1	2	12	SessionSelectionList													10	target	2	Body	2-Back	11	80	10	0	0	0	3	39	119060	1	14	59	117021	-1	118369	0	1348	3	2	2039	53	119074	-54	0																12												
WM080112	151627_fnca	1	1	1	626489286	1	75.031	75.031	2.0.10.147	2.0.10.242	2.0.10.242	1.0.0.439	7	234	2	3	Verdana	1	80	0	0	0	WM Stimuli\	0.5	1171.4	0.7	1282.42857142857	0.8	903.75	0.7	920.857142857143	0.9	1134.77777777778	1	861.5	0.9	1355.66666666667	1	760.6	13	376596	2	376584	27	40	376623	-999999	376599	0	4	Cue0BackPROC	FC_001_M1.png	1	2	13	SessionSelectionList																																										19	119540	-20	0												13												
WM080112	151627_fnca	1	1	1	626489286	1	75.031	75.031	2.0.10.147	2.0.10.242	2.0.10.242	1.0.0.439	7	234	2	3	Verdana	1	80	0	0	0	WM Stimuli\	0.5	1171.4	0.7	1282.42857142857	0.8	903.75	0.7	920.857142857143	0.9	1134.77777777778	1	861.5	0.9	1355.66666666667	1	760.6	13	376596	2	376584	27	40	376623	-999999	376599	0	5	TrialsPROC	FC_005_M3.png	1	2	14	SessionSelectionList														nonlure	3	Face	0-Back	12	80	11	0	0	100	4	40	124125	1	13	64	122085	-1	123242	1	1157	3	3	2040	53	124138	-54	0					1											14												
WM080112	151627_fnca	1	1	1	626489286	1	75.031	75.031	2.0.10.147	2.0.10.242	2.0.10.242	1.0.0.439	7	234	2	3	Verdana	1	80	0	0	0	WM Stimuli\	0.5	1171.4	0.7	1282.42857142857	0.8	903.75	0.7	920.857142857143	0.9	1134.77777777778	1	861.5	0.9	1355.66666666667	1	760.6	13	376596	2	376584	27	40	376623	-999999	376599	0	5	TrialsPROC	FC_001_M1.png	1	2	15	SessionSelectionList														target	2	Face	0-Back	13	80	12	0	0	50	5	39	126697	2	14	73	124658	-1	125368	0	710	3	2	2039	53	126711	-54	0					2											15												
WM080112	151627_fnca	1	1	1	626489286	1	75.031	75.031	2.0.10.147	2.0.10.242	2.0.10.242	1.0.0.439	7	234	2	3	Verdana	1	80	0	0	0	WM Stimuli\	0.5	1171.4	0.7	1282.42857142857	0.8	903.75	0.7	920.857142857143	0.9	1134.77777777778	1	861.5	0.9	1355.66666666667	1	760.6	13	376596	2	376584	27	40	376623	-999999	376599	0	5	TrialsPROC	FC_003_M2.png	1	2	16	SessionSelectionList														nonlure	3	Face	0-Back	14	80	13	0	0	67	6	39	129269	1	14	72	127230	-1	128036	1	806	3	3	2039	53	129283	-54	0					3											16												
WM080112	151627_fnca	1	1	1	626489286	1	75.031	75.031	2.0.10.147	2.0.10.242	2.0.10.242	1.0.0.439	7	234	2	3	Verdana	1	80	0	0	0	WM Stimuli\	0.5	1171.4	0.7	1282.42857142857	0.8	903.75	0.7	920.857142857143	0.9	1134.77777777778	1	861.5	0.9	1355.66666666667	1	760.6	13	376596	2	376584	27	40	376623	-999999	376599	0	5	TrialsPROC	FC_004_F2.png	1	2	17	SessionSelectionList														nonlure	3	Face	0-Back	15	80	14	0	0	75	7	39	131841	2	14	72	129802	-1	130379	1	577	3	3	2039	53	131855	-54	0					4											17												
WM080112	151627_fnca	1	1	1	626489286	1	75.031	75.031	2.0.10.147	2.0.10.242	2.0.10.242	1.0.0.439	7	234	2	3	Verdana	1	80	0	0	0	WM Stimuli\	0.5	1171.4	0.7	1282.42857142857	0.8	903.75	0.7	920.857142857143	0.9	1134.77777777778	1	861.5	0.9	1355.66666666667	1	760.6	13	376596	2	376584	27	40	376623	-999999	376599	0	5	TrialsPROC	FC_004_F2.png	1	2	18	SessionSelectionList														lure	3	Face	0-Back	16	80	15	0	0	60	1	39	134414	1	13	73	132375	-1	133157	0	782	2	3	2039	52	134427	-53	0					5											18												
WM080112	151627_fnca	1	1	1	626489286	1	75.031	75.031	2.0.10.147	2.0.10.242	2.0.10.242	1.0.0.439	7	234	2	3	Verdana	1	80	0	0	0	WM Stimuli\	0.5	1171.4	0.7	1282.42857142857	0.8	903.75	0.7	920.857142857143	0.9	1134.77777777778	1	861.5	0.9	1355.66666666667	1	760.6	13	376596	2	376584	27	40	376623	-999999	376599	0	5	TrialsPROC	FC_001_M1.png	1	2	19	SessionSelectionList														target	2	Face	0-Back	17	80	16	0	0	50	1	39	136986	2	14	72	134947	-1	136036	0	1089	3	2	2039	53	137000	-54	0					6											19												
WM080112	151627_fnca	1	1	1	626489286	1	75.031	75.031	2.0.10.147	2.0.10.242	2.0.10.242	1.0.0.439	7	234	2	3	Verdana	1	80	0	0	0	WM Stimuli\	0.5	1171.4	0.7	1282.42857142857	0.8	903.75	0.7	920.857142857143	0.9	1134.77777777778	1	861.5	0.9	1355.66666666667	1	760.6	13	376596	2	376584	27	40	376623	-999999	376599	0	5	TrialsPROC	FC_006_F3.png	1	2	20	SessionSelectionList														nonlure	3	Face	0-Back	18	80	17	0	0	57	2	39	139558	2	14	72	137519	-1	138144	1	625	3	3	2039	53	139572	-54	0					7											20												
WM080112	151627_fnca	1	1	1	626489286	1	75.031	75.031	2.0.10.147	2.0.10.242	2.0.10.242	1.0.0.439	7	234	2	3	Verdana	1	80	0	0	0	WM Stimuli\	0.5	1171.4	0.7	1282.42857142857	0.8	903.75	0.7	920.857142857143	0.9	1134.77777777778	1	861.5	0.9	1355.66666666667	1	760.6	13	376596	2	376584	27	40	376623	-999999	376599	0	5	TrialsPROC	FC_006_F3.png	1	2	21	SessionSelectionList														lure	3	Face	0-Back	19	80	18	0	0	62	3	40	142131	1	13	72	140091	-1	141313	1	1222	3	3	2040	53	142144	-54	0					8											21												
WM080112	151627_fnca	1	1	1	626489286	1	75.031	75.031	2.0.10.147	2.0.10.242	2.0.10.242	1.0.0.439	7	234	2	3	Verdana	1	80	0	0	0	WM Stimuli\	0.5	1171.4	0.7	1282.42857142857	0.8	903.75	0.7	920.857142857143	0.9	1134.77777777778	1	861.5	0.9	1355.66666666667	1	760.6	13	376596	2	376584	27	40	376623	-999999	376599	0	5	TrialsPROC	FC_003_M2.png	1	2	22	SessionSelectionList														lure	3	Face	0-Back	20	80	19	0	0	67	4	39	144703	1	14	73	142664	-1	143849	1	1185	3	3	2039	53	144717	-54	0					9											22												
WM080112	151627_fnca	1	1	1	626489286	1	75.031	75.031	2.0.10.147	2.0.10.242	2.0.10.242	1.0.0.439	7	234	2	3	Verdana	1	80	0	0	0	WM Stimuli\	0.5	1171.4	0.7	1282.42857142857	0.8	903.75	0.7	920.857142857143	0.9	1134.77777777778	1	861.5	0.9	1355.66666666667	1	760.6	13	376596	2	376584	27	40	376623	-999999	376599	0	5	TrialsPROC	FC_002_F1.png	1	2	23	SessionSelectionList														nonlure	3	Face	0-Back	21	80	20	0	0	70	5	39	147275	2	14	72	145236	-1	146110	1	874	3	3	2039	53	147289	-54	0					10											23												
WM080112	151627_fnca	1	1	1	626489286	1	75.031	75.031	2.0.10.147	2.0.10.242	2.0.10.242	1.0.0.439	7	234	2	3	Verdana	1	80	0	0	0	WM Stimuli\	0.5	1171.4	0.7	1282.42857142857	0.8	903.75	0.7	920.857142857143	0.9	1134.77777777778	1	861.5	0.9	1355.66666666667	1	760.6	13	376596	2	376584	27	40	376623	-999999	376599	0	6	Fix15secPROC	""	1	2	24	SessionSelectionList																																															6	147742	-7	0							24												
WM080112	151627_fnca	1	1	1	626489286	1	75.031	75.031	2.0.10.147	2.0.10.242	2.0.10.242	1.0.0.439	7	234	2	3	Verdana	1	80	0	0	0	WM Stimuli\	0.5	1171.4	0.7	1282.42857142857	0.8	903.75	0.7	920.857142857143	0.9	1134.77777777778	1	861.5	0.9	1355.66666666667	1	760.6	13	376596	2	376584	27	40	376623	-999999	376599	0	7	Cue2BackPROC	""	1	2	25	SessionSelectionList									13	162749	-14	0																																													25												
WM080112	151627_fnca	1	1	1	626489286	1	75.031	75.031	2.0.10.147	2.0.10.242	2.0.10.242	1.0.0.439	7	234	2	3	Verdana	1	80	0	0	0	WM Stimuli\	0.5	1171.4	0.7	1282.42857142857	0.8	903.75	0.7	920.857142857143	0.9	1134.77777777778	1	861.5	0.9	1355.66666666667	1	760.6	13	376596	2	376584	27	40	376623	-999999	376599	0	8	TrialsPROC	TO_001_TOOL1_BA.png	1	2	26	SessionSelectionList														nonlure	3	Tools	2-Back	22	80	21	0	0	70	6	39	167334	1	13	59	165295	-1	167002	1	1707	3	3	2039	52	167347	-53	0										1						26												
WM080112	151627_fnca	1	1	1	626489286	1	75.031	75.031	2.0.10.147	2.0.10.242	2.0.10.242	1.0.0.439	7	234	2	3	Verdana	1	80	0	0	0	WM Stimuli\	0.5	1171.4	0.7	1282.42857142857	0.8	903.75	0.7	920.857142857143	0.9	1134.77777777778	1	861.5	0.9	1355.66666666667	1	760.6	13	376596	2	376584	27	40	376623	-999999	376599	0	8	TrialsPROC	TO_002_TOOL2_BA.png	1	2	27	SessionSelectionList														nonlure	3	Tools	2-Back	23	80	22	0	0	70	7	40	169893	1	13	58	167853	-1	168785	1	932	3	3	2040	53	169906	-54	0										2						27												
WM080112	151627_fnca	1	1	1	626489286	1	75.031	75.031	2.0.10.147	2.0.10.242	2.0.10.242	1.0.0.439	7	234	2	3	Verdana	1	80	0	0	0	WM Stimuli\	0.5	1171.4	0.7	1282.42857142857	0.8	903.75	0.7	920.857142857143	0.9	1134.77777777778	1	861.5	0.9	1355.66666666667	1	760.6	13	376596	2	376584	27	40	376623	-999999	376599	0	8	TrialsPROC	TO_004_TOOL4_BA.png	1	2	28	SessionSelectionList														nonlure	3	Tools	2-Back	24	80	23	0	0	70	8	40	172452	1	13	59	170412	-1	171939	1	1527	3	3	2040	53	172465	-54	0										3						28												
WM080112	151627_fnca	1	1	1	626489286	1	75.031	75.031	2.0.10.147	2.0.10.242	2.0.10.242	1.0.0.439	7	234	2	3	Verdana	1	80	0	0	0	WM Stimuli\	0.5	1171.4	0.7	1282.42857142857	0.8	903.75	0.7	920.857142857143	0.9	1134.77777777778	1	861.5	0.9	1355.66666666667	1	760.6	13	376596	2	376584	27	40	376623	-999999	376599	0	8	TrialsPROC	TO_002_TOOL2_BA.png	1	2	29	SessionSelectionList														target	2	Tools	2-Back	25	80	24	0	0	70	1	40	175011	1	13	59	172971	-1	174555	1	1584	2	2	2040	53	175024	-54	0										4						29												
WM080112	151627_fnca	1	1	1	626489286	1	75.031	75.031	2.0.10.147	2.0.10.242	2.0.10.242	1.0.0.439	7	234	2	3	Verdana	1	80	0	0	0	WM Stimuli\	0.5	1171.4	0.7	1282.42857142857	0.8	903.75	0.7	920.857142857143	0.9	1134.77777777778	1	861.5	0.9	1355.66666666667	1	760.6	13	376596	2	376584	27	40	376623	-999999	376599	0	8	TrialsPROC	TO_001_TOOL1_BA.png	1	2	30	SessionSelectionList														lure	3	Tools	2-Back	26	80	25	0	0	70	1	40	177570	1	13	59	175530	-1	176787	1	1257	3	3	2040	53	177583	-54	0										5						30												
WM080112	151627_fnca	1	1	1	626489286	1	75.031	75.031	2.0.10.147	2.0.10.242	2.0.10.242	1.0.0.439	7	234	2	3	Verdana	1	80	0	0	0	WM Stimuli\	0.5	1171.4	0.7	1282.42857142857	0.8	903.75	0.7	920.857142857143	0.9	1134.77777777778	1	861.5	0.9	1355.66666666667	1	760.6	13	376596	2	376584	27	40	376623	-999999	376599	0	8	TrialsPROC	TO_004_TOOL4_BA.png	1	2	31	SessionSelectionList														lure	3	Tools	2-Back	27	80	26	0	0	70	1	40	180129	1	13	59	178089	-1	179655	0	1566	2	3	2040	53	180142	-54	0										6						31												
WM080112	151627_fnca	1	1	1	626489286	1	75.031	75.031	2.0.10.147	2.0.10.242	2.0.10.242	1.0.0.439	7	234	2	3	Verdana	1	80	0	0	0	WM Stimuli\	0.5	1171.4	0.7	1282.42857142857	0.8	903.75	0.7	920.857142857143	0.9	1134.77777777778	1	861.5	0.9	1355.66666666667	1	760.6	13	376596	2	376584	27	40	376623	-999999	376599	0	8	TrialsPROC	TO_006_TOOL6_BA.png	1	2	32	SessionSelectionList														nonlure	3	Tools	2-Back	28	80	27	0	0	70	1	40	182688	1	13	59	180648	-1	182560	1	1912	3	3	2040	53	182701	-54	0										7						32												
WM080112	151627_fnca	1	1	1	626489286	1	75.031	75.031	2.0.10.147	2.0.10.242	2.0.10.242	1.0.0.439	7	234	2	3	Verdana	1	80	0	0	0	WM Stimuli\	0.5	1171.4	0.7	1282.42857142857	0.8	903.75	0.7	920.857142857143	0.9	1134.77777777778	1	861.5	0.9	1355.66666666667	1	760.6	13	376596	2	376584	27	40	376623	-999999	376599	0	8	TrialsPROC	TO_005_TOOL5_BA.png	1	2	33	SessionSelectionList														nonlure	3	Tools	2-Back	29	80	28	0	0	70	2	39	185246	2	14	59	183207	-1	184539	1	1332	3	3	2039	53	185260	-54	0										8						33												
WM080112	151627_fnca	1	1	1	626489286	1	75.031	75.031	2.0.10.147	2.0.10.242	2.0.10.242	1.0.0.439	7	234	2	3	Verdana	1	80	0	0	0	WM Stimuli\	0.5	1171.4	0.7	1282.42857142857	0.8	903.75	0.7	920.857142857143	0.9	1134.77777777778	1	861.5	0.9	1355.66666666667	1	760.6	13	376596	2	376584	27	40	376623	-999999	376599	0	8	TrialsPROC	TO_006_TOOL6_BA.png	1	2	34	SessionSelectionList														target	2	Tools	2-Back	30	80	29	0	0	70	1	39	187805	2	14	59	185766	-1	186771	1	1005	2	2	2039	53	187819	-54	0										9						34												
WM080112	151627_fnca	1	1	1	626489286	1	75.031	75.031	2.0.10.147	2.0.10.242	2.0.10.242	1.0.0.439	7	234	2	3	Verdana	1	80	0	0	0	WM Stimuli\	0.5	1171.4	0.7	1282.42857142857	0.8	903.75	0.7	920.857142857143	0.9	1134.77777777778	1	861.5	0.9	1355.66666666667	1	760.6	13	376596	2	376584	27	40	376623	-999999	376599	0	8	TrialsPROC	TO_003_TOOL3_BA.png	1	2	35	SessionSelectionList														nonlure	3	Tools	2-Back	31	80	30	0	0	70	1	39	190364	2	14	59	188325	-1	189270	1	945	3	3	2039	53	190378	-54	0										10						35												
WM080112	151627_fnca	1	1	1	626489286	1	75.031	75.031	2.0.10.147	2.0.10.242	2.0.10.242	1.0.0.439	7	234	2	3	Verdana	1	80	0	0	0	WM Stimuli\	0.5	1171.4	0.7	1282.42857142857	0.8	903.75	0.7	920.857142857143	0.9	1134.77777777778	1	861.5	0.9	1355.66666666667	1	760.6	13	376596	2	376584	27	40	376623	-999999	376599	0	9	Cue0BackPROC	BP_007_BP20_BA.png	1	2	36	SessionSelectionList																																										19	190844	-20	0												36												
WM080112	151627_fnca	1	1	1	626489286	1	75.031	75.031	2.0.10.147	2.0.10.242	2.0.10.242	1.0.0.439	7	234	2	3	Verdana	1	80	0	0	0	WM Stimuli\	0.5	1171.4	0.7	1282.42857142857	0.8	903.75	0.7	920.857142857143	0.9	1134.77777777778	1	861.5	0.9	1355.66666666667	1	760.6	13	376596	2	376584	27	40	376623	-999999	376599	0	10	TrialsPROC	BP_007_BP20_BA.png	1	2	37	SessionSelectionList														target	2	Body	0-Back	32	80	31	0	0	64	2	39	195416	1	13	52	193377	-1	195031	0	1654	3	2	2039	52	195429	-53	0											1					37												
WM080112	151627_fnca	1	1	1	626489286	1	75.031	75.031	2.0.10.147	2.0.10.242	2.0.10.242	1.0.0.439	7	234	2	3	Verdana	1	80	0	0	0	WM Stimuli\	0.5	1171.4	0.7	1282.42857142857	0.8	903.75	0.7	920.857142857143	0.9	1134.77777777778	1	861.5	0.9	1355.66666666667	1	760.6	13	376596	2	376584	27	40	376623	-999999	376599	0	10	TrialsPROC	BP_011_BP4_BA.png	1	2	38	SessionSelectionList														nonlure	3	Body	0-Back	33	80	32	0	0	67	3	40	197975	1	13	58	195935	-1	197484	1	1549	3	3	2040	53	197988	-54	0											2					38												
WM080112	151627_fnca	1	1	1	626489286	1	75.031	75.031	2.0.10.147	2.0.10.242	2.0.10.242	1.0.0.439	7	234	2	3	Verdana	1	80	0	0	0	WM Stimuli\	0.5	1171.4	0.7	1282.42857142857	0.8	903.75	0.7	920.857142857143	0.9	1134.77777777778	1	861.5	0.9	1355.66666666667	1	760.6	13	376596	2	376584	27	40	376623	-999999	376599	0	10	TrialsPROC	BP_010_BP3_BA.png	1	2	39	SessionSelectionList														nonlure	3	Body	0-Back	34	80	33	0	0	69	4	39	200534	1	13	60	198495	-1	199681	1	1186	3	3	2039	52	200547	-53	0											3					39												
WM080112	151627_fnca	1	1	1	626489286	1	75.031	75.031	2.0.10.147	2.0.10.242	2.0.10.242	1.0.0.439	7	234	2	3	Verdana	1	80	0	0	0	WM Stimuli\	0.5	1171.4	0.7	1282.42857142857	0.8	903.75	0.7	920.857142857143	0.9	1134.77777777778	1	861.5	0.9	1355.66666666667	1	760.6	13	376596	2	376584	27	40	376623	-999999	376599	0	10	TrialsPROC	BP_008_BP21_BA.png	1	2	40	SessionSelectionList														nonlure	3	Body	0-Back	35	80	34	0	0	71	5	40	203093	1	13	58	201053	-1	202410	1	1357	3	3	2040	53	203106	-54	0											4					40												
WM080112	151627_fnca	1	1	1	626489286	1	75.031	75.031	2.0.10.147	2.0.10.242	2.0.10.242	1.0.0.439	7	234	2	3	Verdana	1	80	0	0	0	WM Stimuli\	0.5	1171.4	0.7	1282.42857142857	0.8	903.75	0.7	920.857142857143	0.9	1134.77777777778	1	861.5	0.9	1355.66666666667	1	760.6	13	376596	2	376584	27	40	376623	-999999	376599	0	10	TrialsPROC	BP_011_BP4_BA.png	1	2	41	SessionSelectionList														lure	3	Body	0-Back	36	80	35	0	0	73	6	39	205665	1	14	73	203626	-1	204794	1	1168	3	3	2039	53	205679	-54	0											5					41												
WM080112	151627_fnca	1	1	1	626489286	1	75.031	75.031	2.0.10.147	2.0.10.242	2.0.10.242	1.0.0.439	7	234	2	3	Verdana	1	80	0	0	0	WM Stimuli\	0.5	1171.4	0.7	1282.42857142857	0.8	903.75	0.7	920.857142857143	0.9	1134.77777777778	1	861.5	0.9	1355.66666666667	1	760.6	13	376596	2	376584	27	40	376623	-999999	376599	0	10	TrialsPROC	BP_009_BP22_BA.png	1	2	42	SessionSelectionList														nonlure	3	Body	0-Back	37	80	36	0	0	75	7	39	208224	1	14	59	206185	-1	207149	1	964	3	3	2039	53	208238	-54	0											6					42												
WM080112	151627_fnca	1	1	1	626489286	1	75.031	75.031	2.0.10.147	2.0.10.242	2.0.10.242	1.0.0.439	7	234	2	3	Verdana	1	80	0	0	0	WM Stimuli\	0.5	1171.4	0.7	1282.42857142857	0.8	903.75	0.7	920.857142857143	0.9	1134.77777777778	1	861.5	0.9	1355.66666666667	1	760.6	13	376596	2	376584	27	40	376623	-999999	376599	0	10	TrialsPROC	BP_009_BP22_BA.png	1	2	43	SessionSelectionList														lure	3	Body	0-Back	38	80	37	0	0	76	8	39	210783	1	14	59	208744	-1	209984	1	1240	3	3	2039	53	210797	-54	0											7					43												
WM080112	151627_fnca	1	1	1	626489286	1	75.031	75.031	2.0.10.147	2.0.10.242	2.0.10.242	1.0.0.439	7	234	2	3	Verdana	1	80	0	0	0	WM Stimuli\	0.5	1171.4	0.7	1282.42857142857	0.8	903.75	0.7	920.857142857143	0.9	1134.77777777778	1	861.5	0.9	1355.66666666667	1	760.6	13	376596	2	376584	27	40	376623	-999999	376599	0	10	TrialsPROC	BP_008_BP21_BA.png	1	2	44	SessionSelectionList														lure	3	Body	0-Back	39	80	38	0	0	78	9	39	213342	1	14	59	211303	-1	212816	1	1513	3	3	2039	53	213356	-54	0											8					44												
WM080112	151627_fnca	1	1	1	626489286	1	75.031	75.031	2.0.10.147	2.0.10.242	2.0.10.242	1.0.0.439	7	234	2	3	Verdana	1	80	0	0	0	WM Stimuli\	0.5	1171.4	0.7	1282.42857142857	0.8	903.75	0.7	920.857142857143	0.9	1134.77777777778	1	861.5	0.9	1355.66666666667	1	760.6	13	376596	2	376584	27	40	376623	-999999	376599	0	10	TrialsPROC	BP_007_BP20_BA.png	1	2	45	SessionSelectionList														target	2	Body	0-Back	40	80	39	0	0	74	10	39	215901	1	13	59	213862	-1	215286	0	1424	3	2	2039	52	215914	-53	0											9					45												
WM080112	151627_fnca	1	1	1	626489286	1	75.031	75.031	2.0.10.147	2.0.10.242	2.0.10.242	1.0.0.439	7	234	2	3	Verdana	1	80	0	0	0	WM Stimuli\	0.5	1171.4	0.7	1282.42857142857	0.8	903.75	0.7	920.857142857143	0.9	1134.77777777778	1	861.5	0.9	1355.66666666667	1	760.6	13	376596	2	376584	27	40	376623	-999999	376599	0	10	TrialsPROC	BP_012_BP5_BA.png	1	2	46	SessionSelectionList														nonlure	3	Body	0-Back	41	80	39	0	1	70	10	39	218460	1	13	59	216421	-1	0	0	0	""	3	2039	52	218473	-53	0											10					46												
WM080112	151627_fnca	1	1	1	626489286	1	75.031	75.031	2.0.10.147	2.0.10.242	2.0.10.242	1.0.0.439	7	234	2	3	Verdana	1	80	0	0	0	WM Stimuli\	0.5	1171.4	0.7	1282.42857142857	0.8	903.75	0.7	920.857142857143	0.9	1134.77777777778	1	861.5	0.9	1355.66666666667	1	760.6	13	376596	2	376584	27	40	376623	-999999	376599	0	11	Fix15secPROC	""	1	2	47	SessionSelectionList																																															6	218927	-7	0							47												
WM080112	151627_fnca	1	1	1	626489286	1	75.031	75.031	2.0.10.147	2.0.10.242	2.0.10.242	1.0.0.439	7	234	2	3	Verdana	1	80	0	0	0	WM Stimuli\	0.5	1171.4	0.7	1282.42857142857	0.8	903.75	0.7	920.857142857143	0.9	1134.77777777778	1	861.5	0.9	1355.66666666667	1	760.6	13	376596	2	376584	27	40	376623	-999999	376599	0	12	Cue0BackPROC	PL_001_92012.png	1	2	48	SessionSelectionList																																										12	233933	-13	0												48												
WM080112	151627_fnca	1	1	1	626489286	1	75.031	75.031	2.0.10.147	2.0.10.242	2.0.10.242	1.0.0.439	7	234	2	3	Verdana	1	80	0	0	0	WM Stimuli\	0.5	1171.4	0.7	1282.42857142857	0.8	903.75	0.7	920.857142857143	0.9	1134.77777777778	1	861.5	0.9	1355.66666666667	1	760.6	13	376596	2	376584	27	40	376623	-999999	376599	0	13	TrialsPROC	PL_003_92016.png	1	2	49	SessionSelectionList														nonlure	3	Place	0-Back	42	80	40	0	0	71	1	40	238532	1	13	71	236492	-1	237581	1	1089	3	3	2040	53	238545	-54	0												1				49												
WM080112	151627_fnca	1	1	1	626489286	1	75.031	75.031	2.0.10.147	2.0.10.242	2.0.10.242	1.0.0.439	7	234	2	3	Verdana	1	80	0	0	0	WM Stimuli\	0.5	1171.4	0.7	1282.42857142857	0.8	903.75	0.7	920.857142857143	0.9	1134.77777777778	1	861.5	0.9	1355.66666666667	1	760.6	13	376596	2	376584	27	40	376623	-999999	376599	0	13	TrialsPROC	PL_003_92016.png	1	2	50	SessionSelectionList														lure	3	Place	0-Back	43	80	41	0	0	73	2	39	241104	1	14	73	239065	-1	240604	1	1539	3	3	2039	53	241118	-54	0												2				50												
WM080112	151627_fnca	1	1	1	626489286	1	75.031	75.031	2.0.10.147	2.0.10.242	2.0.10.242	1.0.0.439	7	234	2	3	Verdana	1	80	0	0	0	WM Stimuli\	0.5	1171.4	0.7	1282.42857142857	0.8	903.75	0.7	920.857142857143	0.9	1134.77777777778	1	861.5	0.9	1355.66666666667	1	760.6	13	376596	2	376584	27	40	376623	-999999	376599	0	13	TrialsPROC	PL_006_92025.png	1	2	51	SessionSelectionList														nonlure	3	Place	0-Back	44	80	42	0	0	74	3	39	243663	1	14	59	241624	-1	242820	1	1196	3	3	2039	53	243677	-54	0												3				51												
WM080112	151627_fnca	1	1	1	626489286	1	75.031	75.031	2.0.10.147	2.0.10.242	2.0.10.242	1.0.0.439	7	234	2	3	Verdana	1	80	0	0	0	WM Stimuli\	0.5	1171.4	0.7	1282.42857142857	0.8	903.75	0.7	920.857142857143	0.9	1134.77777777778	1	861.5	0.9	1355.66666666667	1	760.6	13	376596	2	376584	27	40	376623	-999999	376599	0	13	TrialsPROC	PL_001_92012.png	1	2	52	SessionSelectionList														target	2	Place	0-Back	45	80	43	0	0	75	1	39	246235	2	14	72	244196	-1	244920	1	724	2	2	2039	53	246249	-54	0												4				52												
WM080112	151627_fnca	1	1	1	626489286	1	75.031	75.031	2.0.10.147	2.0.10.242	2.0.10.242	1.0.0.439	7	234	2	3	Verdana	1	80	0	0	0	WM Stimuli\	0.5	1171.4	0.7	1282.42857142857	0.8	903.75	0.7	920.857142857143	0.9	1134.77777777778	1	861.5	0.9	1355.66666666667	1	760.6	13	376596	2	376584	27	40	376623	-999999	376599	0	13	TrialsPROC	PL_004_92023.png	1	2	53	SessionSelectionList														nonlure	3	Place	0-Back	46	80	44	0	0	76	1	39	248807	2	14	72	246768	-1	247894	1	1126	3	3	2039	53	248821	-54	0												5				53												
WM080112	151627_fnca	1	1	1	626489286	1	75.031	75.031	2.0.10.147	2.0.10.242	2.0.10.242	1.0.0.439	7	234	2	3	Verdana	1	80	0	0	0	WM Stimuli\	0.5	1171.4	0.7	1282.42857142857	0.8	903.75	0.7	920.857142857143	0.9	1134.77777777778	1	861.5	0.9	1355.66666666667	1	760.6	13	376596	2	376584	27	40	376623	-999999	376599	0	13	TrialsPROC	PL_005_92024.png	1	2	54	SessionSelectionList														nonlure	3	Place	0-Back	47	80	45	0	0	77	2	39	251380	1	13	73	249341	-1	249990	1	649	3	3	2039	52	251393	-53	0												6				54												
WM080112	151627_fnca	1	1	1	626489286	1	75.031	75.031	2.0.10.147	2.0.10.242	2.0.10.242	1.0.0.439	7	234	2	3	Verdana	1	80	0	0	0	WM Stimuli\	0.5	1171.4	0.7	1282.42857142857	0.8	903.75	0.7	920.857142857143	0.9	1134.77777777778	1	861.5	0.9	1355.66666666667	1	760.6	13	376596	2	376584	27	40	376623	-999999	376599	0	13	TrialsPROC	PL_001_92012.png	1	2	55	SessionSelectionList														target	2	Place	0-Back	48	80	46	0	0	78	1	39	253952	2	14	72	251913	-1	252477	1	564	2	2	2039	53	253966	-54	0												7				55												
WM080112	151627_fnca	1	1	1	626489286	1	75.031	75.031	2.0.10.147	2.0.10.242	2.0.10.242	1.0.0.439	7	234	2	3	Verdana	1	80	0	0	0	WM Stimuli\	0.5	1171.4	0.7	1282.42857142857	0.8	903.75	0.7	920.857142857143	0.9	1134.77777777778	1	861.5	0.9	1355.66666666667	1	760.6	13	376596	2	376584	27	40	376623	-999999	376599	0	13	TrialsPROC	PL_002_92014.png	1	2	56	SessionSelectionList														nonlure	3	Place	0-Back	49	80	47	0	0	79	1	39	256524	2	14	72	254485	-1	255088	1	603	3	3	2039	53	256538	-54	0												8				56												
WM080112	151627_fnca	1	1	1	626489286	1	75.031	75.031	2.0.10.147	2.0.10.242	2.0.10.242	1.0.0.439	7	234	2	3	Verdana	1	80	0	0	0	WM Stimuli\	0.5	1171.4	0.7	1282.42857142857	0.8	903.75	0.7	920.857142857143	0.9	1134.77777777778	1	861.5	0.9	1355.66666666667	1	760.6	13	376596	2	376584	27	40	376623	-999999	376599	0	13	TrialsPROC	PL_004_92023.png	1	2	57	SessionSelectionList														lure	3	Place	0-Back	50	80	48	0	0	79	2	39	259083	2	14	59	257044	-1	257642	1	598	3	3	2039	53	259097	-54	0												9				57												
WM080112	151627_fnca	1	1	1	626489286	1	75.031	75.031	2.0.10.147	2.0.10.242	2.0.10.242	1.0.0.439	7	234	2	3	Verdana	1	80	0	0	0	WM Stimuli\	0.5	1171.4	0.7	1282.42857142857	0.8	903.75	0.7	920.857142857143	0.9	1134.77777777778	1	861.5	0.9	1355.66666666667	1	760.6	13	376596	2	376584	27	40	376623	-999999	376599	0	13	TrialsPROC	PL_006_92025.png	1	2	58	SessionSelectionList														lure	3	Place	0-Back	51	80	49	0	0	80	3	40	261656	1	13	72	259616	-1	260143	1	527	3	3	2040	53	261669	-54	0												10				58												
WM080112	151627_fnca	1	1	1	626489286	1	75.031	75.031	2.0.10.147	2.0.10.242	2.0.10.242	1.0.0.439	7	234	2	3	Verdana	1	80	0	0	0	WM Stimuli\	0.5	1171.4	0.7	1282.42857142857	0.8	903.75	0.7	920.857142857143	0.9	1134.77777777778	1	861.5	0.9	1355.66666666667	1	760.6	13	376596	2	376584	27	40	376623	-999999	376599	0	14	Cue2BackPROC	""	1	2	59	SessionSelectionList									6	262122	-7	0																																													59												
WM080112	151627_fnca	1	1	1	626489286	1	75.031	75.031	2.0.10.147	2.0.10.242	2.0.10.242	1.0.0.439	7	234	2	3	Verdana	1	80	0	0	0	WM Stimuli\	0.5	1171.4	0.7	1282.42857142857	0.8	903.75	0.7	920.857142857143	0.9	1134.77777777778	1	861.5	0.9	1355.66666666667	1	760.6	13	376596	2	376584	27	40	376623	-999999	376599	0	15	TrialsPROC	FC_010_F5.png	1	2	60	SessionSelectionList														nonlure	3	Face	2-Back	52	80	50	0	0	80	4	39	266720	2	14	65	264681	-1	266172	1	1491	3	3	2039	53	266734	-54	0													1			60												
WM080112	151627_fnca	1	1	1	626489286	1	75.031	75.031	2.0.10.147	2.0.10.242	2.0.10.242	1.0.0.439	7	234	2	3	Verdana	1	80	0	0	0	WM Stimuli\	0.5	1171.4	0.7	1282.42857142857	0.8	903.75	0.7	920.857142857143	0.9	1134.77777777778	1	861.5	0.9	1355.66666666667	1	760.6	13	376596	2	376584	27	40	376623	-999999	376599	0	15	TrialsPROC	FC_012_F6.png	1	2	61	SessionSelectionList														nonlure	3	Face	2-Back	53	80	51	0	0	80	5	40	269293	1	13	72	267253	-1	269242	1	1989	3	3	2040	53	269306	-54	0													2			61												
WM080112	151627_fnca	1	1	1	626489286	1	75.031	75.031	2.0.10.147	2.0.10.242	2.0.10.242	1.0.0.439	7	234	2	3	Verdana	1	80	0	0	0	WM Stimuli\	0.5	1171.4	0.7	1282.42857142857	0.8	903.75	0.7	920.857142857143	0.9	1134.77777777778	1	861.5	0.9	1355.66666666667	1	760.6	13	376596	2	376584	27	40	376623	-999999	376599	0	15	TrialsPROC	FC_010_F5.png	1	2	62	SessionSelectionList														target	2	Face	2-Back	54	80	52	0	0	80	6	39	271865	1	14	73	269826	-1	270734	0	908	3	2	2039	53	271879	-54	0													3			62												
WM080112	151627_fnca	1	1	1	626489286	1	75.031	75.031	2.0.10.147	2.0.10.242	2.0.10.242	1.0.0.439	7	234	2	3	Verdana	1	80	0	0	0	WM Stimuli\	0.5	1171.4	0.7	1282.42857142857	0.8	903.75	0.7	920.857142857143	0.9	1134.77777777778	1	861.5	0.9	1355.66666666667	1	760.6	13	376596	2	376584	27	40	376623	-999999	376599	0	15	TrialsPROC	FC_008_F4.png	1	2	63	SessionSelectionList														nonlure	3	Face	2-Back	55	80	53	0	0	80	7	39	274437	2	14	72	272398	-1	272904	1	506	3	3	2039	53	274451	-54	0													4			63												
WM080112	151627_fnca	1	1	1	626489286	1	75.031	75.031	2.0.10.147	2.0.10.242	2.0.10.242	1.0.0.439	7	234	2	3	Verdana	1	80	0	0	0	WM Stimuli\	0.5	1171.4	0.7	1282.42857142857	0.8	903.75	0.7	920.857142857143	0.9	1134.77777777778	1	861.5	0.9	1355.66666666667	1	760.6	13	376596	2	376584	27	40	376623	-999999	376599	0	15	TrialsPROC	FC_012_F6.png	1	2	64	SessionSelectionList														lure	3	Face	2-Back	56	80	54	0	0	80	8	39	277009	2	14	72	274970	-1	275513	1	543	3	3	2039	53	277023	-54	0													5			64												
WM080112	151627_fnca	1	1	1	626489286	1	75.031	75.031	2.0.10.147	2.0.10.242	2.0.10.242	1.0.0.439	7	234	2	3	Verdana	1	80	0	0	0	WM Stimuli\	0.5	1171.4	0.7	1282.42857142857	0.8	903.75	0.7	920.857142857143	0.9	1134.77777777778	1	861.5	0.9	1355.66666666667	1	760.6	13	376596	2	376584	27	40	376623	-999999	376599	0	15	TrialsPROC	FC_008_F4.png	1	2	65	SessionSelectionList														target	2	Face	2-Back	57	80	55	0	0	80	9	39	279582	1	13	73	277543	-1	278014	0	471	3	2	2039	52	279595	-53	0													6			65												
WM080112	151627_fnca	1	1	1	626489286	1	75.031	75.031	2.0.10.147	2.0.10.242	2.0.10.242	1.0.0.439	7	234	2	3	Verdana	1	80	0	0	0	WM Stimuli\	0.5	1171.4	0.7	1282.42857142857	0.8	903.75	0.7	920.857142857143	0.9	1134.77777777778	1	861.5	0.9	1355.66666666667	1	760.6	13	376596	2	376584	27	40	376623	-999999	376599	0	15	TrialsPROC	FC_007_M4.png	1	2	66	SessionSelectionList														nonlure	3	Face	2-Back	58	80	56	0	0	80	10	39	282154	1	14	72	280115	-1	280805	1	690	3	3	2039	53	282168	-54	0													7			66												
WM080112	151627_fnca	1	1	1	626489286	1	75.031	75.031	2.0.10.147	2.0.10.242	2.0.10.242	1.0.0.439	7	234	2	3	Verdana	1	80	0	0	0	WM Stimuli\	0.5	1171.4	0.7	1282.42857142857	0.8	903.75	0.7	920.857142857143	0.9	1134.77777777778	1	861.5	0.9	1355.66666666667	1	760.6	13	376596	2	376584	27	40	376623	-999999	376599	0	15	TrialsPROC	FC_007_M4.png	1	2	67	SessionSelectionList														lure	3	Face	2-Back	59	80	57	0	0	80	11	39	284726	2	14	72	282687	-1	283573	1	886	3	3	2039	53	284740	-54	0													8			67												
WM080112	151627_fnca	1	1	1	626489286	1	75.031	75.031	2.0.10.147	2.0.10.242	2.0.10.242	1.0.0.439	7	234	2	3	Verdana	1	80	0	0	0	WM Stimuli\	0.5	1171.4	0.7	1282.42857142857	0.8	903.75	0.7	920.857142857143	0.9	1134.77777777778	1	861.5	0.9	1355.66666666667	1	760.6	13	376596	2	376584	27	40	376623	-999999	376599	0	15	TrialsPROC	FC_009_M5.png	1	2	68	SessionSelectionList														nonlure	3	Face	2-Back	60	80	58	0	0	80	12	40	287299	1	13	72	285259	-1	285761	1	502	3	3	2040	53	287312	-54	0													9			68												
WM080112	151627_fnca	1	1	1	626489286	1	75.031	75.031	2.0.10.147	2.0.10.242	2.0.10.242	1.0.0.439	7	234	2	3	Verdana	1	80	0	0	0	WM Stimuli\	0.5	1171.4	0.7	1282.42857142857	0.8	903.75	0.7	920.857142857143	0.9	1134.77777777778	1	861.5	0.9	1355.66666666667	1	760.6	13	376596	2	376584	27	40	376623	-999999	376599	0	15	TrialsPROC	FC_011_M6.png	1	2	69	SessionSelectionList														nonlure	3	Face	2-Back	61	80	59	0	0	80	13	39	289871	1	14	73	287832	-1	288455	1	623	3	3	2039	53	289885	-54	0													10			69												
WM080112	151627_fnca	1	1	1	626489286	1	75.031	75.031	2.0.10.147	2.0.10.242	2.0.10.242	1.0.0.439	7	234	2	3	Verdana	1	80	0	0	0	WM Stimuli\	0.5	1171.4	0.7	1282.42857142857	0.8	903.75	0.7	920.857142857143	0.9	1134.77777777778	1	861.5	0.9	1355.66666666667	1	760.6	13	376596	2	376584	27	40	376623	-999999	376599	0	16	Fix15secPROC	""	1	2	70	SessionSelectionList																																															6	290338	-7	0							70												
WM080112	151627_fnca	1	1	1	626489286	1	75.031	75.031	2.0.10.147	2.0.10.242	2.0.10.242	1.0.0.439	7	234	2	3	Verdana	1	80	0	0	0	WM Stimuli\	0.5	1171.4	0.7	1282.42857142857	0.8	903.75	0.7	920.857142857143	0.9	1134.77777777778	1	861.5	0.9	1355.66666666667	1	760.6	13	376596	2	376584	27	40	376623	-999999	376599	0	17	Cue0BackPROC	TO_007_TOOL7_BA.png	1	2	71	SessionSelectionList																																										13	305345	-14	0												71												
WM080112	151627_fnca	1	1	1	626489286	1	75.031	75.031	2.0.10.147	2.0.10.242	2.0.10.242	1.0.0.439	7	234	2	3	Verdana	1	80	0	0	0	WM Stimuli\	0.5	1171.4	0.7	1282.42857142857	0.8	903.75	0.7	920.857142857143	0.9	1134.77777777778	1	861.5	0.9	1355.66666666667	1	760.6	13	376596	2	376584	27	40	376623	-999999	376599	0	18	TrialsPROC	TO_010_TOOL10_BA.png	1	2	72	SessionSelectionList														nonlure	3	Tools	0-Back	62	80	60	0	0	81	14	39	309929	2	14	58	307890	-1	309115	1	1225	3	3	2039	53	309943	-54	0														1		72												
WM080112	151627_fnca	1	1	1	626489286	1	75.031	75.031	2.0.10.147	2.0.10.242	2.0.10.242	1.0.0.439	7	234	2	3	Verdana	1	80	0	0	0	WM Stimuli\	0.5	1171.4	0.7	1282.42857142857	0.8	903.75	0.7	920.857142857143	0.9	1134.77777777778	1	861.5	0.9	1355.66666666667	1	760.6	13	376596	2	376584	27	40	376623	-999999	376599	0	18	TrialsPROC	TO_009_TOOL9_BA.png	1	2	73	SessionSelectionList														nonlure	3	Tools	0-Back	63	80	61	0	0	81	15	39	312488	2	14	59	310449	-1	311233	1	784	3	3	2039	53	312502	-54	0														2		73												
WM080112	151627_fnca	1	1	1	626489286	1	75.031	75.031	2.0.10.147	2.0.10.242	2.0.10.242	1.0.0.439	7	234	2	3	Verdana	1	80	0	0	0	WM Stimuli\	0.5	1171.4	0.7	1282.42857142857	0.8	903.75	0.7	920.857142857143	0.9	1134.77777777778	1	861.5	0.9	1355.66666666667	1	760.6	13	376596	2	376584	27	40	376623	-999999	376599	0	18	TrialsPROC	TO_009_TOOL9_BA.png	1	2	74	SessionSelectionList														lure	3	Tools	0-Back	64	80	62	0	0	82	16	39	315047	2	14	59	313008	-1	313580	1	572	3	3	2039	53	315061	-54	0														3		74												
WM080112	151627_fnca	1	1	1	626489286	1	75.031	75.031	2.0.10.147	2.0.10.242	2.0.10.242	1.0.0.439	7	234	2	3	Verdana	1	80	0	0	0	WM Stimuli\	0.5	1171.4	0.7	1282.42857142857	0.8	903.75	0.7	920.857142857143	0.9	1134.77777777778	1	861.5	0.9	1355.66666666667	1	760.6	13	376596	2	376584	27	40	376623	-999999	376599	0	18	TrialsPROC	TO_008_TOOL8_BA.png	1	2	75	SessionSelectionList														nonlure	3	Tools	0-Back	65	80	63	0	0	82	17	39	317606	2	14	59	315567	-1	316155	1	588	3	3	2039	53	317620	-54	0														4		75												
WM080112	151627_fnca	1	1	1	626489286	1	75.031	75.031	2.0.10.147	2.0.10.242	2.0.10.242	1.0.0.439	7	234	2	3	Verdana	1	80	0	0	0	WM Stimuli\	0.5	1171.4	0.7	1282.42857142857	0.8	903.75	0.7	920.857142857143	0.9	1134.77777777778	1	861.5	0.9	1355.66666666667	1	760.6	13	376596	2	376584	27	40	376623	-999999	376599	0	18	TrialsPROC	TO_011_TOOL11_BA.png	1	2	76	SessionSelectionList														nonlure	3	Tools	0-Back	66	80	64	0	0	83	18	39	320165	2	14	59	318126	-1	318580	1	454	3	3	2039	53	320179	-54	0														5		76												
WM080112	151627_fnca	1	1	1	626489286	1	75.031	75.031	2.0.10.147	2.0.10.242	2.0.10.242	1.0.0.439	7	234	2	3	Verdana	1	80	0	0	0	WM Stimuli\	0.5	1171.4	0.7	1282.42857142857	0.8	903.75	0.7	920.857142857143	0.9	1134.77777777778	1	861.5	0.9	1355.66666666667	1	760.6	13	376596	2	376584	27	40	376623	-999999	376599	0	18	TrialsPROC	TO_012_TOOL12_BA.png	1	2	77	SessionSelectionList														nonlure	3	Tools	0-Back	67	80	65	0	0	83	19	39	322724	2	14	59	320685	-1	321479	1	794	3	3	2039	53	322738	-54	0														6		77												
WM080112	151627_fnca	1	1	1	626489286	1	75.031	75.031	2.0.10.147	2.0.10.242	2.0.10.242	1.0.0.439	7	234	2	3	Verdana	1	80	0	0	0	WM Stimuli\	0.5	1171.4	0.7	1282.42857142857	0.8	903.75	0.7	920.857142857143	0.9	1134.77777777778	1	861.5	0.9	1355.66666666667	1	760.6	13	376596	2	376584	27	40	376623	-999999	376599	0	18	TrialsPROC	TO_010_TOOL10_BA.png	1	2	78	SessionSelectionList														lure	3	Tools	0-Back	68	80	66	0	0	84	20	39	325283	2	14	59	323244	-1	323884	1	640	3	3	2039	53	325297	-54	0														7		78												
WM080112	151627_fnca	1	1	1	626489286	1	75.031	75.031	2.0.10.147	2.0.10.242	2.0.10.242	1.0.0.439	7	234	2	3	Verdana	1	80	0	0	0	WM Stimuli\	0.5	1171.4	0.7	1282.42857142857	0.8	903.75	0.7	920.857142857143	0.9	1134.77777777778	1	861.5	0.9	1355.66666666667	1	760.6	13	376596	2	376584	27	40	376623	-999999	376599	0	18	TrialsPROC	TO_007_TOOL7_BA.png	1	2	79	SessionSelectionList														target	2	Tools	0-Back	69	80	67	0	0	84	1	39	327842	2	14	59	325803	-1	326725	1	922	2	2	2039	53	327856	-54	0														8		79												
WM080112	151627_fnca	1	1	1	626489286	1	75.031	75.031	2.0.10.147	2.0.10.242	2.0.10.242	1.0.0.439	7	234	2	3	Verdana	1	80	0	0	0	WM Stimuli\	0.5	1171.4	0.7	1282.42857142857	0.8	903.75	0.7	920.857142857143	0.9	1134.77777777778	1	861.5	0.9	1355.66666666667	1	760.6	13	376596	2	376584	27	40	376623	-999999	376599	0	18	TrialsPROC	TO_008_TOOL8_BA.png	1	2	80	SessionSelectionList														lure	3	Tools	0-Back	70	80	68	0	0	85	1	39	330401	2	14	59	328362	-1	329436	1	1074	3	3	2039	53	330415	-54	0														9		80												
WM080112	151627_fnca	1	1	1	626489286	1	75.031	75.031	2.0.10.147	2.0.10.242	2.0.10.242	1.0.0.439	7	234	2	3	Verdana	1	80	0	0	0	WM Stimuli\	0.5	1171.4	0.7	1282.42857142857	0.8	903.75	0.7	920.857142857143	0.9	1134.77777777778	1	861.5	0.9	1355.66666666667	1	760.6	13	376596	2	376584	27	40	376623	-999999	376599	0	18	TrialsPROC	TO_007_TOOL7_BA.png	1	2	81	SessionSelectionList														target	2	Tools	0-Back	71	80	69	0	0	85	1	39	332960	2	14	59	330921	-1	331474	1	553	2	2	2039	53	332974	-54	0														10		81												
WM080112	151627_fnca	1	1	1	626489286	1	75.031	75.031	2.0.10.147	2.0.10.242	2.0.10.242	1.0.0.439	7	234	2	3	Verdana	1	80	0	0	0	WM Stimuli\	0.5	1171.4	0.7	1282.42857142857	0.8	903.75	0.7	920.857142857143	0.9	1134.77777777778	1	861.5	0.9	1355.66666666667	1	760.6	13	376596	2	376584	27	40	376623	-999999	376599	0	19	Cue2BackPROC	""	1	2	82	SessionSelectionList									6	333427	-7	0																																													82												
WM080112	151627_fnca	1	1	1	626489286	1	75.031	75.031	2.0.10.147	2.0.10.242	2.0.10.242	1.0.0.439	7	234	2	3	Verdana	1	80	0	0	0	WM Stimuli\	0.5	1171.4	0.7	1282.42857142857	0.8	903.75	0.7	920.857142857143	0.9	1134.77777777778	1	861.5	0.9	1355.66666666667	1	760.6	13	376596	2	376584	27	40	376623	-999999	376599	0	20	TrialsPROC	PL_007_92026.png	1	2	83	SessionSelectionList														nonlure	3	Place	2-Back	72	80	70	0	0	85	1	39	338025	1	13	65	335986	-1	337049	1	1063	3	3	2039	52	338038	-53	0															1	83												
WM080112	151627_fnca	1	1	1	626489286	1	75.031	75.031	2.0.10.147	2.0.10.242	2.0.10.242	1.0.0.439	7	234	2	3	Verdana	1	80	0	0	0	WM Stimuli\	0.5	1171.4	0.7	1282.42857142857	0.8	903.75	0.7	920.857142857143	0.9	1134.77777777778	1	861.5	0.9	1355.66666666667	1	760.6	13	376596	2	376584	27	40	376623	-999999	376599	0	20	TrialsPROC	PL_007_92026.png	1	2	84	SessionSelectionList														lure	3	Place	2-Back	73	80	71	0	0	85	1	39	340584	1	13	59	338545	-1	339555	0	1010	2	3	2039	52	340597	-53	0															2	84												
WM080112	151627_fnca	1	1	1	626489286	1	75.031	75.031	2.0.10.147	2.0.10.242	2.0.10.242	1.0.0.439	7	234	2	3	Verdana	1	80	0	0	0	WM Stimuli\	0.5	1171.4	0.7	1282.42857142857	0.8	903.75	0.7	920.857142857143	0.9	1134.77777777778	1	861.5	0.9	1355.66666666667	1	760.6	13	376596	2	376584	27	40	376623	-999999	376599	0	20	TrialsPROC	PL_010_92038.png	1	2	85	SessionSelectionList														nonlure	3	Place	2-Back	74	80	72	0	0	85	1	39	343143	1	13	59	341104	-1	342420	1	1316	3	3	2039	52	343156	-53	0															3	85												
WM080112	151627_fnca	1	1	1	626489286	1	75.031	75.031	2.0.10.147	2.0.10.242	2.0.10.242	1.0.0.439	7	234	2	3	Verdana	1	80	0	0	0	WM Stimuli\	0.5	1171.4	0.7	1282.42857142857	0.8	903.75	0.7	920.857142857143	0.9	1134.77777777778	1	861.5	0.9	1355.66666666667	1	760.6	13	376596	2	376584	27	40	376623	-999999	376599	0	20	TrialsPROC	PL_009_92037.png	1	2	86	SessionSelectionList														nonlure	3	Place	2-Back	75	80	73	0	0	85	2	39	345715	1	14	72	343676	-1	344886	1	1210	3	3	2039	53	345729	-54	0															4	86												
WM080112	151627_fnca	1	1	1	626489286	1	75.031	75.031	2.0.10.147	2.0.10.242	2.0.10.242	1.0.0.439	7	234	2	3	Verdana	1	80	0	0	0	WM Stimuli\	0.5	1171.4	0.7	1282.42857142857	0.8	903.75	0.7	920.857142857143	0.9	1134.77777777778	1	861.5	0.9	1355.66666666667	1	760.6	13	376596	2	376584	27	40	376623	-999999	376599	0	20	TrialsPROC	PL_010_92038.png	1	2	87	SessionSelectionList														target	2	Place	2-Back	76	80	74	0	0	85	1	39	348274	1	14	59	346235	-1	347111	1	876	2	2	2039	53	348288	-54	0															5	87												
WM080112	151627_fnca	1	1	1	626489286	1	75.031	75.031	2.0.10.147	2.0.10.242	2.0.10.242	1.0.0.439	7	234	2	3	Verdana	1	80	0	0	0	WM Stimuli\	0.5	1171.4	0.7	1282.42857142857	0.8	903.75	0.7	920.857142857143	0.9	1134.77777777778	1	861.5	0.9	1355.66666666667	1	760.6	13	376596	2	376584	27	40	376623	-999999	376599	0	20	TrialsPROC	PL_009_92037.png	1	2	88	SessionSelectionList														target	2	Place	2-Back	77	80	75	0	0	85	2	39	350833	1	14	59	348794	-1	350066	1	1272	2	2	2039	53	350847	-54	0															6	88												
WM080112	151627_fnca	1	1	1	626489286	1	75.031	75.031	2.0.10.147	2.0.10.242	2.0.10.242	1.0.0.439	7	234	2	3	Verdana	1	80	0	0	0	WM Stimuli\	0.5	1171.4	0.7	1282.42857142857	0.8	903.75	0.7	920.857142857143	0.9	1134.77777777778	1	861.5	0.9	1355.66666666667	1	760.6	13	376596	2	376584	27	40	376623	-999999	376599	0	20	TrialsPROC	PL_008_92033.png	1	2	89	SessionSelectionList														nonlure	3	Place	2-Back	78	80	76	0	0	85	1	39	353405	2	14	72	351366	-1	352320	1	954	3	3	2039	53	353419	-54	0															7	89												
WM080112	151627_fnca	1	1	1	626489286	1	75.031	75.031	2.0.10.147	2.0.10.242	2.0.10.242	1.0.0.439	7	234	2	3	Verdana	1	80	0	0	0	WM Stimuli\	0.5	1171.4	0.7	1282.42857142857	0.8	903.75	0.7	920.857142857143	0.9	1134.77777777778	1	861.5	0.9	1355.66666666667	1	760.6	13	376596	2	376584	27	40	376623	-999999	376599	0	20	TrialsPROC	PL_012_92047.png	1	2	90	SessionSelectionList														nonlure	3	Place	2-Back	79	80	77	0	0	85	2	39	355977	2	14	72	353938	-1	355344	1	1406	3	3	2039	53	355991	-54	0															8	90												
WM080112	151627_fnca	1	1	1	626489286	1	75.031	75.031	2.0.10.147	2.0.10.242	2.0.10.242	1.0.0.439	7	234	2	3	Verdana	1	80	0	0	0	WM Stimuli\	0.5	1171.4	0.7	1282.42857142857	0.8	903.75	0.7	920.857142857143	0.9	1134.77777777778	1	861.5	0.9	1355.66666666667	1	760.6	13	376596	2	376584	27	40	376623	-999999	376599	0	20	TrialsPROC	PL_012_92047.png	1	2	91	SessionSelectionList														lure	3	Place	2-Back	80	80	78	0	0	85	3	39	358550	1	13	73	356511	-1	357858	1	1347	3	3	2039	52	358563	-53	0															9	91												
WM080112	151627_fnca	1	1	1	626489286	1	75.031	75.031	2.0.10.147	2.0.10.242	2.0.10.242	1.0.0.439	7	234	2	3	Verdana	1	80	0	0	0	WM Stimuli\	0.5	1171.4	0.7	1282.42857142857	0.8	903.75	0.7	920.857142857143	0.9	1134.77777777778	1	861.5	0.9	1355.66666666667	1	760.6	13	376596	2	376584	27	40	376623	-999999	376599	0	20	TrialsPROC	PL_011_92044.png	1	2	92	SessionSelectionList														nonlure	3	Place	2-Back	80	80	79	0	0	85	4	39	361122	2	14	72	359083	-1	359852	1	769	3	3	2039	53	361136	-54	0															10	92												
WM080112	151627_fnca	1	1	1	626489286	1	75.031	75.031	2.0.10.147	2.0.10.242	2.0.10.242	1.0.0.439	7	234	2	3	Verdana	1	80	0	0	0	WM Stimuli\	0.5	1171.4	0.7	1282.42857142857	0.8	903.75	0.7	920.857142857143	0.9	1134.77777777778	1	861.5	0.9	1355.66666666667	1	760.6	13	376596	2	376584	27	40	376623	-999999	376599	0	21	Fix15secPROC	""	1	2	93	SessionSelectionList																																															6	361589	-7	0							93												
