ExperimentName	HCPID	RunNumber	Subject	Session	RandomSeed	Group	Laptop.RefreshRate	ScannerD2.RefreshRate	StudioVersion	RuntimeVersion	RuntimeVersionExpected	ExperimentVersion	triggercode	Allowed	Target	Nontarget	FontStyle	RunTrialNumber[Session]	TrialsPerRun[Session]	TotalRespGreater200[Session]	ConsecRTLess200[Session]	ConsecNonResp[Session]	StimuliDir	ACC_2_Back_Body	Avg_RT_For_Correct_Trials_2_Back_Body	ACC_0_Back_Body	Avg_RT_For_Correct_Trials_0_Back_Body	ACC_2_Back_Face	Avg_RT_For_Correct_Trials_2_Back_Face	ACC_0_Back_Face	Avg_RT_For_Correct_Trials_0_Back_Face	ACC_2_Back_Place	Avg_RT_For_Correct_Trials_2_Back_Place	ACC_0_Back_Place	Avg_RT_For_Correct_Trials_0_Back_Place	ACC_2_Back_Tools	Avg_RT_For_Correct_Trials_2_Back_Tools	ACC_0_Back_Tools	Avg_RT_For_Correct_Trials_0_Back_Tools	ExpInstrucFeelFreeToRest.OnsetDelay	ExpInstrucFeelFreeToRest.OnsetTime	ExpInstrucFeelFreeToRest.DurationError	ExpInstrucFeelFreeToRest.StartTime	ExpInstrucFeelFreeToRest.OnsetToOnsetTime	FeelFreeToRest.OnsetDelay	FeelFreeToRest.OnsetTime	FeelFreeToRest.DurationError	FeelFreeToRest.StartTime	FeelFreeToRest.OnsetToOnsetTime	SessionSelectionList	Procedure[Block]	Stimulus[Block]	RunNumberFilterValue	SessionSelectionList.Cycle	SessionSelectionList.Sample	Running[Block]	IntroButtonMap.OnsetDelay	IntroButtonMap.OnsetTime	IntroButtonMap.DurationError	IntroButtonMap.OnsetToOnsetTime	GetReady.OnsetDelay	GetReady.OnsetTime	GetReady.DurationError	GetReady.OnsetToOnsetTime	Cue2Back.OnsetDelay	Cue2Back.OnsetTime	Cue2Back.DurationError	Cue2Back.OnsetToOnsetTime	Run1Block1	TargetType	CorrectResponse	StimType	BlockType	RunTrialNumber[Block]	TrialsPerRun[Block]	TotalRespGreater200[Block]	ConsecRTLess200[Block]	ConsecNonResp[Block]	ControlAcc	ConsecSameResp	ExperimenterWindow.OnsetDelay	ExperimenterWindow.OnsetTime	ExperimenterWindow.DurationError	ExperimenterWindow.OnsetToOnsetTime	Stim.OnsetDelay	Stim.OnsetTime	Stim.DurationError	Stim.RTTime	Stim.ACC	Stim.RT	Stim.RESP	Stim.CRESP	Stim.OnsetToOnsetTime	Fix.OnsetDelay	Fix.OnsetTime	Fix.DurationError	Fix.OnsetToOnsetTime	CueTarget.OnsetDelay	CueTarget.OnsetTime	CueTarget.DurationError	CueTarget.OnsetToOnsetTime	Run1Block2	Fix15sec.OnsetDelay	Fix15sec.OnsetTime	Fix15sec.DurationError	Fix15sec.OnsetToOnsetTime	Run1Block3	Run1Block4	Run1Block5	Run1Block6	Run1Block7	Run1Block8	Block	Procedure[Trial]	Stimulus[Trial]	ReadyList	Running[Trial]	ReadyList.Cycle	ReadyList.Sample	SyncSlide.OnsetDelay	SyncSlide.OnsetTime	SyncSlide.DurationError	SyncSlide.FinishTime	SyncSlide.OnsetToOnsetTime	Trial
WM080112	111312_fnca	2	1	1	-1633424485	1	75.031	75.030	2.0.10.147	2.0.10.242	2.0.10.242	1.0.0.439	7	234	2	3	Verdana	1	80	0	0	0	WM Stimuli\	1	943.6	1	710.8	1	962.8	1	597.8	1	971	1	683.6	0.7	782.714285714286	1	741	13	324058	1	324046	27	40	324085	-999999	324060	0	22	TRSyncPROC	""	2	2	1	SessionSelectionList	103	13264	-999999	0	36	17742	-999999	0																																																	1	InitialTR	4	1	ReadyList	1	1	14	30550	-15	32535	0	1
WM080112	111312_fnca	2	1	1	-1633424485	1	75.031	75.030	2.0.10.147	2.0.10.242	2.0.10.242	1.0.0.439	7	234	2	3	Verdana	1	80	0	0	0	WM Stimuli\	1	943.6	1	710.8	1	962.8	1	597.8	1	971	1	683.6	0.7	782.714285714286	1	741	13	324058	1	324046	27	40	324085	-999999	324060	0	22	TRSyncPROC	""	2	2	1	SessionSelectionList	103	13264	-999999	0	36	17742	-999999	0																																																	1	InitialTR	3	2	ReadyList	1	2	13	32549	-14	34535	0	2
WM080112	111312_fnca	2	1	1	-1633424485	1	75.031	75.030	2.0.10.147	2.0.10.242	2.0.10.242	1.0.0.439	7	234	2	3	Verdana	1	80	0	0	0	WM Stimuli\	1	943.6	1	710.8	1	962.8	1	597.8	1	971	1	683.6	0.7	782.714285714286	1	741	13	324058	1	324046	27	40	324085	-999999	324060	0	22	TRSyncPROC	""	2	2	1	SessionSelectionList	103	13264	-999999	0	36	17742	-999999	0																																																	1	InitialTR	2	3	ReadyList	1	3	12	34548	-13	36535	0	3
WM080112	111312_fnca	2	1	1	-1633424485	1	75.031	75.030	2.0.10.147	2.0.10.242	2.0.10.242	1.0.0.439	7	234	2	3	Verdana	1	80	0	0	0	WM Stimuli\	1	943.6	1	710.8	1	962.8	1	597.8	1	971	1	683.6	0.7	782.714285714286	1	741	13	324058	1	324046	27	40	324085	-999999	324060	0	22	TRSyncPROC	""	2	2	1	SessionSelectionList	103	13264	-999999	0	36	17742	-999999	0																																																	1	InitialTR	1	4	ReadyList	1	4	11	36547	-12	38535	0	4
WM080112	111312_fnca	2	1	1	-1633424485	1	75.031	75.030	2.0.10.147	2.0.10.242	2.0.10.242	1.0.0.439	7	234	2	3	Verdana	1	80	0	0	0	WM Stimuli\	1	943.6	1	710.8	1	962.8	1	597.8	1	971	1	683.6	0.7	782.714285714286	1	741	13	324058	1	324046	27	40	324085	-999999	324060	0	23	Cue2BackPROC	""	2	2	2	SessionSelectionList									11	38547	-12	0																																													2												
WM080112	111312_fnca	2	1	1	-1633424485	1	75.031	75.030	2.0.10.147	2.0.10.242	2.0.10.242	1.0.0.439	7	234	2	3	Verdana	1	80	0	0	0	WM Stimuli\	1	943.6	1	710.8	1	962.8	1	597.8	1	971	1	683.6	0.7	782.714285714286	1	741	13	324058	1	324046	27	40	324085	-999999	324060	0	24	TrialsPROC	TO_014_TOOL14_BA.png	2	2	3	SessionSelectionList														nonlure	3	Tools	2-Back	2	80	1	0	0	0	1	52	43171	3	14	83	41119	-1	41810	1	691	3	3	2052	66	43185	-67	0																3												
WM080112	111312_fnca	2	1	1	-1633424485	1	75.031	75.030	2.0.10.147	2.0.10.242	2.0.10.242	1.0.0.439	7	234	2	3	Verdana	1	80	0	0	0	WM Stimuli\	1	943.6	1	710.8	1	962.8	1	597.8	1	971	1	683.6	0.7	782.714285714286	1	741	13	324058	1	324046	27	40	324085	-999999	324060	0	24	TrialsPROC	TO_013_TOOL13_BA.png	2	2	4	SessionSelectionList														nonlure	3	Tools	2-Back	3	80	2	0	0	0	2	39	45717	2	14	59	43678	-1	44446	1	768	3	3	2039	53	45731	-54	0																4												
WM080112	111312_fnca	2	1	1	-1633424485	1	75.031	75.030	2.0.10.147	2.0.10.242	2.0.10.242	1.0.0.439	7	234	2	3	Verdana	1	80	0	0	0	WM Stimuli\	1	943.6	1	710.8	1	962.8	1	597.8	1	971	1	683.6	0.7	782.714285714286	1	741	13	324058	1	324046	27	40	324085	-999999	324060	0	24	TrialsPROC	TO_016_TOOL16_BA.png	2	2	5	SessionSelectionList														nonlure	3	Tools	2-Back	4	80	3	0	0	0	3	39	48276	2	14	59	46237	-1	46976	1	739	3	3	2039	53	48290	-54	0																5												
WM080112	111312_fnca	2	1	1	-1633424485	1	75.031	75.030	2.0.10.147	2.0.10.242	2.0.10.242	1.0.0.439	7	234	2	3	Verdana	1	80	0	0	0	WM Stimuli\	1	943.6	1	710.8	1	962.8	1	597.8	1	971	1	683.6	0.7	782.714285714286	1	741	13	324058	1	324046	27	40	324085	-999999	324060	0	24	TrialsPROC	TO_014_TOOL14_BA.png	2	2	6	SessionSelectionList														lure	3	Tools	2-Back	5	80	4	0	0	0	1	39	50848	2	14	72	48809	-1	49947	0	1138	2	3	2039	53	50862	-54	0																6												
WM080112	111312_fnca	2	1	1	-1633424485	1	75.031	75.030	2.0.10.147	2.0.10.242	2.0.10.242	1.0.0.439	7	234	2	3	Verdana	1	80	0	0	0	WM Stimuli\	1	943.6	1	710.8	1	962.8	1	597.8	1	971	1	683.6	0.7	782.714285714286	1	741	13	324058	1	324046	27	40	324085	-999999	324060	0	24	TrialsPROC	TO_016_TOOL16_BA.png	2	2	7	SessionSelectionList														target	2	Tools	2-Back	6	80	5	0	0	0	1	39	53407	2	14	59	51368	-1	52806	0	1438	3	2	2039	53	53421	-54	0																7												
WM080112	111312_fnca	2	1	1	-1633424485	1	75.031	75.030	2.0.10.147	2.0.10.242	2.0.10.242	1.0.0.439	7	234	2	3	Verdana	1	80	0	0	0	WM Stimuli\	1	943.6	1	710.8	1	962.8	1	597.8	1	971	1	683.6	0.7	782.714285714286	1	741	13	324058	1	324046	27	40	324085	-999999	324060	0	24	TrialsPROC	TO_018_TOOL18_BA.png	2	2	8	SessionSelectionList														nonlure	3	Tools	2-Back	7	80	6	0	0	0	2	39	55966	2	14	59	53927	-1	54961	1	1034	3	3	2039	53	55980	-54	0																8												
WM080112	111312_fnca	2	1	1	-1633424485	1	75.031	75.030	2.0.10.147	2.0.10.242	2.0.10.242	1.0.0.439	7	234	2	3	Verdana	1	80	0	0	0	WM Stimuli\	1	943.6	1	710.8	1	962.8	1	597.8	1	971	1	683.6	0.7	782.714285714286	1	741	13	324058	1	324046	27	40	324085	-999999	324060	0	24	TrialsPROC	TO_017_TOOL17_BA.png	2	2	9	SessionSelectionList														nonlure	3	Tools	2-Back	8	80	7	0	0	0	3	39	58525	2	14	59	56486	-1	57254	1	768	3	3	2039	53	58539	-54	0																9												
WM080112	111312_fnca	2	1	1	-1633424485	1	75.031	75.030	2.0.10.147	2.0.10.242	2.0.10.242	1.0.0.439	7	234	2	3	Verdana	1	80	0	0	0	WM Stimuli\	1	943.6	1	710.8	1	962.8	1	597.8	1	971	1	683.6	0.7	782.714285714286	1	741	13	324058	1	324046	27	40	324085	-999999	324060	0	24	TrialsPROC	TO_018_TOOL18_BA.png	2	2	10	SessionSelectionList														target	2	Tools	2-Back	9	80	8	0	0	0	1	39	61084	2	14	59	59045	-1	59817	1	772	2	2	2039	53	61098	-54	0																10												
WM080112	111312_fnca	2	1	1	-1633424485	1	75.031	75.030	2.0.10.147	2.0.10.242	2.0.10.242	1.0.0.439	7	234	2	3	Verdana	1	80	0	0	0	WM Stimuli\	1	943.6	1	710.8	1	962.8	1	597.8	1	971	1	683.6	0.7	782.714285714286	1	741	13	324058	1	324046	27	40	324085	-999999	324060	0	24	TrialsPROC	TO_015_TOOL15_BA.png	2	2	11	SessionSelectionList														nonlure	3	Tools	2-Back	10	80	9	0	0	0	1	39	63643	2	14	59	61604	-1	62311	1	707	3	3	2039	53	63657	-54	0																11												
WM080112	111312_fnca	2	1	1	-1633424485	1	75.031	75.030	2.0.10.147	2.0.10.242	2.0.10.242	1.0.0.439	7	234	2	3	Verdana	1	80	0	0	0	WM Stimuli\	1	943.6	1	710.8	1	962.8	1	597.8	1	971	1	683.6	0.7	782.714285714286	1	741	13	324058	1	324046	27	40	324085	-999999	324060	0	24	TrialsPROC	TO_017_TOOL17_BA.png	2	2	12	SessionSelectionList														lure	3	Tools	2-Back	11	80	10	0	0	0	1	39	66202	2	14	59	64163	-1	65026	0	863	2	3	2039	53	66216	-54	0																12												
WM080112	111312_fnca	2	1	1	-1633424485	1	75.031	75.030	2.0.10.147	2.0.10.242	2.0.10.242	1.0.0.439	7	234	2	3	Verdana	1	80	0	0	0	WM Stimuli\	1	943.6	1	710.8	1	962.8	1	597.8	1	971	1	683.6	0.7	782.714285714286	1	741	13	324058	1	324046	27	40	324085	-999999	324060	0	25	Cue0BackPROC	BP_013_BP7_BA.png	2	2	13	SessionSelectionList																																										19	66682	-20	0												13												
WM080112	111312_fnca	2	1	1	-1633424485	1	75.031	75.030	2.0.10.147	2.0.10.242	2.0.10.242	1.0.0.439	7	234	2	3	Verdana	1	80	0	0	0	WM Stimuli\	1	943.6	1	710.8	1	962.8	1	597.8	1	971	1	683.6	0.7	782.714285714286	1	741	13	324058	1	324046	27	40	324085	-999999	324060	0	26	TrialsPROC	BP_015_H10-T_BA.png	2	2	14	SessionSelectionList														nonlure	3	Body	0-Back	12	80	11	0	0	100	1	39	71267	1	13	65	69228	-1	69970	1	742	3	3	2039	52	71280	-53	0																14												
WM080112	111312_fnca	2	1	1	-1633424485	1	75.031	75.030	2.0.10.147	2.0.10.242	2.0.10.242	1.0.0.439	7	234	2	3	Verdana	1	80	0	0	0	WM Stimuli\	1	943.6	1	710.8	1	962.8	1	597.8	1	971	1	683.6	0.7	782.714285714286	1	741	13	324058	1	324046	27	40	324085	-999999	324060	0	26	TrialsPROC	BP_018_H13-T_BA.png	2	2	15	SessionSelectionList														nonlure	3	Body	0-Back	13	80	12	0	0	100	2	39	73839	1	14	72	71800	-1	72412	1	612	3	3	2039	53	73853	-54	0																15												
WM080112	111312_fnca	2	1	1	-1633424485	1	75.031	75.030	2.0.10.147	2.0.10.242	2.0.10.242	1.0.0.439	7	234	2	3	Verdana	1	80	0	0	0	WM Stimuli\	1	943.6	1	710.8	1	962.8	1	597.8	1	971	1	683.6	0.7	782.714285714286	1	741	13	324058	1	324046	27	40	324085	-999999	324060	0	26	TrialsPROC	BP_014_BP9_BA.png	2	2	16	SessionSelectionList														nonlure	3	Body	0-Back	14	80	13	0	0	100	3	39	76398	1	14	59	74359	-1	75057	1	698	3	3	2039	53	76412	-54	0																16												
WM080112	111312_fnca	2	1	1	-1633424485	1	75.031	75.030	2.0.10.147	2.0.10.242	2.0.10.242	1.0.0.439	7	234	2	3	Verdana	1	80	0	0	0	WM Stimuli\	1	943.6	1	710.8	1	962.8	1	597.8	1	971	1	683.6	0.7	782.714285714286	1	741	13	324058	1	324046	27	40	324085	-999999	324060	0	26	TrialsPROC	BP_018_H13-T_BA.png	2	2	17	SessionSelectionList														lure	3	Body	0-Back	15	80	14	0	0	100	4	39	78957	1	14	59	76918	-1	77591	1	673	3	3	2039	53	78971	-54	0																17												
WM080112	111312_fnca	2	1	1	-1633424485	1	75.031	75.030	2.0.10.147	2.0.10.242	2.0.10.242	1.0.0.439	7	234	2	3	Verdana	1	80	0	0	0	WM Stimuli\	1	943.6	1	710.8	1	962.8	1	597.8	1	971	1	683.6	0.7	782.714285714286	1	741	13	324058	1	324046	27	40	324085	-999999	324060	0	26	TrialsPROC	BP_013_BP7_BA.png	2	2	18	SessionSelectionList														target	2	Body	0-Back	16	80	15	0	0	100	1	39	81516	2	14	59	79477	-1	80231	1	754	2	2	2039	53	81530	-54	0																18												
WM080112	111312_fnca	2	1	1	-1633424485	1	75.031	75.030	2.0.10.147	2.0.10.242	2.0.10.242	1.0.0.439	7	234	2	3	Verdana	1	80	0	0	0	WM Stimuli\	1	943.6	1	710.8	1	962.8	1	597.8	1	971	1	683.6	0.7	782.714285714286	1	741	13	324058	1	324046	27	40	324085	-999999	324060	0	26	TrialsPROC	BP_015_H10-T_BA.png	2	2	19	SessionSelectionList														lure	3	Body	0-Back	17	80	16	0	0	100	1	39	84075	1	14	59	82036	-1	82566	1	530	3	3	2039	53	84089	-54	0																19												
WM080112	111312_fnca	2	1	1	-1633424485	1	75.031	75.030	2.0.10.147	2.0.10.242	2.0.10.242	1.0.0.439	7	234	2	3	Verdana	1	80	0	0	0	WM Stimuli\	1	943.6	1	710.8	1	962.8	1	597.8	1	971	1	683.6	0.7	782.714285714286	1	741	13	324058	1	324046	27	40	324085	-999999	324060	0	26	TrialsPROC	BP_016_H11-T_BA.png	2	2	20	SessionSelectionList														nonlure	3	Body	0-Back	18	80	17	0	0	100	2	39	86647	2	14	72	84608	-1	85437	1	829	3	3	2039	53	86661	-54	0																20												
WM080112	111312_fnca	2	1	1	-1633424485	1	75.031	75.030	2.0.10.147	2.0.10.242	2.0.10.242	1.0.0.439	7	234	2	3	Verdana	1	80	0	0	0	WM Stimuli\	1	943.6	1	710.8	1	962.8	1	597.8	1	971	1	683.6	0.7	782.714285714286	1	741	13	324058	1	324046	27	40	324085	-999999	324060	0	26	TrialsPROC	BP_013_BP7_BA.png	2	2	21	SessionSelectionList														target	2	Body	0-Back	19	80	18	0	0	100	1	39	89206	2	14	59	87167	-1	87897	1	730	2	2	2039	53	89220	-54	0																21												
WM080112	111312_fnca	2	1	1	-1633424485	1	75.031	75.030	2.0.10.147	2.0.10.242	2.0.10.242	1.0.0.439	7	234	2	3	Verdana	1	80	0	0	0	WM Stimuli\	1	943.6	1	710.8	1	962.8	1	597.8	1	971	1	683.6	0.7	782.714285714286	1	741	13	324058	1	324046	27	40	324085	-999999	324060	0	26	TrialsPROC	BP_017_H12-T_BA.png	2	2	22	SessionSelectionList														nonlure	3	Body	0-Back	20	80	19	0	0	100	1	39	91765	2	14	59	89726	-1	90323	1	597	3	3	2039	53	91779	-54	0																22												
WM080112	111312_fnca	2	1	1	-1633424485	1	75.031	75.030	2.0.10.147	2.0.10.242	2.0.10.242	1.0.0.439	7	234	2	3	Verdana	1	80	0	0	0	WM Stimuli\	1	943.6	1	710.8	1	962.8	1	597.8	1	971	1	683.6	0.7	782.714285714286	1	741	13	324058	1	324046	27	40	324085	-999999	324060	0	26	TrialsPROC	BP_014_BP9_BA.png	2	2	23	SessionSelectionList														lure	3	Body	0-Back	21	80	20	0	0	100	2	39	94324	1	14	59	92285	-1	93228	1	943	3	3	2039	53	94338	-54	0																23												
WM080112	111312_fnca	2	1	1	-1633424485	1	75.031	75.030	2.0.10.147	2.0.10.242	2.0.10.242	1.0.0.439	7	234	2	3	Verdana	1	80	0	0	0	WM Stimuli\	1	943.6	1	710.8	1	962.8	1	597.8	1	971	1	683.6	0.7	782.714285714286	1	741	13	324058	1	324046	27	40	324085	-999999	324060	0	27	Fix15secPROC	""	2	2	24	SessionSelectionList																																															6	94791	-7	0							24												
WM080112	111312_fnca	2	1	1	-1633424485	1	75.031	75.030	2.0.10.147	2.0.10.242	2.0.10.242	1.0.0.439	7	234	2	3	Verdana	1	80	0	0	0	WM Stimuli\	1	943.6	1	710.8	1	962.8	1	597.8	1	971	1	683.6	0.7	782.714285714286	1	741	13	324058	1	324046	27	40	324085	-999999	324060	0	28	Cue2BackPROC	""	2	2	25	SessionSelectionList									13	109798	-14	0																																													25												
WM080112	111312_fnca	2	1	1	-1633424485	1	75.031	75.030	2.0.10.147	2.0.10.242	2.0.10.242	1.0.0.439	7	234	2	3	Verdana	1	80	0	0	0	WM Stimuli\	1	943.6	1	710.8	1	962.8	1	597.8	1	971	1	683.6	0.7	782.714285714286	1	741	13	324058	1	324046	27	40	324085	-999999	324060	0	29	TrialsPROC	FC_015_M8.png	2	2	26	SessionSelectionList														nonlure	3	Face	2-Back	22	80	21	0	0	100	3	39	114396	1	14	72	112357	-1	114068	1	1711	3	3	2039	53	114410	-54	0																26												
WM080112	111312_fnca	2	1	1	-1633424485	1	75.031	75.030	2.0.10.147	2.0.10.242	2.0.10.242	1.0.0.439	7	234	2	3	Verdana	1	80	0	0	0	WM Stimuli\	1	943.6	1	710.8	1	962.8	1	597.8	1	971	1	683.6	0.7	782.714285714286	1	741	13	324058	1	324046	27	40	324085	-999999	324060	0	29	TrialsPROC	FC_018_F9.png	2	2	27	SessionSelectionList														nonlure	3	Face	2-Back	23	80	22	0	0	100	4	39	116968	2	14	72	114929	-1	115545	1	616	3	3	2039	53	116982	-54	0																27												
WM080112	111312_fnca	2	1	1	-1633424485	1	75.031	75.030	2.0.10.147	2.0.10.242	2.0.10.242	1.0.0.439	7	234	2	3	Verdana	1	80	0	0	0	WM Stimuli\	1	943.6	1	710.8	1	962.8	1	597.8	1	971	1	683.6	0.7	782.714285714286	1	741	13	324058	1	324046	27	40	324085	-999999	324060	0	29	TrialsPROC	FC_018_F9.png	2	2	28	SessionSelectionList														lure	3	Face	2-Back	24	80	23	0	0	100	5	40	119541	1	13	72	117501	-1	118149	1	648	3	3	2040	53	119554	-54	0																28												
WM080112	111312_fnca	2	1	1	-1633424485	1	75.031	75.030	2.0.10.147	2.0.10.242	2.0.10.242	1.0.0.439	7	234	2	3	Verdana	1	80	0	0	0	WM Stimuli\	1	943.6	1	710.8	1	962.8	1	597.8	1	971	1	683.6	0.7	782.714285714286	1	741	13	324058	1	324046	27	40	324085	-999999	324060	0	29	TrialsPROC	FC_017_M9.png	2	2	29	SessionSelectionList														nonlure	3	Face	2-Back	25	80	24	0	0	100	6	39	122113	1	14	73	120074	-1	120834	1	760	3	3	2039	53	122127	-54	0																29												
WM080112	111312_fnca	2	1	1	-1633424485	1	75.031	75.030	2.0.10.147	2.0.10.242	2.0.10.242	1.0.0.439	7	234	2	3	Verdana	1	80	0	0	0	WM Stimuli\	1	943.6	1	710.8	1	962.8	1	597.8	1	971	1	683.6	0.7	782.714285714286	1	741	13	324058	1	324046	27	40	324085	-999999	324060	0	29	TrialsPROC	FC_017_M9.png	2	2	30	SessionSelectionList														lure	3	Face	2-Back	26	80	25	0	0	100	7	39	124685	2	14	72	122646	-1	123257	1	611	3	3	2039	53	124699	-54	0																30												
WM080112	111312_fnca	2	1	1	-1633424485	1	75.031	75.030	2.0.10.147	2.0.10.242	2.0.10.242	1.0.0.439	7	234	2	3	Verdana	1	80	0	0	0	WM Stimuli\	1	943.6	1	710.8	1	962.8	1	597.8	1	971	1	683.6	0.7	782.714285714286	1	741	13	324058	1	324046	27	40	324085	-999999	324060	0	29	TrialsPROC	FC_016_F8.png	2	2	31	SessionSelectionList														nonlure	3	Face	2-Back	27	80	26	0	0	100	8	39	127257	2	14	72	125218	-1	126152	1	934	3	3	2039	53	127271	-54	0																31												
WM080112	111312_fnca	2	1	1	-1633424485	1	75.031	75.030	2.0.10.147	2.0.10.242	2.0.10.242	1.0.0.439	7	234	2	3	Verdana	1	80	0	0	0	WM Stimuli\	1	943.6	1	710.8	1	962.8	1	597.8	1	971	1	683.6	0.7	782.714285714286	1	741	13	324058	1	324046	27	40	324085	-999999	324060	0	29	TrialsPROC	FC_013_M7.png	2	2	32	SessionSelectionList														nonlure	3	Face	2-Back	28	80	27	0	0	100	9	39	129830	1	13	73	127791	-1	128873	1	1082	3	3	2039	52	129843	-53	0																32												
WM080112	111312_fnca	2	1	1	-1633424485	1	75.031	75.030	2.0.10.147	2.0.10.242	2.0.10.242	1.0.0.439	7	234	2	3	Verdana	1	80	0	0	0	WM Stimuli\	1	943.6	1	710.8	1	962.8	1	597.8	1	971	1	683.6	0.7	782.714285714286	1	741	13	324058	1	324046	27	40	324085	-999999	324060	0	29	TrialsPROC	FC_014_F7.png	2	2	33	SessionSelectionList														nonlure	3	Face	2-Back	29	80	28	0	0	100	10	39	132402	1	14	72	130363	-1	131103	1	740	3	3	2039	53	132416	-54	0																33												
WM080112	111312_fnca	2	1	1	-1633424485	1	75.031	75.030	2.0.10.147	2.0.10.242	2.0.10.242	1.0.0.439	7	234	2	3	Verdana	1	80	0	0	0	WM Stimuli\	1	943.6	1	710.8	1	962.8	1	597.8	1	971	1	683.6	0.7	782.714285714286	1	741	13	324058	1	324046	27	40	324085	-999999	324060	0	29	TrialsPROC	FC_013_M7.png	2	2	34	SessionSelectionList														target	2	Face	2-Back	30	80	29	0	0	100	1	39	134974	2	14	72	132935	-1	133536	1	601	2	2	2039	53	134988	-54	0																34												
WM080112	111312_fnca	2	1	1	-1633424485	1	75.031	75.030	2.0.10.147	2.0.10.242	2.0.10.242	1.0.0.439	7	234	2	3	Verdana	1	80	0	0	0	WM Stimuli\	1	943.6	1	710.8	1	962.8	1	597.8	1	971	1	683.6	0.7	782.714285714286	1	741	13	324058	1	324046	27	40	324085	-999999	324060	0	29	TrialsPROC	FC_014_F7.png	2	2	35	SessionSelectionList														target	2	Face	2-Back	31	80	30	0	0	100	2	40	137547	1	13	72	135507	-1	137432	1	1925	2	2	2040	53	137560	-54	0																35												
WM080112	111312_fnca	2	1	1	-1633424485	1	75.031	75.030	2.0.10.147	2.0.10.242	2.0.10.242	1.0.0.439	7	234	2	3	Verdana	1	80	0	0	0	WM Stimuli\	1	943.6	1	710.8	1	962.8	1	597.8	1	971	1	683.6	0.7	782.714285714286	1	741	13	324058	1	324046	27	40	324085	-999999	324060	0	30	Cue0BackPROC	TO_019_TOOL19_BA.png	2	2	36	SessionSelectionList																																										19	138026	-20	0												36												
WM080112	111312_fnca	2	1	1	-1633424485	1	75.031	75.030	2.0.10.147	2.0.10.242	2.0.10.242	1.0.0.439	7	234	2	3	Verdana	1	80	0	0	0	WM Stimuli\	1	943.6	1	710.8	1	962.8	1	597.8	1	971	1	683.6	0.7	782.714285714286	1	741	13	324058	1	324046	27	40	324085	-999999	324060	0	31	TrialsPROC	TO_019_TOOL19_BA.png	2	2	37	SessionSelectionList														target	2	Tools	0-Back	32	80	31	0	0	100	3	39	142598	1	14	52	140559	-1	141844	1	1285	2	2	2039	53	142612	-54	0																37												
WM080112	111312_fnca	2	1	1	-1633424485	1	75.031	75.030	2.0.10.147	2.0.10.242	2.0.10.242	1.0.0.439	7	234	2	3	Verdana	1	80	0	0	0	WM Stimuli\	1	943.6	1	710.8	1	962.8	1	597.8	1	971	1	683.6	0.7	782.714285714286	1	741	13	324058	1	324046	27	40	324085	-999999	324060	0	31	TrialsPROC	TO_024_TOOL24_BA.png	2	2	38	SessionSelectionList														nonlure	3	Tools	0-Back	33	80	32	0	0	100	1	39	145157	1	14	59	143118	-1	143744	1	626	3	3	2039	53	145171	-54	0																38												
WM080112	111312_fnca	2	1	1	-1633424485	1	75.031	75.030	2.0.10.147	2.0.10.242	2.0.10.242	1.0.0.439	7	234	2	3	Verdana	1	80	0	0	0	WM Stimuli\	1	943.6	1	710.8	1	962.8	1	597.8	1	971	1	683.6	0.7	782.714285714286	1	741	13	324058	1	324046	27	40	324085	-999999	324060	0	31	TrialsPROC	TO_019_TOOL19_BA.png	2	2	39	SessionSelectionList														target	2	Tools	0-Back	34	80	33	0	0	100	1	39	147716	1	13	59	145677	-1	146385	1	708	2	2	2039	52	147729	-53	0																39												
WM080112	111312_fnca	2	1	1	-1633424485	1	75.031	75.030	2.0.10.147	2.0.10.242	2.0.10.242	1.0.0.439	7	234	2	3	Verdana	1	80	0	0	0	WM Stimuli\	1	943.6	1	710.8	1	962.8	1	597.8	1	971	1	683.6	0.7	782.714285714286	1	741	13	324058	1	324046	27	40	324085	-999999	324060	0	31	TrialsPROC	TO_023_TOOL23_BA.png	2	2	40	SessionSelectionList														nonlure	3	Tools	0-Back	35	80	34	0	0	100	1	39	150275	2	13	59	148236	-1	148896	1	660	3	3	2039	52	150288	-53	0																40												
WM080112	111312_fnca	2	1	1	-1633424485	1	75.031	75.030	2.0.10.147	2.0.10.242	2.0.10.242	1.0.0.439	7	234	2	3	Verdana	1	80	0	0	0	WM Stimuli\	1	943.6	1	710.8	1	962.8	1	597.8	1	971	1	683.6	0.7	782.714285714286	1	741	13	324058	1	324046	27	40	324085	-999999	324060	0	31	TrialsPROC	TO_020_TOOL20_BA.png	2	2	41	SessionSelectionList														nonlure	3	Tools	0-Back	36	80	35	0	0	100	2	39	152834	1	13	59	150795	-1	151383	1	588	3	3	2039	52	152847	-53	0																41												
WM080112	111312_fnca	2	1	1	-1633424485	1	75.031	75.030	2.0.10.147	2.0.10.242	2.0.10.242	1.0.0.439	7	234	2	3	Verdana	1	80	0	0	0	WM Stimuli\	1	943.6	1	710.8	1	962.8	1	597.8	1	971	1	683.6	0.7	782.714285714286	1	741	13	324058	1	324046	27	40	324085	-999999	324060	0	31	TrialsPROC	TO_020_TOOL20_BA.png	2	2	42	SessionSelectionList														lure	3	Tools	0-Back	37	80	36	0	0	100	3	39	155393	1	13	59	153354	-1	153914	1	560	3	3	2039	52	155406	-53	0																42												
WM080112	111312_fnca	2	1	1	-1633424485	1	75.031	75.030	2.0.10.147	2.0.10.242	2.0.10.242	1.0.0.439	7	234	2	3	Verdana	1	80	0	0	0	WM Stimuli\	1	943.6	1	710.8	1	962.8	1	597.8	1	971	1	683.6	0.7	782.714285714286	1	741	13	324058	1	324046	27	40	324085	-999999	324060	0	31	TrialsPROC	TO_022_TOOL22_BA.png	2	2	43	SessionSelectionList														nonlure	3	Tools	0-Back	38	80	37	0	0	100	4	39	157952	1	13	59	155913	-1	156744	1	831	3	3	2039	52	157965	-53	0																43												
WM080112	111312_fnca	2	1	1	-1633424485	1	75.031	75.030	2.0.10.147	2.0.10.242	2.0.10.242	1.0.0.439	7	234	2	3	Verdana	1	80	0	0	0	WM Stimuli\	1	943.6	1	710.8	1	962.8	1	597.8	1	971	1	683.6	0.7	782.714285714286	1	741	13	324058	1	324046	27	40	324085	-999999	324060	0	31	TrialsPROC	TO_022_TOOL22_BA.png	2	2	44	SessionSelectionList														lure	3	Tools	0-Back	39	80	38	0	0	100	5	39	160511	1	13	59	158472	-1	159063	1	591	3	3	2039	52	160524	-53	0																44												
WM080112	111312_fnca	2	1	1	-1633424485	1	75.031	75.030	2.0.10.147	2.0.10.242	2.0.10.242	1.0.0.439	7	234	2	3	Verdana	1	80	0	0	0	WM Stimuli\	1	943.6	1	710.8	1	962.8	1	597.8	1	971	1	683.6	0.7	782.714285714286	1	741	13	324058	1	324046	27	40	324085	-999999	324060	0	31	TrialsPROC	TO_021_TOOL21_BA.png	2	2	45	SessionSelectionList														nonlure	3	Tools	0-Back	40	80	39	0	0	100	6	39	163070	1	13	59	161031	-1	161880	1	849	3	3	2039	52	163083	-53	0																45												
WM080112	111312_fnca	2	1	1	-1633424485	1	75.031	75.030	2.0.10.147	2.0.10.242	2.0.10.242	1.0.0.439	7	234	2	3	Verdana	1	80	0	0	0	WM Stimuli\	1	943.6	1	710.8	1	962.8	1	597.8	1	971	1	683.6	0.7	782.714285714286	1	741	13	324058	1	324046	27	40	324085	-999999	324060	0	31	TrialsPROC	TO_021_TOOL21_BA.png	2	2	46	SessionSelectionList														lure	3	Tools	0-Back	41	80	40	0	0	100	7	40	165629	1	13	58	163589	-1	164301	1	712	3	3	2040	53	165642	-54	0																46												
WM080112	111312_fnca	2	1	1	-1633424485	1	75.031	75.030	2.0.10.147	2.0.10.242	2.0.10.242	1.0.0.439	7	234	2	3	Verdana	1	80	0	0	0	WM Stimuli\	1	943.6	1	710.8	1	962.8	1	597.8	1	971	1	683.6	0.7	782.714285714286	1	741	13	324058	1	324046	27	40	324085	-999999	324060	0	32	Fix15secPROC	""	2	2	47	SessionSelectionList																																															6	166095	-7	0							47												
WM080112	111312_fnca	2	1	1	-1633424485	1	75.031	75.030	2.0.10.147	2.0.10.242	2.0.10.242	1.0.0.439	7	234	2	3	Verdana	1	80	0	0	0	WM Stimuli\	1	943.6	1	710.8	1	962.8	1	597.8	1	971	1	683.6	0.7	782.714285714286	1	741	13	324058	1	324046	27	40	324085	-999999	324060	0	33	Cue2BackPROC	""	2	2	48	SessionSelectionList									13	181102	-14	0																																													48												
WM080112	111312_fnca	2	1	1	-1633424485	1	75.031	75.030	2.0.10.147	2.0.10.242	2.0.10.242	1.0.0.439	7	234	2	3	Verdana	1	80	0	0	0	WM Stimuli\	1	943.6	1	710.8	1	962.8	1	597.8	1	971	1	683.6	0.7	782.714285714286	1	741	13	324058	1	324046	27	40	324085	-999999	324060	0	34	TrialsPROC	BP_020_H17-T_BA.png	2	2	49	SessionSelectionList														nonlure	3	Body	2-Back	42	80	41	0	0	100	8	39	185700	2	14	72	183661	-1	184964	1	1303	3	3	2039	53	185714	-54	0																49												
WM080112	111312_fnca	2	1	1	-1633424485	1	75.031	75.030	2.0.10.147	2.0.10.242	2.0.10.242	1.0.0.439	7	234	2	3	Verdana	1	80	0	0	0	WM Stimuli\	1	943.6	1	710.8	1	962.8	1	597.8	1	971	1	683.6	0.7	782.714285714286	1	741	13	324058	1	324046	27	40	324085	-999999	324060	0	34	TrialsPROC	BP_019_H14-T_BA.png	2	2	50	SessionSelectionList														nonlure	3	Body	2-Back	43	80	42	0	0	100	9	39	188273	1	13	73	186234	-1	186982	1	748	3	3	2039	52	188286	-53	0																50												
WM080112	111312_fnca	2	1	1	-1633424485	1	75.031	75.030	2.0.10.147	2.0.10.242	2.0.10.242	1.0.0.439	7	234	2	3	Verdana	1	80	0	0	0	WM Stimuli\	1	943.6	1	710.8	1	962.8	1	597.8	1	971	1	683.6	0.7	782.714285714286	1	741	13	324058	1	324046	27	40	324085	-999999	324060	0	34	TrialsPROC	BP_020_H17-T_BA.png	2	2	51	SessionSelectionList														target	2	Body	2-Back	44	80	43	0	0	100	1	39	190832	1	13	59	188793	-1	189358	1	565	2	2	2039	52	190845	-53	0																51												
WM080112	111312_fnca	2	1	1	-1633424485	1	75.031	75.030	2.0.10.147	2.0.10.242	2.0.10.242	1.0.0.439	7	234	2	3	Verdana	1	80	0	0	0	WM Stimuli\	1	943.6	1	710.8	1	962.8	1	597.8	1	971	1	683.6	0.7	782.714285714286	1	741	13	324058	1	324046	27	40	324085	-999999	324060	0	34	TrialsPROC	BP_019_H14-T_BA.png	2	2	52	SessionSelectionList														target	2	Body	2-Back	45	80	44	0	0	100	2	39	193391	1	13	59	191352	-1	192502	1	1150	2	2	2039	52	193404	-53	0																52												
WM080112	111312_fnca	2	1	1	-1633424485	1	75.031	75.030	2.0.10.147	2.0.10.242	2.0.10.242	1.0.0.439	7	234	2	3	Verdana	1	80	0	0	0	WM Stimuli\	1	943.6	1	710.8	1	962.8	1	597.8	1	971	1	683.6	0.7	782.714285714286	1	741	13	324058	1	324046	27	40	324085	-999999	324060	0	34	TrialsPROC	BP_024_H3-T_BA.png	2	2	53	SessionSelectionList														nonlure	3	Body	2-Back	46	80	45	0	0	100	1	39	195963	1	14	72	193924	-1	194632	1	708	3	3	2039	53	195977	-54	0																53												
WM080112	111312_fnca	2	1	1	-1633424485	1	75.031	75.030	2.0.10.147	2.0.10.242	2.0.10.242	1.0.0.439	7	234	2	3	Verdana	1	80	0	0	0	WM Stimuli\	1	943.6	1	710.8	1	962.8	1	597.8	1	971	1	683.6	0.7	782.714285714286	1	741	13	324058	1	324046	27	40	324085	-999999	324060	0	34	TrialsPROC	BP_024_H3-T_BA.png	2	2	54	SessionSelectionList														lure	3	Body	2-Back	47	80	46	0	0	100	2	39	198522	1	14	59	196483	-1	197402	1	919	3	3	2039	53	198536	-54	0																54												
WM080112	111312_fnca	2	1	1	-1633424485	1	75.031	75.030	2.0.10.147	2.0.10.242	2.0.10.242	1.0.0.439	7	234	2	3	Verdana	1	80	0	0	0	WM Stimuli\	1	943.6	1	710.8	1	962.8	1	597.8	1	971	1	683.6	0.7	782.714285714286	1	741	13	324058	1	324046	27	40	324085	-999999	324060	0	34	TrialsPROC	BP_025_H5-T_BA.png	2	2	55	SessionSelectionList														nonlure	3	Body	2-Back	48	80	47	0	0	100	3	39	201081	1	14	59	199042	-1	200346	1	1304	3	3	2039	53	201095	-54	0																55												
WM080112	111312_fnca	2	1	1	-1633424485	1	75.031	75.030	2.0.10.147	2.0.10.242	2.0.10.242	1.0.0.439	7	234	2	3	Verdana	1	80	0	0	0	WM Stimuli\	1	943.6	1	710.8	1	962.8	1	597.8	1	971	1	683.6	0.7	782.714285714286	1	741	13	324058	1	324046	27	40	324085	-999999	324060	0	34	TrialsPROC	BP_023_H25-T_BA.png	2	2	56	SessionSelectionList														nonlure	3	Body	2-Back	49	80	48	0	0	100	4	39	203653	2	14	72	201614	-1	202538	1	924	3	3	2039	53	203667	-54	0																56												
WM080112	111312_fnca	2	1	1	-1633424485	1	75.031	75.030	2.0.10.147	2.0.10.242	2.0.10.242	1.0.0.439	7	234	2	3	Verdana	1	80	0	0	0	WM Stimuli\	1	943.6	1	710.8	1	962.8	1	597.8	1	971	1	683.6	0.7	782.714285714286	1	741	13	324058	1	324046	27	40	324085	-999999	324060	0	34	TrialsPROC	BP_022_H24-T_BA.png	2	2	57	SessionSelectionList														nonlure	3	Body	2-Back	50	80	49	0	0	100	5	39	206212	2	14	59	204173	-1	204913	1	740	3	3	2039	53	206226	-54	0																57												
WM080112	111312_fnca	2	1	1	-1633424485	1	75.031	75.030	2.0.10.147	2.0.10.242	2.0.10.242	1.0.0.439	7	234	2	3	Verdana	1	80	0	0	0	WM Stimuli\	1	943.6	1	710.8	1	962.8	1	597.8	1	971	1	683.6	0.7	782.714285714286	1	741	13	324058	1	324046	27	40	324085	-999999	324060	0	34	TrialsPROC	BP_022_H24-T_BA.png	2	2	58	SessionSelectionList														lure	3	Body	2-Back	51	80	50	0	0	100	6	39	208771	2	14	59	206732	-1	207807	1	1075	3	3	2039	53	208785	-54	0																58												
WM080112	111312_fnca	2	1	1	-1633424485	1	75.031	75.030	2.0.10.147	2.0.10.242	2.0.10.242	1.0.0.439	7	234	2	3	Verdana	1	80	0	0	0	WM Stimuli\	1	943.6	1	710.8	1	962.8	1	597.8	1	971	1	683.6	0.7	782.714285714286	1	741	13	324058	1	324046	27	40	324085	-999999	324060	0	35	Cue2BackPROC	""	2	2	59	SessionSelectionList									6	209238	-7	0																																													59												
WM080112	111312_fnca	2	1	1	-1633424485	1	75.031	75.030	2.0.10.147	2.0.10.242	2.0.10.242	1.0.0.439	7	234	2	3	Verdana	1	80	0	0	0	WM Stimuli\	1	943.6	1	710.8	1	962.8	1	597.8	1	971	1	683.6	0.7	782.714285714286	1	741	13	324058	1	324046	27	40	324085	-999999	324060	0	36	TrialsPROC	PL_019_SCENE_05.png	2	2	60	SessionSelectionList														nonlure	3	Place	2-Back	52	80	51	0	0	100	7	39	213836	1	13	65	211797	-1	213094	1	1297	3	3	2039	52	213849	-53	0																60												
WM080112	111312_fnca	2	1	1	-1633424485	1	75.031	75.030	2.0.10.147	2.0.10.242	2.0.10.242	1.0.0.439	7	234	2	3	Verdana	1	80	0	0	0	WM Stimuli\	1	943.6	1	710.8	1	962.8	1	597.8	1	971	1	683.6	0.7	782.714285714286	1	741	13	324058	1	324046	27	40	324085	-999999	324060	0	36	TrialsPROC	PL_017_SCENE_03.png	2	2	61	SessionSelectionList														nonlure	3	Place	2-Back	53	80	52	0	0	100	8	39	216408	1	14	72	214369	-1	215137	1	768	3	3	2039	53	216422	-54	0																61												
WM080112	111312_fnca	2	1	1	-1633424485	1	75.031	75.030	2.0.10.147	2.0.10.242	2.0.10.242	1.0.0.439	7	234	2	3	Verdana	1	80	0	0	0	WM Stimuli\	1	943.6	1	710.8	1	962.8	1	597.8	1	971	1	683.6	0.7	782.714285714286	1	741	13	324058	1	324046	27	40	324085	-999999	324060	0	36	TrialsPROC	PL_017_SCENE_03.png	2	2	62	SessionSelectionList														lure	3	Place	2-Back	54	80	53	0	0	100	9	39	218980	2	14	72	216941	-1	217769	1	828	3	3	2039	53	218994	-54	0																62												
WM080112	111312_fnca	2	1	1	-1633424485	1	75.031	75.030	2.0.10.147	2.0.10.242	2.0.10.242	1.0.0.439	7	234	2	3	Verdana	1	80	0	0	0	WM Stimuli\	1	943.6	1	710.8	1	962.8	1	597.8	1	971	1	683.6	0.7	782.714285714286	1	741	13	324058	1	324046	27	40	324085	-999999	324060	0	36	TrialsPROC	PL_016_SCENE_02.png	2	2	63	SessionSelectionList														nonlure	3	Place	2-Back	55	80	54	0	0	100	10	39	221566	2	14	86	219527	-1	220320	1	793	3	3	2039	53	221580	-54	0																63												
WM080112	111312_fnca	2	1	1	-1633424485	1	75.031	75.030	2.0.10.147	2.0.10.242	2.0.10.242	1.0.0.439	7	234	2	3	Verdana	1	80	0	0	0	WM Stimuli\	1	943.6	1	710.8	1	962.8	1	597.8	1	971	1	683.6	0.7	782.714285714286	1	741	13	324058	1	324046	27	40	324085	-999999	324060	0	36	TrialsPROC	PL_015_SCENE_01.png	2	2	64	SessionSelectionList														nonlure	3	Place	2-Back	56	80	55	0	0	100	11	40	224152	1	13	85	222112	-1	222704	1	592	3	3	2040	53	224165	-54	0																64												
WM080112	111312_fnca	2	1	1	-1633424485	1	75.031	75.030	2.0.10.147	2.0.10.242	2.0.10.242	1.0.0.439	7	234	2	3	Verdana	1	80	0	0	0	WM Stimuli\	1	943.6	1	710.8	1	962.8	1	597.8	1	971	1	683.6	0.7	782.714285714286	1	741	13	324058	1	324046	27	40	324085	-999999	324060	0	36	TrialsPROC	PL_016_SCENE_02.png	2	2	65	SessionSelectionList														target	2	Place	2-Back	57	80	56	0	0	100	1	39	226724	1	14	73	224685	-1	225740	1	1055	2	2	2039	53	226738	-54	0																65												
WM080112	111312_fnca	2	1	1	-1633424485	1	75.031	75.030	2.0.10.147	2.0.10.242	2.0.10.242	1.0.0.439	7	234	2	3	Verdana	1	80	0	0	0	WM Stimuli\	1	943.6	1	710.8	1	962.8	1	597.8	1	971	1	683.6	0.7	782.714285714286	1	741	13	324058	1	324046	27	40	324085	-999999	324060	0	36	TrialsPROC	PL_015_SCENE_01.png	2	2	66	SessionSelectionList														target	2	Place	2-Back	58	80	57	0	0	100	2	39	229296	2	14	72	227257	-1	228649	1	1392	2	2	2039	53	229310	-54	0																66												
WM080112	111312_fnca	2	1	1	-1633424485	1	75.031	75.030	2.0.10.147	2.0.10.242	2.0.10.242	1.0.0.439	7	234	2	3	Verdana	1	80	0	0	0	WM Stimuli\	1	943.6	1	710.8	1	962.8	1	597.8	1	971	1	683.6	0.7	782.714285714286	1	741	13	324058	1	324046	27	40	324085	-999999	324060	0	36	TrialsPROC	PL_020_SCENE_06.png	2	2	67	SessionSelectionList														nonlure	3	Place	2-Back	59	80	58	0	0	100	1	39	231882	1	13	86	229843	-1	231130	1	1287	3	3	2039	52	231895	-53	0																67												
WM080112	111312_fnca	2	1	1	-1633424485	1	75.031	75.030	2.0.10.147	2.0.10.242	2.0.10.242	1.0.0.439	7	234	2	3	Verdana	1	80	0	0	0	WM Stimuli\	1	943.6	1	710.8	1	962.8	1	597.8	1	971	1	683.6	0.7	782.714285714286	1	741	13	324058	1	324046	27	40	324085	-999999	324060	0	36	TrialsPROC	PL_020_SCENE_06.png	2	2	68	SessionSelectionList														lure	3	Place	2-Back	60	80	59	0	0	100	2	39	234454	1	14	72	232415	-1	233242	1	827	3	3	2039	53	234468	-54	0																68												
WM080112	111312_fnca	2	1	1	-1633424485	1	75.031	75.030	2.0.10.147	2.0.10.242	2.0.10.242	1.0.0.439	7	234	2	3	Verdana	1	80	0	0	0	WM Stimuli\	1	943.6	1	710.8	1	962.8	1	597.8	1	971	1	683.6	0.7	782.714285714286	1	741	13	324058	1	324046	27	40	324085	-999999	324060	0	36	TrialsPROC	PL_018_SCENE_04.png	2	2	69	SessionSelectionList														nonlure	3	Place	2-Back	61	80	60	0	0	100	3	39	237040	1	13	86	235001	-1	235872	1	871	3	3	2039	52	237053	-53	0																69												
WM080112	111312_fnca	2	1	1	-1633424485	1	75.031	75.030	2.0.10.147	2.0.10.242	2.0.10.242	1.0.0.439	7	234	2	3	Verdana	1	80	0	0	0	WM Stimuli\	1	943.6	1	710.8	1	962.8	1	597.8	1	971	1	683.6	0.7	782.714285714286	1	741	13	324058	1	324046	27	40	324085	-999999	324060	0	37	Fix15secPROC	""	2	2	70	SessionSelectionList																																															5	237506	-6	0							70												
WM080112	111312_fnca	2	1	1	-1633424485	1	75.031	75.030	2.0.10.147	2.0.10.242	2.0.10.242	1.0.0.439	7	234	2	3	Verdana	1	80	0	0	0	WM Stimuli\	1	943.6	1	710.8	1	962.8	1	597.8	1	971	1	683.6	0.7	782.714285714286	1	741	13	324058	1	324046	27	40	324085	-999999	324060	0	38	Cue0BackPROC	FC_020_F10.png	2	2	71	SessionSelectionList																																										39	252540	-40	0												71												
WM080112	111312_fnca	2	1	1	-1633424485	1	75.031	75.030	2.0.10.147	2.0.10.242	2.0.10.242	1.0.0.439	7	234	2	3	Verdana	1	80	0	0	0	WM Stimuli\	1	943.6	1	710.8	1	962.8	1	597.8	1	971	1	683.6	0.7	782.714285714286	1	741	13	324058	1	324046	27	40	324085	-999999	324060	0	39	TrialsPROC	FC_024_F12.png	2	2	72	SessionSelectionList														nonlure	3	Face	0-Back	62	80	61	0	0	100	4	39	257112	1	13	72	255073	-1	255807	1	734	3	3	2039	52	257125	-53	0																72												
WM080112	111312_fnca	2	1	1	-1633424485	1	75.031	75.030	2.0.10.147	2.0.10.242	2.0.10.242	1.0.0.439	7	234	2	3	Verdana	1	80	0	0	0	WM Stimuli\	1	943.6	1	710.8	1	962.8	1	597.8	1	971	1	683.6	0.7	782.714285714286	1	741	13	324058	1	324046	27	40	324085	-999999	324060	0	39	TrialsPROC	FC_023_M12.png	2	2	73	SessionSelectionList														nonlure	3	Face	0-Back	63	80	62	0	0	100	5	39	259697	2	14	85	257658	-1	258200	1	542	3	3	2039	53	259711	-54	0																73												
WM080112	111312_fnca	2	1	1	-1633424485	1	75.031	75.030	2.0.10.147	2.0.10.242	2.0.10.242	1.0.0.439	7	234	2	3	Verdana	1	80	0	0	0	WM Stimuli\	1	943.6	1	710.8	1	962.8	1	597.8	1	971	1	683.6	0.7	782.714285714286	1	741	13	324058	1	324046	27	40	324085	-999999	324060	0	39	TrialsPROC	FC_020_F10.png	2	2	74	SessionSelectionList														target	2	Face	0-Back	64	80	63	0	0	100	1	39	262269	2	14	72	260230	-1	260854	1	624	2	2	2039	53	262283	-54	0																74												
WM080112	111312_fnca	2	1	1	-1633424485	1	75.031	75.030	2.0.10.147	2.0.10.242	2.0.10.242	1.0.0.439	7	234	2	3	Verdana	1	80	0	0	0	WM Stimuli\	1	943.6	1	710.8	1	962.8	1	597.8	1	971	1	683.6	0.7	782.714285714286	1	741	13	324058	1	324046	27	40	324085	-999999	324060	0	39	TrialsPROC	FC_024_F12.png	2	2	75	SessionSelectionList														lure	3	Face	0-Back	65	80	64	0	0	100	1	39	264842	1	13	73	262803	-1	263331	1	528	3	3	2039	52	264855	-53	0																75												
WM080112	111312_fnca	2	1	1	-1633424485	1	75.031	75.030	2.0.10.147	2.0.10.242	2.0.10.242	1.0.0.439	7	234	2	3	Verdana	1	80	0	0	0	WM Stimuli\	1	943.6	1	710.8	1	962.8	1	597.8	1	971	1	683.6	0.7	782.714285714286	1	741	13	324058	1	324046	27	40	324085	-999999	324060	0	39	TrialsPROC	FC_020_F10.png	2	2	76	SessionSelectionList														target	2	Face	0-Back	66	80	65	0	0	100	1	39	267414	1	14	72	265375	-1	265853	1	478	2	2	2039	53	267428	-54	0																76												
WM080112	111312_fnca	2	1	1	-1633424485	1	75.031	75.030	2.0.10.147	2.0.10.242	2.0.10.242	1.0.0.439	7	234	2	3	Verdana	1	80	0	0	0	WM Stimuli\	1	943.6	1	710.8	1	962.8	1	597.8	1	971	1	683.6	0.7	782.714285714286	1	741	13	324058	1	324046	27	40	324085	-999999	324060	0	39	TrialsPROC	FC_022_F11.png	2	2	77	SessionSelectionList														nonlure	3	Face	0-Back	67	80	66	0	0	100	1	39	270000	1	13	86	267961	-1	268605	1	644	3	3	2039	52	270013	-53	0																77												
WM080112	111312_fnca	2	1	1	-1633424485	1	75.031	75.030	2.0.10.147	2.0.10.242	2.0.10.242	1.0.0.439	7	234	2	3	Verdana	1	80	0	0	0	WM Stimuli\	1	943.6	1	710.8	1	962.8	1	597.8	1	971	1	683.6	0.7	782.714285714286	1	741	13	324058	1	324046	27	40	324085	-999999	324060	0	39	TrialsPROC	FC_023_M12.png	2	2	78	SessionSelectionList														lure	3	Face	0-Back	68	80	67	0	0	100	2	39	272572	1	14	72	270533	-1	271250	1	717	3	3	2039	53	272586	-54	0																78												
WM080112	111312_fnca	2	1	1	-1633424485	1	75.031	75.030	2.0.10.147	2.0.10.242	2.0.10.242	1.0.0.439	7	234	2	3	Verdana	1	80	0	0	0	WM Stimuli\	1	943.6	1	710.8	1	962.8	1	597.8	1	971	1	683.6	0.7	782.714285714286	1	741	13	324058	1	324046	27	40	324085	-999999	324060	0	39	TrialsPROC	FC_021_M11.png	2	2	79	SessionSelectionList														nonlure	3	Face	0-Back	69	80	68	0	0	100	3	40	275158	1	13	85	273118	-1	273806	1	688	3	3	2040	53	275171	-54	0																79												
WM080112	111312_fnca	2	1	1	-1633424485	1	75.031	75.030	2.0.10.147	2.0.10.242	2.0.10.242	1.0.0.439	7	234	2	3	Verdana	1	80	0	0	0	WM Stimuli\	1	943.6	1	710.8	1	962.8	1	597.8	1	971	1	683.6	0.7	782.714285714286	1	741	13	324058	1	324046	27	40	324085	-999999	324060	0	39	TrialsPROC	FC_021_M11.png	2	2	80	SessionSelectionList														lure	3	Face	0-Back	70	80	69	0	0	100	4	39	277730	1	14	73	275691	-1	276224	1	533	3	3	2039	53	277744	-54	0																80												
WM080112	111312_fnca	2	1	1	-1633424485	1	75.031	75.030	2.0.10.147	2.0.10.242	2.0.10.242	1.0.0.439	7	234	2	3	Verdana	1	80	0	0	0	WM Stimuli\	1	943.6	1	710.8	1	962.8	1	597.8	1	971	1	683.6	0.7	782.714285714286	1	741	13	324058	1	324046	27	40	324085	-999999	324060	0	39	TrialsPROC	FC_019_M10.png	2	2	81	SessionSelectionList														nonlure	3	Face	0-Back	71	80	70	0	0	100	5	40	280316	1	13	85	278276	-1	278766	1	490	3	3	2040	53	280329	-54	0																81												
WM080112	111312_fnca	2	1	1	-1633424485	1	75.031	75.030	2.0.10.147	2.0.10.242	2.0.10.242	1.0.0.439	7	234	2	3	Verdana	1	80	0	0	0	WM Stimuli\	1	943.6	1	710.8	1	962.8	1	597.8	1	971	1	683.6	0.7	782.714285714286	1	741	13	324058	1	324046	27	40	324085	-999999	324060	0	40	Cue0BackPROC	PL_021_SCENE_07.png	2	2	82	SessionSelectionList																																										33	280809	-34	0												82												
WM080112	111312_fnca	2	1	1	-1633424485	1	75.031	75.030	2.0.10.147	2.0.10.242	2.0.10.242	1.0.0.439	7	234	2	3	Verdana	1	80	0	0	0	WM Stimuli\	1	943.6	1	710.8	1	962.8	1	597.8	1	971	1	683.6	0.7	782.714285714286	1	741	13	324058	1	324046	27	40	324085	-999999	324060	0	41	TrialsPROC	PL_025_SCENE_18.png	2	2	83	SessionSelectionList														nonlure	3	Place	0-Back	72	80	71	0	0	100	6	39	285393	2	14	78	283354	-1	284133	1	779	3	3	2039	53	285407	-54	0																83												
WM080112	111312_fnca	2	1	1	-1633424485	1	75.031	75.030	2.0.10.147	2.0.10.242	2.0.10.242	1.0.0.439	7	234	2	3	Verdana	1	80	0	0	0	WM Stimuli\	1	943.6	1	710.8	1	962.8	1	597.8	1	971	1	683.6	0.7	782.714285714286	1	741	13	324058	1	324046	27	40	324085	-999999	324060	0	41	TrialsPROC	PL_026_SCENE_24.png	2	2	84	SessionSelectionList														nonlure	3	Place	0-Back	73	80	72	0	0	100	7	39	287979	1	14	86	285940	-1	286583	1	643	3	3	2039	53	287993	-54	0																84												
WM080112	111312_fnca	2	1	1	-1633424485	1	75.031	75.030	2.0.10.147	2.0.10.242	2.0.10.242	1.0.0.439	7	234	2	3	Verdana	1	80	0	0	0	WM Stimuli\	1	943.6	1	710.8	1	962.8	1	597.8	1	971	1	683.6	0.7	782.714285714286	1	741	13	324058	1	324046	27	40	324085	-999999	324060	0	41	TrialsPROC	PL_025_SCENE_18.png	2	2	85	SessionSelectionList														lure	3	Place	0-Back	74	80	73	0	0	100	8	39	290551	2	14	72	288512	-1	289227	1	715	3	3	2039	53	290565	-54	0																85												
WM080112	111312_fnca	2	1	1	-1633424485	1	75.031	75.030	2.0.10.147	2.0.10.242	2.0.10.242	1.0.0.439	7	234	2	3	Verdana	1	80	0	0	0	WM Stimuli\	1	943.6	1	710.8	1	962.8	1	597.8	1	971	1	683.6	0.7	782.714285714286	1	741	13	324058	1	324046	27	40	324085	-999999	324060	0	41	TrialsPROC	PL_022_SCENE_08.png	2	2	86	SessionSelectionList														nonlure	3	Place	0-Back	75	80	74	0	0	100	9	39	293137	1	14	86	291098	-1	291686	1	588	3	3	2039	53	293151	-54	0																86												
WM080112	111312_fnca	2	1	1	-1633424485	1	75.031	75.030	2.0.10.147	2.0.10.242	2.0.10.242	1.0.0.439	7	234	2	3	Verdana	1	80	0	0	0	WM Stimuli\	1	943.6	1	710.8	1	962.8	1	597.8	1	971	1	683.6	0.7	782.714285714286	1	741	13	324058	1	324046	27	40	324085	-999999	324060	0	41	TrialsPROC	PL_026_SCENE_24.png	2	2	87	SessionSelectionList														lure	3	Place	0-Back	76	80	75	0	0	100	10	39	295709	2	14	72	293670	-1	294231	1	561	3	3	2039	53	295723	-54	0																87												
WM080112	111312_fnca	2	1	1	-1633424485	1	75.031	75.030	2.0.10.147	2.0.10.242	2.0.10.242	1.0.0.439	7	234	2	3	Verdana	1	80	0	0	0	WM Stimuli\	1	943.6	1	710.8	1	962.8	1	597.8	1	971	1	683.6	0.7	782.714285714286	1	741	13	324058	1	324046	27	40	324085	-999999	324060	0	41	TrialsPROC	PL_021_SCENE_07.png	2	2	88	SessionSelectionList														target	2	Place	0-Back	77	80	76	0	0	100	1	40	298282	1	13	72	296242	-1	296868	1	626	2	2	2040	53	298295	-54	0																88												
WM080112	111312_fnca	2	1	1	-1633424485	1	75.031	75.030	2.0.10.147	2.0.10.242	2.0.10.242	1.0.0.439	7	234	2	3	Verdana	1	80	0	0	0	WM Stimuli\	1	943.6	1	710.8	1	962.8	1	597.8	1	971	1	683.6	0.7	782.714285714286	1	741	13	324058	1	324046	27	40	324085	-999999	324060	0	41	TrialsPROC	PL_021_SCENE_07.png	2	2	89	SessionSelectionList														target	2	Place	0-Back	78	80	77	0	0	100	2	39	300854	1	14	73	298815	-1	299526	1	711	2	2	2039	53	300868	-54	0																89												
WM080112	111312_fnca	2	1	1	-1633424485	1	75.031	75.030	2.0.10.147	2.0.10.242	2.0.10.242	1.0.0.439	7	234	2	3	Verdana	1	80	0	0	0	WM Stimuli\	1	943.6	1	710.8	1	962.8	1	597.8	1	971	1	683.6	0.7	782.714285714286	1	741	13	324058	1	324046	27	40	324085	-999999	324060	0	41	TrialsPROC	PL_023_SCENE_09.png	2	2	90	SessionSelectionList														nonlure	3	Place	0-Back	79	80	78	0	0	100	1	40	303440	1	13	85	301400	-1	302060	1	660	3	3	2040	53	303453	-54	0																90												
WM080112	111312_fnca	2	1	1	-1633424485	1	75.031	75.030	2.0.10.147	2.0.10.242	2.0.10.242	1.0.0.439	7	234	2	3	Verdana	1	80	0	0	0	WM Stimuli\	1	943.6	1	710.8	1	962.8	1	597.8	1	971	1	683.6	0.7	782.714285714286	1	741	13	324058	1	324046	27	40	324085	-999999	324060	0	41	TrialsPROC	PL_024_SCENE_10.png	2	2	91	SessionSelectionList														nonlure	3	Place	0-Back	80	80	79	0	0	100	2	39	306012	1	13	73	303973	-1	304818	1	845	3	3	2039	52	306025	-53	0																91												
WM080112	111312_fnca	2	1	1	-1633424485	1	75.031	75.030	2.0.10.147	2.0.10.242	2.0.10.242	1.0.0.439	7	234	2	3	Verdana	1	80	0	0	0	WM Stimuli\	1	943.6	1	710.8	1	962.8	1	597.8	1	971	1	683.6	0.7	782.714285714286	1	741	13	324058	1	324046	27	40	324085	-999999	324060	0	41	TrialsPROC	PL_022_SCENE_08.png	2	2	92	SessionSelectionList														lure	3	Place	0-Back	80	80	80	0	0	100	3	39	308584	1	14	72	306545	-1	307253	1	708	3	3	2039	53	308598	-54	0																92												
WM080112	111312_fnca	2	1	1	-1633424485	1	75.031	75.030	2.0.10.147	2.0.10.242	2.0.10.242	1.0.0.439	7	234	2	3	Verdana	1	80	0	0	0	WM Stimuli\	1	943.6	1	710.8	1	962.8	1	597.8	1	971	1	683.6	0.7	782.714285714286	1	741	13	324058	1	324046	27	40	324085	-999999	324060	0	42	Fix15secPROC	""	2	2	93	SessionSelectionList																																															6	309051	-7	0							93												
