ExperimentName	HCPID	RunNumber	Subject	Session	RandomSeed	Group	Laptop.RefreshRate	ScannerD2.RefreshRate	StudioVersion	RuntimeVersion	RuntimeVersionExpected	ExperimentVersion	triggercode	Allowed	Target	Nontarget	FontStyle	RunTrialNumber[Session]	TrialsPerRun[Session]	TotalRespGreater200[Session]	ConsecRTLess200[Session]	ConsecNonResp[Session]	StimuliDir	ACC_2_Back_Body	Avg_RT_For_Correct_Trials_2_Back_Body	ACC_0_Back_Body	Avg_RT_For_Correct_Trials_0_Back_Body	ACC_2_Back_Face	Avg_RT_For_Correct_Trials_2_Back_Face	ACC_0_Back_Face	Avg_RT_For_Correct_Trials_0_Back_Face	ACC_2_Back_Place	Avg_RT_For_Correct_Trials_2_Back_Place	ACC_0_Back_Place	Avg_RT_For_Correct_Trials_0_Back_Place	ACC_2_Back_Tools	Avg_RT_For_Correct_Trials_2_Back_Tools	ACC_0_Back_Tools	Avg_RT_For_Correct_Trials_0_Back_Tools	ExpInstrucFeelFreeToRest.OnsetDelay	ExpInstrucFeelFreeToRest.OnsetTime	ExpInstrucFeelFreeToRest.DurationError	ExpInstrucFeelFreeToRest.StartTime	ExpInstrucFeelFreeToRest.OnsetToOnsetTime	FeelFreeToRest.OnsetDelay	FeelFreeToRest.OnsetTime	FeelFreeToRest.DurationError	FeelFreeToRest.StartTime	FeelFreeToRest.OnsetToOnsetTime	SessionSelectionList	Procedure[Block]	Stimulus[Block]	RunNumberFilterValue	SessionSelectionList.Cycle	SessionSelectionList.Sample	Running[Block]	IntroButtonMap.OnsetDelay	IntroButtonMap.OnsetTime	IntroButtonMap.DurationError	IntroButtonMap.OnsetToOnsetTime	GetReady.OnsetDelay	GetReady.OnsetTime	GetReady.DurationError	GetReady.OnsetToOnsetTime	Cue2Back.OnsetDelay	Cue2Back.OnsetTime	Cue2Back.DurationError	Cue2Back.OnsetToOnsetTime	Run1Block1	TargetType	CorrectResponse	StimType	BlockType	RunTrialNumber[Block]	TrialsPerRun[Block]	TotalRespGreater200[Block]	ConsecRTLess200[Block]	ConsecNonResp[Block]	ControlAcc	ConsecSameResp	ExperimenterWindow.OnsetDelay	ExperimenterWindow.OnsetTime	ExperimenterWindow.DurationError	ExperimenterWindow.OnsetToOnsetTime	Stim.OnsetDelay	Stim.OnsetTime	Stim.DurationError	Stim.RTTime	Stim.ACC	Stim.RT	Stim.RESP	Stim.CRESP	Stim.OnsetToOnsetTime	Fix.OnsetDelay	Fix.OnsetTime	Fix.DurationError	Fix.OnsetToOnsetTime	CueTarget.OnsetDelay	CueTarget.OnsetTime	CueTarget.DurationError	CueTarget.OnsetToOnsetTime	Run1Block2	Fix15sec.OnsetDelay	Fix15sec.OnsetTime	Fix15sec.DurationError	Fix15sec.OnsetToOnsetTime	Run1Block3	Run1Block4	Run1Block5	Run1Block6	Run1Block7	Run1Block8	Block	Procedure[Trial]	Stimulus[Trial]	ReadyList	Running[Trial]	ReadyList.Cycle	ReadyList.Sample	SyncSlide.OnsetDelay	SyncSlide.OnsetTime	SyncSlide.DurationError	SyncSlide.FinishTime	SyncSlide.OnsetToOnsetTime	Trial
WM080112	151526_fnca	1	1	1	-591395923	1	75.031	75.030	2.0.10.147	2.0.10.242	2.0.10.242	1.0.0.439	7	234	2	3	Verdana	1	80	0	0	0	WM Stimuli\	0.6	1431	0.6	1316.5	0.8	1029.625	0.9	1238.66666666667	0.7	1041.85714285714	1	1153.5	0.9	1163.22222222222	0.8	1298.625	13	559550	2	559538	27	40	559577	-999999	559553	0	1	TRSyncPROC	""	1	2	1	SessionSelectionList	117	40840	-999999	0	34	253181	-999999	0																																																	1	InitialTR	4	1	ReadyList	1	1	12	266229	-13	268216	0	1
WM080112	151526_fnca	1	1	1	-591395923	1	75.031	75.030	2.0.10.147	2.0.10.242	2.0.10.242	1.0.0.439	7	234	2	3	Verdana	1	80	0	0	0	WM Stimuli\	0.6	1431	0.6	1316.5	0.8	1029.625	0.9	1238.66666666667	0.7	1041.85714285714	1	1153.5	0.9	1163.22222222222	0.8	1298.625	13	559550	2	559538	27	40	559577	-999999	559553	0	1	TRSyncPROC	""	1	2	1	SessionSelectionList	117	40840	-999999	0	34	253181	-999999	0																																																	1	InitialTR	3	2	ReadyList	1	2	11	268228	-12	270216	0	2
WM080112	151526_fnca	1	1	1	-591395923	1	75.031	75.030	2.0.10.147	2.0.10.242	2.0.10.242	1.0.0.439	7	234	2	3	Verdana	1	80	0	0	0	WM Stimuli\	0.6	1431	0.6	1316.5	0.8	1029.625	0.9	1238.66666666667	0.7	1041.85714285714	1	1153.5	0.9	1163.22222222222	0.8	1298.625	13	559550	2	559538	27	40	559577	-999999	559553	0	1	TRSyncPROC	""	1	2	1	SessionSelectionList	117	40840	-999999	0	34	253181	-999999	0																																																	1	InitialTR	2	3	ReadyList	1	3	10	270227	-11	272216	0	3
WM080112	151526_fnca	1	1	1	-591395923	1	75.031	75.030	2.0.10.147	2.0.10.242	2.0.10.242	1.0.0.439	7	234	2	3	Verdana	1	80	0	0	0	WM Stimuli\	0.6	1431	0.6	1316.5	0.8	1029.625	0.9	1238.66666666667	0.7	1041.85714285714	1	1153.5	0.9	1163.22222222222	0.8	1298.625	13	559550	2	559538	27	40	559577	-999999	559553	0	1	TRSyncPROC	""	1	2	1	SessionSelectionList	117	40840	-999999	0	34	253181	-999999	0																																																	1	InitialTR	1	4	ReadyList	1	4	9	272226	-10	274216	0	4
WM080112	151526_fnca	1	1	1	-591395923	1	75.031	75.030	2.0.10.147	2.0.10.242	2.0.10.242	1.0.0.439	7	234	2	3	Verdana	1	80	0	0	0	WM Stimuli\	0.6	1431	0.6	1316.5	0.8	1029.625	0.9	1238.66666666667	0.7	1041.85714285714	1	1153.5	0.9	1163.22222222222	0.8	1298.625	13	559550	2	559538	27	40	559577	-999999	559553	0	2	Cue2BackPROC	""	1	2	2	SessionSelectionList									9	274226	-10	0																																													2												
WM080112	151526_fnca	1	1	1	-591395923	1	75.031	75.030	2.0.10.147	2.0.10.242	2.0.10.242	1.0.0.439	7	234	2	3	Verdana	1	80	0	0	0	WM Stimuli\	0.6	1431	0.6	1316.5	0.8	1029.625	0.9	1238.66666666667	0.7	1041.85714285714	1	1153.5	0.9	1163.22222222222	0.8	1298.625	13	559550	2	559538	27	40	559577	-999999	559553	0	3	TrialsPROC	BP_002_BP10_BA.png	1	2	3	SessionSelectionList													1	nonlure	3	Body	2-Back	2	80	0	0	1	0	0	52	278850	3	14	81	276798	-1	0	0	0	""	3	2052	66	278864	-67	0																3												
WM080112	151526_fnca	1	1	1	-591395923	1	75.031	75.030	2.0.10.147	2.0.10.242	2.0.10.242	1.0.0.439	7	234	2	3	Verdana	1	80	0	0	0	WM Stimuli\	0.6	1431	0.6	1316.5	0.8	1029.625	0.9	1238.66666666667	0.7	1041.85714285714	1	1153.5	0.9	1163.22222222222	0.8	1298.625	13	559550	2	559538	27	40	559577	-999999	559553	0	3	TrialsPROC	BP_001_BP1_BA.png	1	2	4	SessionSelectionList													2	nonlure	3	Body	2-Back	3	80	1	0	0	0	1	39	281409	3	14	72	279370	-1	280211	1	841	3	3	2039	53	281423	-54	0																4												
WM080112	151526_fnca	1	1	1	-591395923	1	75.031	75.030	2.0.10.147	2.0.10.242	2.0.10.242	1.0.0.439	7	234	2	3	Verdana	1	80	0	0	0	WM Stimuli\	0.6	1431	0.6	1316.5	0.8	1029.625	0.9	1238.66666666667	0.7	1041.85714285714	1	1153.5	0.9	1163.22222222222	0.8	1298.625	13	559550	2	559538	27	40	559577	-999999	559553	0	3	TrialsPROC	BP_006_BP2_BA.png	1	2	5	SessionSelectionList													3	nonlure	3	Body	2-Back	4	80	2	0	0	0	1	39	283968	2	14	59	281929	-1	283031	0	1102	2	3	2039	53	283982	-54	0																5												
WM080112	151526_fnca	1	1	1	-591395923	1	75.031	75.030	2.0.10.147	2.0.10.242	2.0.10.242	1.0.0.439	7	234	2	3	Verdana	1	80	0	0	0	WM Stimuli\	0.6	1431	0.6	1316.5	0.8	1029.625	0.9	1238.66666666667	0.7	1041.85714285714	1	1153.5	0.9	1163.22222222222	0.8	1298.625	13	559550	2	559538	27	40	559577	-999999	559553	0	3	TrialsPROC	BP_001_BP1_BA.png	1	2	6	SessionSelectionList													4	target	2	Body	2-Back	5	80	3	0	0	0	1	40	286541	1	13	72	284501	-1	286331	0	1830	3	2	2040	53	286554	-54	0																6												
WM080112	151526_fnca	1	1	1	-591395923	1	75.031	75.030	2.0.10.147	2.0.10.242	2.0.10.242	1.0.0.439	7	234	2	3	Verdana	1	80	0	0	0	WM Stimuli\	0.6	1431	0.6	1316.5	0.8	1029.625	0.9	1238.66666666667	0.7	1041.85714285714	1	1153.5	0.9	1163.22222222222	0.8	1298.625	13	559550	2	559538	27	40	559577	-999999	559553	0	3	TrialsPROC	BP_005_BP19_BA.png	1	2	7	SessionSelectionList													5	nonlure	3	Body	2-Back	6	80	4	0	0	0	2	39	289113	1	13	73	287074	-1	288612	1	1538	3	3	2039	52	289126	-53	0																7												
WM080112	151526_fnca	1	1	1	-591395923	1	75.031	75.030	2.0.10.147	2.0.10.242	2.0.10.242	1.0.0.439	7	234	2	3	Verdana	1	80	0	0	0	WM Stimuli\	0.6	1431	0.6	1316.5	0.8	1029.625	0.9	1238.66666666667	0.7	1041.85714285714	1	1153.5	0.9	1163.22222222222	0.8	1298.625	13	559550	2	559538	27	40	559577	-999999	559553	0	3	TrialsPROC	BP_003_BP16_BA.png	1	2	8	SessionSelectionList													6	nonlure	3	Body	2-Back	7	80	5	0	0	0	3	39	291672	2	13	59	289633	-1	290828	1	1195	3	3	2039	52	291685	-53	0																8												
WM080112	151526_fnca	1	1	1	-591395923	1	75.031	75.030	2.0.10.147	2.0.10.242	2.0.10.242	1.0.0.439	7	234	2	3	Verdana	1	80	0	0	0	WM Stimuli\	0.6	1431	0.6	1316.5	0.8	1029.625	0.9	1238.66666666667	0.7	1041.85714285714	1	1153.5	0.9	1163.22222222222	0.8	1298.625	13	559550	2	559538	27	40	559577	-999999	559553	0	3	TrialsPROC	BP_006_BP2_BA.png	1	2	9	SessionSelectionList													7	lure	3	Body	2-Back	8	80	6	0	0	0	4	39	294231	1	13	59	292192	-1	293834	1	1642	3	3	2039	52	294244	-53	0																9												
WM080112	151526_fnca	1	1	1	-591395923	1	75.031	75.030	2.0.10.147	2.0.10.242	2.0.10.242	1.0.0.439	7	234	2	3	Verdana	1	80	0	0	0	WM Stimuli\	0.6	1431	0.6	1316.5	0.8	1029.625	0.9	1238.66666666667	0.7	1041.85714285714	1	1153.5	0.9	1163.22222222222	0.8	1298.625	13	559550	2	559538	27	40	559577	-999999	559553	0	3	TrialsPROC	BP_004_BP18_BA.png	1	2	10	SessionSelectionList													8	nonlure	3	Body	2-Back	9	80	7	0	0	0	5	39	296790	1	13	59	294751	-1	296267	1	1516	3	3	2039	52	296803	-53	0																10												
WM080112	151526_fnca	1	1	1	-591395923	1	75.031	75.030	2.0.10.147	2.0.10.242	2.0.10.242	1.0.0.439	7	234	2	3	Verdana	1	80	0	0	0	WM Stimuli\	0.6	1431	0.6	1316.5	0.8	1029.625	0.9	1238.66666666667	0.7	1041.85714285714	1	1153.5	0.9	1163.22222222222	0.8	1298.625	13	559550	2	559538	27	40	559577	-999999	559553	0	3	TrialsPROC	BP_005_BP19_BA.png	1	2	11	SessionSelectionList													9	lure	3	Body	2-Back	10	80	8	0	0	0	1	39	299349	1	13	59	297310	-1	298799	0	1489	2	3	2039	52	299362	-53	0																11												
WM080112	151526_fnca	1	1	1	-591395923	1	75.031	75.030	2.0.10.147	2.0.10.242	2.0.10.242	1.0.0.439	7	234	2	3	Verdana	1	80	0	0	0	WM Stimuli\	0.6	1431	0.6	1316.5	0.8	1029.625	0.9	1238.66666666667	0.7	1041.85714285714	1	1153.5	0.9	1163.22222222222	0.8	1298.625	13	559550	2	559538	27	40	559577	-999999	559553	0	3	TrialsPROC	BP_004_BP18_BA.png	1	2	12	SessionSelectionList													10	target	2	Body	2-Back	11	80	9	0	0	0	2	40	301908	1	13	58	299868	-1	301722	1	1854	2	2	2040	53	301921	-54	0																12												
WM080112	151526_fnca	1	1	1	-591395923	1	75.031	75.030	2.0.10.147	2.0.10.242	2.0.10.242	1.0.0.439	7	234	2	3	Verdana	1	80	0	0	0	WM Stimuli\	0.6	1431	0.6	1316.5	0.8	1029.625	0.9	1238.66666666667	0.7	1041.85714285714	1	1153.5	0.9	1163.22222222222	0.8	1298.625	13	559550	2	559538	27	40	559577	-999999	559553	0	4	Cue0BackPROC	FC_001_M1.png	1	2	13	SessionSelectionList																																										19	302387	-20	0												13												
WM080112	151526_fnca	1	1	1	-591395923	1	75.031	75.030	2.0.10.147	2.0.10.242	2.0.10.242	1.0.0.439	7	234	2	3	Verdana	1	80	0	0	0	WM Stimuli\	0.6	1431	0.6	1316.5	0.8	1029.625	0.9	1238.66666666667	0.7	1041.85714285714	1	1153.5	0.9	1163.22222222222	0.8	1298.625	13	559550	2	559538	27	40	559577	-999999	559553	0	5	TrialsPROC	FC_005_M3.png	1	2	14	SessionSelectionList														nonlure	3	Face	0-Back	12	80	10	0	0	100	1	39	306972	2	14	65	304933	-1	305904	1	971	3	3	2039	53	306986	-54	0					1											14												
WM080112	151526_fnca	1	1	1	-591395923	1	75.031	75.030	2.0.10.147	2.0.10.242	2.0.10.242	1.0.0.439	7	234	2	3	Verdana	1	80	0	0	0	WM Stimuli\	0.6	1431	0.6	1316.5	0.8	1029.625	0.9	1238.66666666667	0.7	1041.85714285714	1	1153.5	0.9	1163.22222222222	0.8	1298.625	13	559550	2	559538	27	40	559577	-999999	559553	0	5	TrialsPROC	FC_001_M1.png	1	2	15	SessionSelectionList														target	2	Face	0-Back	13	80	11	0	0	50	2	40	309545	1	13	72	307505	-1	309100	0	1595	3	2	2040	53	309558	-54	0					2											15												
WM080112	151526_fnca	1	1	1	-591395923	1	75.031	75.030	2.0.10.147	2.0.10.242	2.0.10.242	1.0.0.439	7	234	2	3	Verdana	1	80	0	0	0	WM Stimuli\	0.6	1431	0.6	1316.5	0.8	1029.625	0.9	1238.66666666667	0.7	1041.85714285714	1	1153.5	0.9	1163.22222222222	0.8	1298.625	13	559550	2	559538	27	40	559577	-999999	559553	0	5	TrialsPROC	FC_003_M2.png	1	2	16	SessionSelectionList														nonlure	3	Face	0-Back	14	80	12	0	0	67	3	39	312117	1	13	73	310078	-1	311773	1	1695	3	3	2039	52	312130	-53	0					3											16												
WM080112	151526_fnca	1	1	1	-591395923	1	75.031	75.030	2.0.10.147	2.0.10.242	2.0.10.242	1.0.0.439	7	234	2	3	Verdana	1	80	0	0	0	WM Stimuli\	0.6	1431	0.6	1316.5	0.8	1029.625	0.9	1238.66666666667	0.7	1041.85714285714	1	1153.5	0.9	1163.22222222222	0.8	1298.625	13	559550	2	559538	27	40	559577	-999999	559553	0	5	TrialsPROC	FC_004_F2.png	1	2	17	SessionSelectionList														nonlure	3	Face	0-Back	15	80	13	0	0	75	4	39	314689	2	14	72	312650	-1	313935	1	1285	3	3	2039	53	314703	-54	0					4											17												
WM080112	151526_fnca	1	1	1	-591395923	1	75.031	75.030	2.0.10.147	2.0.10.242	2.0.10.242	1.0.0.439	7	234	2	3	Verdana	1	80	0	0	0	WM Stimuli\	0.6	1431	0.6	1316.5	0.8	1029.625	0.9	1238.66666666667	0.7	1041.85714285714	1	1153.5	0.9	1163.22222222222	0.8	1298.625	13	559550	2	559538	27	40	559577	-999999	559553	0	5	TrialsPROC	FC_004_F2.png	1	2	18	SessionSelectionList														lure	3	Face	0-Back	16	80	14	0	0	80	5	39	317261	2	14	72	315222	-1	316579	1	1357	3	3	2039	53	317275	-54	0					5											18												
WM080112	151526_fnca	1	1	1	-591395923	1	75.031	75.030	2.0.10.147	2.0.10.242	2.0.10.242	1.0.0.439	7	234	2	3	Verdana	1	80	0	0	0	WM Stimuli\	0.6	1431	0.6	1316.5	0.8	1029.625	0.9	1238.66666666667	0.7	1041.85714285714	1	1153.5	0.9	1163.22222222222	0.8	1298.625	13	559550	2	559538	27	40	559577	-999999	559553	0	5	TrialsPROC	FC_001_M1.png	1	2	19	SessionSelectionList														target	2	Face	0-Back	17	80	15	0	0	83	1	39	319834	1	13	73	317795	-1	319155	1	1360	2	2	2039	52	319847	-53	0					6											19												
WM080112	151526_fnca	1	1	1	-591395923	1	75.031	75.030	2.0.10.147	2.0.10.242	2.0.10.242	1.0.0.439	7	234	2	3	Verdana	1	80	0	0	0	WM Stimuli\	0.6	1431	0.6	1316.5	0.8	1029.625	0.9	1238.66666666667	0.7	1041.85714285714	1	1153.5	0.9	1163.22222222222	0.8	1298.625	13	559550	2	559538	27	40	559577	-999999	559553	0	5	TrialsPROC	FC_006_F3.png	1	2	20	SessionSelectionList														nonlure	3	Face	0-Back	18	80	16	0	0	86	1	39	322406	1	14	72	320367	-1	321246	1	879	3	3	2039	53	322420	-54	0					7											20												
WM080112	151526_fnca	1	1	1	-591395923	1	75.031	75.030	2.0.10.147	2.0.10.242	2.0.10.242	1.0.0.439	7	234	2	3	Verdana	1	80	0	0	0	WM Stimuli\	0.6	1431	0.6	1316.5	0.8	1029.625	0.9	1238.66666666667	0.7	1041.85714285714	1	1153.5	0.9	1163.22222222222	0.8	1298.625	13	559550	2	559538	27	40	559577	-999999	559553	0	5	TrialsPROC	FC_006_F3.png	1	2	21	SessionSelectionList														lure	3	Face	0-Back	19	80	17	0	0	88	2	39	324978	2	14	72	322939	-1	323875	1	936	3	3	2039	53	324992	-54	0					8											21												
WM080112	151526_fnca	1	1	1	-591395923	1	75.031	75.030	2.0.10.147	2.0.10.242	2.0.10.242	1.0.0.439	7	234	2	3	Verdana	1	80	0	0	0	WM Stimuli\	0.6	1431	0.6	1316.5	0.8	1029.625	0.9	1238.66666666667	0.7	1041.85714285714	1	1153.5	0.9	1163.22222222222	0.8	1298.625	13	559550	2	559538	27	40	559577	-999999	559553	0	5	TrialsPROC	FC_003_M2.png	1	2	22	SessionSelectionList														lure	3	Face	0-Back	20	80	18	0	0	89	3	40	327551	1	13	72	325511	-1	327014	1	1503	3	3	2040	53	327564	-54	0					9											22												
WM080112	151526_fnca	1	1	1	-591395923	1	75.031	75.030	2.0.10.147	2.0.10.242	2.0.10.242	1.0.0.439	7	234	2	3	Verdana	1	80	0	0	0	WM Stimuli\	0.6	1431	0.6	1316.5	0.8	1029.625	0.9	1238.66666666667	0.7	1041.85714285714	1	1153.5	0.9	1163.22222222222	0.8	1298.625	13	559550	2	559538	27	40	559577	-999999	559553	0	5	TrialsPROC	FC_002_F1.png	1	2	23	SessionSelectionList														nonlure	3	Face	0-Back	21	80	19	0	0	90	4	39	330123	1	13	73	328084	-1	329246	1	1162	3	3	2039	52	330136	-53	0					10											23												
WM080112	151526_fnca	1	1	1	-591395923	1	75.031	75.030	2.0.10.147	2.0.10.242	2.0.10.242	1.0.0.439	7	234	2	3	Verdana	1	80	0	0	0	WM Stimuli\	0.6	1431	0.6	1316.5	0.8	1029.625	0.9	1238.66666666667	0.7	1041.85714285714	1	1153.5	0.9	1163.22222222222	0.8	1298.625	13	559550	2	559538	27	40	559577	-999999	559553	0	6	Fix15secPROC	""	1	2	24	SessionSelectionList																																															6	330590	-7	0							24												
WM080112	151526_fnca	1	1	1	-591395923	1	75.031	75.030	2.0.10.147	2.0.10.242	2.0.10.242	1.0.0.439	7	234	2	3	Verdana	1	80	0	0	0	WM Stimuli\	0.6	1431	0.6	1316.5	0.8	1029.625	0.9	1238.66666666667	0.7	1041.85714285714	1	1153.5	0.9	1163.22222222222	0.8	1298.625	13	559550	2	559538	27	40	559577	-999999	559553	0	7	Cue2BackPROC	""	1	2	25	SessionSelectionList									13	345597	-14	0																																													25												
WM080112	151526_fnca	1	1	1	-591395923	1	75.031	75.030	2.0.10.147	2.0.10.242	2.0.10.242	1.0.0.439	7	234	2	3	Verdana	1	80	0	0	0	WM Stimuli\	0.6	1431	0.6	1316.5	0.8	1029.625	0.9	1238.66666666667	0.7	1041.85714285714	1	1153.5	0.9	1163.22222222222	0.8	1298.625	13	559550	2	559538	27	40	559577	-999999	559553	0	8	TrialsPROC	TO_001_TOOL1_BA.png	1	2	26	SessionSelectionList														nonlure	3	Tools	2-Back	22	80	20	0	0	90	5	39	350181	2	14	58	348142	-1	349375	1	1233	3	3	2039	53	350195	-54	0										1						26												
WM080112	151526_fnca	1	1	1	-591395923	1	75.031	75.030	2.0.10.147	2.0.10.242	2.0.10.242	1.0.0.439	7	234	2	3	Verdana	1	80	0	0	0	WM Stimuli\	0.6	1431	0.6	1316.5	0.8	1029.625	0.9	1238.66666666667	0.7	1041.85714285714	1	1153.5	0.9	1163.22222222222	0.8	1298.625	13	559550	2	559538	27	40	559577	-999999	559553	0	8	TrialsPROC	TO_002_TOOL2_BA.png	1	2	27	SessionSelectionList														nonlure	3	Tools	2-Back	23	80	21	0	0	90	6	39	352740	2	14	59	350701	-1	351531	1	830	3	3	2039	53	352754	-54	0										2						27												
WM080112	151526_fnca	1	1	1	-591395923	1	75.031	75.030	2.0.10.147	2.0.10.242	2.0.10.242	1.0.0.439	7	234	2	3	Verdana	1	80	0	0	0	WM Stimuli\	0.6	1431	0.6	1316.5	0.8	1029.625	0.9	1238.66666666667	0.7	1041.85714285714	1	1153.5	0.9	1163.22222222222	0.8	1298.625	13	559550	2	559538	27	40	559577	-999999	559553	0	8	TrialsPROC	TO_004_TOOL4_BA.png	1	2	28	SessionSelectionList														nonlure	3	Tools	2-Back	24	80	22	0	0	90	7	39	355299	2	14	59	353260	-1	354506	1	1246	3	3	2039	53	355313	-54	0										3						28												
WM080112	151526_fnca	1	1	1	-591395923	1	75.031	75.030	2.0.10.147	2.0.10.242	2.0.10.242	1.0.0.439	7	234	2	3	Verdana	1	80	0	0	0	WM Stimuli\	0.6	1431	0.6	1316.5	0.8	1029.625	0.9	1238.66666666667	0.7	1041.85714285714	1	1153.5	0.9	1163.22222222222	0.8	1298.625	13	559550	2	559538	27	40	559577	-999999	559553	0	8	TrialsPROC	TO_002_TOOL2_BA.png	1	2	29	SessionSelectionList														target	2	Tools	2-Back	25	80	23	0	0	90	1	39	357858	2	14	59	355819	-1	357252	1	1433	2	2	2039	53	357872	-54	0										4						29												
WM080112	151526_fnca	1	1	1	-591395923	1	75.031	75.030	2.0.10.147	2.0.10.242	2.0.10.242	1.0.0.439	7	234	2	3	Verdana	1	80	0	0	0	WM Stimuli\	0.6	1431	0.6	1316.5	0.8	1029.625	0.9	1238.66666666667	0.7	1041.85714285714	1	1153.5	0.9	1163.22222222222	0.8	1298.625	13	559550	2	559538	27	40	559577	-999999	559553	0	8	TrialsPROC	TO_001_TOOL1_BA.png	1	2	30	SessionSelectionList														lure	3	Tools	2-Back	26	80	24	0	0	90	1	39	360417	2	14	59	358378	-1	359289	1	911	3	3	2039	53	360431	-54	0										5						30												
WM080112	151526_fnca	1	1	1	-591395923	1	75.031	75.030	2.0.10.147	2.0.10.242	2.0.10.242	1.0.0.439	7	234	2	3	Verdana	1	80	0	0	0	WM Stimuli\	0.6	1431	0.6	1316.5	0.8	1029.625	0.9	1238.66666666667	0.7	1041.85714285714	1	1153.5	0.9	1163.22222222222	0.8	1298.625	13	559550	2	559538	27	40	559577	-999999	559553	0	8	TrialsPROC	TO_004_TOOL4_BA.png	1	2	31	SessionSelectionList														lure	3	Tools	2-Back	27	80	25	0	0	90	1	39	362976	2	14	59	360937	-1	362001	0	1064	2	3	2039	53	362990	-54	0										6						31												
WM080112	151526_fnca	1	1	1	-591395923	1	75.031	75.030	2.0.10.147	2.0.10.242	2.0.10.242	1.0.0.439	7	234	2	3	Verdana	1	80	0	0	0	WM Stimuli\	0.6	1431	0.6	1316.5	0.8	1029.625	0.9	1238.66666666667	0.7	1041.85714285714	1	1153.5	0.9	1163.22222222222	0.8	1298.625	13	559550	2	559538	27	40	559577	-999999	559553	0	8	TrialsPROC	TO_006_TOOL6_BA.png	1	2	32	SessionSelectionList														nonlure	3	Tools	2-Back	28	80	26	0	0	90	1	39	365535	2	14	59	363496	-1	365237	1	1741	3	3	2039	53	365549	-54	0										7						32												
WM080112	151526_fnca	1	1	1	-591395923	1	75.031	75.030	2.0.10.147	2.0.10.242	2.0.10.242	1.0.0.439	7	234	2	3	Verdana	1	80	0	0	0	WM Stimuli\	0.6	1431	0.6	1316.5	0.8	1029.625	0.9	1238.66666666667	0.7	1041.85714285714	1	1153.5	0.9	1163.22222222222	0.8	1298.625	13	559550	2	559538	27	40	559577	-999999	559553	0	8	TrialsPROC	TO_005_TOOL5_BA.png	1	2	33	SessionSelectionList														nonlure	3	Tools	2-Back	29	80	27	0	0	90	2	39	368094	2	14	59	366055	-1	367237	1	1182	3	3	2039	53	368108	-54	0										8						33												
WM080112	151526_fnca	1	1	1	-591395923	1	75.031	75.030	2.0.10.147	2.0.10.242	2.0.10.242	1.0.0.439	7	234	2	3	Verdana	1	80	0	0	0	WM Stimuli\	0.6	1431	0.6	1316.5	0.8	1029.625	0.9	1238.66666666667	0.7	1041.85714285714	1	1153.5	0.9	1163.22222222222	0.8	1298.625	13	559550	2	559538	27	40	559577	-999999	559553	0	8	TrialsPROC	TO_006_TOOL6_BA.png	1	2	34	SessionSelectionList														target	2	Tools	2-Back	30	80	28	0	0	90	1	39	370653	1	14	59	368614	-1	369645	1	1031	2	2	2039	53	370667	-54	0										9						34												
WM080112	151526_fnca	1	1	1	-591395923	1	75.031	75.030	2.0.10.147	2.0.10.242	2.0.10.242	1.0.0.439	7	234	2	3	Verdana	1	80	0	0	0	WM Stimuli\	0.6	1431	0.6	1316.5	0.8	1029.625	0.9	1238.66666666667	0.7	1041.85714285714	1	1153.5	0.9	1163.22222222222	0.8	1298.625	13	559550	2	559538	27	40	559577	-999999	559553	0	8	TrialsPROC	TO_003_TOOL3_BA.png	1	2	35	SessionSelectionList														nonlure	3	Tools	2-Back	31	80	29	0	0	90	1	39	373212	2	14	59	371173	-1	372035	1	862	3	3	2039	53	373226	-54	0										10						35												
WM080112	151526_fnca	1	1	1	-591395923	1	75.031	75.030	2.0.10.147	2.0.10.242	2.0.10.242	1.0.0.439	7	234	2	3	Verdana	1	80	0	0	0	WM Stimuli\	0.6	1431	0.6	1316.5	0.8	1029.625	0.9	1238.66666666667	0.7	1041.85714285714	1	1153.5	0.9	1163.22222222222	0.8	1298.625	13	559550	2	559538	27	40	559577	-999999	559553	0	9	Cue0BackPROC	BP_007_BP20_BA.png	1	2	36	SessionSelectionList																																										19	373692	-20	0												36												
WM080112	151526_fnca	1	1	1	-591395923	1	75.031	75.030	2.0.10.147	2.0.10.242	2.0.10.242	1.0.0.439	7	234	2	3	Verdana	1	80	0	0	0	WM Stimuli\	0.6	1431	0.6	1316.5	0.8	1029.625	0.9	1238.66666666667	0.7	1041.85714285714	1	1153.5	0.9	1163.22222222222	0.8	1298.625	13	559550	2	559538	27	40	559577	-999999	559553	0	10	TrialsPROC	BP_007_BP20_BA.png	1	2	37	SessionSelectionList														target	2	Body	0-Back	32	80	30	0	0	91	1	39	378263	2	14	51	376224	-1	377932	1	1708	2	2	2039	53	378277	-54	0											1					37												
WM080112	151526_fnca	1	1	1	-591395923	1	75.031	75.030	2.0.10.147	2.0.10.242	2.0.10.242	1.0.0.439	7	234	2	3	Verdana	1	80	0	0	0	WM Stimuli\	0.6	1431	0.6	1316.5	0.8	1029.625	0.9	1238.66666666667	0.7	1041.85714285714	1	1153.5	0.9	1163.22222222222	0.8	1298.625	13	559550	2	559538	27	40	559577	-999999	559553	0	10	TrialsPROC	BP_011_BP4_BA.png	1	2	38	SessionSelectionList														nonlure	3	Body	0-Back	33	80	31	0	0	92	1	40	380836	1	13	72	378796	-1	379660	1	864	3	3	2040	53	380849	-54	0											2					38												
WM080112	151526_fnca	1	1	1	-591395923	1	75.031	75.030	2.0.10.147	2.0.10.242	2.0.10.242	1.0.0.439	7	234	2	3	Verdana	1	80	0	0	0	WM Stimuli\	0.6	1431	0.6	1316.5	0.8	1029.625	0.9	1238.66666666667	0.7	1041.85714285714	1	1153.5	0.9	1163.22222222222	0.8	1298.625	13	559550	2	559538	27	40	559577	-999999	559553	0	10	TrialsPROC	BP_010_BP3_BA.png	1	2	39	SessionSelectionList														nonlure	3	Body	0-Back	34	80	32	0	0	92	2	39	383395	1	13	60	381356	-1	382673	1	1317	3	3	2039	52	383408	-53	0											3					39												
WM080112	151526_fnca	1	1	1	-591395923	1	75.031	75.030	2.0.10.147	2.0.10.242	2.0.10.242	1.0.0.439	7	234	2	3	Verdana	1	80	0	0	0	WM Stimuli\	0.6	1431	0.6	1316.5	0.8	1029.625	0.9	1238.66666666667	0.7	1041.85714285714	1	1153.5	0.9	1163.22222222222	0.8	1298.625	13	559550	2	559538	27	40	559577	-999999	559553	0	10	TrialsPROC	BP_008_BP21_BA.png	1	2	40	SessionSelectionList														nonlure	3	Body	0-Back	35	80	33	0	0	93	3	40	385954	1	13	58	383914	-1	385894	1	1980	3	3	2040	53	385967	-54	0											4					40												
WM080112	151526_fnca	1	1	1	-591395923	1	75.031	75.030	2.0.10.147	2.0.10.242	2.0.10.242	1.0.0.439	7	234	2	3	Verdana	1	80	0	0	0	WM Stimuli\	0.6	1431	0.6	1316.5	0.8	1029.625	0.9	1238.66666666667	0.7	1041.85714285714	1	1153.5	0.9	1163.22222222222	0.8	1298.625	13	559550	2	559538	27	40	559577	-999999	559553	0	10	TrialsPROC	BP_011_BP4_BA.png	1	2	41	SessionSelectionList														lure	3	Body	0-Back	36	80	34	0	0	87	1	39	388512	2	14	59	386473	-1	387725	0	1252	2	3	2039	53	388526	-54	0											5					41												
WM080112	151526_fnca	1	1	1	-591395923	1	75.031	75.030	2.0.10.147	2.0.10.242	2.0.10.242	1.0.0.439	7	234	2	3	Verdana	1	80	0	0	0	WM Stimuli\	0.6	1431	0.6	1316.5	0.8	1029.625	0.9	1238.66666666667	0.7	1041.85714285714	1	1153.5	0.9	1163.22222222222	0.8	1298.625	13	559550	2	559538	27	40	559577	-999999	559553	0	10	TrialsPROC	BP_009_BP22_BA.png	1	2	42	SessionSelectionList														nonlure	3	Body	0-Back	37	80	35	0	0	88	1	39	391071	2	14	59	389032	-1	389280	1	248	3	3	2039	53	391085	-54	0											6					42												
WM080112	151526_fnca	1	1	1	-591395923	1	75.031	75.030	2.0.10.147	2.0.10.242	2.0.10.242	1.0.0.439	7	234	2	3	Verdana	1	80	0	0	0	WM Stimuli\	0.6	1431	0.6	1316.5	0.8	1029.625	0.9	1238.66666666667	0.7	1041.85714285714	1	1153.5	0.9	1163.22222222222	0.8	1298.625	13	559550	2	559538	27	40	559577	-999999	559553	0	10	TrialsPROC	BP_009_BP22_BA.png	1	2	43	SessionSelectionList														lure	3	Body	0-Back	38	80	35	0	1	82	1	39	393630	2	14	59	391591	-1	0	0	0	""	3	2039	53	393644	-54	0											7					43												
WM080112	151526_fnca	1	1	1	-591395923	1	75.031	75.030	2.0.10.147	2.0.10.242	2.0.10.242	1.0.0.439	7	234	2	3	Verdana	1	80	0	0	0	WM Stimuli\	0.6	1431	0.6	1316.5	0.8	1029.625	0.9	1238.66666666667	0.7	1041.85714285714	1	1153.5	0.9	1163.22222222222	0.8	1298.625	13	559550	2	559538	27	40	559577	-999999	559553	0	10	TrialsPROC	BP_008_BP21_BA.png	1	2	44	SessionSelectionList														lure	3	Body	0-Back	39	80	36	0	0	78	1	39	396189	2	14	59	394150	-1	395486	0	1336	2	3	2039	53	396203	-54	0											8					44												
WM080112	151526_fnca	1	1	1	-591395923	1	75.031	75.030	2.0.10.147	2.0.10.242	2.0.10.242	1.0.0.439	7	234	2	3	Verdana	1	80	0	0	0	WM Stimuli\	0.6	1431	0.6	1316.5	0.8	1029.625	0.9	1238.66666666667	0.7	1041.85714285714	1	1153.5	0.9	1163.22222222222	0.8	1298.625	13	559550	2	559538	27	40	559577	-999999	559553	0	10	TrialsPROC	BP_007_BP20_BA.png	1	2	45	SessionSelectionList														target	2	Body	0-Back	40	80	37	0	0	74	1	39	398748	2	14	59	396709	-1	398293	0	1584	3	2	2039	53	398762	-54	0											9					45												
WM080112	151526_fnca	1	1	1	-591395923	1	75.031	75.030	2.0.10.147	2.0.10.242	2.0.10.242	1.0.0.439	7	234	2	3	Verdana	1	80	0	0	0	WM Stimuli\	0.6	1431	0.6	1316.5	0.8	1029.625	0.9	1238.66666666667	0.7	1041.85714285714	1	1153.5	0.9	1163.22222222222	0.8	1298.625	13	559550	2	559538	27	40	559577	-999999	559553	0	10	TrialsPROC	BP_012_BP5_BA.png	1	2	46	SessionSelectionList														nonlure	3	Body	0-Back	41	80	38	0	0	75	2	39	401307	2	14	59	399268	-1	401050	1	1782	3	3	2039	53	401321	-54	0											10					46												
WM080112	151526_fnca	1	1	1	-591395923	1	75.031	75.030	2.0.10.147	2.0.10.242	2.0.10.242	1.0.0.439	7	234	2	3	Verdana	1	80	0	0	0	WM Stimuli\	0.6	1431	0.6	1316.5	0.8	1029.625	0.9	1238.66666666667	0.7	1041.85714285714	1	1153.5	0.9	1163.22222222222	0.8	1298.625	13	559550	2	559538	27	40	559577	-999999	559553	0	11	Fix15secPROC	""	1	2	47	SessionSelectionList																																															6	401774	-7	0							47												
WM080112	151526_fnca	1	1	1	-591395923	1	75.031	75.030	2.0.10.147	2.0.10.242	2.0.10.242	1.0.0.439	7	234	2	3	Verdana	1	80	0	0	0	WM Stimuli\	0.6	1431	0.6	1316.5	0.8	1029.625	0.9	1238.66666666667	0.7	1041.85714285714	1	1153.5	0.9	1163.22222222222	0.8	1298.625	13	559550	2	559538	27	40	559577	-999999	559553	0	12	Cue0BackPROC	PL_001_92012.png	1	2	48	SessionSelectionList																																										13	416781	-14	0												48												
WM080112	151526_fnca	1	1	1	-591395923	1	75.031	75.030	2.0.10.147	2.0.10.242	2.0.10.242	1.0.0.439	7	234	2	3	Verdana	1	80	0	0	0	WM Stimuli\	0.6	1431	0.6	1316.5	0.8	1029.625	0.9	1238.66666666667	0.7	1041.85714285714	1	1153.5	0.9	1163.22222222222	0.8	1298.625	13	559550	2	559538	27	40	559577	-999999	559553	0	13	TrialsPROC	PL_003_92016.png	1	2	49	SessionSelectionList														nonlure	3	Place	0-Back	42	80	39	0	0	76	3	39	421366	1	13	59	419327	-1	420665	1	1338	3	3	2039	52	421379	-53	0												1				49												
WM080112	151526_fnca	1	1	1	-591395923	1	75.031	75.030	2.0.10.147	2.0.10.242	2.0.10.242	1.0.0.439	7	234	2	3	Verdana	1	80	0	0	0	WM Stimuli\	0.6	1431	0.6	1316.5	0.8	1029.625	0.9	1238.66666666667	0.7	1041.85714285714	1	1153.5	0.9	1163.22222222222	0.8	1298.625	13	559550	2	559538	27	40	559577	-999999	559553	0	13	TrialsPROC	PL_003_92016.png	1	2	50	SessionSelectionList														lure	3	Place	0-Back	43	80	40	0	0	77	4	39	423938	2	14	72	421899	-1	423412	1	1513	3	3	2039	53	423952	-54	0												2				50												
WM080112	151526_fnca	1	1	1	-591395923	1	75.031	75.030	2.0.10.147	2.0.10.242	2.0.10.242	1.0.0.439	7	234	2	3	Verdana	1	80	0	0	0	WM Stimuli\	0.6	1431	0.6	1316.5	0.8	1029.625	0.9	1238.66666666667	0.7	1041.85714285714	1	1153.5	0.9	1163.22222222222	0.8	1298.625	13	559550	2	559538	27	40	559577	-999999	559553	0	13	TrialsPROC	PL_006_92025.png	1	2	51	SessionSelectionList														nonlure	3	Place	0-Back	44	80	41	0	0	78	5	39	426497	2	14	59	424458	-1	426113	1	1655	3	3	2039	53	426511	-54	0												3				51												
WM080112	151526_fnca	1	1	1	-591395923	1	75.031	75.030	2.0.10.147	2.0.10.242	2.0.10.242	1.0.0.439	7	234	2	3	Verdana	1	80	0	0	0	WM Stimuli\	0.6	1431	0.6	1316.5	0.8	1029.625	0.9	1238.66666666667	0.7	1041.85714285714	1	1153.5	0.9	1163.22222222222	0.8	1298.625	13	559550	2	559538	27	40	559577	-999999	559553	0	13	TrialsPROC	PL_001_92012.png	1	2	52	SessionSelectionList														target	2	Place	0-Back	45	80	42	0	0	79	1	39	429056	1	14	59	427017	-1	428211	1	1194	2	2	2039	53	429070	-54	0												4				52												
WM080112	151526_fnca	1	1	1	-591395923	1	75.031	75.030	2.0.10.147	2.0.10.242	2.0.10.242	1.0.0.439	7	234	2	3	Verdana	1	80	0	0	0	WM Stimuli\	0.6	1431	0.6	1316.5	0.8	1029.625	0.9	1238.66666666667	0.7	1041.85714285714	1	1153.5	0.9	1163.22222222222	0.8	1298.625	13	559550	2	559538	27	40	559577	-999999	559553	0	13	TrialsPROC	PL_004_92023.png	1	2	53	SessionSelectionList														nonlure	3	Place	0-Back	46	80	43	0	0	80	1	39	431628	2	14	72	429589	-1	430453	1	864	3	3	2039	53	431642	-54	0												5				53												
WM080112	151526_fnca	1	1	1	-591395923	1	75.031	75.030	2.0.10.147	2.0.10.242	2.0.10.242	1.0.0.439	7	234	2	3	Verdana	1	80	0	0	0	WM Stimuli\	0.6	1431	0.6	1316.5	0.8	1029.625	0.9	1238.66666666667	0.7	1041.85714285714	1	1153.5	0.9	1163.22222222222	0.8	1298.625	13	559550	2	559538	27	40	559577	-999999	559553	0	13	TrialsPROC	PL_005_92024.png	1	2	54	SessionSelectionList														nonlure	3	Place	0-Back	47	80	44	0	0	81	2	40	434201	1	13	72	432161	-1	433415	1	1254	3	3	2040	53	434214	-54	0												6				54												
WM080112	151526_fnca	1	1	1	-591395923	1	75.031	75.030	2.0.10.147	2.0.10.242	2.0.10.242	1.0.0.439	7	234	2	3	Verdana	1	80	0	0	0	WM Stimuli\	0.6	1431	0.6	1316.5	0.8	1029.625	0.9	1238.66666666667	0.7	1041.85714285714	1	1153.5	0.9	1163.22222222222	0.8	1298.625	13	559550	2	559538	27	40	559577	-999999	559553	0	13	TrialsPROC	PL_001_92012.png	1	2	55	SessionSelectionList														target	2	Place	0-Back	48	80	45	0	0	81	1	40	436760	1	13	59	434720	-1	435785	1	1065	2	2	2040	53	436773	-54	0												7				55												
WM080112	151526_fnca	1	1	1	-591395923	1	75.031	75.030	2.0.10.147	2.0.10.242	2.0.10.242	1.0.0.439	7	234	2	3	Verdana	1	80	0	0	0	WM Stimuli\	0.6	1431	0.6	1316.5	0.8	1029.625	0.9	1238.66666666667	0.7	1041.85714285714	1	1153.5	0.9	1163.22222222222	0.8	1298.625	13	559550	2	559538	27	40	559577	-999999	559553	0	13	TrialsPROC	PL_002_92014.png	1	2	56	SessionSelectionList														nonlure	3	Place	0-Back	49	80	46	0	0	82	1	40	439319	1	13	59	437279	-1	438168	1	889	3	3	2040	53	439332	-54	0												8				56												
WM080112	151526_fnca	1	1	1	-591395923	1	75.031	75.030	2.0.10.147	2.0.10.242	2.0.10.242	1.0.0.439	7	234	2	3	Verdana	1	80	0	0	0	WM Stimuli\	0.6	1431	0.6	1316.5	0.8	1029.625	0.9	1238.66666666667	0.7	1041.85714285714	1	1153.5	0.9	1163.22222222222	0.8	1298.625	13	559550	2	559538	27	40	559577	-999999	559553	0	13	TrialsPROC	PL_004_92023.png	1	2	57	SessionSelectionList														lure	3	Place	0-Back	50	80	47	0	0	83	2	39	441891	1	13	73	439852	-1	440867	1	1015	3	3	2039	52	441904	-53	0												9				57												
WM080112	151526_fnca	1	1	1	-591395923	1	75.031	75.030	2.0.10.147	2.0.10.242	2.0.10.242	1.0.0.439	7	234	2	3	Verdana	1	80	0	0	0	WM Stimuli\	0.6	1431	0.6	1316.5	0.8	1029.625	0.9	1238.66666666667	0.7	1041.85714285714	1	1153.5	0.9	1163.22222222222	0.8	1298.625	13	559550	2	559538	27	40	559577	-999999	559553	0	13	TrialsPROC	PL_006_92025.png	1	2	58	SessionSelectionList														lure	3	Place	0-Back	51	80	48	0	0	83	3	39	444450	1	13	59	442411	-1	443159	1	748	3	3	2039	52	444463	-53	0												10				58												
WM080112	151526_fnca	1	1	1	-591395923	1	75.031	75.030	2.0.10.147	2.0.10.242	2.0.10.242	1.0.0.439	7	234	2	3	Verdana	1	80	0	0	0	WM Stimuli\	0.6	1431	0.6	1316.5	0.8	1029.625	0.9	1238.66666666667	0.7	1041.85714285714	1	1153.5	0.9	1163.22222222222	0.8	1298.625	13	559550	2	559538	27	40	559577	-999999	559553	0	14	Cue2BackPROC	""	1	2	59	SessionSelectionList									5	444916	-6	0																																													59												
WM080112	151526_fnca	1	1	1	-591395923	1	75.031	75.030	2.0.10.147	2.0.10.242	2.0.10.242	1.0.0.439	7	234	2	3	Verdana	1	80	0	0	0	WM Stimuli\	0.6	1431	0.6	1316.5	0.8	1029.625	0.9	1238.66666666667	0.7	1041.85714285714	1	1153.5	0.9	1163.22222222222	0.8	1298.625	13	559550	2	559538	27	40	559577	-999999	559553	0	15	TrialsPROC	FC_010_F5.png	1	2	60	SessionSelectionList														nonlure	3	Face	2-Back	52	80	49	0	0	83	4	39	449514	2	14	64	447475	-1	448732	1	1257	3	3	2039	53	449528	-54	0													1			60												
WM080112	151526_fnca	1	1	1	-591395923	1	75.031	75.030	2.0.10.147	2.0.10.242	2.0.10.242	1.0.0.439	7	234	2	3	Verdana	1	80	0	0	0	WM Stimuli\	0.6	1431	0.6	1316.5	0.8	1029.625	0.9	1238.66666666667	0.7	1041.85714285714	1	1153.5	0.9	1163.22222222222	0.8	1298.625	13	559550	2	559538	27	40	559577	-999999	559553	0	15	TrialsPROC	FC_012_F6.png	1	2	61	SessionSelectionList														nonlure	3	Face	2-Back	53	80	50	0	0	83	5	39	452087	1	13	73	450048	-1	451062	1	1014	3	3	2039	52	452100	-53	0													2			61												
WM080112	151526_fnca	1	1	1	-591395923	1	75.031	75.030	2.0.10.147	2.0.10.242	2.0.10.242	1.0.0.439	7	234	2	3	Verdana	1	80	0	0	0	WM Stimuli\	0.6	1431	0.6	1316.5	0.8	1029.625	0.9	1238.66666666667	0.7	1041.85714285714	1	1153.5	0.9	1163.22222222222	0.8	1298.625	13	559550	2	559538	27	40	559577	-999999	559553	0	15	TrialsPROC	FC_010_F5.png	1	2	62	SessionSelectionList														target	2	Face	2-Back	54	80	51	0	0	83	1	39	454659	1	14	72	452620	-1	453814	1	1194	2	2	2039	53	454673	-54	0													3			62												
WM080112	151526_fnca	1	1	1	-591395923	1	75.031	75.030	2.0.10.147	2.0.10.242	2.0.10.242	1.0.0.439	7	234	2	3	Verdana	1	80	0	0	0	WM Stimuli\	0.6	1431	0.6	1316.5	0.8	1029.625	0.9	1238.66666666667	0.7	1041.85714285714	1	1153.5	0.9	1163.22222222222	0.8	1298.625	13	559550	2	559538	27	40	559577	-999999	559553	0	15	TrialsPROC	FC_008_F4.png	1	2	63	SessionSelectionList														nonlure	3	Face	2-Back	55	80	52	0	0	83	1	40	457245	1	13	85	455205	-1	455947	1	742	3	3	2040	53	457258	-54	0													4			63												
WM080112	151526_fnca	1	1	1	-591395923	1	75.031	75.030	2.0.10.147	2.0.10.242	2.0.10.242	1.0.0.439	7	234	2	3	Verdana	1	80	0	0	0	WM Stimuli\	0.6	1431	0.6	1316.5	0.8	1029.625	0.9	1238.66666666667	0.7	1041.85714285714	1	1153.5	0.9	1163.22222222222	0.8	1298.625	13	559550	2	559538	27	40	559577	-999999	559553	0	15	TrialsPROC	FC_012_F6.png	1	2	64	SessionSelectionList														lure	3	Face	2-Back	56	80	53	0	0	83	1	39	459817	1	14	73	457778	-1	458816	0	1038	2	3	2039	53	459831	-54	0													5			64												
WM080112	151526_fnca	1	1	1	-591395923	1	75.031	75.030	2.0.10.147	2.0.10.242	2.0.10.242	1.0.0.439	7	234	2	3	Verdana	1	80	0	0	0	WM Stimuli\	0.6	1431	0.6	1316.5	0.8	1029.625	0.9	1238.66666666667	0.7	1041.85714285714	1	1153.5	0.9	1163.22222222222	0.8	1298.625	13	559550	2	559538	27	40	559577	-999999	559553	0	15	TrialsPROC	FC_008_F4.png	1	2	65	SessionSelectionList														target	2	Face	2-Back	57	80	53	0	1	83	1	39	462389	2	14	72	460350	-1	0	0	0	""	2	2039	53	462403	-54	0													6			65												
WM080112	151526_fnca	1	1	1	-591395923	1	75.031	75.030	2.0.10.147	2.0.10.242	2.0.10.242	1.0.0.439	7	234	2	3	Verdana	1	80	0	0	0	WM Stimuli\	0.6	1431	0.6	1316.5	0.8	1029.625	0.9	1238.66666666667	0.7	1041.85714285714	1	1153.5	0.9	1163.22222222222	0.8	1298.625	13	559550	2	559538	27	40	559577	-999999	559553	0	15	TrialsPROC	FC_007_M4.png	1	2	66	SessionSelectionList														nonlure	3	Face	2-Back	58	80	54	0	0	83	1	39	464975	1	13	86	462936	-1	463659	1	723	3	3	2039	52	464988	-53	0													7			66												
WM080112	151526_fnca	1	1	1	-591395923	1	75.031	75.030	2.0.10.147	2.0.10.242	2.0.10.242	1.0.0.439	7	234	2	3	Verdana	1	80	0	0	0	WM Stimuli\	0.6	1431	0.6	1316.5	0.8	1029.625	0.9	1238.66666666667	0.7	1041.85714285714	1	1153.5	0.9	1163.22222222222	0.8	1298.625	13	559550	2	559538	27	40	559577	-999999	559553	0	15	TrialsPROC	FC_007_M4.png	1	2	67	SessionSelectionList														lure	3	Face	2-Back	59	80	55	0	0	83	2	39	467547	2	14	72	465508	-1	466439	1	931	3	3	2039	53	467561	-54	0													8			67												
WM080112	151526_fnca	1	1	1	-591395923	1	75.031	75.030	2.0.10.147	2.0.10.242	2.0.10.242	1.0.0.439	7	234	2	3	Verdana	1	80	0	0	0	WM Stimuli\	0.6	1431	0.6	1316.5	0.8	1029.625	0.9	1238.66666666667	0.7	1041.85714285714	1	1153.5	0.9	1163.22222222222	0.8	1298.625	13	559550	2	559538	27	40	559577	-999999	559553	0	15	TrialsPROC	FC_009_M5.png	1	2	68	SessionSelectionList														nonlure	3	Face	2-Back	60	80	56	0	0	83	3	39	470133	1	13	86	468094	-1	469305	1	1211	3	3	2039	52	470146	-53	0													9			68												
WM080112	151526_fnca	1	1	1	-591395923	1	75.031	75.030	2.0.10.147	2.0.10.242	2.0.10.242	1.0.0.439	7	234	2	3	Verdana	1	80	0	0	0	WM Stimuli\	0.6	1431	0.6	1316.5	0.8	1029.625	0.9	1238.66666666667	0.7	1041.85714285714	1	1153.5	0.9	1163.22222222222	0.8	1298.625	13	559550	2	559538	27	40	559577	-999999	559553	0	15	TrialsPROC	FC_011_M6.png	1	2	69	SessionSelectionList														nonlure	3	Face	2-Back	61	80	57	0	0	83	4	39	472718	2	14	85	470679	-1	471844	1	1165	3	3	2039	53	472732	-54	0													10			69												
WM080112	151526_fnca	1	1	1	-591395923	1	75.031	75.030	2.0.10.147	2.0.10.242	2.0.10.242	1.0.0.439	7	234	2	3	Verdana	1	80	0	0	0	WM Stimuli\	0.6	1431	0.6	1316.5	0.8	1029.625	0.9	1238.66666666667	0.7	1041.85714285714	1	1153.5	0.9	1163.22222222222	0.8	1298.625	13	559550	2	559538	27	40	559577	-999999	559553	0	16	Fix15secPROC	""	1	2	70	SessionSelectionList																																															6	473185	-7	0							70												
WM080112	151526_fnca	1	1	1	-591395923	1	75.031	75.030	2.0.10.147	2.0.10.242	2.0.10.242	1.0.0.439	7	234	2	3	Verdana	1	80	0	0	0	WM Stimuli\	0.6	1431	0.6	1316.5	0.8	1029.625	0.9	1238.66666666667	0.7	1041.85714285714	1	1153.5	0.9	1163.22222222222	0.8	1298.625	13	559550	2	559538	27	40	559577	-999999	559553	0	17	Cue0BackPROC	TO_007_TOOL7_BA.png	1	2	71	SessionSelectionList																																										26	488205	-27	0												71												
WM080112	151526_fnca	1	1	1	-591395923	1	75.031	75.030	2.0.10.147	2.0.10.242	2.0.10.242	1.0.0.439	7	234	2	3	Verdana	1	80	0	0	0	WM Stimuli\	0.6	1431	0.6	1316.5	0.8	1029.625	0.9	1238.66666666667	0.7	1041.85714285714	1	1153.5	0.9	1163.22222222222	0.8	1298.625	13	559550	2	559538	27	40	559577	-999999	559553	0	18	TrialsPROC	TO_010_TOOL10_BA.png	1	2	72	SessionSelectionList														nonlure	3	Tools	0-Back	62	80	58	0	0	84	5	39	492790	2	14	72	490751	-1	491767	1	1016	3	3	2039	53	492804	-54	0														1		72												
WM080112	151526_fnca	1	1	1	-591395923	1	75.031	75.030	2.0.10.147	2.0.10.242	2.0.10.242	1.0.0.439	7	234	2	3	Verdana	1	80	0	0	0	WM Stimuli\	0.6	1431	0.6	1316.5	0.8	1029.625	0.9	1238.66666666667	0.7	1041.85714285714	1	1153.5	0.9	1163.22222222222	0.8	1298.625	13	559550	2	559538	27	40	559577	-999999	559553	0	18	TrialsPROC	TO_009_TOOL9_BA.png	1	2	73	SessionSelectionList														nonlure	3	Tools	0-Back	63	80	59	0	0	84	6	39	495362	2	14	72	493323	-1	494277	1	954	3	3	2039	53	495376	-54	0														2		73												
WM080112	151526_fnca	1	1	1	-591395923	1	75.031	75.030	2.0.10.147	2.0.10.242	2.0.10.242	1.0.0.439	7	234	2	3	Verdana	1	80	0	0	0	WM Stimuli\	0.6	1431	0.6	1316.5	0.8	1029.625	0.9	1238.66666666667	0.7	1041.85714285714	1	1153.5	0.9	1163.22222222222	0.8	1298.625	13	559550	2	559538	27	40	559577	-999999	559553	0	18	TrialsPROC	TO_009_TOOL9_BA.png	1	2	74	SessionSelectionList														lure	3	Tools	0-Back	64	80	60	0	0	85	7	39	497921	2	14	59	495882	-1	497137	1	1255	3	3	2039	53	497935	-54	0														3		74												
WM080112	151526_fnca	1	1	1	-591395923	1	75.031	75.030	2.0.10.147	2.0.10.242	2.0.10.242	1.0.0.439	7	234	2	3	Verdana	1	80	0	0	0	WM Stimuli\	0.6	1431	0.6	1316.5	0.8	1029.625	0.9	1238.66666666667	0.7	1041.85714285714	1	1153.5	0.9	1163.22222222222	0.8	1298.625	13	559550	2	559538	27	40	559577	-999999	559553	0	18	TrialsPROC	TO_008_TOOL8_BA.png	1	2	75	SessionSelectionList														nonlure	3	Tools	0-Back	65	80	61	0	0	85	8	39	500494	1	13	73	498455	-1	499555	1	1100	3	3	2039	52	500507	-53	0														4		75												
WM080112	151526_fnca	1	1	1	-591395923	1	75.031	75.030	2.0.10.147	2.0.10.242	2.0.10.242	1.0.0.439	7	234	2	3	Verdana	1	80	0	0	0	WM Stimuli\	0.6	1431	0.6	1316.5	0.8	1029.625	0.9	1238.66666666667	0.7	1041.85714285714	1	1153.5	0.9	1163.22222222222	0.8	1298.625	13	559550	2	559538	27	40	559577	-999999	559553	0	18	TrialsPROC	TO_011_TOOL11_BA.png	1	2	76	SessionSelectionList														nonlure	3	Tools	0-Back	66	80	62	0	0	86	9	39	503066	1	14	72	501027	-1	502590	1	1563	3	3	2039	53	503080	-54	0														5		76												
WM080112	151526_fnca	1	1	1	-591395923	1	75.031	75.030	2.0.10.147	2.0.10.242	2.0.10.242	1.0.0.439	7	234	2	3	Verdana	1	80	0	0	0	WM Stimuli\	0.6	1431	0.6	1316.5	0.8	1029.625	0.9	1238.66666666667	0.7	1041.85714285714	1	1153.5	0.9	1163.22222222222	0.8	1298.625	13	559550	2	559538	27	40	559577	-999999	559553	0	18	TrialsPROC	TO_012_TOOL12_BA.png	1	2	77	SessionSelectionList														nonlure	3	Tools	0-Back	67	80	63	0	0	86	10	39	505638	2	14	72	503599	-1	505422	1	1823	3	3	2039	53	505652	-54	0														6		77												
WM080112	151526_fnca	1	1	1	-591395923	1	75.031	75.030	2.0.10.147	2.0.10.242	2.0.10.242	1.0.0.439	7	234	2	3	Verdana	1	80	0	0	0	WM Stimuli\	0.6	1431	0.6	1316.5	0.8	1029.625	0.9	1238.66666666667	0.7	1041.85714285714	1	1153.5	0.9	1163.22222222222	0.8	1298.625	13	559550	2	559538	27	40	559577	-999999	559553	0	18	TrialsPROC	TO_010_TOOL10_BA.png	1	2	78	SessionSelectionList														lure	3	Tools	0-Back	68	80	63	0	1	84	10	39	508197	2	14	59	506158	-1	0	0	0	""	3	2039	53	508211	-54	0														7		78												
WM080112	151526_fnca	1	1	1	-591395923	1	75.031	75.030	2.0.10.147	2.0.10.242	2.0.10.242	1.0.0.439	7	234	2	3	Verdana	1	80	0	0	0	WM Stimuli\	0.6	1431	0.6	1316.5	0.8	1029.625	0.9	1238.66666666667	0.7	1041.85714285714	1	1153.5	0.9	1163.22222222222	0.8	1298.625	13	559550	2	559538	27	40	559577	-999999	559553	0	18	TrialsPROC	TO_007_TOOL7_BA.png	1	2	79	SessionSelectionList														target	2	Tools	0-Back	69	80	64	0	0	82	1	39	510756	2	14	59	508717	-1	510147	0	1430	3	2	2039	53	510770	-54	0														8		79												
WM080112	151526_fnca	1	1	1	-591395923	1	75.031	75.030	2.0.10.147	2.0.10.242	2.0.10.242	1.0.0.439	7	234	2	3	Verdana	1	80	0	0	0	WM Stimuli\	0.6	1431	0.6	1316.5	0.8	1029.625	0.9	1238.66666666667	0.7	1041.85714285714	1	1153.5	0.9	1163.22222222222	0.8	1298.625	13	559550	2	559538	27	40	559577	-999999	559553	0	18	TrialsPROC	TO_008_TOOL8_BA.png	1	2	80	SessionSelectionList														lure	3	Tools	0-Back	70	80	65	0	0	82	2	39	513315	2	14	59	511276	-1	512572	1	1296	3	3	2039	53	513329	-54	0														9		80												
WM080112	151526_fnca	1	1	1	-591395923	1	75.031	75.030	2.0.10.147	2.0.10.242	2.0.10.242	1.0.0.439	7	234	2	3	Verdana	1	80	0	0	0	WM Stimuli\	0.6	1431	0.6	1316.5	0.8	1029.625	0.9	1238.66666666667	0.7	1041.85714285714	1	1153.5	0.9	1163.22222222222	0.8	1298.625	13	559550	2	559538	27	40	559577	-999999	559553	0	18	TrialsPROC	TO_007_TOOL7_BA.png	1	2	81	SessionSelectionList														target	2	Tools	0-Back	71	80	66	0	0	82	1	39	515874	2	14	59	513835	-1	515217	1	1382	2	2	2039	53	515888	-54	0														10		81												
WM080112	151526_fnca	1	1	1	-591395923	1	75.031	75.030	2.0.10.147	2.0.10.242	2.0.10.242	1.0.0.439	7	234	2	3	Verdana	1	80	0	0	0	WM Stimuli\	0.6	1431	0.6	1316.5	0.8	1029.625	0.9	1238.66666666667	0.7	1041.85714285714	1	1153.5	0.9	1163.22222222222	0.8	1298.625	13	559550	2	559538	27	40	559577	-999999	559553	0	19	Cue2BackPROC	""	1	2	82	SessionSelectionList									6	516341	-7	0																																													82												
WM080112	151526_fnca	1	1	1	-591395923	1	75.031	75.030	2.0.10.147	2.0.10.242	2.0.10.242	1.0.0.439	7	234	2	3	Verdana	1	80	0	0	0	WM Stimuli\	0.6	1431	0.6	1316.5	0.8	1029.625	0.9	1238.66666666667	0.7	1041.85714285714	1	1153.5	0.9	1163.22222222222	0.8	1298.625	13	559550	2	559538	27	40	559577	-999999	559553	0	20	TrialsPROC	PL_007_92026.png	1	2	83	SessionSelectionList														nonlure	3	Place	2-Back	72	80	66	0	1	82	1	39	520939	1	13	65	518900	-1	0	0	0	""	3	2039	52	520952	-53	0															1	83												
WM080112	151526_fnca	1	1	1	-591395923	1	75.031	75.030	2.0.10.147	2.0.10.242	2.0.10.242	1.0.0.439	7	234	2	3	Verdana	1	80	0	0	0	WM Stimuli\	0.6	1431	0.6	1316.5	0.8	1029.625	0.9	1238.66666666667	0.7	1041.85714285714	1	1153.5	0.9	1163.22222222222	0.8	1298.625	13	559550	2	559538	27	40	559577	-999999	559553	0	20	TrialsPROC	PL_007_92026.png	1	2	84	SessionSelectionList														lure	3	Place	2-Back	73	80	67	0	0	82	1	39	523498	1	13	59	521459	-1	521966	1	507	3	3	2039	52	523511	-53	0															2	84												
WM080112	151526_fnca	1	1	1	-591395923	1	75.031	75.030	2.0.10.147	2.0.10.242	2.0.10.242	1.0.0.439	7	234	2	3	Verdana	1	80	0	0	0	WM Stimuli\	0.6	1431	0.6	1316.5	0.8	1029.625	0.9	1238.66666666667	0.7	1041.85714285714	1	1153.5	0.9	1163.22222222222	0.8	1298.625	13	559550	2	559538	27	40	559577	-999999	559553	0	20	TrialsPROC	PL_010_92038.png	1	2	85	SessionSelectionList														nonlure	3	Place	2-Back	74	80	68	0	0	82	2	39	526083	2	14	85	524044	-1	524596	1	552	3	3	2039	53	526097	-54	0															3	85												
WM080112	151526_fnca	1	1	1	-591395923	1	75.031	75.030	2.0.10.147	2.0.10.242	2.0.10.242	1.0.0.439	7	234	2	3	Verdana	1	80	0	0	0	WM Stimuli\	0.6	1431	0.6	1316.5	0.8	1029.625	0.9	1238.66666666667	0.7	1041.85714285714	1	1153.5	0.9	1163.22222222222	0.8	1298.625	13	559550	2	559538	27	40	559577	-999999	559553	0	20	TrialsPROC	PL_009_92037.png	1	2	86	SessionSelectionList														nonlure	3	Place	2-Back	75	80	69	0	0	82	3	40	528656	1	13	72	526616	-1	527550	1	934	3	3	2040	53	528669	-54	0															4	86												
WM080112	151526_fnca	1	1	1	-591395923	1	75.031	75.030	2.0.10.147	2.0.10.242	2.0.10.242	1.0.0.439	7	234	2	3	Verdana	1	80	0	0	0	WM Stimuli\	0.6	1431	0.6	1316.5	0.8	1029.625	0.9	1238.66666666667	0.7	1041.85714285714	1	1153.5	0.9	1163.22222222222	0.8	1298.625	13	559550	2	559538	27	40	559577	-999999	559553	0	20	TrialsPROC	PL_010_92038.png	1	2	87	SessionSelectionList														target	2	Place	2-Back	76	80	70	0	0	82	1	40	531215	1	13	59	529175	-1	530364	1	1189	2	2	2040	53	531228	-54	0															5	87												
WM080112	151526_fnca	1	1	1	-591395923	1	75.031	75.030	2.0.10.147	2.0.10.242	2.0.10.242	1.0.0.439	7	234	2	3	Verdana	1	80	0	0	0	WM Stimuli\	0.6	1431	0.6	1316.5	0.8	1029.625	0.9	1238.66666666667	0.7	1041.85714285714	1	1153.5	0.9	1163.22222222222	0.8	1298.625	13	559550	2	559538	27	40	559577	-999999	559553	0	20	TrialsPROC	PL_009_92037.png	1	2	88	SessionSelectionList														target	2	Place	2-Back	77	80	71	0	0	82	1	39	533774	1	13	60	531735	-1	532251	0	516	3	2	2039	52	533787	-53	0															6	88												
WM080112	151526_fnca	1	1	1	-591395923	1	75.031	75.030	2.0.10.147	2.0.10.242	2.0.10.242	1.0.0.439	7	234	2	3	Verdana	1	80	0	0	0	WM Stimuli\	0.6	1431	0.6	1316.5	0.8	1029.625	0.9	1238.66666666667	0.7	1041.85714285714	1	1153.5	0.9	1163.22222222222	0.8	1298.625	13	559550	2	559538	27	40	559577	-999999	559553	0	20	TrialsPROC	PL_008_92033.png	1	2	89	SessionSelectionList														nonlure	3	Place	2-Back	78	80	72	0	0	82	2	39	536359	2	14	85	534320	-1	535275	1	955	3	3	2039	53	536373	-54	0															7	89												
WM080112	151526_fnca	1	1	1	-591395923	1	75.031	75.030	2.0.10.147	2.0.10.242	2.0.10.242	1.0.0.439	7	234	2	3	Verdana	1	80	0	0	0	WM Stimuli\	0.6	1431	0.6	1316.5	0.8	1029.625	0.9	1238.66666666667	0.7	1041.85714285714	1	1153.5	0.9	1163.22222222222	0.8	1298.625	13	559550	2	559538	27	40	559577	-999999	559553	0	20	TrialsPROC	PL_012_92047.png	1	2	90	SessionSelectionList														nonlure	3	Place	2-Back	79	80	73	0	0	82	3	39	538931	2	14	72	536892	-1	538370	1	1478	3	3	2039	53	538945	-54	0															8	90												
WM080112	151526_fnca	1	1	1	-591395923	1	75.031	75.030	2.0.10.147	2.0.10.242	2.0.10.242	1.0.0.439	7	234	2	3	Verdana	1	80	0	0	0	WM Stimuli\	0.6	1431	0.6	1316.5	0.8	1029.625	0.9	1238.66666666667	0.7	1041.85714285714	1	1153.5	0.9	1163.22222222222	0.8	1298.625	13	559550	2	559538	27	40	559577	-999999	559553	0	20	TrialsPROC	PL_012_92047.png	1	2	91	SessionSelectionList														lure	3	Place	2-Back	80	80	74	0	0	82	4	39	541504	2	13	73	539465	-1	541143	1	1678	3	3	2039	52	541517	-53	0															9	91												
WM080112	151526_fnca	1	1	1	-591395923	1	75.031	75.030	2.0.10.147	2.0.10.242	2.0.10.242	1.0.0.439	7	234	2	3	Verdana	1	80	0	0	0	WM Stimuli\	0.6	1431	0.6	1316.5	0.8	1029.625	0.9	1238.66666666667	0.7	1041.85714285714	1	1153.5	0.9	1163.22222222222	0.8	1298.625	13	559550	2	559538	27	40	559577	-999999	559553	0	20	TrialsPROC	PL_011_92044.png	1	2	92	SessionSelectionList														nonlure	3	Place	2-Back	80	80	75	0	0	82	1	39	544076	1	14	72	542037	-1	543964	0	1927	2	3	2039	53	544090	-54	0															10	92												
WM080112	151526_fnca	1	1	1	-591395923	1	75.031	75.030	2.0.10.147	2.0.10.242	2.0.10.242	1.0.0.439	7	234	2	3	Verdana	1	80	0	0	0	WM Stimuli\	0.6	1431	0.6	1316.5	0.8	1029.625	0.9	1238.66666666667	0.7	1041.85714285714	1	1153.5	0.9	1163.22222222222	0.8	1298.625	13	559550	2	559538	27	40	559577	-999999	559553	0	21	Fix15secPROC	""	1	2	93	SessionSelectionList																																															6	544543	-7	0							93												
