ExperimentName	HCPID	RunNumber	Subject	Session	RandomSeed	Group	Laptop.RefreshRate	ScannerD2.RefreshRate	StudioVersion	RuntimeVersion	RuntimeVersionExpected	ExperimentVersion	triggercode	Allowed	Target	Nontarget	FontStyle	RunTrialNumber[Session]	TrialsPerRun[Session]	TotalRespGreater200[Session]	ConsecRTLess200[Session]	ConsecNonResp[Session]	StimuliDir	ACC_2_Back_Body	Avg_RT_For_Correct_Trials_2_Back_Body	ACC_0_Back_Body	Avg_RT_For_Correct_Trials_0_Back_Body	ACC_2_Back_Face	Avg_RT_For_Correct_Trials_2_Back_Face	ACC_0_Back_Face	Avg_RT_For_Correct_Trials_0_Back_Face	ACC_2_Back_Place	Avg_RT_For_Correct_Trials_2_Back_Place	ACC_0_Back_Place	Avg_RT_For_Correct_Trials_0_Back_Place	ACC_2_Back_Tools	Avg_RT_For_Correct_Trials_2_Back_Tools	ACC_0_Back_Tools	Avg_RT_For_Correct_Trials_0_Back_Tools	ExpInstrucFeelFreeToRest.OnsetDelay	ExpInstrucFeelFreeToRest.OnsetTime	ExpInstrucFeelFreeToRest.DurationError	ExpInstrucFeelFreeToRest.StartTime	ExpInstrucFeelFreeToRest.OnsetToOnsetTime	FeelFreeToRest.OnsetDelay	FeelFreeToRest.OnsetTime	FeelFreeToRest.DurationError	FeelFreeToRest.StartTime	FeelFreeToRest.OnsetToOnsetTime	SessionSelectionList	Procedure[Block]	Stimulus[Block]	RunNumberFilterValue	SessionSelectionList.Cycle	SessionSelectionList.Sample	Running[Block]	IntroButtonMap.OnsetDelay	IntroButtonMap.OnsetTime	IntroButtonMap.DurationError	IntroButtonMap.OnsetToOnsetTime	GetReady.OnsetDelay	GetReady.OnsetTime	GetReady.DurationError	GetReady.OnsetToOnsetTime	Cue2Back.OnsetDelay	Cue2Back.OnsetTime	Cue2Back.DurationError	Cue2Back.OnsetToOnsetTime	Run1Block1	TargetType	CorrectResponse	StimType	BlockType	RunTrialNumber[Block]	TrialsPerRun[Block]	TotalRespGreater200[Block]	ConsecRTLess200[Block]	ConsecNonResp[Block]	ControlAcc	ConsecSameResp	ExperimenterWindow.OnsetDelay	ExperimenterWindow.OnsetTime	ExperimenterWindow.DurationError	ExperimenterWindow.OnsetToOnsetTime	Stim.OnsetDelay	Stim.OnsetTime	Stim.DurationError	Stim.RTTime	Stim.ACC	Stim.RT	Stim.RESP	Stim.CRESP	Stim.OnsetToOnsetTime	Fix.OnsetDelay	Fix.OnsetTime	Fix.DurationError	Fix.OnsetToOnsetTime	CueTarget.OnsetDelay	CueTarget.OnsetTime	CueTarget.DurationError	CueTarget.OnsetToOnsetTime	Run1Block2	Fix15sec.OnsetDelay	Fix15sec.OnsetTime	Fix15sec.DurationError	Fix15sec.OnsetToOnsetTime	Run1Block3	Run1Block4	Run1Block5	Run1Block6	Run1Block7	Run1Block8	Block	Procedure[Trial]	Stimulus[Trial]	ReadyList	Running[Trial]	ReadyList.Cycle	ReadyList.Sample	SyncSlide.OnsetDelay	SyncSlide.OnsetTime	SyncSlide.DurationError	SyncSlide.FinishTime	SyncSlide.OnsetToOnsetTime	Trial
WM080112	113922_fnca	1	1	1	2094175224	1	75.031	75.032	2.0.10.147	2.0.10.242	2.0.10.242	1.0.0.439	7	234	2	3	Verdana	1	80	0	0	0	WM Stimuli\	0.8	906.25	1	884.6	0.8	1082.625	1	791.7	0.8	1153.375	0.7	1090.85714285714	0.9	759.333333333333	1	858.2	13	559990	2	559978	27	40	560017	-999999	559993	0	1	TRSyncPROC	""	1	2	1	SessionSelectionList	114	205630	-999999	0	29	253424	-999999	0																																																	1	InitialTR	4	1	ReadyList	1	1	9	266551	-10	268541	0	1
WM080112	113922_fnca	1	1	1	2094175224	1	75.031	75.032	2.0.10.147	2.0.10.242	2.0.10.242	1.0.0.439	7	234	2	3	Verdana	1	80	0	0	0	WM Stimuli\	0.8	906.25	1	884.6	0.8	1082.625	1	791.7	0.8	1153.375	0.7	1090.85714285714	0.9	759.333333333333	1	858.2	13	559990	2	559978	27	40	560017	-999999	559993	0	1	TRSyncPROC	""	1	2	1	SessionSelectionList	114	205630	-999999	0	29	253424	-999999	0																																																	1	InitialTR	3	2	ReadyList	1	2	9	268551	-10	270541	0	2
WM080112	113922_fnca	1	1	1	2094175224	1	75.031	75.032	2.0.10.147	2.0.10.242	2.0.10.242	1.0.0.439	7	234	2	3	Verdana	1	80	0	0	0	WM Stimuli\	0.8	906.25	1	884.6	0.8	1082.625	1	791.7	0.8	1153.375	0.7	1090.85714285714	0.9	759.333333333333	1	858.2	13	559990	2	559978	27	40	560017	-999999	559993	0	1	TRSyncPROC	""	1	2	1	SessionSelectionList	114	205630	-999999	0	29	253424	-999999	0																																																	1	InitialTR	2	3	ReadyList	1	3	8	270550	-9	272541	0	3
WM080112	113922_fnca	1	1	1	2094175224	1	75.031	75.032	2.0.10.147	2.0.10.242	2.0.10.242	1.0.0.439	7	234	2	3	Verdana	1	80	0	0	0	WM Stimuli\	0.8	906.25	1	884.6	0.8	1082.625	1	791.7	0.8	1153.375	0.7	1090.85714285714	0.9	759.333333333333	1	858.2	13	559990	2	559978	27	40	560017	-999999	559993	0	1	TRSyncPROC	""	1	2	1	SessionSelectionList	114	205630	-999999	0	29	253424	-999999	0																																																	1	InitialTR	1	4	ReadyList	1	4	7	272549	-8	274541	0	4
WM080112	113922_fnca	1	1	1	2094175224	1	75.031	75.032	2.0.10.147	2.0.10.242	2.0.10.242	1.0.0.439	7	234	2	3	Verdana	1	80	0	0	0	WM Stimuli\	0.8	906.25	1	884.6	0.8	1082.625	1	791.7	0.8	1153.375	0.7	1090.85714285714	0.9	759.333333333333	1	858.2	13	559990	2	559978	27	40	560017	-999999	559993	0	2	Cue2BackPROC	""	1	2	2	SessionSelectionList									19	274561	-20	0																																													2												
WM080112	113922_fnca	1	1	1	2094175224	1	75.031	75.032	2.0.10.147	2.0.10.242	2.0.10.242	1.0.0.439	7	234	2	3	Verdana	1	80	0	0	0	WM Stimuli\	0.8	906.25	1	884.6	0.8	1082.625	1	791.7	0.8	1153.375	0.7	1090.85714285714	0.9	759.333333333333	1	858.2	13	559990	2	559978	27	40	560017	-999999	559993	0	3	TrialsPROC	BP_002_BP10_BA.png	1	2	3	SessionSelectionList													1	nonlure	3	Body	2-Back	2	80	1	0	0	0	1	53	279173	3	14	78	277120	-1	277601	1	481	3	3	2053	67	279187	-68	0																3												
WM080112	113922_fnca	1	1	1	2094175224	1	75.031	75.032	2.0.10.147	2.0.10.242	2.0.10.242	1.0.0.439	7	234	2	3	Verdana	1	80	0	0	0	WM Stimuli\	0.8	906.25	1	884.6	0.8	1082.625	1	791.7	0.8	1153.375	0.7	1090.85714285714	0.9	759.333333333333	1	858.2	13	559990	2	559978	27	40	560017	-999999	559993	0	3	TrialsPROC	BP_001_BP1_BA.png	1	2	4	SessionSelectionList													2	nonlure	3	Body	2-Back	3	80	2	0	0	0	2	39	281732	2	13	73	279693	-1	280357	1	664	3	3	2039	52	281745	-53	0																4												
WM080112	113922_fnca	1	1	1	2094175224	1	75.031	75.032	2.0.10.147	2.0.10.242	2.0.10.242	1.0.0.439	7	234	2	3	Verdana	1	80	0	0	0	WM Stimuli\	0.8	906.25	1	884.6	0.8	1082.625	1	791.7	0.8	1153.375	0.7	1090.85714285714	0.9	759.333333333333	1	858.2	13	559990	2	559978	27	40	560017	-999999	559993	0	3	TrialsPROC	BP_006_BP2_BA.png	1	2	5	SessionSelectionList													3	nonlure	3	Body	2-Back	4	80	3	0	0	0	1	39	284291	1	13	59	282252	-1	282876	0	624	2	3	2039	52	284304	-53	0																5												
WM080112	113922_fnca	1	1	1	2094175224	1	75.031	75.032	2.0.10.147	2.0.10.242	2.0.10.242	1.0.0.439	7	234	2	3	Verdana	1	80	0	0	0	WM Stimuli\	0.8	906.25	1	884.6	0.8	1082.625	1	791.7	0.8	1153.375	0.7	1090.85714285714	0.9	759.333333333333	1	858.2	13	559990	2	559978	27	40	560017	-999999	559993	0	3	TrialsPROC	BP_001_BP1_BA.png	1	2	6	SessionSelectionList													4	target	2	Body	2-Back	5	80	4	0	0	0	2	39	286863	1	14	72	284824	-1	285635	1	811	2	2	2039	53	286877	-54	0																6												
WM080112	113922_fnca	1	1	1	2094175224	1	75.031	75.032	2.0.10.147	2.0.10.242	2.0.10.242	1.0.0.439	7	234	2	3	Verdana	1	80	0	0	0	WM Stimuli\	0.8	906.25	1	884.6	0.8	1082.625	1	791.7	0.8	1153.375	0.7	1090.85714285714	0.9	759.333333333333	1	858.2	13	559990	2	559978	27	40	560017	-999999	559993	0	3	TrialsPROC	BP_005_BP19_BA.png	1	2	7	SessionSelectionList													5	nonlure	3	Body	2-Back	6	80	5	0	0	0	1	39	289435	2	14	72	287396	-1	288473	1	1077	3	3	2039	53	289449	-54	0																7												
WM080112	113922_fnca	1	1	1	2094175224	1	75.031	75.032	2.0.10.147	2.0.10.242	2.0.10.242	1.0.0.439	7	234	2	3	Verdana	1	80	0	0	0	WM Stimuli\	0.8	906.25	1	884.6	0.8	1082.625	1	791.7	0.8	1153.375	0.7	1090.85714285714	0.9	759.333333333333	1	858.2	13	559990	2	559978	27	40	560017	-999999	559993	0	3	TrialsPROC	BP_003_BP16_BA.png	1	2	8	SessionSelectionList													6	nonlure	3	Body	2-Back	7	80	6	0	0	0	2	39	291994	2	14	59	289955	-1	290594	1	639	3	3	2039	53	292008	-54	0																8												
WM080112	113922_fnca	1	1	1	2094175224	1	75.031	75.032	2.0.10.147	2.0.10.242	2.0.10.242	1.0.0.439	7	234	2	3	Verdana	1	80	0	0	0	WM Stimuli\	0.8	906.25	1	884.6	0.8	1082.625	1	791.7	0.8	1153.375	0.7	1090.85714285714	0.9	759.333333333333	1	858.2	13	559990	2	559978	27	40	560017	-999999	559993	0	3	TrialsPROC	BP_006_BP2_BA.png	1	2	9	SessionSelectionList													7	lure	3	Body	2-Back	8	80	7	0	0	0	3	39	294553	2	14	59	292514	-1	293649	1	1135	3	3	2039	53	294567	-54	0																9												
WM080112	113922_fnca	1	1	1	2094175224	1	75.031	75.032	2.0.10.147	2.0.10.242	2.0.10.242	1.0.0.439	7	234	2	3	Verdana	1	80	0	0	0	WM Stimuli\	0.8	906.25	1	884.6	0.8	1082.625	1	791.7	0.8	1153.375	0.7	1090.85714285714	0.9	759.333333333333	1	858.2	13	559990	2	559978	27	40	560017	-999999	559993	0	3	TrialsPROC	BP_004_BP18_BA.png	1	2	10	SessionSelectionList													8	nonlure	3	Body	2-Back	9	80	8	0	0	0	4	39	297112	1	14	59	295073	-1	296130	1	1057	3	3	2039	53	297126	-54	0																10												
WM080112	113922_fnca	1	1	1	2094175224	1	75.031	75.032	2.0.10.147	2.0.10.242	2.0.10.242	1.0.0.439	7	234	2	3	Verdana	1	80	0	0	0	WM Stimuli\	0.8	906.25	1	884.6	0.8	1082.625	1	791.7	0.8	1153.375	0.7	1090.85714285714	0.9	759.333333333333	1	858.2	13	559990	2	559978	27	40	560017	-999999	559993	0	3	TrialsPROC	BP_005_BP19_BA.png	1	2	11	SessionSelectionList													9	lure	3	Body	2-Back	10	80	9	0	0	0	1	39	299671	1	14	59	297632	-1	298586	0	954	2	3	2039	53	299685	-54	0																11												
WM080112	113922_fnca	1	1	1	2094175224	1	75.031	75.032	2.0.10.147	2.0.10.242	2.0.10.242	1.0.0.439	7	234	2	3	Verdana	1	80	0	0	0	WM Stimuli\	0.8	906.25	1	884.6	0.8	1082.625	1	791.7	0.8	1153.375	0.7	1090.85714285714	0.9	759.333333333333	1	858.2	13	559990	2	559978	27	40	560017	-999999	559993	0	3	TrialsPROC	BP_004_BP18_BA.png	1	2	12	SessionSelectionList													10	target	2	Body	2-Back	11	80	10	0	0	0	2	39	302230	1	14	59	300191	-1	301577	1	1386	2	2	2039	53	302244	-54	0																12												
WM080112	113922_fnca	1	1	1	2094175224	1	75.031	75.032	2.0.10.147	2.0.10.242	2.0.10.242	1.0.0.439	7	234	2	3	Verdana	1	80	0	0	0	WM Stimuli\	0.8	906.25	1	884.6	0.8	1082.625	1	791.7	0.8	1153.375	0.7	1090.85714285714	0.9	759.333333333333	1	858.2	13	559990	2	559978	27	40	560017	-999999	559993	0	4	Cue0BackPROC	FC_001_M1.png	1	2	13	SessionSelectionList																																										19	302710	-20	0												13												
WM080112	113922_fnca	1	1	1	2094175224	1	75.031	75.032	2.0.10.147	2.0.10.242	2.0.10.242	1.0.0.439	7	234	2	3	Verdana	1	80	0	0	0	WM Stimuli\	0.8	906.25	1	884.6	0.8	1082.625	1	791.7	0.8	1153.375	0.7	1090.85714285714	0.9	759.333333333333	1	858.2	13	559990	2	559978	27	40	560017	-999999	559993	0	5	TrialsPROC	FC_005_M3.png	1	2	14	SessionSelectionList														nonlure	3	Face	0-Back	12	80	11	0	0	100	1	40	307295	1	13	64	305255	-1	306517	1	1262	3	3	2040	53	307308	-54	0					1											14												
WM080112	113922_fnca	1	1	1	2094175224	1	75.031	75.032	2.0.10.147	2.0.10.242	2.0.10.242	1.0.0.439	7	234	2	3	Verdana	1	80	0	0	0	WM Stimuli\	0.8	906.25	1	884.6	0.8	1082.625	1	791.7	0.8	1153.375	0.7	1090.85714285714	0.9	759.333333333333	1	858.2	13	559990	2	559978	27	40	560017	-999999	559993	0	5	TrialsPROC	FC_001_M1.png	1	2	15	SessionSelectionList														target	2	Face	0-Back	13	80	12	0	0	100	1	39	309867	1	13	73	307828	-1	308455	1	627	2	2	2039	52	309880	-53	0					2											15												
WM080112	113922_fnca	1	1	1	2094175224	1	75.031	75.032	2.0.10.147	2.0.10.242	2.0.10.242	1.0.0.439	7	234	2	3	Verdana	1	80	0	0	0	WM Stimuli\	0.8	906.25	1	884.6	0.8	1082.625	1	791.7	0.8	1153.375	0.7	1090.85714285714	0.9	759.333333333333	1	858.2	13	559990	2	559978	27	40	560017	-999999	559993	0	5	TrialsPROC	FC_003_M2.png	1	2	16	SessionSelectionList														nonlure	3	Face	0-Back	14	80	13	0	0	100	1	39	312439	1	14	72	310400	-1	310958	1	558	3	3	2039	53	312453	-54	0					3											16												
WM080112	113922_fnca	1	1	1	2094175224	1	75.031	75.032	2.0.10.147	2.0.10.242	2.0.10.242	1.0.0.439	7	234	2	3	Verdana	1	80	0	0	0	WM Stimuli\	0.8	906.25	1	884.6	0.8	1082.625	1	791.7	0.8	1153.375	0.7	1090.85714285714	0.9	759.333333333333	1	858.2	13	559990	2	559978	27	40	560017	-999999	559993	0	5	TrialsPROC	FC_004_F2.png	1	2	17	SessionSelectionList														nonlure	3	Face	0-Back	15	80	14	0	0	100	2	39	315011	2	14	72	312972	-1	313676	1	704	3	3	2039	53	315025	-54	0					4											17												
WM080112	113922_fnca	1	1	1	2094175224	1	75.031	75.032	2.0.10.147	2.0.10.242	2.0.10.242	1.0.0.439	7	234	2	3	Verdana	1	80	0	0	0	WM Stimuli\	0.8	906.25	1	884.6	0.8	1082.625	1	791.7	0.8	1153.375	0.7	1090.85714285714	0.9	759.333333333333	1	858.2	13	559990	2	559978	27	40	560017	-999999	559993	0	5	TrialsPROC	FC_004_F2.png	1	2	18	SessionSelectionList														lure	3	Face	0-Back	16	80	15	0	0	100	3	40	317584	1	13	72	315544	-1	316063	1	519	3	3	2040	53	317597	-54	0					5											18												
WM080112	113922_fnca	1	1	1	2094175224	1	75.031	75.032	2.0.10.147	2.0.10.242	2.0.10.242	1.0.0.439	7	234	2	3	Verdana	1	80	0	0	0	WM Stimuli\	0.8	906.25	1	884.6	0.8	1082.625	1	791.7	0.8	1153.375	0.7	1090.85714285714	0.9	759.333333333333	1	858.2	13	559990	2	559978	27	40	560017	-999999	559993	0	5	TrialsPROC	FC_001_M1.png	1	2	19	SessionSelectionList														target	2	Face	0-Back	17	80	16	0	0	100	1	39	320156	1	14	73	318117	-1	318802	1	685	2	2	2039	53	320170	-54	0					6											19												
WM080112	113922_fnca	1	1	1	2094175224	1	75.031	75.032	2.0.10.147	2.0.10.242	2.0.10.242	1.0.0.439	7	234	2	3	Verdana	1	80	0	0	0	WM Stimuli\	0.8	906.25	1	884.6	0.8	1082.625	1	791.7	0.8	1153.375	0.7	1090.85714285714	0.9	759.333333333333	1	858.2	13	559990	2	559978	27	40	560017	-999999	559993	0	5	TrialsPROC	FC_006_F3.png	1	2	20	SessionSelectionList														nonlure	3	Face	0-Back	18	80	17	0	0	100	1	39	322728	1	14	72	320689	-1	321251	1	562	3	3	2039	53	322742	-54	0					7											20												
WM080112	113922_fnca	1	1	1	2094175224	1	75.031	75.032	2.0.10.147	2.0.10.242	2.0.10.242	1.0.0.439	7	234	2	3	Verdana	1	80	0	0	0	WM Stimuli\	0.8	906.25	1	884.6	0.8	1082.625	1	791.7	0.8	1153.375	0.7	1090.85714285714	0.9	759.333333333333	1	858.2	13	559990	2	559978	27	40	560017	-999999	559993	0	5	TrialsPROC	FC_006_F3.png	1	2	21	SessionSelectionList														lure	3	Face	0-Back	19	80	18	0	0	100	2	39	325300	2	14	72	323261	-1	323943	1	682	3	3	2039	53	325314	-54	0					8											21												
WM080112	113922_fnca	1	1	1	2094175224	1	75.031	75.032	2.0.10.147	2.0.10.242	2.0.10.242	1.0.0.439	7	234	2	3	Verdana	1	80	0	0	0	WM Stimuli\	0.8	906.25	1	884.6	0.8	1082.625	1	791.7	0.8	1153.375	0.7	1090.85714285714	0.9	759.333333333333	1	858.2	13	559990	2	559978	27	40	560017	-999999	559993	0	5	TrialsPROC	FC_003_M2.png	1	2	22	SessionSelectionList														lure	3	Face	0-Back	20	80	19	0	0	100	3	40	327873	1	13	72	325833	-1	327307	1	1474	3	3	2040	53	327886	-54	0					9											22												
WM080112	113922_fnca	1	1	1	2094175224	1	75.031	75.032	2.0.10.147	2.0.10.242	2.0.10.242	1.0.0.439	7	234	2	3	Verdana	1	80	0	0	0	WM Stimuli\	0.8	906.25	1	884.6	0.8	1082.625	1	791.7	0.8	1153.375	0.7	1090.85714285714	0.9	759.333333333333	1	858.2	13	559990	2	559978	27	40	560017	-999999	559993	0	5	TrialsPROC	FC_002_F1.png	1	2	23	SessionSelectionList														nonlure	3	Face	0-Back	21	80	20	0	0	100	4	39	330445	1	14	73	328406	-1	329250	1	844	3	3	2039	53	330459	-54	0					10											23												
WM080112	113922_fnca	1	1	1	2094175224	1	75.031	75.032	2.0.10.147	2.0.10.242	2.0.10.242	1.0.0.439	7	234	2	3	Verdana	1	80	0	0	0	WM Stimuli\	0.8	906.25	1	884.6	0.8	1082.625	1	791.7	0.8	1153.375	0.7	1090.85714285714	0.9	759.333333333333	1	858.2	13	559990	2	559978	27	40	560017	-999999	559993	0	6	Fix15secPROC	""	1	2	24	SessionSelectionList																																															6	330912	-7	0							24												
WM080112	113922_fnca	1	1	1	2094175224	1	75.031	75.032	2.0.10.147	2.0.10.242	2.0.10.242	1.0.0.439	7	234	2	3	Verdana	1	80	0	0	0	WM Stimuli\	0.8	906.25	1	884.6	0.8	1082.625	1	791.7	0.8	1153.375	0.7	1090.85714285714	0.9	759.333333333333	1	858.2	13	559990	2	559978	27	40	560017	-999999	559993	0	7	Cue2BackPROC	""	1	2	25	SessionSelectionList									12	345918	-13	0																																													25												
WM080112	113922_fnca	1	1	1	2094175224	1	75.031	75.032	2.0.10.147	2.0.10.242	2.0.10.242	1.0.0.439	7	234	2	3	Verdana	1	80	0	0	0	WM Stimuli\	0.8	906.25	1	884.6	0.8	1082.625	1	791.7	0.8	1153.375	0.7	1090.85714285714	0.9	759.333333333333	1	858.2	13	559990	2	559978	27	40	560017	-999999	559993	0	8	TrialsPROC	TO_001_TOOL1_BA.png	1	2	26	SessionSelectionList														nonlure	3	Tools	2-Back	22	80	21	0	0	100	5	39	350503	2	14	58	348464	-1	349011	1	547	3	3	2039	53	350517	-54	0										1						26												
WM080112	113922_fnca	1	1	1	2094175224	1	75.031	75.032	2.0.10.147	2.0.10.242	2.0.10.242	1.0.0.439	7	234	2	3	Verdana	1	80	0	0	0	WM Stimuli\	0.8	906.25	1	884.6	0.8	1082.625	1	791.7	0.8	1153.375	0.7	1090.85714285714	0.9	759.333333333333	1	858.2	13	559990	2	559978	27	40	560017	-999999	559993	0	8	TrialsPROC	TO_002_TOOL2_BA.png	1	2	27	SessionSelectionList														nonlure	3	Tools	2-Back	23	80	22	0	0	100	6	39	353062	2	14	59	351023	-1	351565	1	542	3	3	2039	53	353076	-54	0										2						27												
WM080112	113922_fnca	1	1	1	2094175224	1	75.031	75.032	2.0.10.147	2.0.10.242	2.0.10.242	1.0.0.439	7	234	2	3	Verdana	1	80	0	0	0	WM Stimuli\	0.8	906.25	1	884.6	0.8	1082.625	1	791.7	0.8	1153.375	0.7	1090.85714285714	0.9	759.333333333333	1	858.2	13	559990	2	559978	27	40	560017	-999999	559993	0	8	TrialsPROC	TO_004_TOOL4_BA.png	1	2	28	SessionSelectionList														nonlure	3	Tools	2-Back	24	80	23	0	0	100	7	39	355621	2	14	59	353582	-1	354377	1	795	3	3	2039	53	355635	-54	0										3						28												
WM080112	113922_fnca	1	1	1	2094175224	1	75.031	75.032	2.0.10.147	2.0.10.242	2.0.10.242	1.0.0.439	7	234	2	3	Verdana	1	80	0	0	0	WM Stimuli\	0.8	906.25	1	884.6	0.8	1082.625	1	791.7	0.8	1153.375	0.7	1090.85714285714	0.9	759.333333333333	1	858.2	13	559990	2	559978	27	40	560017	-999999	559993	0	8	TrialsPROC	TO_002_TOOL2_BA.png	1	2	29	SessionSelectionList														target	2	Tools	2-Back	25	80	24	0	0	100	1	39	358180	2	14	59	356141	-1	356977	1	836	2	2	2039	53	358194	-54	0										4						29												
WM080112	113922_fnca	1	1	1	2094175224	1	75.031	75.032	2.0.10.147	2.0.10.242	2.0.10.242	1.0.0.439	7	234	2	3	Verdana	1	80	0	0	0	WM Stimuli\	0.8	906.25	1	884.6	0.8	1082.625	1	791.7	0.8	1153.375	0.7	1090.85714285714	0.9	759.333333333333	1	858.2	13	559990	2	559978	27	40	560017	-999999	559993	0	8	TrialsPROC	TO_001_TOOL1_BA.png	1	2	30	SessionSelectionList														lure	3	Tools	2-Back	26	80	25	0	0	100	1	39	360739	2	14	59	358700	-1	359735	1	1035	3	3	2039	53	360753	-54	0										5						30												
WM080112	113922_fnca	1	1	1	2094175224	1	75.031	75.032	2.0.10.147	2.0.10.242	2.0.10.242	1.0.0.439	7	234	2	3	Verdana	1	80	0	0	0	WM Stimuli\	0.8	906.25	1	884.6	0.8	1082.625	1	791.7	0.8	1153.375	0.7	1090.85714285714	0.9	759.333333333333	1	858.2	13	559990	2	559978	27	40	560017	-999999	559993	0	8	TrialsPROC	TO_004_TOOL4_BA.png	1	2	31	SessionSelectionList														lure	3	Tools	2-Back	27	80	26	0	0	100	1	39	363298	1	14	59	361259	-1	362314	0	1055	2	3	2039	53	363312	-54	0										6						31												
WM080112	113922_fnca	1	1	1	2094175224	1	75.031	75.032	2.0.10.147	2.0.10.242	2.0.10.242	1.0.0.439	7	234	2	3	Verdana	1	80	0	0	0	WM Stimuli\	0.8	906.25	1	884.6	0.8	1082.625	1	791.7	0.8	1153.375	0.7	1090.85714285714	0.9	759.333333333333	1	858.2	13	559990	2	559978	27	40	560017	-999999	559993	0	8	TrialsPROC	TO_006_TOOL6_BA.png	1	2	32	SessionSelectionList														nonlure	3	Tools	2-Back	28	80	27	0	0	100	1	39	365857	1	14	59	363818	-1	364630	1	812	3	3	2039	53	365871	-54	0										7						32												
WM080112	113922_fnca	1	1	1	2094175224	1	75.031	75.032	2.0.10.147	2.0.10.242	2.0.10.242	1.0.0.439	7	234	2	3	Verdana	1	80	0	0	0	WM Stimuli\	0.8	906.25	1	884.6	0.8	1082.625	1	791.7	0.8	1153.375	0.7	1090.85714285714	0.9	759.333333333333	1	858.2	13	559990	2	559978	27	40	560017	-999999	559993	0	8	TrialsPROC	TO_005_TOOL5_BA.png	1	2	33	SessionSelectionList														nonlure	3	Tools	2-Back	29	80	28	0	0	100	2	39	368416	1	13	59	366377	-1	367155	1	778	3	3	2039	52	368429	-53	0										8						33												
WM080112	113922_fnca	1	1	1	2094175224	1	75.031	75.032	2.0.10.147	2.0.10.242	2.0.10.242	1.0.0.439	7	234	2	3	Verdana	1	80	0	0	0	WM Stimuli\	0.8	906.25	1	884.6	0.8	1082.625	1	791.7	0.8	1153.375	0.7	1090.85714285714	0.9	759.333333333333	1	858.2	13	559990	2	559978	27	40	560017	-999999	559993	0	8	TrialsPROC	TO_006_TOOL6_BA.png	1	2	34	SessionSelectionList														target	2	Tools	2-Back	30	80	29	0	0	100	1	39	370975	1	13	59	368936	-1	369551	1	615	2	2	2039	52	370988	-53	0										9						34												
WM080112	113922_fnca	1	1	1	2094175224	1	75.031	75.032	2.0.10.147	2.0.10.242	2.0.10.242	1.0.0.439	7	234	2	3	Verdana	1	80	0	0	0	WM Stimuli\	0.8	906.25	1	884.6	0.8	1082.625	1	791.7	0.8	1153.375	0.7	1090.85714285714	0.9	759.333333333333	1	858.2	13	559990	2	559978	27	40	560017	-999999	559993	0	8	TrialsPROC	TO_003_TOOL3_BA.png	1	2	35	SessionSelectionList														nonlure	3	Tools	2-Back	31	80	30	0	0	100	1	39	373534	1	13	59	371495	-1	372369	1	874	3	3	2039	52	373547	-53	0										10						35												
WM080112	113922_fnca	1	1	1	2094175224	1	75.031	75.032	2.0.10.147	2.0.10.242	2.0.10.242	1.0.0.439	7	234	2	3	Verdana	1	80	0	0	0	WM Stimuli\	0.8	906.25	1	884.6	0.8	1082.625	1	791.7	0.8	1153.375	0.7	1090.85714285714	0.9	759.333333333333	1	858.2	13	559990	2	559978	27	40	560017	-999999	559993	0	9	Cue0BackPROC	BP_007_BP20_BA.png	1	2	36	SessionSelectionList																																										18	374013	-19	0												36												
WM080112	113922_fnca	1	1	1	2094175224	1	75.031	75.032	2.0.10.147	2.0.10.242	2.0.10.242	1.0.0.439	7	234	2	3	Verdana	1	80	0	0	0	WM Stimuli\	0.8	906.25	1	884.6	0.8	1082.625	1	791.7	0.8	1153.375	0.7	1090.85714285714	0.9	759.333333333333	1	858.2	13	559990	2	559978	27	40	560017	-999999	559993	0	10	TrialsPROC	BP_007_BP20_BA.png	1	2	37	SessionSelectionList														target	2	Body	0-Back	32	80	31	0	0	100	1	39	378585	1	14	51	376546	-1	377739	1	1193	2	2	2039	53	378599	-54	0											1					37												
WM080112	113922_fnca	1	1	1	2094175224	1	75.031	75.032	2.0.10.147	2.0.10.242	2.0.10.242	1.0.0.439	7	234	2	3	Verdana	1	80	0	0	0	WM Stimuli\	0.8	906.25	1	884.6	0.8	1082.625	1	791.7	0.8	1153.375	0.7	1090.85714285714	0.9	759.333333333333	1	858.2	13	559990	2	559978	27	40	560017	-999999	559993	0	10	TrialsPROC	BP_011_BP4_BA.png	1	2	38	SessionSelectionList														nonlure	3	Body	0-Back	33	80	32	0	0	100	1	39	381157	2	14	72	379118	-1	380262	1	1144	3	3	2039	53	381171	-54	0											2					38												
WM080112	113922_fnca	1	1	1	2094175224	1	75.031	75.032	2.0.10.147	2.0.10.242	2.0.10.242	1.0.0.439	7	234	2	3	Verdana	1	80	0	0	0	WM Stimuli\	0.8	906.25	1	884.6	0.8	1082.625	1	791.7	0.8	1153.375	0.7	1090.85714285714	0.9	759.333333333333	1	858.2	13	559990	2	559978	27	40	560017	-999999	559993	0	10	TrialsPROC	BP_010_BP3_BA.png	1	2	39	SessionSelectionList														nonlure	3	Body	0-Back	34	80	33	0	0	100	2	39	383716	2	14	59	381677	-1	382711	1	1034	3	3	2039	53	383730	-54	0											3					39												
WM080112	113922_fnca	1	1	1	2094175224	1	75.031	75.032	2.0.10.147	2.0.10.242	2.0.10.242	1.0.0.439	7	234	2	3	Verdana	1	80	0	0	0	WM Stimuli\	0.8	906.25	1	884.6	0.8	1082.625	1	791.7	0.8	1153.375	0.7	1090.85714285714	0.9	759.333333333333	1	858.2	13	559990	2	559978	27	40	560017	-999999	559993	0	10	TrialsPROC	BP_008_BP21_BA.png	1	2	40	SessionSelectionList														nonlure	3	Body	0-Back	35	80	34	0	0	100	3	39	386275	1	14	59	384236	-1	385016	1	780	3	3	2039	53	386289	-54	0											4					40												
WM080112	113922_fnca	1	1	1	2094175224	1	75.031	75.032	2.0.10.147	2.0.10.242	2.0.10.242	1.0.0.439	7	234	2	3	Verdana	1	80	0	0	0	WM Stimuli\	0.8	906.25	1	884.6	0.8	1082.625	1	791.7	0.8	1153.375	0.7	1090.85714285714	0.9	759.333333333333	1	858.2	13	559990	2	559978	27	40	560017	-999999	559993	0	10	TrialsPROC	BP_011_BP4_BA.png	1	2	41	SessionSelectionList														lure	3	Body	0-Back	36	80	35	0	0	100	4	39	388847	2	14	72	386808	-1	387780	1	972	3	3	2039	53	388861	-54	0											5					41												
WM080112	113922_fnca	1	1	1	2094175224	1	75.031	75.032	2.0.10.147	2.0.10.242	2.0.10.242	1.0.0.439	7	234	2	3	Verdana	1	80	0	0	0	WM Stimuli\	0.8	906.25	1	884.6	0.8	1082.625	1	791.7	0.8	1153.375	0.7	1090.85714285714	0.9	759.333333333333	1	858.2	13	559990	2	559978	27	40	560017	-999999	559993	0	10	TrialsPROC	BP_009_BP22_BA.png	1	2	42	SessionSelectionList														nonlure	3	Body	0-Back	37	80	36	0	0	100	5	39	391406	2	14	59	389367	-1	390268	1	901	3	3	2039	53	391420	-54	0											6					42												
WM080112	113922_fnca	1	1	1	2094175224	1	75.031	75.032	2.0.10.147	2.0.10.242	2.0.10.242	1.0.0.439	7	234	2	3	Verdana	1	80	0	0	0	WM Stimuli\	0.8	906.25	1	884.6	0.8	1082.625	1	791.7	0.8	1153.375	0.7	1090.85714285714	0.9	759.333333333333	1	858.2	13	559990	2	559978	27	40	560017	-999999	559993	0	10	TrialsPROC	BP_009_BP22_BA.png	1	2	43	SessionSelectionList														lure	3	Body	0-Back	38	80	37	0	0	100	6	39	393965	2	14	59	391926	-1	392544	1	618	3	3	2039	53	393979	-54	0											7					43												
WM080112	113922_fnca	1	1	1	2094175224	1	75.031	75.032	2.0.10.147	2.0.10.242	2.0.10.242	1.0.0.439	7	234	2	3	Verdana	1	80	0	0	0	WM Stimuli\	0.8	906.25	1	884.6	0.8	1082.625	1	791.7	0.8	1153.375	0.7	1090.85714285714	0.9	759.333333333333	1	858.2	13	559990	2	559978	27	40	560017	-999999	559993	0	10	TrialsPROC	BP_008_BP21_BA.png	1	2	44	SessionSelectionList														lure	3	Body	0-Back	39	80	38	0	0	100	7	39	396524	2	14	59	394485	-1	395323	1	838	3	3	2039	53	396538	-54	0											8					44												
WM080112	113922_fnca	1	1	1	2094175224	1	75.031	75.032	2.0.10.147	2.0.10.242	2.0.10.242	1.0.0.439	7	234	2	3	Verdana	1	80	0	0	0	WM Stimuli\	0.8	906.25	1	884.6	0.8	1082.625	1	791.7	0.8	1153.375	0.7	1090.85714285714	0.9	759.333333333333	1	858.2	13	559990	2	559978	27	40	560017	-999999	559993	0	10	TrialsPROC	BP_007_BP20_BA.png	1	2	45	SessionSelectionList														target	2	Body	0-Back	40	80	39	0	0	100	1	39	399083	1	14	59	397044	-1	397780	1	736	2	2	2039	53	399097	-54	0											9					45												
WM080112	113922_fnca	1	1	1	2094175224	1	75.031	75.032	2.0.10.147	2.0.10.242	2.0.10.242	1.0.0.439	7	234	2	3	Verdana	1	80	0	0	0	WM Stimuli\	0.8	906.25	1	884.6	0.8	1082.625	1	791.7	0.8	1153.375	0.7	1090.85714285714	0.9	759.333333333333	1	858.2	13	559990	2	559978	27	40	560017	-999999	559993	0	10	TrialsPROC	BP_012_BP5_BA.png	1	2	46	SessionSelectionList														nonlure	3	Body	0-Back	41	80	40	0	0	100	1	39	401655	2	14	72	399616	-1	400246	1	630	3	3	2039	53	401669	-54	0											10					46												
WM080112	113922_fnca	1	1	1	2094175224	1	75.031	75.032	2.0.10.147	2.0.10.242	2.0.10.242	1.0.0.439	7	234	2	3	Verdana	1	80	0	0	0	WM Stimuli\	0.8	906.25	1	884.6	0.8	1082.625	1	791.7	0.8	1153.375	0.7	1090.85714285714	0.9	759.333333333333	1	858.2	13	559990	2	559978	27	40	560017	-999999	559993	0	11	Fix15secPROC	""	1	2	47	SessionSelectionList																																															6	402122	-7	0							47												
WM080112	113922_fnca	1	1	1	2094175224	1	75.031	75.032	2.0.10.147	2.0.10.242	2.0.10.242	1.0.0.439	7	234	2	3	Verdana	1	80	0	0	0	WM Stimuli\	0.8	906.25	1	884.6	0.8	1082.625	1	791.7	0.8	1153.375	0.7	1090.85714285714	0.9	759.333333333333	1	858.2	13	559990	2	559978	27	40	560017	-999999	559993	0	12	Cue0BackPROC	PL_001_92012.png	1	2	48	SessionSelectionList																																										13	417129	-14	0												48												
WM080112	113922_fnca	1	1	1	2094175224	1	75.031	75.032	2.0.10.147	2.0.10.242	2.0.10.242	1.0.0.439	7	234	2	3	Verdana	1	80	0	0	0	WM Stimuli\	0.8	906.25	1	884.6	0.8	1082.625	1	791.7	0.8	1153.375	0.7	1090.85714285714	0.9	759.333333333333	1	858.2	13	559990	2	559978	27	40	560017	-999999	559993	0	13	TrialsPROC	PL_003_92016.png	1	2	49	SessionSelectionList														nonlure	3	Place	0-Back	42	80	41	0	0	100	2	39	421727	2	14	72	419688	-1	421644	1	1956	3	3	2039	53	421741	-54	0												1				49												
WM080112	113922_fnca	1	1	1	2094175224	1	75.031	75.032	2.0.10.147	2.0.10.242	2.0.10.242	1.0.0.439	7	234	2	3	Verdana	1	80	0	0	0	WM Stimuli\	0.8	906.25	1	884.6	0.8	1082.625	1	791.7	0.8	1153.375	0.7	1090.85714285714	0.9	759.333333333333	1	858.2	13	559990	2	559978	27	40	560017	-999999	559993	0	13	TrialsPROC	PL_003_92016.png	1	2	50	SessionSelectionList														lure	3	Place	0-Back	43	80	42	0	0	100	3	39	424299	2	14	72	422260	-1	423333	1	1073	3	3	2039	53	424313	-54	0												2				50												
WM080112	113922_fnca	1	1	1	2094175224	1	75.031	75.032	2.0.10.147	2.0.10.242	2.0.10.242	1.0.0.439	7	234	2	3	Verdana	1	80	0	0	0	WM Stimuli\	0.8	906.25	1	884.6	0.8	1082.625	1	791.7	0.8	1153.375	0.7	1090.85714285714	0.9	759.333333333333	1	858.2	13	559990	2	559978	27	40	560017	-999999	559993	0	13	TrialsPROC	PL_006_92025.png	1	2	51	SessionSelectionList														nonlure	3	Place	0-Back	44	80	43	0	0	100	4	40	426872	1	13	72	424832	-1	425823	1	991	3	3	2040	53	426885	-54	0												3				51												
WM080112	113922_fnca	1	1	1	2094175224	1	75.031	75.032	2.0.10.147	2.0.10.242	2.0.10.242	1.0.0.439	7	234	2	3	Verdana	1	80	0	0	0	WM Stimuli\	0.8	906.25	1	884.6	0.8	1082.625	1	791.7	0.8	1153.375	0.7	1090.85714285714	0.9	759.333333333333	1	858.2	13	559990	2	559978	27	40	560017	-999999	559993	0	13	TrialsPROC	PL_001_92012.png	1	2	52	SessionSelectionList														target	2	Place	0-Back	45	80	44	0	0	96	5	39	429444	2	13	73	427405	-1	428294	0	889	3	2	2039	52	429457	-53	0												4				52												
WM080112	113922_fnca	1	1	1	2094175224	1	75.031	75.032	2.0.10.147	2.0.10.242	2.0.10.242	1.0.0.439	7	234	2	3	Verdana	1	80	0	0	0	WM Stimuli\	0.8	906.25	1	884.6	0.8	1082.625	1	791.7	0.8	1153.375	0.7	1090.85714285714	0.9	759.333333333333	1	858.2	13	559990	2	559978	27	40	560017	-999999	559993	0	13	TrialsPROC	PL_004_92023.png	1	2	53	SessionSelectionList														nonlure	3	Place	0-Back	46	80	45	0	0	96	6	39	432003	1	13	59	429964	-1	430640	1	676	3	3	2039	52	432016	-53	0												5				53												
WM080112	113922_fnca	1	1	1	2094175224	1	75.031	75.032	2.0.10.147	2.0.10.242	2.0.10.242	1.0.0.439	7	234	2	3	Verdana	1	80	0	0	0	WM Stimuli\	0.8	906.25	1	884.6	0.8	1082.625	1	791.7	0.8	1153.375	0.7	1090.85714285714	0.9	759.333333333333	1	858.2	13	559990	2	559978	27	40	560017	-999999	559993	0	13	TrialsPROC	PL_005_92024.png	1	2	54	SessionSelectionList														nonlure	3	Place	0-Back	47	80	46	0	0	96	7	39	434575	1	14	72	432536	-1	433555	1	1019	3	3	2039	53	434589	-54	0												6				54												
WM080112	113922_fnca	1	1	1	2094175224	1	75.031	75.032	2.0.10.147	2.0.10.242	2.0.10.242	1.0.0.439	7	234	2	3	Verdana	1	80	0	0	0	WM Stimuli\	0.8	906.25	1	884.6	0.8	1082.625	1	791.7	0.8	1153.375	0.7	1090.85714285714	0.9	759.333333333333	1	858.2	13	559990	2	559978	27	40	560017	-999999	559993	0	13	TrialsPROC	PL_001_92012.png	1	2	55	SessionSelectionList														target	2	Place	0-Back	48	80	47	0	0	93	8	39	437147	2	14	72	435108	-1	436280	0	1172	3	2	2039	53	437161	-54	0												7				55												
WM080112	113922_fnca	1	1	1	2094175224	1	75.031	75.032	2.0.10.147	2.0.10.242	2.0.10.242	1.0.0.439	7	234	2	3	Verdana	1	80	0	0	0	WM Stimuli\	0.8	906.25	1	884.6	0.8	1082.625	1	791.7	0.8	1153.375	0.7	1090.85714285714	0.9	759.333333333333	1	858.2	13	559990	2	559978	27	40	560017	-999999	559993	0	13	TrialsPROC	PL_002_92014.png	1	2	56	SessionSelectionList														nonlure	3	Place	0-Back	49	80	48	0	0	93	9	40	439720	1	13	72	437680	-1	438777	1	1097	3	3	2040	53	439733	-54	0												8				56												
WM080112	113922_fnca	1	1	1	2094175224	1	75.031	75.032	2.0.10.147	2.0.10.242	2.0.10.242	1.0.0.439	7	234	2	3	Verdana	1	80	0	0	0	WM Stimuli\	0.8	906.25	1	884.6	0.8	1082.625	1	791.7	0.8	1153.375	0.7	1090.85714285714	0.9	759.333333333333	1	858.2	13	559990	2	559978	27	40	560017	-999999	559993	0	13	TrialsPROC	PL_004_92023.png	1	2	57	SessionSelectionList														lure	3	Place	0-Back	50	80	49	0	0	93	10	39	442292	1	14	73	440253	-1	441077	1	824	3	3	2039	53	442306	-54	0												9				57												
WM080112	113922_fnca	1	1	1	2094175224	1	75.031	75.032	2.0.10.147	2.0.10.242	2.0.10.242	1.0.0.439	7	234	2	3	Verdana	1	80	0	0	0	WM Stimuli\	0.8	906.25	1	884.6	0.8	1082.625	1	791.7	0.8	1153.375	0.7	1090.85714285714	0.9	759.333333333333	1	858.2	13	559990	2	559978	27	40	560017	-999999	559993	0	13	TrialsPROC	PL_006_92025.png	1	2	58	SessionSelectionList														lure	3	Place	0-Back	51	80	50	0	0	90	1	39	444864	1	14	72	442825	-1	443738	0	913	2	3	2039	53	444878	-54	0												10				58												
WM080112	113922_fnca	1	1	1	2094175224	1	75.031	75.032	2.0.10.147	2.0.10.242	2.0.10.242	1.0.0.439	7	234	2	3	Verdana	1	80	0	0	0	WM Stimuli\	0.8	906.25	1	884.6	0.8	1082.625	1	791.7	0.8	1153.375	0.7	1090.85714285714	0.9	759.333333333333	1	858.2	13	559990	2	559978	27	40	560017	-999999	559993	0	14	Cue2BackPROC	""	1	2	59	SessionSelectionList									6	445331	-7	0																																													59												
WM080112	113922_fnca	1	1	1	2094175224	1	75.031	75.032	2.0.10.147	2.0.10.242	2.0.10.242	1.0.0.439	7	234	2	3	Verdana	1	80	0	0	0	WM Stimuli\	0.8	906.25	1	884.6	0.8	1082.625	1	791.7	0.8	1153.375	0.7	1090.85714285714	0.9	759.333333333333	1	858.2	13	559990	2	559978	27	40	560017	-999999	559993	0	15	TrialsPROC	FC_010_F5.png	1	2	60	SessionSelectionList														nonlure	3	Face	2-Back	52	80	51	0	0	90	1	40	449929	1	13	64	447889	-1	449572	1	1683	3	3	2040	53	449942	-54	0													1			60												
WM080112	113922_fnca	1	1	1	2094175224	1	75.031	75.032	2.0.10.147	2.0.10.242	2.0.10.242	1.0.0.439	7	234	2	3	Verdana	1	80	0	0	0	WM Stimuli\	0.8	906.25	1	884.6	0.8	1082.625	1	791.7	0.8	1153.375	0.7	1090.85714285714	0.9	759.333333333333	1	858.2	13	559990	2	559978	27	40	560017	-999999	559993	0	15	TrialsPROC	FC_012_F6.png	1	2	61	SessionSelectionList														nonlure	3	Face	2-Back	53	80	52	0	0	90	2	39	452501	1	14	73	450462	-1	451315	1	853	3	3	2039	53	452515	-54	0													2			61												
WM080112	113922_fnca	1	1	1	2094175224	1	75.031	75.032	2.0.10.147	2.0.10.242	2.0.10.242	1.0.0.439	7	234	2	3	Verdana	1	80	0	0	0	WM Stimuli\	0.8	906.25	1	884.6	0.8	1082.625	1	791.7	0.8	1153.375	0.7	1090.85714285714	0.9	759.333333333333	1	858.2	13	559990	2	559978	27	40	560017	-999999	559993	0	15	TrialsPROC	FC_010_F5.png	1	2	62	SessionSelectionList														target	2	Face	2-Back	54	80	53	0	0	90	1	39	455073	2	14	72	453034	-1	453663	1	629	2	2	2039	53	455087	-54	0													3			62												
WM080112	113922_fnca	1	1	1	2094175224	1	75.031	75.032	2.0.10.147	2.0.10.242	2.0.10.242	1.0.0.439	7	234	2	3	Verdana	1	80	0	0	0	WM Stimuli\	0.8	906.25	1	884.6	0.8	1082.625	1	791.7	0.8	1153.375	0.7	1090.85714285714	0.9	759.333333333333	1	858.2	13	559990	2	559978	27	40	560017	-999999	559993	0	15	TrialsPROC	FC_008_F4.png	1	2	63	SessionSelectionList														nonlure	3	Face	2-Back	55	80	54	0	0	90	1	39	457645	2	14	72	455606	-1	456364	1	758	3	3	2039	53	457659	-54	0													4			63												
WM080112	113922_fnca	1	1	1	2094175224	1	75.031	75.032	2.0.10.147	2.0.10.242	2.0.10.242	1.0.0.439	7	234	2	3	Verdana	1	80	0	0	0	WM Stimuli\	0.8	906.25	1	884.6	0.8	1082.625	1	791.7	0.8	1153.375	0.7	1090.85714285714	0.9	759.333333333333	1	858.2	13	559990	2	559978	27	40	560017	-999999	559993	0	15	TrialsPROC	FC_012_F6.png	1	2	64	SessionSelectionList														lure	3	Face	2-Back	56	80	55	0	0	90	1	39	460218	1	13	73	458179	-1	458925	0	746	2	3	2039	52	460231	-53	0													5			64												
WM080112	113922_fnca	1	1	1	2094175224	1	75.031	75.032	2.0.10.147	2.0.10.242	2.0.10.242	1.0.0.439	7	234	2	3	Verdana	1	80	0	0	0	WM Stimuli\	0.8	906.25	1	884.6	0.8	1082.625	1	791.7	0.8	1153.375	0.7	1090.85714285714	0.9	759.333333333333	1	858.2	13	559990	2	559978	27	40	560017	-999999	559993	0	15	TrialsPROC	FC_008_F4.png	1	2	65	SessionSelectionList														target	2	Face	2-Back	57	80	56	0	0	90	2	39	462790	1	14	72	460751	-1	462076	1	1325	2	2	2039	53	462804	-54	0													6			65												
WM080112	113922_fnca	1	1	1	2094175224	1	75.031	75.032	2.0.10.147	2.0.10.242	2.0.10.242	1.0.0.439	7	234	2	3	Verdana	1	80	0	0	0	WM Stimuli\	0.8	906.25	1	884.6	0.8	1082.625	1	791.7	0.8	1153.375	0.7	1090.85714285714	0.9	759.333333333333	1	858.2	13	559990	2	559978	27	40	560017	-999999	559993	0	15	TrialsPROC	FC_007_M4.png	1	2	66	SessionSelectionList														nonlure	3	Face	2-Back	58	80	57	0	0	90	1	39	465362	2	14	72	463323	-1	464389	1	1066	3	3	2039	53	465376	-54	0													7			66												
WM080112	113922_fnca	1	1	1	2094175224	1	75.031	75.032	2.0.10.147	2.0.10.242	2.0.10.242	1.0.0.439	7	234	2	3	Verdana	1	80	0	0	0	WM Stimuli\	0.8	906.25	1	884.6	0.8	1082.625	1	791.7	0.8	1153.375	0.7	1090.85714285714	0.9	759.333333333333	1	858.2	13	559990	2	559978	27	40	560017	-999999	559993	0	15	TrialsPROC	FC_007_M4.png	1	2	67	SessionSelectionList														lure	3	Face	2-Back	59	80	58	0	0	90	2	40	467935	1	13	72	465895	-1	467111	1	1216	3	3	2040	53	467948	-54	0													8			67												
WM080112	113922_fnca	1	1	1	2094175224	1	75.031	75.032	2.0.10.147	2.0.10.242	2.0.10.242	1.0.0.439	7	234	2	3	Verdana	1	80	0	0	0	WM Stimuli\	0.8	906.25	1	884.6	0.8	1082.625	1	791.7	0.8	1153.375	0.7	1090.85714285714	0.9	759.333333333333	1	858.2	13	559990	2	559978	27	40	560017	-999999	559993	0	15	TrialsPROC	FC_009_M5.png	1	2	68	SessionSelectionList														nonlure	3	Face	2-Back	60	80	59	0	0	90	1	39	470507	1	13	73	468468	-1	469435	0	967	2	3	2039	52	470520	-53	0													9			68												
WM080112	113922_fnca	1	1	1	2094175224	1	75.031	75.032	2.0.10.147	2.0.10.242	2.0.10.242	1.0.0.439	7	234	2	3	Verdana	1	80	0	0	0	WM Stimuli\	0.8	906.25	1	884.6	0.8	1082.625	1	791.7	0.8	1153.375	0.7	1090.85714285714	0.9	759.333333333333	1	858.2	13	559990	2	559978	27	40	560017	-999999	559993	0	15	TrialsPROC	FC_011_M6.png	1	2	69	SessionSelectionList														nonlure	3	Face	2-Back	61	80	60	0	0	90	1	39	473079	1	14	72	471040	-1	472171	1	1131	3	3	2039	53	473093	-54	0													10			69												
WM080112	113922_fnca	1	1	1	2094175224	1	75.031	75.032	2.0.10.147	2.0.10.242	2.0.10.242	1.0.0.439	7	234	2	3	Verdana	1	80	0	0	0	WM Stimuli\	0.8	906.25	1	884.6	0.8	1082.625	1	791.7	0.8	1153.375	0.7	1090.85714285714	0.9	759.333333333333	1	858.2	13	559990	2	559978	27	40	560017	-999999	559993	0	16	Fix15secPROC	""	1	2	70	SessionSelectionList																																															6	473546	-7	0							70												
WM080112	113922_fnca	1	1	1	2094175224	1	75.031	75.032	2.0.10.147	2.0.10.242	2.0.10.242	1.0.0.439	7	234	2	3	Verdana	1	80	0	0	0	WM Stimuli\	0.8	906.25	1	884.6	0.8	1082.625	1	791.7	0.8	1153.375	0.7	1090.85714285714	0.9	759.333333333333	1	858.2	13	559990	2	559978	27	40	560017	-999999	559993	0	17	Cue0BackPROC	TO_007_TOOL7_BA.png	1	2	71	SessionSelectionList																																										39	488579	-40	0												71												
WM080112	113922_fnca	1	1	1	2094175224	1	75.031	75.032	2.0.10.147	2.0.10.242	2.0.10.242	1.0.0.439	7	234	2	3	Verdana	1	80	0	0	0	WM Stimuli\	0.8	906.25	1	884.6	0.8	1082.625	1	791.7	0.8	1153.375	0.7	1090.85714285714	0.9	759.333333333333	1	858.2	13	559990	2	559978	27	40	560017	-999999	559993	0	18	TrialsPROC	TO_010_TOOL10_BA.png	1	2	72	SessionSelectionList														nonlure	3	Tools	0-Back	62	80	61	0	0	90	2	39	493151	1	13	72	491112	-1	492675	1	1563	3	3	2039	52	493164	-53	0														1		72												
WM080112	113922_fnca	1	1	1	2094175224	1	75.031	75.032	2.0.10.147	2.0.10.242	2.0.10.242	1.0.0.439	7	234	2	3	Verdana	1	80	0	0	0	WM Stimuli\	0.8	906.25	1	884.6	0.8	1082.625	1	791.7	0.8	1153.375	0.7	1090.85714285714	0.9	759.333333333333	1	858.2	13	559990	2	559978	27	40	560017	-999999	559993	0	18	TrialsPROC	TO_009_TOOL9_BA.png	1	2	73	SessionSelectionList														nonlure	3	Tools	0-Back	63	80	62	0	0	91	3	39	495736	2	14	85	493697	-1	494906	1	1209	3	3	2039	53	495750	-54	0														2		73												
WM080112	113922_fnca	1	1	1	2094175224	1	75.031	75.032	2.0.10.147	2.0.10.242	2.0.10.242	1.0.0.439	7	234	2	3	Verdana	1	80	0	0	0	WM Stimuli\	0.8	906.25	1	884.6	0.8	1082.625	1	791.7	0.8	1153.375	0.7	1090.85714285714	0.9	759.333333333333	1	858.2	13	559990	2	559978	27	40	560017	-999999	559993	0	18	TrialsPROC	TO_009_TOOL9_BA.png	1	2	74	SessionSelectionList														lure	3	Tools	0-Back	64	80	63	0	0	91	4	39	498295	2	14	59	496256	-1	496837	1	581	3	3	2039	53	498309	-54	0														3		74												
WM080112	113922_fnca	1	1	1	2094175224	1	75.031	75.032	2.0.10.147	2.0.10.242	2.0.10.242	1.0.0.439	7	234	2	3	Verdana	1	80	0	0	0	WM Stimuli\	0.8	906.25	1	884.6	0.8	1082.625	1	791.7	0.8	1153.375	0.7	1090.85714285714	0.9	759.333333333333	1	858.2	13	559990	2	559978	27	40	560017	-999999	559993	0	18	TrialsPROC	TO_008_TOOL8_BA.png	1	2	75	SessionSelectionList														nonlure	3	Tools	0-Back	65	80	64	0	0	91	5	39	500881	1	13	86	498842	-1	499573	1	731	3	3	2039	52	500894	-53	0														4		75												
WM080112	113922_fnca	1	1	1	2094175224	1	75.031	75.032	2.0.10.147	2.0.10.242	2.0.10.242	1.0.0.439	7	234	2	3	Verdana	1	80	0	0	0	WM Stimuli\	0.8	906.25	1	884.6	0.8	1082.625	1	791.7	0.8	1153.375	0.7	1090.85714285714	0.9	759.333333333333	1	858.2	13	559990	2	559978	27	40	560017	-999999	559993	0	18	TrialsPROC	TO_011_TOOL11_BA.png	1	2	76	SessionSelectionList														nonlure	3	Tools	0-Back	66	80	65	0	0	91	6	39	503466	2	14	85	501427	-1	502349	1	922	3	3	2039	53	503480	-54	0														5		76												
WM080112	113922_fnca	1	1	1	2094175224	1	75.031	75.032	2.0.10.147	2.0.10.242	2.0.10.242	1.0.0.439	7	234	2	3	Verdana	1	80	0	0	0	WM Stimuli\	0.8	906.25	1	884.6	0.8	1082.625	1	791.7	0.8	1153.375	0.7	1090.85714285714	0.9	759.333333333333	1	858.2	13	559990	2	559978	27	40	560017	-999999	559993	0	18	TrialsPROC	TO_012_TOOL12_BA.png	1	2	77	SessionSelectionList														nonlure	3	Tools	0-Back	67	80	66	0	0	92	7	39	506052	1	14	86	504013	-1	504933	1	920	3	3	2039	53	506066	-54	0														6		77												
WM080112	113922_fnca	1	1	1	2094175224	1	75.031	75.032	2.0.10.147	2.0.10.242	2.0.10.242	1.0.0.439	7	234	2	3	Verdana	1	80	0	0	0	WM Stimuli\	0.8	906.25	1	884.6	0.8	1082.625	1	791.7	0.8	1153.375	0.7	1090.85714285714	0.9	759.333333333333	1	858.2	13	559990	2	559978	27	40	560017	-999999	559993	0	18	TrialsPROC	TO_010_TOOL10_BA.png	1	2	78	SessionSelectionList														lure	3	Tools	0-Back	68	80	67	0	0	92	8	39	508611	1	14	59	506572	-1	507398	1	826	3	3	2039	53	508625	-54	0														7		78												
WM080112	113922_fnca	1	1	1	2094175224	1	75.031	75.032	2.0.10.147	2.0.10.242	2.0.10.242	1.0.0.439	7	234	2	3	Verdana	1	80	0	0	0	WM Stimuli\	0.8	906.25	1	884.6	0.8	1082.625	1	791.7	0.8	1153.375	0.7	1090.85714285714	0.9	759.333333333333	1	858.2	13	559990	2	559978	27	40	560017	-999999	559993	0	18	TrialsPROC	TO_007_TOOL7_BA.png	1	2	79	SessionSelectionList														target	2	Tools	0-Back	69	80	68	0	0	92	1	39	511170	1	14	59	509131	-1	509753	1	622	2	2	2039	53	511184	-54	0														8		79												
WM080112	113922_fnca	1	1	1	2094175224	1	75.031	75.032	2.0.10.147	2.0.10.242	2.0.10.242	1.0.0.439	7	234	2	3	Verdana	1	80	0	0	0	WM Stimuli\	0.8	906.25	1	884.6	0.8	1082.625	1	791.7	0.8	1153.375	0.7	1090.85714285714	0.9	759.333333333333	1	858.2	13	559990	2	559978	27	40	560017	-999999	559993	0	18	TrialsPROC	TO_008_TOOL8_BA.png	1	2	80	SessionSelectionList														lure	3	Tools	0-Back	70	80	69	0	0	92	1	39	513729	1	13	59	511690	-1	512175	1	485	3	3	2039	52	513742	-53	0														9		80												
WM080112	113922_fnca	1	1	1	2094175224	1	75.031	75.032	2.0.10.147	2.0.10.242	2.0.10.242	1.0.0.439	7	234	2	3	Verdana	1	80	0	0	0	WM Stimuli\	0.8	906.25	1	884.6	0.8	1082.625	1	791.7	0.8	1153.375	0.7	1090.85714285714	0.9	759.333333333333	1	858.2	13	559990	2	559978	27	40	560017	-999999	559993	0	18	TrialsPROC	TO_007_TOOL7_BA.png	1	2	81	SessionSelectionList														target	2	Tools	0-Back	71	80	70	0	0	92	1	39	516288	1	13	59	514249	-1	514972	1	723	2	2	2039	52	516301	-53	0														10		81												
WM080112	113922_fnca	1	1	1	2094175224	1	75.031	75.032	2.0.10.147	2.0.10.242	2.0.10.242	1.0.0.439	7	234	2	3	Verdana	1	80	0	0	0	WM Stimuli\	0.8	906.25	1	884.6	0.8	1082.625	1	791.7	0.8	1153.375	0.7	1090.85714285714	0.9	759.333333333333	1	858.2	13	559990	2	559978	27	40	560017	-999999	559993	0	19	Cue2BackPROC	""	1	2	82	SessionSelectionList									5	516754	-6	0																																													82												
WM080112	113922_fnca	1	1	1	2094175224	1	75.031	75.032	2.0.10.147	2.0.10.242	2.0.10.242	1.0.0.439	7	234	2	3	Verdana	1	80	0	0	0	WM Stimuli\	0.8	906.25	1	884.6	0.8	1082.625	1	791.7	0.8	1153.375	0.7	1090.85714285714	0.9	759.333333333333	1	858.2	13	559990	2	559978	27	40	560017	-999999	559993	0	20	TrialsPROC	PL_007_92026.png	1	2	83	SessionSelectionList														nonlure	3	Place	2-Back	72	80	70	0	1	92	1	39	521352	2	14	64	519313	-1	0	0	0	""	3	2039	53	521366	-54	0															1	83												
WM080112	113922_fnca	1	1	1	2094175224	1	75.031	75.032	2.0.10.147	2.0.10.242	2.0.10.242	1.0.0.439	7	234	2	3	Verdana	1	80	0	0	0	WM Stimuli\	0.8	906.25	1	884.6	0.8	1082.625	1	791.7	0.8	1153.375	0.7	1090.85714285714	0.9	759.333333333333	1	858.2	13	559990	2	559978	27	40	560017	-999999	559993	0	20	TrialsPROC	PL_007_92026.png	1	2	84	SessionSelectionList														lure	3	Place	2-Back	73	80	71	0	0	92	1	40	523925	1	13	72	521885	-1	522792	1	907	3	3	2040	53	523938	-54	0															2	84												
WM080112	113922_fnca	1	1	1	2094175224	1	75.031	75.032	2.0.10.147	2.0.10.242	2.0.10.242	1.0.0.439	7	234	2	3	Verdana	1	80	0	0	0	WM Stimuli\	0.8	906.25	1	884.6	0.8	1082.625	1	791.7	0.8	1153.375	0.7	1090.85714285714	0.9	759.333333333333	1	858.2	13	559990	2	559978	27	40	560017	-999999	559993	0	20	TrialsPROC	PL_010_92038.png	1	2	85	SessionSelectionList														nonlure	3	Place	2-Back	74	80	72	0	0	92	2	39	526510	2	14	86	524471	-1	525632	1	1161	3	3	2039	53	526524	-54	0															3	85												
WM080112	113922_fnca	1	1	1	2094175224	1	75.031	75.032	2.0.10.147	2.0.10.242	2.0.10.242	1.0.0.439	7	234	2	3	Verdana	1	80	0	0	0	WM Stimuli\	0.8	906.25	1	884.6	0.8	1082.625	1	791.7	0.8	1153.375	0.7	1090.85714285714	0.9	759.333333333333	1	858.2	13	559990	2	559978	27	40	560017	-999999	559993	0	20	TrialsPROC	PL_009_92037.png	1	2	86	SessionSelectionList														nonlure	3	Place	2-Back	75	80	73	0	0	92	3	39	529082	2	14	72	527043	-1	528580	1	1537	3	3	2039	53	529096	-54	0															4	86												
WM080112	113922_fnca	1	1	1	2094175224	1	75.031	75.032	2.0.10.147	2.0.10.242	2.0.10.242	1.0.0.439	7	234	2	3	Verdana	1	80	0	0	0	WM Stimuli\	0.8	906.25	1	884.6	0.8	1082.625	1	791.7	0.8	1153.375	0.7	1090.85714285714	0.9	759.333333333333	1	858.2	13	559990	2	559978	27	40	560017	-999999	559993	0	20	TrialsPROC	PL_010_92038.png	1	2	87	SessionSelectionList														target	2	Place	2-Back	76	80	74	0	0	92	1	39	531655	1	13	73	529616	-1	530394	1	778	2	2	2039	52	531668	-53	0															5	87												
WM080112	113922_fnca	1	1	1	2094175224	1	75.031	75.032	2.0.10.147	2.0.10.242	2.0.10.242	1.0.0.439	7	234	2	3	Verdana	1	80	0	0	0	WM Stimuli\	0.8	906.25	1	884.6	0.8	1082.625	1	791.7	0.8	1153.375	0.7	1090.85714285714	0.9	759.333333333333	1	858.2	13	559990	2	559978	27	40	560017	-999999	559993	0	20	TrialsPROC	PL_009_92037.png	1	2	88	SessionSelectionList														target	2	Place	2-Back	77	80	75	0	0	92	1	39	534227	1	14	72	532188	-1	532958	0	770	3	2	2039	53	534241	-54	0															6	88												
WM080112	113922_fnca	1	1	1	2094175224	1	75.031	75.032	2.0.10.147	2.0.10.242	2.0.10.242	1.0.0.439	7	234	2	3	Verdana	1	80	0	0	0	WM Stimuli\	0.8	906.25	1	884.6	0.8	1082.625	1	791.7	0.8	1153.375	0.7	1090.85714285714	0.9	759.333333333333	1	858.2	13	559990	2	559978	27	40	560017	-999999	559993	0	20	TrialsPROC	PL_008_92033.png	1	2	89	SessionSelectionList														nonlure	3	Place	2-Back	78	80	76	0	0	92	2	39	536799	2	14	72	534760	-1	536144	1	1384	3	3	2039	53	536813	-54	0															7	89												
WM080112	113922_fnca	1	1	1	2094175224	1	75.031	75.032	2.0.10.147	2.0.10.242	2.0.10.242	1.0.0.439	7	234	2	3	Verdana	1	80	0	0	0	WM Stimuli\	0.8	906.25	1	884.6	0.8	1082.625	1	791.7	0.8	1153.375	0.7	1090.85714285714	0.9	759.333333333333	1	858.2	13	559990	2	559978	27	40	560017	-999999	559993	0	20	TrialsPROC	PL_012_92047.png	1	2	90	SessionSelectionList														nonlure	3	Place	2-Back	79	80	77	0	0	92	3	40	539372	1	13	72	537332	-1	538276	1	944	3	3	2040	53	539385	-54	0															8	90												
WM080112	113922_fnca	1	1	1	2094175224	1	75.031	75.032	2.0.10.147	2.0.10.242	2.0.10.242	1.0.0.439	7	234	2	3	Verdana	1	80	0	0	0	WM Stimuli\	0.8	906.25	1	884.6	0.8	1082.625	1	791.7	0.8	1153.375	0.7	1090.85714285714	0.9	759.333333333333	1	858.2	13	559990	2	559978	27	40	560017	-999999	559993	0	20	TrialsPROC	PL_012_92047.png	1	2	91	SessionSelectionList														lure	3	Place	2-Back	80	80	78	0	0	92	4	39	541944	1	13	73	539905	-1	541304	1	1399	3	3	2039	52	541957	-53	0															9	91												
WM080112	113922_fnca	1	1	1	2094175224	1	75.031	75.032	2.0.10.147	2.0.10.242	2.0.10.242	1.0.0.439	7	234	2	3	Verdana	1	80	0	0	0	WM Stimuli\	0.8	906.25	1	884.6	0.8	1082.625	1	791.7	0.8	1153.375	0.7	1090.85714285714	0.9	759.333333333333	1	858.2	13	559990	2	559978	27	40	560017	-999999	559993	0	20	TrialsPROC	PL_011_92044.png	1	2	92	SessionSelectionList														nonlure	3	Place	2-Back	80	80	79	0	0	92	5	39	544516	1	14	72	542477	-1	543594	1	1117	3	3	2039	53	544530	-54	0															10	92												
WM080112	113922_fnca	1	1	1	2094175224	1	75.031	75.032	2.0.10.147	2.0.10.242	2.0.10.242	1.0.0.439	7	234	2	3	Verdana	1	80	0	0	0	WM Stimuli\	0.8	906.25	1	884.6	0.8	1082.625	1	791.7	0.8	1153.375	0.7	1090.85714285714	0.9	759.333333333333	1	858.2	13	559990	2	559978	27	40	560017	-999999	559993	0	21	Fix15secPROC	""	1	2	93	SessionSelectionList																																															6	544983	-7	0							93												
