ExperimentName	HCPID	RunNumber	Subject	Session	RandomSeed	Group	Laptop.RefreshRate	ScannerD2.RefreshRate	StudioVersion	RuntimeVersion	RuntimeVersionExpected	ExperimentVersion	triggercode	Allowed	Target	Nontarget	FontStyle	RunTrialNumber[Session]	TrialsPerRun[Session]	TotalRespGreater200[Session]	ConsecRTLess200[Session]	ConsecNonResp[Session]	StimuliDir	ACC_2_Back_Body	Avg_RT_For_Correct_Trials_2_Back_Body	ACC_0_Back_Body	Avg_RT_For_Correct_Trials_0_Back_Body	ACC_2_Back_Face	Avg_RT_For_Correct_Trials_2_Back_Face	ACC_0_Back_Face	Avg_RT_For_Correct_Trials_0_Back_Face	ACC_2_Back_Place	Avg_RT_For_Correct_Trials_2_Back_Place	ACC_0_Back_Place	Avg_RT_For_Correct_Trials_0_Back_Place	ACC_2_Back_Tools	Avg_RT_For_Correct_Trials_2_Back_Tools	ACC_0_Back_Tools	Avg_RT_For_Correct_Trials_0_Back_Tools	ExpInstrucFeelFreeToRest.OnsetDelay	ExpInstrucFeelFreeToRest.OnsetTime	ExpInstrucFeelFreeToRest.DurationError	ExpInstrucFeelFreeToRest.StartTime	ExpInstrucFeelFreeToRest.OnsetToOnsetTime	FeelFreeToRest.OnsetDelay	FeelFreeToRest.OnsetTime	FeelFreeToRest.DurationError	FeelFreeToRest.StartTime	FeelFreeToRest.OnsetToOnsetTime	SessionSelectionList	Procedure[Block]	Stimulus[Block]	RunNumberFilterValue	SessionSelectionList.Cycle	SessionSelectionList.Sample	Running[Block]	IntroButtonMap.OnsetDelay	IntroButtonMap.OnsetTime	IntroButtonMap.DurationError	IntroButtonMap.OnsetToOnsetTime	GetReady.OnsetDelay	GetReady.OnsetTime	GetReady.DurationError	GetReady.OnsetToOnsetTime	Cue2Back.OnsetDelay	Cue2Back.OnsetTime	Cue2Back.DurationError	Cue2Back.OnsetToOnsetTime	Run1Block1	TargetType	CorrectResponse	StimType	BlockType	RunTrialNumber[Block]	TrialsPerRun[Block]	TotalRespGreater200[Block]	ConsecRTLess200[Block]	ConsecNonResp[Block]	ControlAcc	ConsecSameResp	ExperimenterWindow.OnsetDelay	ExperimenterWindow.OnsetTime	ExperimenterWindow.DurationError	ExperimenterWindow.OnsetToOnsetTime	Stim.OnsetDelay	Stim.OnsetTime	Stim.DurationError	Stim.RTTime	Stim.ACC	Stim.RT	Stim.RESP	Stim.CRESP	Stim.OnsetToOnsetTime	Fix.OnsetDelay	Fix.OnsetTime	Fix.DurationError	Fix.OnsetToOnsetTime	CueTarget.OnsetDelay	CueTarget.OnsetTime	CueTarget.DurationError	CueTarget.OnsetToOnsetTime	Run1Block2	Fix15sec.OnsetDelay	Fix15sec.OnsetTime	Fix15sec.DurationError	Fix15sec.OnsetToOnsetTime	Run1Block3	Run1Block4	Run1Block5	Run1Block6	Run1Block7	Run1Block8	Block	Procedure[Trial]	Stimulus[Trial]	ReadyList	Running[Trial]	ReadyList.Cycle	ReadyList.Sample	SyncSlide.OnsetDelay	SyncSlide.OnsetTime	SyncSlide.DurationError	SyncSlide.FinishTime	SyncSlide.OnsetToOnsetTime	Trial
WM080112	101107_fnca	1	1	1	-470787215	1	75.031	75.030	2.0.10.147	2.0.10.242	2.0.10.242	1.0.0.439	7	234	2	3	Verdana	1	80	0	0	0	WM Stimuli\	0.6	948.5	0.9	853.222222222222	0.9	1076.44444444444	0.9	993.888888888889	0.7	907.857142857143	0.8	853.125	0.7	969.428571428571	1	628.5	13	383554	3	383542	27	40	383581	-999999	383557	0	1	TRSyncPROC	""	1	2	1	SessionSelectionList	106	13516	-999999	0	32	76877	-999999	0																																																	1	InitialTR	4	1	ReadyList	1	1	16	90138	-17	92121	0	1
WM080112	101107_fnca	1	1	1	-470787215	1	75.031	75.030	2.0.10.147	2.0.10.242	2.0.10.242	1.0.0.439	7	234	2	3	Verdana	1	80	0	0	0	WM Stimuli\	0.6	948.5	0.9	853.222222222222	0.9	1076.44444444444	0.9	993.888888888889	0.7	907.857142857143	0.8	853.125	0.7	969.428571428571	1	628.5	13	383554	3	383542	27	40	383581	-999999	383557	0	1	TRSyncPROC	""	1	2	1	SessionSelectionList	106	13516	-999999	0	32	76877	-999999	0																																																	1	InitialTR	3	2	ReadyList	1	2	16	92138	-17	94121	0	2
WM080112	101107_fnca	1	1	1	-470787215	1	75.031	75.030	2.0.10.147	2.0.10.242	2.0.10.242	1.0.0.439	7	234	2	3	Verdana	1	80	0	0	0	WM Stimuli\	0.6	948.5	0.9	853.222222222222	0.9	1076.44444444444	0.9	993.888888888889	0.7	907.857142857143	0.8	853.125	0.7	969.428571428571	1	628.5	13	383554	3	383542	27	40	383581	-999999	383557	0	1	TRSyncPROC	""	1	2	1	SessionSelectionList	106	13516	-999999	0	32	76877	-999999	0																																																	1	InitialTR	2	3	ReadyList	1	3	15	94137	-16	96121	0	3
WM080112	101107_fnca	1	1	1	-470787215	1	75.031	75.030	2.0.10.147	2.0.10.242	2.0.10.242	1.0.0.439	7	234	2	3	Verdana	1	80	0	0	0	WM Stimuli\	0.6	948.5	0.9	853.222222222222	0.9	1076.44444444444	0.9	993.888888888889	0.7	907.857142857143	0.8	853.125	0.7	969.428571428571	1	628.5	13	383554	3	383542	27	40	383581	-999999	383557	0	1	TRSyncPROC	""	1	2	1	SessionSelectionList	106	13516	-999999	0	32	76877	-999999	0																																																	1	InitialTR	1	4	ReadyList	1	4	14	96136	-15	98121	0	4
WM080112	101107_fnca	1	1	1	-470787215	1	75.031	75.030	2.0.10.147	2.0.10.242	2.0.10.242	1.0.0.439	7	234	2	3	Verdana	1	80	0	0	0	WM Stimuli\	0.6	948.5	0.9	853.222222222222	0.9	1076.44444444444	0.9	993.888888888889	0.7	907.857142857143	0.8	853.125	0.7	969.428571428571	1	628.5	13	383554	3	383542	27	40	383581	-999999	383557	0	2	Cue2BackPROC	""	1	2	2	SessionSelectionList									13	98135	-14	0																																													2												
WM080112	101107_fnca	1	1	1	-470787215	1	75.031	75.030	2.0.10.147	2.0.10.242	2.0.10.242	1.0.0.439	7	234	2	3	Verdana	1	80	0	0	0	WM Stimuli\	0.6	948.5	0.9	853.222222222222	0.9	1076.44444444444	0.9	993.888888888889	0.7	907.857142857143	0.8	853.125	0.7	969.428571428571	1	628.5	13	383554	3	383542	27	40	383581	-999999	383557	0	3	TrialsPROC	BP_002_BP10_BA.png	1	2	3	SessionSelectionList													1	nonlure	3	Body	2-Back	2	80	0	0	1	0	0	52	102760	3	14	86	100708	-1	0	0	0	""	3	2052	66	102774	-67	0																3												
WM080112	101107_fnca	1	1	1	-470787215	1	75.031	75.030	2.0.10.147	2.0.10.242	2.0.10.242	1.0.0.439	7	234	2	3	Verdana	1	80	0	0	0	WM Stimuli\	0.6	948.5	0.9	853.222222222222	0.9	1076.44444444444	0.9	993.888888888889	0.7	907.857142857143	0.8	853.125	0.7	969.428571428571	1	628.5	13	383554	3	383542	27	40	383581	-999999	383557	0	3	TrialsPROC	BP_001_BP1_BA.png	1	2	4	SessionSelectionList													2	nonlure	3	Body	2-Back	3	80	1	0	0	0	1	39	105319	3	14	72	103280	-1	104389	1	1109	3	3	2039	53	105333	-54	0																4												
WM080112	101107_fnca	1	1	1	-470787215	1	75.031	75.030	2.0.10.147	2.0.10.242	2.0.10.242	1.0.0.439	7	234	2	3	Verdana	1	80	0	0	0	WM Stimuli\	0.6	948.5	0.9	853.222222222222	0.9	1076.44444444444	0.9	993.888888888889	0.7	907.857142857143	0.8	853.125	0.7	969.428571428571	1	628.5	13	383554	3	383542	27	40	383581	-999999	383557	0	3	TrialsPROC	BP_006_BP2_BA.png	1	2	5	SessionSelectionList													3	nonlure	3	Body	2-Back	4	80	2	0	0	0	1	39	107878	1	14	59	105839	-1	106963	0	1124	2	3	2039	53	107892	-54	0																5												
WM080112	101107_fnca	1	1	1	-470787215	1	75.031	75.030	2.0.10.147	2.0.10.242	2.0.10.242	1.0.0.439	7	234	2	3	Verdana	1	80	0	0	0	WM Stimuli\	0.6	948.5	0.9	853.222222222222	0.9	1076.44444444444	0.9	993.888888888889	0.7	907.857142857143	0.8	853.125	0.7	969.428571428571	1	628.5	13	383554	3	383542	27	40	383581	-999999	383557	0	3	TrialsPROC	BP_001_BP1_BA.png	1	2	6	SessionSelectionList													4	target	2	Body	2-Back	5	80	3	0	0	0	1	39	110450	3	14	72	108411	-1	109673	0	1262	3	2	2039	53	110464	-54	0																6												
WM080112	101107_fnca	1	1	1	-470787215	1	75.031	75.030	2.0.10.147	2.0.10.242	2.0.10.242	1.0.0.439	7	234	2	3	Verdana	1	80	0	0	0	WM Stimuli\	0.6	948.5	0.9	853.222222222222	0.9	1076.44444444444	0.9	993.888888888889	0.7	907.857142857143	0.8	853.125	0.7	969.428571428571	1	628.5	13	383554	3	383542	27	40	383581	-999999	383557	0	3	TrialsPROC	BP_005_BP19_BA.png	1	2	7	SessionSelectionList													5	nonlure	3	Body	2-Back	6	80	4	0	0	0	2	40	113023	1	13	72	110983	-1	111965	1	982	3	3	2040	53	113036	-54	0																7												
WM080112	101107_fnca	1	1	1	-470787215	1	75.031	75.030	2.0.10.147	2.0.10.242	2.0.10.242	1.0.0.439	7	234	2	3	Verdana	1	80	0	0	0	WM Stimuli\	0.6	948.5	0.9	853.222222222222	0.9	1076.44444444444	0.9	993.888888888889	0.7	907.857142857143	0.8	853.125	0.7	969.428571428571	1	628.5	13	383554	3	383542	27	40	383581	-999999	383557	0	3	TrialsPROC	BP_003_BP16_BA.png	1	2	8	SessionSelectionList													6	nonlure	3	Body	2-Back	7	80	5	0	0	0	3	40	115582	2	13	59	113542	-1	114266	1	724	3	3	2040	53	115595	-54	0																8												
WM080112	101107_fnca	1	1	1	-470787215	1	75.031	75.030	2.0.10.147	2.0.10.242	2.0.10.242	1.0.0.439	7	234	2	3	Verdana	1	80	0	0	0	WM Stimuli\	0.6	948.5	0.9	853.222222222222	0.9	1076.44444444444	0.9	993.888888888889	0.7	907.857142857143	0.8	853.125	0.7	969.428571428571	1	628.5	13	383554	3	383542	27	40	383581	-999999	383557	0	3	TrialsPROC	BP_006_BP2_BA.png	1	2	9	SessionSelectionList													7	lure	3	Body	2-Back	8	80	6	0	0	0	1	40	118141	2	13	59	116101	-1	116871	0	770	2	3	2040	53	118154	-54	0																9												
WM080112	101107_fnca	1	1	1	-470787215	1	75.031	75.030	2.0.10.147	2.0.10.242	2.0.10.242	1.0.0.439	7	234	2	3	Verdana	1	80	0	0	0	WM Stimuli\	0.6	948.5	0.9	853.222222222222	0.9	1076.44444444444	0.9	993.888888888889	0.7	907.857142857143	0.8	853.125	0.7	969.428571428571	1	628.5	13	383554	3	383542	27	40	383581	-999999	383557	0	3	TrialsPROC	BP_004_BP18_BA.png	1	2	10	SessionSelectionList													8	nonlure	3	Body	2-Back	9	80	7	0	0	0	1	40	120700	1	13	59	118660	-1	119563	1	903	3	3	2040	53	120713	-54	0																10												
WM080112	101107_fnca	1	1	1	-470787215	1	75.031	75.030	2.0.10.147	2.0.10.242	2.0.10.242	1.0.0.439	7	234	2	3	Verdana	1	80	0	0	0	WM Stimuli\	0.6	948.5	0.9	853.222222222222	0.9	1076.44444444444	0.9	993.888888888889	0.7	907.857142857143	0.8	853.125	0.7	969.428571428571	1	628.5	13	383554	3	383542	27	40	383581	-999999	383557	0	3	TrialsPROC	BP_005_BP19_BA.png	1	2	11	SessionSelectionList													9	lure	3	Body	2-Back	10	80	8	0	0	0	2	40	123259	1	13	59	121219	-1	122663	1	1444	3	3	2040	53	123272	-54	0																11												
WM080112	101107_fnca	1	1	1	-470787215	1	75.031	75.030	2.0.10.147	2.0.10.242	2.0.10.242	1.0.0.439	7	234	2	3	Verdana	1	80	0	0	0	WM Stimuli\	0.6	948.5	0.9	853.222222222222	0.9	1076.44444444444	0.9	993.888888888889	0.7	907.857142857143	0.8	853.125	0.7	969.428571428571	1	628.5	13	383554	3	383542	27	40	383581	-999999	383557	0	3	TrialsPROC	BP_004_BP18_BA.png	1	2	12	SessionSelectionList													10	target	2	Body	2-Back	11	80	9	0	0	0	1	39	125817	2	14	59	123778	-1	124307	1	529	2	2	2039	53	125831	-54	0																12												
WM080112	101107_fnca	1	1	1	-470787215	1	75.031	75.030	2.0.10.147	2.0.10.242	2.0.10.242	1.0.0.439	7	234	2	3	Verdana	1	80	0	0	0	WM Stimuli\	0.6	948.5	0.9	853.222222222222	0.9	1076.44444444444	0.9	993.888888888889	0.7	907.857142857143	0.8	853.125	0.7	969.428571428571	1	628.5	13	383554	3	383542	27	40	383581	-999999	383557	0	4	Cue0BackPROC	FC_001_M1.png	1	2	13	SessionSelectionList																																										19	126297	-20	0												13												
WM080112	101107_fnca	1	1	1	-470787215	1	75.031	75.030	2.0.10.147	2.0.10.242	2.0.10.242	1.0.0.439	7	234	2	3	Verdana	1	80	0	0	0	WM Stimuli\	0.6	948.5	0.9	853.222222222222	0.9	1076.44444444444	0.9	993.888888888889	0.7	907.857142857143	0.8	853.125	0.7	969.428571428571	1	628.5	13	383554	3	383542	27	40	383581	-999999	383557	0	5	TrialsPROC	FC_005_M3.png	1	2	14	SessionSelectionList														nonlure	3	Face	0-Back	12	80	10	0	0	100	1	39	130882	3	14	65	128843	-1	130156	1	1313	3	3	2039	53	130896	-54	0					1											14												
WM080112	101107_fnca	1	1	1	-470787215	1	75.031	75.030	2.0.10.147	2.0.10.242	2.0.10.242	1.0.0.439	7	234	2	3	Verdana	1	80	0	0	0	WM Stimuli\	0.6	948.5	0.9	853.222222222222	0.9	1076.44444444444	0.9	993.888888888889	0.7	907.857142857143	0.8	853.125	0.7	969.428571428571	1	628.5	13	383554	3	383542	27	40	383581	-999999	383557	0	5	TrialsPROC	FC_001_M1.png	1	2	15	SessionSelectionList														target	2	Face	0-Back	13	80	11	0	0	100	1	39	133454	3	14	72	131415	-1	132843	1	1428	2	2	2039	53	133468	-54	0					2											15												
WM080112	101107_fnca	1	1	1	-470787215	1	75.031	75.030	2.0.10.147	2.0.10.242	2.0.10.242	1.0.0.439	7	234	2	3	Verdana	1	80	0	0	0	WM Stimuli\	0.6	948.5	0.9	853.222222222222	0.9	1076.44444444444	0.9	993.888888888889	0.7	907.857142857143	0.8	853.125	0.7	969.428571428571	1	628.5	13	383554	3	383542	27	40	383581	-999999	383557	0	5	TrialsPROC	FC_003_M2.png	1	2	16	SessionSelectionList														nonlure	3	Face	0-Back	14	80	12	0	0	100	1	39	136027	2	13	73	133988	-1	134772	1	784	3	3	2039	52	136040	-53	0					3											16												
WM080112	101107_fnca	1	1	1	-470787215	1	75.031	75.030	2.0.10.147	2.0.10.242	2.0.10.242	1.0.0.439	7	234	2	3	Verdana	1	80	0	0	0	WM Stimuli\	0.6	948.5	0.9	853.222222222222	0.9	1076.44444444444	0.9	993.888888888889	0.7	907.857142857143	0.8	853.125	0.7	969.428571428571	1	628.5	13	383554	3	383542	27	40	383581	-999999	383557	0	5	TrialsPROC	FC_004_F2.png	1	2	17	SessionSelectionList														nonlure	3	Face	0-Back	15	80	13	0	0	100	2	39	138599	2	14	72	136560	-1	137330	1	770	3	3	2039	53	138613	-54	0					4											17												
WM080112	101107_fnca	1	1	1	-470787215	1	75.031	75.030	2.0.10.147	2.0.10.242	2.0.10.242	1.0.0.439	7	234	2	3	Verdana	1	80	0	0	0	WM Stimuli\	0.6	948.5	0.9	853.222222222222	0.9	1076.44444444444	0.9	993.888888888889	0.7	907.857142857143	0.8	853.125	0.7	969.428571428571	1	628.5	13	383554	3	383542	27	40	383581	-999999	383557	0	5	TrialsPROC	FC_004_F2.png	1	2	18	SessionSelectionList														lure	3	Face	0-Back	16	80	14	0	0	80	1	39	141171	2	14	72	139132	-1	140123	0	991	2	3	2039	53	141185	-54	0					5											18												
WM080112	101107_fnca	1	1	1	-470787215	1	75.031	75.030	2.0.10.147	2.0.10.242	2.0.10.242	1.0.0.439	7	234	2	3	Verdana	1	80	0	0	0	WM Stimuli\	0.6	948.5	0.9	853.222222222222	0.9	1076.44444444444	0.9	993.888888888889	0.7	907.857142857143	0.8	853.125	0.7	969.428571428571	1	628.5	13	383554	3	383542	27	40	383581	-999999	383557	0	5	TrialsPROC	FC_001_M1.png	1	2	19	SessionSelectionList														target	2	Face	0-Back	17	80	15	0	0	83	2	40	143744	1	13	72	141704	-1	142610	1	906	2	2	2040	53	143757	-54	0					6											19												
WM080112	101107_fnca	1	1	1	-470787215	1	75.031	75.030	2.0.10.147	2.0.10.242	2.0.10.242	1.0.0.439	7	234	2	3	Verdana	1	80	0	0	0	WM Stimuli\	0.6	948.5	0.9	853.222222222222	0.9	1076.44444444444	0.9	993.888888888889	0.7	907.857142857143	0.8	853.125	0.7	969.428571428571	1	628.5	13	383554	3	383542	27	40	383581	-999999	383557	0	5	TrialsPROC	FC_006_F3.png	1	2	20	SessionSelectionList														nonlure	3	Face	0-Back	18	80	16	0	0	86	1	39	146316	1	14	73	144277	-1	145004	1	727	3	3	2039	53	146330	-54	0					7											20												
WM080112	101107_fnca	1	1	1	-470787215	1	75.031	75.030	2.0.10.147	2.0.10.242	2.0.10.242	1.0.0.439	7	234	2	3	Verdana	1	80	0	0	0	WM Stimuli\	0.6	948.5	0.9	853.222222222222	0.9	1076.44444444444	0.9	993.888888888889	0.7	907.857142857143	0.8	853.125	0.7	969.428571428571	1	628.5	13	383554	3	383542	27	40	383581	-999999	383557	0	5	TrialsPROC	FC_006_F3.png	1	2	21	SessionSelectionList														lure	3	Face	0-Back	19	80	17	0	0	88	2	39	148888	3	14	72	146849	-1	148077	1	1228	3	3	2039	53	148902	-54	0					8											21												
WM080112	101107_fnca	1	1	1	-470787215	1	75.031	75.030	2.0.10.147	2.0.10.242	2.0.10.242	1.0.0.439	7	234	2	3	Verdana	1	80	0	0	0	WM Stimuli\	0.6	948.5	0.9	853.222222222222	0.9	1076.44444444444	0.9	993.888888888889	0.7	907.857142857143	0.8	853.125	0.7	969.428571428571	1	628.5	13	383554	3	383542	27	40	383581	-999999	383557	0	5	TrialsPROC	FC_003_M2.png	1	2	22	SessionSelectionList														lure	3	Face	0-Back	20	80	18	0	0	89	3	40	151461	1	13	72	149421	-1	150453	1	1032	3	3	2040	53	151474	-54	0					9											22												
WM080112	101107_fnca	1	1	1	-470787215	1	75.031	75.030	2.0.10.147	2.0.10.242	2.0.10.242	1.0.0.439	7	234	2	3	Verdana	1	80	0	0	0	WM Stimuli\	0.6	948.5	0.9	853.222222222222	0.9	1076.44444444444	0.9	993.888888888889	0.7	907.857142857143	0.8	853.125	0.7	969.428571428571	1	628.5	13	383554	3	383542	27	40	383581	-999999	383557	0	5	TrialsPROC	FC_002_F1.png	1	2	23	SessionSelectionList														nonlure	3	Face	0-Back	21	80	19	0	0	90	4	39	154033	2	14	73	151994	-1	152751	1	757	3	3	2039	53	154047	-54	0					10											23												
WM080112	101107_fnca	1	1	1	-470787215	1	75.031	75.030	2.0.10.147	2.0.10.242	2.0.10.242	1.0.0.439	7	234	2	3	Verdana	1	80	0	0	0	WM Stimuli\	0.6	948.5	0.9	853.222222222222	0.9	1076.44444444444	0.9	993.888888888889	0.7	907.857142857143	0.8	853.125	0.7	969.428571428571	1	628.5	13	383554	3	383542	27	40	383581	-999999	383557	0	6	Fix15secPROC	""	1	2	24	SessionSelectionList																																															6	154500	-7	0							24												
WM080112	101107_fnca	1	1	1	-470787215	1	75.031	75.030	2.0.10.147	2.0.10.242	2.0.10.242	1.0.0.439	7	234	2	3	Verdana	1	80	0	0	0	WM Stimuli\	0.6	948.5	0.9	853.222222222222	0.9	1076.44444444444	0.9	993.888888888889	0.7	907.857142857143	0.8	853.125	0.7	969.428571428571	1	628.5	13	383554	3	383542	27	40	383581	-999999	383557	0	7	Cue2BackPROC	""	1	2	25	SessionSelectionList									13	169507	-14	0																																													25												
WM080112	101107_fnca	1	1	1	-470787215	1	75.031	75.030	2.0.10.147	2.0.10.242	2.0.10.242	1.0.0.439	7	234	2	3	Verdana	1	80	0	0	0	WM Stimuli\	0.6	948.5	0.9	853.222222222222	0.9	1076.44444444444	0.9	993.888888888889	0.7	907.857142857143	0.8	853.125	0.7	969.428571428571	1	628.5	13	383554	3	383542	27	40	383581	-999999	383557	0	8	TrialsPROC	TO_001_TOOL1_BA.png	1	2	26	SessionSelectionList														nonlure	3	Tools	2-Back	22	80	19	0	1	90	4	39	174091	3	14	58	172052	-1	0	0	0	""	3	2039	53	174105	-54	0										1						26												
WM080112	101107_fnca	1	1	1	-470787215	1	75.031	75.030	2.0.10.147	2.0.10.242	2.0.10.242	1.0.0.439	7	234	2	3	Verdana	1	80	0	0	0	WM Stimuli\	0.6	948.5	0.9	853.222222222222	0.9	1076.44444444444	0.9	993.888888888889	0.7	907.857142857143	0.8	853.125	0.7	969.428571428571	1	628.5	13	383554	3	383542	27	40	383581	-999999	383557	0	8	TrialsPROC	TO_002_TOOL2_BA.png	1	2	27	SessionSelectionList														nonlure	3	Tools	2-Back	23	80	20	0	0	90	1	39	176650	3	14	59	174611	-1	176114	1	1503	3	3	2039	53	176664	-54	0										2						27												
WM080112	101107_fnca	1	1	1	-470787215	1	75.031	75.030	2.0.10.147	2.0.10.242	2.0.10.242	1.0.0.439	7	234	2	3	Verdana	1	80	0	0	0	WM Stimuli\	0.6	948.5	0.9	853.222222222222	0.9	1076.44444444444	0.9	993.888888888889	0.7	907.857142857143	0.8	853.125	0.7	969.428571428571	1	628.5	13	383554	3	383542	27	40	383581	-999999	383557	0	8	TrialsPROC	TO_004_TOOL4_BA.png	1	2	28	SessionSelectionList														nonlure	3	Tools	2-Back	24	80	21	0	0	90	2	38	179209	2	14	60	177171	-1	178204	1	1033	3	3	2038	52	179223	-53	0										3						28												
WM080112	101107_fnca	1	1	1	-470787215	1	75.031	75.030	2.0.10.147	2.0.10.242	2.0.10.242	1.0.0.439	7	234	2	3	Verdana	1	80	0	0	0	WM Stimuli\	0.6	948.5	0.9	853.222222222222	0.9	1076.44444444444	0.9	993.888888888889	0.7	907.857142857143	0.8	853.125	0.7	969.428571428571	1	628.5	13	383554	3	383542	27	40	383581	-999999	383557	0	8	TrialsPROC	TO_002_TOOL2_BA.png	1	2	29	SessionSelectionList														target	2	Tools	2-Back	25	80	22	0	0	90	3	39	181768	2	14	58	179729	-1	180964	0	1235	3	2	2039	53	181782	-54	0										4						29												
WM080112	101107_fnca	1	1	1	-470787215	1	75.031	75.030	2.0.10.147	2.0.10.242	2.0.10.242	1.0.0.439	7	234	2	3	Verdana	1	80	0	0	0	WM Stimuli\	0.6	948.5	0.9	853.222222222222	0.9	1076.44444444444	0.9	993.888888888889	0.7	907.857142857143	0.8	853.125	0.7	969.428571428571	1	628.5	13	383554	3	383542	27	40	383581	-999999	383557	0	8	TrialsPROC	TO_001_TOOL1_BA.png	1	2	30	SessionSelectionList														lure	3	Tools	2-Back	26	80	23	0	0	90	1	39	184327	3	14	59	182288	-1	182986	0	698	2	3	2039	53	184341	-54	0										5						30												
WM080112	101107_fnca	1	1	1	-470787215	1	75.031	75.030	2.0.10.147	2.0.10.242	2.0.10.242	1.0.0.439	7	234	2	3	Verdana	1	80	0	0	0	WM Stimuli\	0.6	948.5	0.9	853.222222222222	0.9	1076.44444444444	0.9	993.888888888889	0.7	907.857142857143	0.8	853.125	0.7	969.428571428571	1	628.5	13	383554	3	383542	27	40	383581	-999999	383557	0	8	TrialsPROC	TO_004_TOOL4_BA.png	1	2	31	SessionSelectionList														lure	3	Tools	2-Back	27	80	24	0	0	90	1	39	186886	2	14	59	184847	-1	185863	1	1016	3	3	2039	53	186900	-54	0										6						31												
WM080112	101107_fnca	1	1	1	-470787215	1	75.031	75.030	2.0.10.147	2.0.10.242	2.0.10.242	1.0.0.439	7	234	2	3	Verdana	1	80	0	0	0	WM Stimuli\	0.6	948.5	0.9	853.222222222222	0.9	1076.44444444444	0.9	993.888888888889	0.7	907.857142857143	0.8	853.125	0.7	969.428571428571	1	628.5	13	383554	3	383542	27	40	383581	-999999	383557	0	8	TrialsPROC	TO_006_TOOL6_BA.png	1	2	32	SessionSelectionList														nonlure	3	Tools	2-Back	28	80	25	0	0	90	2	39	189445	3	14	59	187406	-1	188301	1	895	3	3	2039	53	189459	-54	0										7						32												
WM080112	101107_fnca	1	1	1	-470787215	1	75.031	75.030	2.0.10.147	2.0.10.242	2.0.10.242	1.0.0.439	7	234	2	3	Verdana	1	80	0	0	0	WM Stimuli\	0.6	948.5	0.9	853.222222222222	0.9	1076.44444444444	0.9	993.888888888889	0.7	907.857142857143	0.8	853.125	0.7	969.428571428571	1	628.5	13	383554	3	383542	27	40	383581	-999999	383557	0	8	TrialsPROC	TO_005_TOOL5_BA.png	1	2	33	SessionSelectionList														nonlure	3	Tools	2-Back	29	80	26	0	0	90	3	39	192004	2	14	59	189965	-1	190668	1	703	3	3	2039	53	192018	-54	0										8						33												
WM080112	101107_fnca	1	1	1	-470787215	1	75.031	75.030	2.0.10.147	2.0.10.242	2.0.10.242	1.0.0.439	7	234	2	3	Verdana	1	80	0	0	0	WM Stimuli\	0.6	948.5	0.9	853.222222222222	0.9	1076.44444444444	0.9	993.888888888889	0.7	907.857142857143	0.8	853.125	0.7	969.428571428571	1	628.5	13	383554	3	383542	27	40	383581	-999999	383557	0	8	TrialsPROC	TO_006_TOOL6_BA.png	1	2	34	SessionSelectionList														target	2	Tools	2-Back	30	80	27	0	0	90	1	39	194563	3	14	59	192524	-1	193350	1	826	2	2	2039	53	194577	-54	0										9						34												
WM080112	101107_fnca	1	1	1	-470787215	1	75.031	75.030	2.0.10.147	2.0.10.242	2.0.10.242	1.0.0.439	7	234	2	3	Verdana	1	80	0	0	0	WM Stimuli\	0.6	948.5	0.9	853.222222222222	0.9	1076.44444444444	0.9	993.888888888889	0.7	907.857142857143	0.8	853.125	0.7	969.428571428571	1	628.5	13	383554	3	383542	27	40	383581	-999999	383557	0	8	TrialsPROC	TO_003_TOOL3_BA.png	1	2	35	SessionSelectionList														nonlure	3	Tools	2-Back	31	80	28	0	0	90	1	39	197122	3	14	59	195083	-1	195893	1	810	3	3	2039	53	197136	-54	0										10						35												
WM080112	101107_fnca	1	1	1	-470787215	1	75.031	75.030	2.0.10.147	2.0.10.242	2.0.10.242	1.0.0.439	7	234	2	3	Verdana	1	80	0	0	0	WM Stimuli\	0.6	948.5	0.9	853.222222222222	0.9	1076.44444444444	0.9	993.888888888889	0.7	907.857142857143	0.8	853.125	0.7	969.428571428571	1	628.5	13	383554	3	383542	27	40	383581	-999999	383557	0	9	Cue0BackPROC	BP_007_BP20_BA.png	1	2	36	SessionSelectionList																																										19	197602	-20	0												36												
WM080112	101107_fnca	1	1	1	-470787215	1	75.031	75.030	2.0.10.147	2.0.10.242	2.0.10.242	1.0.0.439	7	234	2	3	Verdana	1	80	0	0	0	WM Stimuli\	0.6	948.5	0.9	853.222222222222	0.9	1076.44444444444	0.9	993.888888888889	0.7	907.857142857143	0.8	853.125	0.7	969.428571428571	1	628.5	13	383554	3	383542	27	40	383581	-999999	383557	0	10	TrialsPROC	BP_007_BP20_BA.png	1	2	37	SessionSelectionList														target	2	Body	0-Back	32	80	29	0	0	91	1	40	202174	2	13	51	200134	-1	201477	1	1343	2	2	2040	53	202187	-54	0											1					37												
WM080112	101107_fnca	1	1	1	-470787215	1	75.031	75.030	2.0.10.147	2.0.10.242	2.0.10.242	1.0.0.439	7	234	2	3	Verdana	1	80	0	0	0	WM Stimuli\	0.6	948.5	0.9	853.222222222222	0.9	1076.44444444444	0.9	993.888888888889	0.7	907.857142857143	0.8	853.125	0.7	969.428571428571	1	628.5	13	383554	3	383542	27	40	383581	-999999	383557	0	10	TrialsPROC	BP_011_BP4_BA.png	1	2	38	SessionSelectionList														nonlure	3	Body	0-Back	33	80	30	0	0	92	1	39	204746	2	14	73	202707	-1	203550	1	843	3	3	2039	53	204760	-54	0											2					38												
WM080112	101107_fnca	1	1	1	-470787215	1	75.031	75.030	2.0.10.147	2.0.10.242	2.0.10.242	1.0.0.439	7	234	2	3	Verdana	1	80	0	0	0	WM Stimuli\	0.6	948.5	0.9	853.222222222222	0.9	1076.44444444444	0.9	993.888888888889	0.7	907.857142857143	0.8	853.125	0.7	969.428571428571	1	628.5	13	383554	3	383542	27	40	383581	-999999	383557	0	10	TrialsPROC	BP_010_BP3_BA.png	1	2	39	SessionSelectionList														nonlure	3	Body	0-Back	34	80	31	0	0	92	2	39	207305	1	13	59	205266	-1	205930	1	664	3	3	2039	52	207318	-53	0											3					39												
WM080112	101107_fnca	1	1	1	-470787215	1	75.031	75.030	2.0.10.147	2.0.10.242	2.0.10.242	1.0.0.439	7	234	2	3	Verdana	1	80	0	0	0	WM Stimuli\	0.6	948.5	0.9	853.222222222222	0.9	1076.44444444444	0.9	993.888888888889	0.7	907.857142857143	0.8	853.125	0.7	969.428571428571	1	628.5	13	383554	3	383542	27	40	383581	-999999	383557	0	10	TrialsPROC	BP_008_BP21_BA.png	1	2	40	SessionSelectionList														nonlure	3	Body	0-Back	35	80	32	0	0	93	3	39	209864	1	13	59	207825	-1	208405	1	580	3	3	2039	52	209877	-53	0											4					40												
WM080112	101107_fnca	1	1	1	-470787215	1	75.031	75.030	2.0.10.147	2.0.10.242	2.0.10.242	1.0.0.439	7	234	2	3	Verdana	1	80	0	0	0	WM Stimuli\	0.6	948.5	0.9	853.222222222222	0.9	1076.44444444444	0.9	993.888888888889	0.7	907.857142857143	0.8	853.125	0.7	969.428571428571	1	628.5	13	383554	3	383542	27	40	383581	-999999	383557	0	10	TrialsPROC	BP_011_BP4_BA.png	1	2	41	SessionSelectionList														lure	3	Body	0-Back	36	80	33	0	0	93	4	39	212423	2	13	59	210384	-1	211239	1	855	3	3	2039	52	212436	-53	0											5					41												
WM080112	101107_fnca	1	1	1	-470787215	1	75.031	75.030	2.0.10.147	2.0.10.242	2.0.10.242	1.0.0.439	7	234	2	3	Verdana	1	80	0	0	0	WM Stimuli\	0.6	948.5	0.9	853.222222222222	0.9	1076.44444444444	0.9	993.888888888889	0.7	907.857142857143	0.8	853.125	0.7	969.428571428571	1	628.5	13	383554	3	383542	27	40	383581	-999999	383557	0	10	TrialsPROC	BP_009_BP22_BA.png	1	2	42	SessionSelectionList														nonlure	3	Body	0-Back	37	80	34	0	0	94	5	39	214982	1	13	59	212943	-1	213663	1	720	3	3	2039	52	214995	-53	0											6					42												
WM080112	101107_fnca	1	1	1	-470787215	1	75.031	75.030	2.0.10.147	2.0.10.242	2.0.10.242	1.0.0.439	7	234	2	3	Verdana	1	80	0	0	0	WM Stimuli\	0.6	948.5	0.9	853.222222222222	0.9	1076.44444444444	0.9	993.888888888889	0.7	907.857142857143	0.8	853.125	0.7	969.428571428571	1	628.5	13	383554	3	383542	27	40	383581	-999999	383557	0	10	TrialsPROC	BP_009_BP22_BA.png	1	2	43	SessionSelectionList														lure	3	Body	0-Back	38	80	35	0	0	94	6	39	217541	1	13	59	215502	-1	216016	1	514	3	3	2039	52	217554	-53	0											7					43												
WM080112	101107_fnca	1	1	1	-470787215	1	75.031	75.030	2.0.10.147	2.0.10.242	2.0.10.242	1.0.0.439	7	234	2	3	Verdana	1	80	0	0	0	WM Stimuli\	0.6	948.5	0.9	853.222222222222	0.9	1076.44444444444	0.9	993.888888888889	0.7	907.857142857143	0.8	853.125	0.7	969.428571428571	1	628.5	13	383554	3	383542	27	40	383581	-999999	383557	0	10	TrialsPROC	BP_008_BP21_BA.png	1	2	44	SessionSelectionList														lure	3	Body	0-Back	39	80	36	0	0	94	7	40	220100	1	13	58	218060	-1	219300	1	1240	3	3	2040	53	220113	-54	0											8					44												
WM080112	101107_fnca	1	1	1	-470787215	1	75.031	75.030	2.0.10.147	2.0.10.242	2.0.10.242	1.0.0.439	7	234	2	3	Verdana	1	80	0	0	0	WM Stimuli\	0.6	948.5	0.9	853.222222222222	0.9	1076.44444444444	0.9	993.888888888889	0.7	907.857142857143	0.8	853.125	0.7	969.428571428571	1	628.5	13	383554	3	383542	27	40	383581	-999999	383557	0	10	TrialsPROC	BP_007_BP20_BA.png	1	2	45	SessionSelectionList														target	2	Body	0-Back	40	80	37	0	0	89	8	40	222659	2	13	59	220619	-1	221639	0	1020	3	2	2040	53	222672	-54	0											9					45												
WM080112	101107_fnca	1	1	1	-470787215	1	75.031	75.030	2.0.10.147	2.0.10.242	2.0.10.242	1.0.0.439	7	234	2	3	Verdana	1	80	0	0	0	WM Stimuli\	0.6	948.5	0.9	853.222222222222	0.9	1076.44444444444	0.9	993.888888888889	0.7	907.857142857143	0.8	853.125	0.7	969.428571428571	1	628.5	13	383554	3	383542	27	40	383581	-999999	383557	0	10	TrialsPROC	BP_012_BP5_BA.png	1	2	46	SessionSelectionList														nonlure	3	Body	0-Back	41	80	38	0	0	90	9	39	225231	1	14	73	223192	-1	224112	1	920	3	3	2039	53	225245	-54	0											10					46												
WM080112	101107_fnca	1	1	1	-470787215	1	75.031	75.030	2.0.10.147	2.0.10.242	2.0.10.242	1.0.0.439	7	234	2	3	Verdana	1	80	0	0	0	WM Stimuli\	0.6	948.5	0.9	853.222222222222	0.9	1076.44444444444	0.9	993.888888888889	0.7	907.857142857143	0.8	853.125	0.7	969.428571428571	1	628.5	13	383554	3	383542	27	40	383581	-999999	383557	0	11	Fix15secPROC	""	1	2	47	SessionSelectionList																																															6	225698	-7	0							47												
WM080112	101107_fnca	1	1	1	-470787215	1	75.031	75.030	2.0.10.147	2.0.10.242	2.0.10.242	1.0.0.439	7	234	2	3	Verdana	1	80	0	0	0	WM Stimuli\	0.6	948.5	0.9	853.222222222222	0.9	1076.44444444444	0.9	993.888888888889	0.7	907.857142857143	0.8	853.125	0.7	969.428571428571	1	628.5	13	383554	3	383542	27	40	383581	-999999	383557	0	12	Cue0BackPROC	PL_001_92012.png	1	2	48	SessionSelectionList																																										13	240705	-14	0												48												
WM080112	101107_fnca	1	1	1	-470787215	1	75.031	75.030	2.0.10.147	2.0.10.242	2.0.10.242	1.0.0.439	7	234	2	3	Verdana	1	80	0	0	0	WM Stimuli\	0.6	948.5	0.9	853.222222222222	0.9	1076.44444444444	0.9	993.888888888889	0.7	907.857142857143	0.8	853.125	0.7	969.428571428571	1	628.5	13	383554	3	383542	27	40	383581	-999999	383557	0	13	TrialsPROC	PL_003_92016.png	1	2	49	SessionSelectionList														nonlure	3	Place	0-Back	42	80	38	0	1	86	9	39	245303	2	14	72	243264	-1	0	0	0	""	3	2039	53	245317	-54	0												1				49												
WM080112	101107_fnca	1	1	1	-470787215	1	75.031	75.030	2.0.10.147	2.0.10.242	2.0.10.242	1.0.0.439	7	234	2	3	Verdana	1	80	0	0	0	WM Stimuli\	0.6	948.5	0.9	853.222222222222	0.9	1076.44444444444	0.9	993.888888888889	0.7	907.857142857143	0.8	853.125	0.7	969.428571428571	1	628.5	13	383554	3	383542	27	40	383581	-999999	383557	0	13	TrialsPROC	PL_003_92016.png	1	2	50	SessionSelectionList														lure	3	Place	0-Back	43	80	39	0	0	82	1	39	247875	2	14	72	245836	-1	247522	0	1686	2	3	2039	53	247889	-54	0												2				50												
WM080112	101107_fnca	1	1	1	-470787215	1	75.031	75.030	2.0.10.147	2.0.10.242	2.0.10.242	1.0.0.439	7	234	2	3	Verdana	1	80	0	0	0	WM Stimuli\	0.6	948.5	0.9	853.222222222222	0.9	1076.44444444444	0.9	993.888888888889	0.7	907.857142857143	0.8	853.125	0.7	969.428571428571	1	628.5	13	383554	3	383542	27	40	383581	-999999	383557	0	13	TrialsPROC	PL_006_92025.png	1	2	51	SessionSelectionList														nonlure	3	Place	0-Back	44	80	40	0	0	83	1	39	250434	2	14	59	248395	-1	249221	1	826	3	3	2039	53	250448	-54	0												3				51												
WM080112	101107_fnca	1	1	1	-470787215	1	75.031	75.030	2.0.10.147	2.0.10.242	2.0.10.242	1.0.0.439	7	234	2	3	Verdana	1	80	0	0	0	WM Stimuli\	0.6	948.5	0.9	853.222222222222	0.9	1076.44444444444	0.9	993.888888888889	0.7	907.857142857143	0.8	853.125	0.7	969.428571428571	1	628.5	13	383554	3	383542	27	40	383581	-999999	383557	0	13	TrialsPROC	PL_001_92012.png	1	2	52	SessionSelectionList														target	2	Place	0-Back	45	80	41	0	0	83	1	39	253006	3	14	72	250967	-1	251964	1	997	2	2	2039	53	253020	-54	0												4				52												
WM080112	101107_fnca	1	1	1	-470787215	1	75.031	75.030	2.0.10.147	2.0.10.242	2.0.10.242	1.0.0.439	7	234	2	3	Verdana	1	80	0	0	0	WM Stimuli\	0.6	948.5	0.9	853.222222222222	0.9	1076.44444444444	0.9	993.888888888889	0.7	907.857142857143	0.8	853.125	0.7	969.428571428571	1	628.5	13	383554	3	383542	27	40	383581	-999999	383557	0	13	TrialsPROC	PL_004_92023.png	1	2	53	SessionSelectionList														nonlure	3	Place	0-Back	46	80	42	0	0	84	1	39	255579	2	13	73	253540	-1	254268	1	728	3	3	2039	52	255592	-53	0												5				53												
WM080112	101107_fnca	1	1	1	-470787215	1	75.031	75.030	2.0.10.147	2.0.10.242	2.0.10.242	1.0.0.439	7	234	2	3	Verdana	1	80	0	0	0	WM Stimuli\	0.6	948.5	0.9	853.222222222222	0.9	1076.44444444444	0.9	993.888888888889	0.7	907.857142857143	0.8	853.125	0.7	969.428571428571	1	628.5	13	383554	3	383542	27	40	383581	-999999	383557	0	13	TrialsPROC	PL_005_92024.png	1	2	54	SessionSelectionList														nonlure	3	Place	0-Back	47	80	43	0	0	85	2	39	258151	1	14	72	256112	-1	256979	1	867	3	3	2039	53	258165	-54	0												6				54												
WM080112	101107_fnca	1	1	1	-470787215	1	75.031	75.030	2.0.10.147	2.0.10.242	2.0.10.242	1.0.0.439	7	234	2	3	Verdana	1	80	0	0	0	WM Stimuli\	0.6	948.5	0.9	853.222222222222	0.9	1076.44444444444	0.9	993.888888888889	0.7	907.857142857143	0.8	853.125	0.7	969.428571428571	1	628.5	13	383554	3	383542	27	40	383581	-999999	383557	0	13	TrialsPROC	PL_001_92012.png	1	2	55	SessionSelectionList														target	2	Place	0-Back	48	80	44	0	0	85	1	39	260723	2	14	72	258684	-1	259292	1	608	2	2	2039	53	260737	-54	0												7				55												
WM080112	101107_fnca	1	1	1	-470787215	1	75.031	75.030	2.0.10.147	2.0.10.242	2.0.10.242	1.0.0.439	7	234	2	3	Verdana	1	80	0	0	0	WM Stimuli\	0.6	948.5	0.9	853.222222222222	0.9	1076.44444444444	0.9	993.888888888889	0.7	907.857142857143	0.8	853.125	0.7	969.428571428571	1	628.5	13	383554	3	383542	27	40	383581	-999999	383557	0	13	TrialsPROC	PL_002_92014.png	1	2	56	SessionSelectionList														nonlure	3	Place	0-Back	49	80	45	0	0	86	1	39	263296	2	13	73	261257	-1	262243	1	986	3	3	2039	52	263309	-53	0												8				56												
WM080112	101107_fnca	1	1	1	-470787215	1	75.031	75.030	2.0.10.147	2.0.10.242	2.0.10.242	1.0.0.439	7	234	2	3	Verdana	1	80	0	0	0	WM Stimuli\	0.6	948.5	0.9	853.222222222222	0.9	1076.44444444444	0.9	993.888888888889	0.7	907.857142857143	0.8	853.125	0.7	969.428571428571	1	628.5	13	383554	3	383542	27	40	383581	-999999	383557	0	13	TrialsPROC	PL_004_92023.png	1	2	57	SessionSelectionList														lure	3	Place	0-Back	50	80	46	0	0	86	2	39	265868	1	14	72	263829	-1	264744	1	915	3	3	2039	53	265882	-54	0												9				57												
WM080112	101107_fnca	1	1	1	-470787215	1	75.031	75.030	2.0.10.147	2.0.10.242	2.0.10.242	1.0.0.439	7	234	2	3	Verdana	1	80	0	0	0	WM Stimuli\	0.6	948.5	0.9	853.222222222222	0.9	1076.44444444444	0.9	993.888888888889	0.7	907.857142857143	0.8	853.125	0.7	969.428571428571	1	628.5	13	383554	3	383542	27	40	383581	-999999	383557	0	13	TrialsPROC	PL_006_92025.png	1	2	58	SessionSelectionList														lure	3	Place	0-Back	51	80	47	0	0	87	3	39	268440	2	14	72	266401	-1	267299	1	898	3	3	2039	53	268454	-54	0												10				58												
WM080112	101107_fnca	1	1	1	-470787215	1	75.031	75.030	2.0.10.147	2.0.10.242	2.0.10.242	1.0.0.439	7	234	2	3	Verdana	1	80	0	0	0	WM Stimuli\	0.6	948.5	0.9	853.222222222222	0.9	1076.44444444444	0.9	993.888888888889	0.7	907.857142857143	0.8	853.125	0.7	969.428571428571	1	628.5	13	383554	3	383542	27	40	383581	-999999	383557	0	14	Cue2BackPROC	""	1	2	59	SessionSelectionList									6	268907	-7	0																																													59												
WM080112	101107_fnca	1	1	1	-470787215	1	75.031	75.030	2.0.10.147	2.0.10.242	2.0.10.242	1.0.0.439	7	234	2	3	Verdana	1	80	0	0	0	WM Stimuli\	0.6	948.5	0.9	853.222222222222	0.9	1076.44444444444	0.9	993.888888888889	0.7	907.857142857143	0.8	853.125	0.7	969.428571428571	1	628.5	13	383554	3	383542	27	40	383581	-999999	383557	0	15	TrialsPROC	FC_010_F5.png	1	2	60	SessionSelectionList														nonlure	3	Face	2-Back	52	80	48	0	0	87	4	39	273505	2	14	65	271466	-1	273250	1	1784	3	3	2039	53	273519	-54	0													1			60												
WM080112	101107_fnca	1	1	1	-470787215	1	75.031	75.030	2.0.10.147	2.0.10.242	2.0.10.242	1.0.0.439	7	234	2	3	Verdana	1	80	0	0	0	WM Stimuli\	0.6	948.5	0.9	853.222222222222	0.9	1076.44444444444	0.9	993.888888888889	0.7	907.857142857143	0.8	853.125	0.7	969.428571428571	1	628.5	13	383554	3	383542	27	40	383581	-999999	383557	0	15	TrialsPROC	FC_012_F6.png	1	2	61	SessionSelectionList														nonlure	3	Face	2-Back	53	80	49	0	0	87	5	39	276077	2	14	72	274038	-1	274839	1	801	3	3	2039	53	276091	-54	0													2			61												
WM080112	101107_fnca	1	1	1	-470787215	1	75.031	75.030	2.0.10.147	2.0.10.242	2.0.10.242	1.0.0.439	7	234	2	3	Verdana	1	80	0	0	0	WM Stimuli\	0.6	948.5	0.9	853.222222222222	0.9	1076.44444444444	0.9	993.888888888889	0.7	907.857142857143	0.8	853.125	0.7	969.428571428571	1	628.5	13	383554	3	383542	27	40	383581	-999999	383557	0	15	TrialsPROC	FC_010_F5.png	1	2	62	SessionSelectionList														target	2	Face	2-Back	54	80	50	0	0	87	1	40	278650	2	13	72	276610	-1	277237	1	627	2	2	2040	53	278663	-54	0													3			62												
WM080112	101107_fnca	1	1	1	-470787215	1	75.031	75.030	2.0.10.147	2.0.10.242	2.0.10.242	1.0.0.439	7	234	2	3	Verdana	1	80	0	0	0	WM Stimuli\	0.6	948.5	0.9	853.222222222222	0.9	1076.44444444444	0.9	993.888888888889	0.7	907.857142857143	0.8	853.125	0.7	969.428571428571	1	628.5	13	383554	3	383542	27	40	383581	-999999	383557	0	15	TrialsPROC	FC_008_F4.png	1	2	63	SessionSelectionList														nonlure	3	Face	2-Back	55	80	51	0	0	87	1	39	281222	1	14	73	279183	-1	280294	1	1111	3	3	2039	53	281236	-54	0													4			63												
WM080112	101107_fnca	1	1	1	-470787215	1	75.031	75.030	2.0.10.147	2.0.10.242	2.0.10.242	1.0.0.439	7	234	2	3	Verdana	1	80	0	0	0	WM Stimuli\	0.6	948.5	0.9	853.222222222222	0.9	1076.44444444444	0.9	993.888888888889	0.7	907.857142857143	0.8	853.125	0.7	969.428571428571	1	628.5	13	383554	3	383542	27	40	383581	-999999	383557	0	15	TrialsPROC	FC_012_F6.png	1	2	64	SessionSelectionList														lure	3	Face	2-Back	56	80	52	0	0	87	1	39	283794	2	14	72	281755	-1	282561	0	806	2	3	2039	53	283808	-54	0													5			64												
WM080112	101107_fnca	1	1	1	-470787215	1	75.031	75.030	2.0.10.147	2.0.10.242	2.0.10.242	1.0.0.439	7	234	2	3	Verdana	1	80	0	0	0	WM Stimuli\	0.6	948.5	0.9	853.222222222222	0.9	1076.44444444444	0.9	993.888888888889	0.7	907.857142857143	0.8	853.125	0.7	969.428571428571	1	628.5	13	383554	3	383542	27	40	383581	-999999	383557	0	15	TrialsPROC	FC_008_F4.png	1	2	65	SessionSelectionList														target	2	Face	2-Back	57	80	53	0	0	87	2	39	286366	2	14	72	284327	-1	285614	1	1287	2	2	2039	53	286380	-54	0													6			65												
WM080112	101107_fnca	1	1	1	-470787215	1	75.031	75.030	2.0.10.147	2.0.10.242	2.0.10.242	1.0.0.439	7	234	2	3	Verdana	1	80	0	0	0	WM Stimuli\	0.6	948.5	0.9	853.222222222222	0.9	1076.44444444444	0.9	993.888888888889	0.7	907.857142857143	0.8	853.125	0.7	969.428571428571	1	628.5	13	383554	3	383542	27	40	383581	-999999	383557	0	15	TrialsPROC	FC_007_M4.png	1	2	66	SessionSelectionList														nonlure	3	Face	2-Back	58	80	54	0	0	87	1	39	288939	1	13	73	286900	-1	288016	1	1116	3	3	2039	52	288952	-53	0													7			66												
WM080112	101107_fnca	1	1	1	-470787215	1	75.031	75.030	2.0.10.147	2.0.10.242	2.0.10.242	1.0.0.439	7	234	2	3	Verdana	1	80	0	0	0	WM Stimuli\	0.6	948.5	0.9	853.222222222222	0.9	1076.44444444444	0.9	993.888888888889	0.7	907.857142857143	0.8	853.125	0.7	969.428571428571	1	628.5	13	383554	3	383542	27	40	383581	-999999	383557	0	15	TrialsPROC	FC_007_M4.png	1	2	67	SessionSelectionList														lure	3	Face	2-Back	59	80	55	0	0	87	2	39	291511	2	14	72	289472	-1	290742	1	1270	3	3	2039	53	291525	-54	0													8			67												
WM080112	101107_fnca	1	1	1	-470787215	1	75.031	75.030	2.0.10.147	2.0.10.242	2.0.10.242	1.0.0.439	7	234	2	3	Verdana	1	80	0	0	0	WM Stimuli\	0.6	948.5	0.9	853.222222222222	0.9	1076.44444444444	0.9	993.888888888889	0.7	907.857142857143	0.8	853.125	0.7	969.428571428571	1	628.5	13	383554	3	383542	27	40	383581	-999999	383557	0	15	TrialsPROC	FC_009_M5.png	1	2	68	SessionSelectionList														nonlure	3	Face	2-Back	60	80	56	0	0	87	3	39	294083	2	14	72	292044	-1	292923	1	879	3	3	2039	53	294097	-54	0													9			68												
WM080112	101107_fnca	1	1	1	-470787215	1	75.031	75.030	2.0.10.147	2.0.10.242	2.0.10.242	1.0.0.439	7	234	2	3	Verdana	1	80	0	0	0	WM Stimuli\	0.6	948.5	0.9	853.222222222222	0.9	1076.44444444444	0.9	993.888888888889	0.7	907.857142857143	0.8	853.125	0.7	969.428571428571	1	628.5	13	383554	3	383542	27	40	383581	-999999	383557	0	15	TrialsPROC	FC_011_M6.png	1	2	69	SessionSelectionList														nonlure	3	Face	2-Back	61	80	57	0	0	87	4	39	296669	1	14	86	294630	-1	295443	1	813	3	3	2039	53	296683	-54	0													10			69												
WM080112	101107_fnca	1	1	1	-470787215	1	75.031	75.030	2.0.10.147	2.0.10.242	2.0.10.242	1.0.0.439	7	234	2	3	Verdana	1	80	0	0	0	WM Stimuli\	0.6	948.5	0.9	853.222222222222	0.9	1076.44444444444	0.9	993.888888888889	0.7	907.857142857143	0.8	853.125	0.7	969.428571428571	1	628.5	13	383554	3	383542	27	40	383581	-999999	383557	0	16	Fix15secPROC	""	1	2	70	SessionSelectionList																																															6	297136	-7	0							70												
WM080112	101107_fnca	1	1	1	-470787215	1	75.031	75.030	2.0.10.147	2.0.10.242	2.0.10.242	1.0.0.439	7	234	2	3	Verdana	1	80	0	0	0	WM Stimuli\	0.6	948.5	0.9	853.222222222222	0.9	1076.44444444444	0.9	993.888888888889	0.7	907.857142857143	0.8	853.125	0.7	969.428571428571	1	628.5	13	383554	3	383542	27	40	383581	-999999	383557	0	17	Cue0BackPROC	TO_007_TOOL7_BA.png	1	2	71	SessionSelectionList																																										39	312169	-40	0												71												
WM080112	101107_fnca	1	1	1	-470787215	1	75.031	75.030	2.0.10.147	2.0.10.242	2.0.10.242	1.0.0.439	7	234	2	3	Verdana	1	80	0	0	0	WM Stimuli\	0.6	948.5	0.9	853.222222222222	0.9	1076.44444444444	0.9	993.888888888889	0.7	907.857142857143	0.8	853.125	0.7	969.428571428571	1	628.5	13	383554	3	383542	27	40	383581	-999999	383557	0	18	TrialsPROC	TO_010_TOOL10_BA.png	1	2	72	SessionSelectionList														nonlure	3	Tools	0-Back	62	80	58	0	0	87	5	39	316754	2	14	85	314715	-1	315555	1	840	3	3	2039	53	316768	-54	0														1		72												
WM080112	101107_fnca	1	1	1	-470787215	1	75.031	75.030	2.0.10.147	2.0.10.242	2.0.10.242	1.0.0.439	7	234	2	3	Verdana	1	80	0	0	0	WM Stimuli\	0.6	948.5	0.9	853.222222222222	0.9	1076.44444444444	0.9	993.888888888889	0.7	907.857142857143	0.8	853.125	0.7	969.428571428571	1	628.5	13	383554	3	383542	27	40	383581	-999999	383557	0	18	TrialsPROC	TO_009_TOOL9_BA.png	1	2	73	SessionSelectionList														nonlure	3	Tools	0-Back	63	80	59	0	0	88	6	39	319340	1	14	86	317301	-1	317807	1	506	3	3	2039	53	319354	-54	0														2		73												
WM080112	101107_fnca	1	1	1	-470787215	1	75.031	75.030	2.0.10.147	2.0.10.242	2.0.10.242	1.0.0.439	7	234	2	3	Verdana	1	80	0	0	0	WM Stimuli\	0.6	948.5	0.9	853.222222222222	0.9	1076.44444444444	0.9	993.888888888889	0.7	907.857142857143	0.8	853.125	0.7	969.428571428571	1	628.5	13	383554	3	383542	27	40	383581	-999999	383557	0	18	TrialsPROC	TO_009_TOOL9_BA.png	1	2	74	SessionSelectionList														lure	3	Tools	0-Back	64	80	60	0	0	88	7	39	321899	2	14	59	319860	-1	320780	1	920	3	3	2039	53	321913	-54	0														3		74												
WM080112	101107_fnca	1	1	1	-470787215	1	75.031	75.030	2.0.10.147	2.0.10.242	2.0.10.242	1.0.0.439	7	234	2	3	Verdana	1	80	0	0	0	WM Stimuli\	0.6	948.5	0.9	853.222222222222	0.9	1076.44444444444	0.9	993.888888888889	0.7	907.857142857143	0.8	853.125	0.7	969.428571428571	1	628.5	13	383554	3	383542	27	40	383581	-999999	383557	0	18	TrialsPROC	TO_008_TOOL8_BA.png	1	2	75	SessionSelectionList														nonlure	3	Tools	0-Back	65	80	61	0	0	88	8	39	324484	2	14	85	322445	-1	323109	1	664	3	3	2039	53	324498	-54	0														4		75												
WM080112	101107_fnca	1	1	1	-470787215	1	75.031	75.030	2.0.10.147	2.0.10.242	2.0.10.242	1.0.0.439	7	234	2	3	Verdana	1	80	0	0	0	WM Stimuli\	0.6	948.5	0.9	853.222222222222	0.9	1076.44444444444	0.9	993.888888888889	0.7	907.857142857143	0.8	853.125	0.7	969.428571428571	1	628.5	13	383554	3	383542	27	40	383581	-999999	383557	0	18	TrialsPROC	TO_011_TOOL11_BA.png	1	2	76	SessionSelectionList														nonlure	3	Tools	0-Back	66	80	62	0	0	89	9	39	327070	1	14	86	325031	-1	325605	1	574	3	3	2039	53	327084	-54	0														5		76												
WM080112	101107_fnca	1	1	1	-470787215	1	75.031	75.030	2.0.10.147	2.0.10.242	2.0.10.242	1.0.0.439	7	234	2	3	Verdana	1	80	0	0	0	WM Stimuli\	0.6	948.5	0.9	853.222222222222	0.9	1076.44444444444	0.9	993.888888888889	0.7	907.857142857143	0.8	853.125	0.7	969.428571428571	1	628.5	13	383554	3	383542	27	40	383581	-999999	383557	0	18	TrialsPROC	TO_012_TOOL12_BA.png	1	2	77	SessionSelectionList														nonlure	3	Tools	0-Back	67	80	63	0	0	89	10	39	329656	1	13	86	327617	-1	328166	1	549	3	3	2039	52	329669	-53	0														6		77												
WM080112	101107_fnca	1	1	1	-470787215	1	75.031	75.030	2.0.10.147	2.0.10.242	2.0.10.242	1.0.0.439	7	234	2	3	Verdana	1	80	0	0	0	WM Stimuli\	0.6	948.5	0.9	853.222222222222	0.9	1076.44444444444	0.9	993.888888888889	0.7	907.857142857143	0.8	853.125	0.7	969.428571428571	1	628.5	13	383554	3	383542	27	40	383581	-999999	383557	0	18	TrialsPROC	TO_010_TOOL10_BA.png	1	2	78	SessionSelectionList														lure	3	Tools	0-Back	68	80	64	0	0	89	11	39	332215	1	13	59	330176	-1	330709	1	533	3	3	2039	52	332228	-53	0														7		78												
WM080112	101107_fnca	1	1	1	-470787215	1	75.031	75.030	2.0.10.147	2.0.10.242	2.0.10.242	1.0.0.439	7	234	2	3	Verdana	1	80	0	0	0	WM Stimuli\	0.6	948.5	0.9	853.222222222222	0.9	1076.44444444444	0.9	993.888888888889	0.7	907.857142857143	0.8	853.125	0.7	969.428571428571	1	628.5	13	383554	3	383542	27	40	383581	-999999	383557	0	18	TrialsPROC	TO_007_TOOL7_BA.png	1	2	79	SessionSelectionList														target	2	Tools	0-Back	69	80	65	0	0	89	1	39	334774	2	13	59	332735	-1	333399	1	664	2	2	2039	52	334787	-53	0														8		79												
WM080112	101107_fnca	1	1	1	-470787215	1	75.031	75.030	2.0.10.147	2.0.10.242	2.0.10.242	1.0.0.439	7	234	2	3	Verdana	1	80	0	0	0	WM Stimuli\	0.6	948.5	0.9	853.222222222222	0.9	1076.44444444444	0.9	993.888888888889	0.7	907.857142857143	0.8	853.125	0.7	969.428571428571	1	628.5	13	383554	3	383542	27	40	383581	-999999	383557	0	18	TrialsPROC	TO_008_TOOL8_BA.png	1	2	80	SessionSelectionList														lure	3	Tools	0-Back	70	80	66	0	0	90	1	40	337333	1	13	58	335293	-1	335819	1	526	3	3	2040	53	337346	-54	0														9		80												
WM080112	101107_fnca	1	1	1	-470787215	1	75.031	75.030	2.0.10.147	2.0.10.242	2.0.10.242	1.0.0.439	7	234	2	3	Verdana	1	80	0	0	0	WM Stimuli\	0.6	948.5	0.9	853.222222222222	0.9	1076.44444444444	0.9	993.888888888889	0.7	907.857142857143	0.8	853.125	0.7	969.428571428571	1	628.5	13	383554	3	383542	27	40	383581	-999999	383557	0	18	TrialsPROC	TO_007_TOOL7_BA.png	1	2	81	SessionSelectionList														target	2	Tools	0-Back	71	80	67	0	0	90	1	40	339892	1	13	59	337852	-1	338361	1	509	2	2	2040	53	339905	-54	0														10		81												
WM080112	101107_fnca	1	1	1	-470787215	1	75.031	75.030	2.0.10.147	2.0.10.242	2.0.10.242	1.0.0.439	7	234	2	3	Verdana	1	80	0	0	0	WM Stimuli\	0.6	948.5	0.9	853.222222222222	0.9	1076.44444444444	0.9	993.888888888889	0.7	907.857142857143	0.8	853.125	0.7	969.428571428571	1	628.5	13	383554	3	383542	27	40	383581	-999999	383557	0	19	Cue2BackPROC	""	1	2	82	SessionSelectionList									6	340358	-7	0																																													82												
WM080112	101107_fnca	1	1	1	-470787215	1	75.031	75.030	2.0.10.147	2.0.10.242	2.0.10.242	1.0.0.439	7	234	2	3	Verdana	1	80	0	0	0	WM Stimuli\	0.6	948.5	0.9	853.222222222222	0.9	1076.44444444444	0.9	993.888888888889	0.7	907.857142857143	0.8	853.125	0.7	969.428571428571	1	628.5	13	383554	3	383542	27	40	383581	-999999	383557	0	20	TrialsPROC	PL_007_92026.png	1	2	83	SessionSelectionList														nonlure	3	Place	2-Back	72	80	68	0	0	90	1	39	344956	2	14	65	342917	-1	344457	1	1540	3	3	2039	53	344970	-54	0															1	83												
WM080112	101107_fnca	1	1	1	-470787215	1	75.031	75.030	2.0.10.147	2.0.10.242	2.0.10.242	1.0.0.439	7	234	2	3	Verdana	1	80	0	0	0	WM Stimuli\	0.6	948.5	0.9	853.222222222222	0.9	1076.44444444444	0.9	993.888888888889	0.7	907.857142857143	0.8	853.125	0.7	969.428571428571	1	628.5	13	383554	3	383542	27	40	383581	-999999	383557	0	20	TrialsPROC	PL_007_92026.png	1	2	84	SessionSelectionList														lure	3	Place	2-Back	73	80	69	0	0	90	2	40	347529	2	13	72	345489	-1	346028	1	539	3	3	2040	53	347542	-54	0															2	84												
WM080112	101107_fnca	1	1	1	-470787215	1	75.031	75.030	2.0.10.147	2.0.10.242	2.0.10.242	1.0.0.439	7	234	2	3	Verdana	1	80	0	0	0	WM Stimuli\	0.6	948.5	0.9	853.222222222222	0.9	1076.44444444444	0.9	993.888888888889	0.7	907.857142857143	0.8	853.125	0.7	969.428571428571	1	628.5	13	383554	3	383542	27	40	383581	-999999	383557	0	20	TrialsPROC	PL_010_92038.png	1	2	85	SessionSelectionList														nonlure	3	Place	2-Back	74	80	70	0	0	90	3	39	350101	2	14	73	348062	-1	348793	1	731	3	3	2039	53	350115	-54	0															3	85												
WM080112	101107_fnca	1	1	1	-470787215	1	75.031	75.030	2.0.10.147	2.0.10.242	2.0.10.242	1.0.0.439	7	234	2	3	Verdana	1	80	0	0	0	WM Stimuli\	0.6	948.5	0.9	853.222222222222	0.9	1076.44444444444	0.9	993.888888888889	0.7	907.857142857143	0.8	853.125	0.7	969.428571428571	1	628.5	13	383554	3	383542	27	40	383581	-999999	383557	0	20	TrialsPROC	PL_009_92037.png	1	2	86	SessionSelectionList														nonlure	3	Place	2-Back	75	80	71	0	0	90	4	39	352673	2	14	72	350634	-1	351314	1	680	3	3	2039	53	352687	-54	0															4	86												
WM080112	101107_fnca	1	1	1	-470787215	1	75.031	75.030	2.0.10.147	2.0.10.242	2.0.10.242	1.0.0.439	7	234	2	3	Verdana	1	80	0	0	0	WM Stimuli\	0.6	948.5	0.9	853.222222222222	0.9	1076.44444444444	0.9	993.888888888889	0.7	907.857142857143	0.8	853.125	0.7	969.428571428571	1	628.5	13	383554	3	383542	27	40	383581	-999999	383557	0	20	TrialsPROC	PL_010_92038.png	1	2	87	SessionSelectionList														target	2	Place	2-Back	76	80	72	0	0	90	5	40	355246	1	13	72	353206	-1	354362	0	1156	3	2	2040	53	355259	-54	0															5	87												
WM080112	101107_fnca	1	1	1	-470787215	1	75.031	75.030	2.0.10.147	2.0.10.242	2.0.10.242	1.0.0.439	7	234	2	3	Verdana	1	80	0	0	0	WM Stimuli\	0.6	948.5	0.9	853.222222222222	0.9	1076.44444444444	0.9	993.888888888889	0.7	907.857142857143	0.8	853.125	0.7	969.428571428571	1	628.5	13	383554	3	383542	27	40	383581	-999999	383557	0	20	TrialsPROC	PL_009_92037.png	1	2	88	SessionSelectionList														target	2	Place	2-Back	77	80	73	0	0	90	6	39	357804	2	14	59	355765	-1	356577	0	812	3	2	2039	53	357818	-54	0															6	88												
WM080112	101107_fnca	1	1	1	-470787215	1	75.031	75.030	2.0.10.147	2.0.10.242	2.0.10.242	1.0.0.439	7	234	2	3	Verdana	1	80	0	0	0	WM Stimuli\	0.6	948.5	0.9	853.222222222222	0.9	1076.44444444444	0.9	993.888888888889	0.7	907.857142857143	0.8	853.125	0.7	969.428571428571	1	628.5	13	383554	3	383542	27	40	383581	-999999	383557	0	20	TrialsPROC	PL_008_92033.png	1	2	89	SessionSelectionList														nonlure	3	Place	2-Back	78	80	74	0	0	90	7	39	360377	2	13	73	358338	-1	358973	1	635	3	3	2039	52	360390	-53	0															7	89												
WM080112	101107_fnca	1	1	1	-470787215	1	75.031	75.030	2.0.10.147	2.0.10.242	2.0.10.242	1.0.0.439	7	234	2	3	Verdana	1	80	0	0	0	WM Stimuli\	0.6	948.5	0.9	853.222222222222	0.9	1076.44444444444	0.9	993.888888888889	0.7	907.857142857143	0.8	853.125	0.7	969.428571428571	1	628.5	13	383554	3	383542	27	40	383581	-999999	383557	0	20	TrialsPROC	PL_012_92047.png	1	2	90	SessionSelectionList														nonlure	3	Place	2-Back	79	80	75	0	0	90	8	39	362936	1	13	59	360897	-1	361448	1	551	3	3	2039	52	362949	-53	0															8	90												
WM080112	101107_fnca	1	1	1	-470787215	1	75.031	75.030	2.0.10.147	2.0.10.242	2.0.10.242	1.0.0.439	7	234	2	3	Verdana	1	80	0	0	0	WM Stimuli\	0.6	948.5	0.9	853.222222222222	0.9	1076.44444444444	0.9	993.888888888889	0.7	907.857142857143	0.8	853.125	0.7	969.428571428571	1	628.5	13	383554	3	383542	27	40	383581	-999999	383557	0	20	TrialsPROC	PL_012_92047.png	1	2	91	SessionSelectionList														lure	3	Place	2-Back	80	80	75	0	1	90	8	39	365508	2	14	72	363469	-1	0	0	0	""	3	2039	53	365522	-54	0															9	91												
WM080112	101107_fnca	1	1	1	-470787215	1	75.031	75.030	2.0.10.147	2.0.10.242	2.0.10.242	1.0.0.439	7	234	2	3	Verdana	1	80	0	0	0	WM Stimuli\	0.6	948.5	0.9	853.222222222222	0.9	1076.44444444444	0.9	993.888888888889	0.7	907.857142857143	0.8	853.125	0.7	969.428571428571	1	628.5	13	383554	3	383542	27	40	383581	-999999	383557	0	20	TrialsPROC	PL_011_92044.png	1	2	92	SessionSelectionList														nonlure	3	Place	2-Back	80	80	76	0	0	90	1	39	368080	2	14	72	366041	-1	367720	1	1679	3	3	2039	53	368094	-54	0															10	92												
WM080112	101107_fnca	1	1	1	-470787215	1	75.031	75.030	2.0.10.147	2.0.10.242	2.0.10.242	1.0.0.439	7	234	2	3	Verdana	1	80	0	0	0	WM Stimuli\	0.6	948.5	0.9	853.222222222222	0.9	1076.44444444444	0.9	993.888888888889	0.7	907.857142857143	0.8	853.125	0.7	969.428571428571	1	628.5	13	383554	3	383542	27	40	383581	-999999	383557	0	21	Fix15secPROC	""	1	2	93	SessionSelectionList																																															6	368547	-7	0							93												
