ExperimentName	HCPID	RunNumber	Subject	Session	RandomSeed	Group	Laptop.RefreshRate	ScannerD2.RefreshRate	StudioVersion	RuntimeVersion	RuntimeVersionExpected	ExperimentVersion	triggercode	Allowed	Target	Nontarget	FontStyle	RunTrialNumber[Session]	TrialsPerRun[Session]	TotalRespGreater200[Session]	ConsecRTLess200[Session]	ConsecNonResp[Session]	StimuliDir	ACC_2_Back_Body	Avg_RT_For_Correct_Trials_2_Back_Body	ACC_0_Back_Body	Avg_RT_For_Correct_Trials_0_Back_Body	ACC_2_Back_Face	Avg_RT_For_Correct_Trials_2_Back_Face	ACC_0_Back_Face	Avg_RT_For_Correct_Trials_0_Back_Face	ACC_2_Back_Place	Avg_RT_For_Correct_Trials_2_Back_Place	ACC_0_Back_Place	Avg_RT_For_Correct_Trials_0_Back_Place	ACC_2_Back_Tools	Avg_RT_For_Correct_Trials_2_Back_Tools	ACC_0_Back_Tools	Avg_RT_For_Correct_Trials_0_Back_Tools	ExpInstrucFeelFreeToRest.OnsetDelay	ExpInstrucFeelFreeToRest.OnsetTime	ExpInstrucFeelFreeToRest.DurationError	ExpInstrucFeelFreeToRest.StartTime	ExpInstrucFeelFreeToRest.OnsetToOnsetTime	FeelFreeToRest.OnsetDelay	FeelFreeToRest.OnsetTime	FeelFreeToRest.DurationError	FeelFreeToRest.StartTime	FeelFreeToRest.OnsetToOnsetTime	SessionSelectionList	Procedure[Block]	Stimulus[Block]	RunNumberFilterValue	SessionSelectionList.Cycle	SessionSelectionList.Sample	Running[Block]	IntroButtonMap.OnsetDelay	IntroButtonMap.OnsetTime	IntroButtonMap.DurationError	IntroButtonMap.OnsetToOnsetTime	GetReady.OnsetDelay	GetReady.OnsetTime	GetReady.DurationError	GetReady.OnsetToOnsetTime	Cue2Back.OnsetDelay	Cue2Back.OnsetTime	Cue2Back.DurationError	Cue2Back.OnsetToOnsetTime	Run1Block1	TargetType	CorrectResponse	StimType	BlockType	RunTrialNumber[Block]	TrialsPerRun[Block]	TotalRespGreater200[Block]	ConsecRTLess200[Block]	ConsecNonResp[Block]	ControlAcc	ConsecSameResp	ExperimenterWindow.OnsetDelay	ExperimenterWindow.OnsetTime	ExperimenterWindow.DurationError	ExperimenterWindow.OnsetToOnsetTime	Stim.OnsetDelay	Stim.OnsetTime	Stim.DurationError	Stim.RTTime	Stim.ACC	Stim.RT	Stim.RESP	Stim.CRESP	Stim.OnsetToOnsetTime	Fix.OnsetDelay	Fix.OnsetTime	Fix.DurationError	Fix.OnsetToOnsetTime	CueTarget.OnsetDelay	CueTarget.OnsetTime	CueTarget.DurationError	CueTarget.OnsetToOnsetTime	Run1Block2	Fix15sec.OnsetDelay	Fix15sec.OnsetTime	Fix15sec.DurationError	Fix15sec.OnsetToOnsetTime	Run1Block3	Run1Block4	Run1Block5	Run1Block6	Run1Block7	Run1Block8	Block	Procedure[Trial]	Stimulus[Trial]	ReadyList	Running[Trial]	ReadyList.Cycle	ReadyList.Sample	SyncSlide.OnsetDelay	SyncSlide.OnsetTime	SyncSlide.DurationError	SyncSlide.FinishTime	SyncSlide.OnsetToOnsetTime	Trial
WM080112	108828_fnca	1	1	1	2129151078	1	75.031	75.030	2.0.10.147	2.0.10.242	2.0.10.242	1.0.0.439	7	234	2	3	Verdana	1	80	0	0	0	WM Stimuli\	0.5	1234.8	0.7	1421.42857142857	0.6	1190.66666666667	0.8	1261.625	0.7	1270.71428571429	0.6	1197.16666666667	0.8	1266.125	0.4	1198.25	13	537937	2	537925	27	40	537964	-999999	537940	0	1	TRSyncPROC	""	1	2	1	SessionSelectionList	98	21531	-999999	0	36	231754	-999999	0																																																	1	InitialTR	4	1	ReadyList	1	1	12	244668	-13	246655	0	1
WM080112	108828_fnca	1	1	1	2129151078	1	75.031	75.030	2.0.10.147	2.0.10.242	2.0.10.242	1.0.0.439	7	234	2	3	Verdana	1	80	0	0	0	WM Stimuli\	0.5	1234.8	0.7	1421.42857142857	0.6	1190.66666666667	0.8	1261.625	0.7	1270.71428571429	0.6	1197.16666666667	0.8	1266.125	0.4	1198.25	13	537937	2	537925	27	40	537964	-999999	537940	0	1	TRSyncPROC	""	1	2	1	SessionSelectionList	98	21531	-999999	0	36	231754	-999999	0																																																	1	InitialTR	3	2	ReadyList	1	2	11	246667	-12	248655	0	2
WM080112	108828_fnca	1	1	1	2129151078	1	75.031	75.030	2.0.10.147	2.0.10.242	2.0.10.242	1.0.0.439	7	234	2	3	Verdana	1	80	0	0	0	WM Stimuli\	0.5	1234.8	0.7	1421.42857142857	0.6	1190.66666666667	0.8	1261.625	0.7	1270.71428571429	0.6	1197.16666666667	0.8	1266.125	0.4	1198.25	13	537937	2	537925	27	40	537964	-999999	537940	0	1	TRSyncPROC	""	1	2	1	SessionSelectionList	98	21531	-999999	0	36	231754	-999999	0																																																	1	InitialTR	2	3	ReadyList	1	3	10	248666	-11	250655	0	3
WM080112	108828_fnca	1	1	1	2129151078	1	75.031	75.030	2.0.10.147	2.0.10.242	2.0.10.242	1.0.0.439	7	234	2	3	Verdana	1	80	0	0	0	WM Stimuli\	0.5	1234.8	0.7	1421.42857142857	0.6	1190.66666666667	0.8	1261.625	0.7	1270.71428571429	0.6	1197.16666666667	0.8	1266.125	0.4	1198.25	13	537937	2	537925	27	40	537964	-999999	537940	0	1	TRSyncPROC	""	1	2	1	SessionSelectionList	98	21531	-999999	0	36	231754	-999999	0																																																	1	InitialTR	1	4	ReadyList	1	4	10	250666	-11	252655	0	4
WM080112	108828_fnca	1	1	1	2129151078	1	75.031	75.030	2.0.10.147	2.0.10.242	2.0.10.242	1.0.0.439	7	234	2	3	Verdana	1	80	0	0	0	WM Stimuli\	0.5	1234.8	0.7	1421.42857142857	0.6	1190.66666666667	0.8	1261.625	0.7	1270.71428571429	0.6	1197.16666666667	0.8	1266.125	0.4	1198.25	13	537937	2	537925	27	40	537964	-999999	537940	0	2	Cue2BackPROC	""	1	2	2	SessionSelectionList									9	252665	-10	0																																													2												
WM080112	108828_fnca	1	1	1	2129151078	1	75.031	75.030	2.0.10.147	2.0.10.242	2.0.10.242	1.0.0.439	7	234	2	3	Verdana	1	80	0	0	0	WM Stimuli\	0.5	1234.8	0.7	1421.42857142857	0.6	1190.66666666667	0.8	1261.625	0.7	1270.71428571429	0.6	1197.16666666667	0.8	1266.125	0.4	1198.25	13	537937	2	537925	27	40	537964	-999999	537940	0	3	TrialsPROC	BP_002_BP10_BA.png	1	2	3	SessionSelectionList													1	nonlure	3	Body	2-Back	2	80	0	0	1	0	0	53	257290	3	13	81	255237	-1	0	0	0	""	3	2053	66	257303	-67	0																3												
WM080112	108828_fnca	1	1	1	2129151078	1	75.031	75.030	2.0.10.147	2.0.10.242	2.0.10.242	1.0.0.439	7	234	2	3	Verdana	1	80	0	0	0	WM Stimuli\	0.5	1234.8	0.7	1421.42857142857	0.6	1190.66666666667	0.8	1261.625	0.7	1270.71428571429	0.6	1197.16666666667	0.8	1266.125	0.4	1198.25	13	537937	2	537925	27	40	537964	-999999	537940	0	3	TrialsPROC	BP_001_BP1_BA.png	1	2	4	SessionSelectionList													2	nonlure	3	Body	2-Back	3	80	1	0	0	0	1	40	259849	2	13	72	257809	-1	258906	1	1097	3	3	2040	53	259862	-54	0																4												
WM080112	108828_fnca	1	1	1	2129151078	1	75.031	75.030	2.0.10.147	2.0.10.242	2.0.10.242	1.0.0.439	7	234	2	3	Verdana	1	80	0	0	0	WM Stimuli\	0.5	1234.8	0.7	1421.42857142857	0.6	1190.66666666667	0.8	1261.625	0.7	1270.71428571429	0.6	1197.16666666667	0.8	1266.125	0.4	1198.25	13	537937	2	537925	27	40	537964	-999999	537940	0	3	TrialsPROC	BP_006_BP2_BA.png	1	2	5	SessionSelectionList													3	nonlure	3	Body	2-Back	4	80	2	0	0	0	1	40	262408	1	13	59	260368	-1	261104	0	736	2	3	2040	53	262421	-54	0																5												
WM080112	108828_fnca	1	1	1	2129151078	1	75.031	75.030	2.0.10.147	2.0.10.242	2.0.10.242	1.0.0.439	7	234	2	3	Verdana	1	80	0	0	0	WM Stimuli\	0.5	1234.8	0.7	1421.42857142857	0.6	1190.66666666667	0.8	1261.625	0.7	1270.71428571429	0.6	1197.16666666667	0.8	1266.125	0.4	1198.25	13	537937	2	537925	27	40	537964	-999999	537940	0	3	TrialsPROC	BP_001_BP1_BA.png	1	2	6	SessionSelectionList													4	target	2	Body	2-Back	5	80	3	0	0	0	1	39	264980	1	14	73	262941	-1	264554	0	1613	3	2	2039	53	264994	-54	0																6												
WM080112	108828_fnca	1	1	1	2129151078	1	75.031	75.030	2.0.10.147	2.0.10.242	2.0.10.242	1.0.0.439	7	234	2	3	Verdana	1	80	0	0	0	WM Stimuli\	0.5	1234.8	0.7	1421.42857142857	0.6	1190.66666666667	0.8	1261.625	0.7	1270.71428571429	0.6	1197.16666666667	0.8	1266.125	0.4	1198.25	13	537937	2	537925	27	40	537964	-999999	537940	0	3	TrialsPROC	BP_005_BP19_BA.png	1	2	7	SessionSelectionList													5	nonlure	3	Body	2-Back	6	80	4	0	0	0	2	39	267552	2	14	72	265513	-1	266672	1	1159	3	3	2039	53	267566	-54	0																7												
WM080112	108828_fnca	1	1	1	2129151078	1	75.031	75.030	2.0.10.147	2.0.10.242	2.0.10.242	1.0.0.439	7	234	2	3	Verdana	1	80	0	0	0	WM Stimuli\	0.5	1234.8	0.7	1421.42857142857	0.6	1190.66666666667	0.8	1261.625	0.7	1270.71428571429	0.6	1197.16666666667	0.8	1266.125	0.4	1198.25	13	537937	2	537925	27	40	537964	-999999	537940	0	3	TrialsPROC	BP_003_BP16_BA.png	1	2	8	SessionSelectionList													6	nonlure	3	Body	2-Back	7	80	5	0	0	0	3	39	270111	2	14	59	268072	-1	269177	1	1105	3	3	2039	53	270125	-54	0																8												
WM080112	108828_fnca	1	1	1	2129151078	1	75.031	75.030	2.0.10.147	2.0.10.242	2.0.10.242	1.0.0.439	7	234	2	3	Verdana	1	80	0	0	0	WM Stimuli\	0.5	1234.8	0.7	1421.42857142857	0.6	1190.66666666667	0.8	1261.625	0.7	1270.71428571429	0.6	1197.16666666667	0.8	1266.125	0.4	1198.25	13	537937	2	537925	27	40	537964	-999999	537940	0	3	TrialsPROC	BP_006_BP2_BA.png	1	2	9	SessionSelectionList													7	lure	3	Body	2-Back	8	80	6	0	0	0	1	39	272670	2	14	59	270631	-1	272115	0	1484	2	3	2039	53	272684	-54	0																9												
WM080112	108828_fnca	1	1	1	2129151078	1	75.031	75.030	2.0.10.147	2.0.10.242	2.0.10.242	1.0.0.439	7	234	2	3	Verdana	1	80	0	0	0	WM Stimuli\	0.5	1234.8	0.7	1421.42857142857	0.6	1190.66666666667	0.8	1261.625	0.7	1270.71428571429	0.6	1197.16666666667	0.8	1266.125	0.4	1198.25	13	537937	2	537925	27	40	537964	-999999	537940	0	3	TrialsPROC	BP_004_BP18_BA.png	1	2	10	SessionSelectionList													8	nonlure	3	Body	2-Back	9	80	7	0	0	0	1	39	275229	2	14	59	273190	-1	274463	1	1273	3	3	2039	53	275243	-54	0																10												
WM080112	108828_fnca	1	1	1	2129151078	1	75.031	75.030	2.0.10.147	2.0.10.242	2.0.10.242	1.0.0.439	7	234	2	3	Verdana	1	80	0	0	0	WM Stimuli\	0.5	1234.8	0.7	1421.42857142857	0.6	1190.66666666667	0.8	1261.625	0.7	1270.71428571429	0.6	1197.16666666667	0.8	1266.125	0.4	1198.25	13	537937	2	537925	27	40	537964	-999999	537940	0	3	TrialsPROC	BP_005_BP19_BA.png	1	2	11	SessionSelectionList													9	lure	3	Body	2-Back	10	80	8	0	0	0	1	39	277788	2	14	59	275749	-1	277233	0	1484	2	3	2039	53	277802	-54	0																11												
WM080112	108828_fnca	1	1	1	2129151078	1	75.031	75.030	2.0.10.147	2.0.10.242	2.0.10.242	1.0.0.439	7	234	2	3	Verdana	1	80	0	0	0	WM Stimuli\	0.5	1234.8	0.7	1421.42857142857	0.6	1190.66666666667	0.8	1261.625	0.7	1270.71428571429	0.6	1197.16666666667	0.8	1266.125	0.4	1198.25	13	537937	2	537925	27	40	537964	-999999	537940	0	3	TrialsPROC	BP_004_BP18_BA.png	1	2	12	SessionSelectionList													10	target	2	Body	2-Back	11	80	9	0	0	0	2	39	280347	2	14	59	278308	-1	279848	1	1540	2	2	2039	53	280361	-54	0																12												
WM080112	108828_fnca	1	1	1	2129151078	1	75.031	75.030	2.0.10.147	2.0.10.242	2.0.10.242	1.0.0.439	7	234	2	3	Verdana	1	80	0	0	0	WM Stimuli\	0.5	1234.8	0.7	1421.42857142857	0.6	1190.66666666667	0.8	1261.625	0.7	1270.71428571429	0.6	1197.16666666667	0.8	1266.125	0.4	1198.25	13	537937	2	537925	27	40	537964	-999999	537940	0	4	Cue0BackPROC	FC_001_M1.png	1	2	13	SessionSelectionList																																										19	280827	-20	0												13												
WM080112	108828_fnca	1	1	1	2129151078	1	75.031	75.030	2.0.10.147	2.0.10.242	2.0.10.242	1.0.0.439	7	234	2	3	Verdana	1	80	0	0	0	WM Stimuli\	0.5	1234.8	0.7	1421.42857142857	0.6	1190.66666666667	0.8	1261.625	0.7	1270.71428571429	0.6	1197.16666666667	0.8	1266.125	0.4	1198.25	13	537937	2	537925	27	40	537964	-999999	537940	0	5	TrialsPROC	FC_005_M3.png	1	2	14	SessionSelectionList														nonlure	3	Face	0-Back	12	80	10	0	0	100	1	39	285412	1	13	65	283373	-1	285315	1	1942	3	3	2039	52	285425	-53	0					1											14												
WM080112	108828_fnca	1	1	1	2129151078	1	75.031	75.030	2.0.10.147	2.0.10.242	2.0.10.242	1.0.0.439	7	234	2	3	Verdana	1	80	0	0	0	WM Stimuli\	0.5	1234.8	0.7	1421.42857142857	0.6	1190.66666666667	0.8	1261.625	0.7	1270.71428571429	0.6	1197.16666666667	0.8	1266.125	0.4	1198.25	13	537937	2	537925	27	40	537964	-999999	537940	0	5	TrialsPROC	FC_001_M1.png	1	2	15	SessionSelectionList														target	2	Face	0-Back	13	80	11	0	0	100	1	39	287984	1	14	72	285945	-1	287060	1	1115	2	2	2039	53	287998	-54	0					2											15												
WM080112	108828_fnca	1	1	1	2129151078	1	75.031	75.030	2.0.10.147	2.0.10.242	2.0.10.242	1.0.0.439	7	234	2	3	Verdana	1	80	0	0	0	WM Stimuli\	0.5	1234.8	0.7	1421.42857142857	0.6	1190.66666666667	0.8	1261.625	0.7	1270.71428571429	0.6	1197.16666666667	0.8	1266.125	0.4	1198.25	13	537937	2	537925	27	40	537964	-999999	537940	0	5	TrialsPROC	FC_003_M2.png	1	2	16	SessionSelectionList														nonlure	3	Face	0-Back	14	80	12	0	0	100	1	39	290556	2	14	72	288517	-1	289692	1	1175	3	3	2039	53	290570	-54	0					3											16												
WM080112	108828_fnca	1	1	1	2129151078	1	75.031	75.030	2.0.10.147	2.0.10.242	2.0.10.242	1.0.0.439	7	234	2	3	Verdana	1	80	0	0	0	WM Stimuli\	0.5	1234.8	0.7	1421.42857142857	0.6	1190.66666666667	0.8	1261.625	0.7	1270.71428571429	0.6	1197.16666666667	0.8	1266.125	0.4	1198.25	13	537937	2	537925	27	40	537964	-999999	537940	0	5	TrialsPROC	FC_004_F2.png	1	2	17	SessionSelectionList														nonlure	3	Face	0-Back	15	80	13	0	0	100	2	40	293129	1	13	72	291089	-1	292084	1	995	3	3	2040	53	293142	-54	0					4											17												
WM080112	108828_fnca	1	1	1	2129151078	1	75.031	75.030	2.0.10.147	2.0.10.242	2.0.10.242	1.0.0.439	7	234	2	3	Verdana	1	80	0	0	0	WM Stimuli\	0.5	1234.8	0.7	1421.42857142857	0.6	1190.66666666667	0.8	1261.625	0.7	1270.71428571429	0.6	1197.16666666667	0.8	1266.125	0.4	1198.25	13	537937	2	537925	27	40	537964	-999999	537940	0	5	TrialsPROC	FC_004_F2.png	1	2	18	SessionSelectionList														lure	3	Face	0-Back	16	80	13	0	1	80	2	39	295701	1	14	73	293662	-1	0	0	0	""	3	2039	53	295715	-54	0					5											18												
WM080112	108828_fnca	1	1	1	2129151078	1	75.031	75.030	2.0.10.147	2.0.10.242	2.0.10.242	1.0.0.439	7	234	2	3	Verdana	1	80	0	0	0	WM Stimuli\	0.5	1234.8	0.7	1421.42857142857	0.6	1190.66666666667	0.8	1261.625	0.7	1270.71428571429	0.6	1197.16666666667	0.8	1266.125	0.4	1198.25	13	537937	2	537925	27	40	537964	-999999	537940	0	5	TrialsPROC	FC_001_M1.png	1	2	19	SessionSelectionList														target	2	Face	0-Back	17	80	14	0	0	83	1	39	298273	2	14	72	296234	-1	297098	1	864	2	2	2039	53	298287	-54	0					6											19												
WM080112	108828_fnca	1	1	1	2129151078	1	75.031	75.030	2.0.10.147	2.0.10.242	2.0.10.242	1.0.0.439	7	234	2	3	Verdana	1	80	0	0	0	WM Stimuli\	0.5	1234.8	0.7	1421.42857142857	0.6	1190.66666666667	0.8	1261.625	0.7	1270.71428571429	0.6	1197.16666666667	0.8	1266.125	0.4	1198.25	13	537937	2	537925	27	40	537964	-999999	537940	0	5	TrialsPROC	FC_006_F3.png	1	2	20	SessionSelectionList														nonlure	3	Face	0-Back	18	80	15	0	0	86	1	40	300846	1	13	72	298806	-1	300192	1	1386	3	3	2040	53	300859	-54	0					7											20												
WM080112	108828_fnca	1	1	1	2129151078	1	75.031	75.030	2.0.10.147	2.0.10.242	2.0.10.242	1.0.0.439	7	234	2	3	Verdana	1	80	0	0	0	WM Stimuli\	0.5	1234.8	0.7	1421.42857142857	0.6	1190.66666666667	0.8	1261.625	0.7	1270.71428571429	0.6	1197.16666666667	0.8	1266.125	0.4	1198.25	13	537937	2	537925	27	40	537964	-999999	537940	0	5	TrialsPROC	FC_006_F3.png	1	2	21	SessionSelectionList														lure	3	Face	0-Back	19	80	16	0	0	75	1	39	303418	1	14	73	301379	-1	303262	0	1883	2	3	2039	53	303432	-54	0					8											21												
WM080112	108828_fnca	1	1	1	2129151078	1	75.031	75.030	2.0.10.147	2.0.10.242	2.0.10.242	1.0.0.439	7	234	2	3	Verdana	1	80	0	0	0	WM Stimuli\	0.5	1234.8	0.7	1421.42857142857	0.6	1190.66666666667	0.8	1261.625	0.7	1270.71428571429	0.6	1197.16666666667	0.8	1266.125	0.4	1198.25	13	537937	2	537925	27	40	537964	-999999	537940	0	5	TrialsPROC	FC_003_M2.png	1	2	22	SessionSelectionList														lure	3	Face	0-Back	20	80	17	0	0	78	1	39	305990	2	14	72	303951	-1	305403	1	1452	3	3	2039	53	306004	-54	0					9											22												
WM080112	108828_fnca	1	1	1	2129151078	1	75.031	75.030	2.0.10.147	2.0.10.242	2.0.10.242	1.0.0.439	7	234	2	3	Verdana	1	80	0	0	0	WM Stimuli\	0.5	1234.8	0.7	1421.42857142857	0.6	1190.66666666667	0.8	1261.625	0.7	1270.71428571429	0.6	1197.16666666667	0.8	1266.125	0.4	1198.25	13	537937	2	537925	27	40	537964	-999999	537940	0	5	TrialsPROC	FC_002_F1.png	1	2	23	SessionSelectionList														nonlure	3	Face	0-Back	21	80	18	0	0	80	2	39	308562	2	14	72	306523	-1	307687	1	1164	3	3	2039	53	308576	-54	0					10											23												
WM080112	108828_fnca	1	1	1	2129151078	1	75.031	75.030	2.0.10.147	2.0.10.242	2.0.10.242	1.0.0.439	7	234	2	3	Verdana	1	80	0	0	0	WM Stimuli\	0.5	1234.8	0.7	1421.42857142857	0.6	1190.66666666667	0.8	1261.625	0.7	1270.71428571429	0.6	1197.16666666667	0.8	1266.125	0.4	1198.25	13	537937	2	537925	27	40	537964	-999999	537940	0	6	Fix15secPROC	""	1	2	24	SessionSelectionList																																															6	309029	-7	0							24												
WM080112	108828_fnca	1	1	1	2129151078	1	75.031	75.030	2.0.10.147	2.0.10.242	2.0.10.242	1.0.0.439	7	234	2	3	Verdana	1	80	0	0	0	WM Stimuli\	0.5	1234.8	0.7	1421.42857142857	0.6	1190.66666666667	0.8	1261.625	0.7	1270.71428571429	0.6	1197.16666666667	0.8	1266.125	0.4	1198.25	13	537937	2	537925	27	40	537964	-999999	537940	0	7	Cue2BackPROC	""	1	2	25	SessionSelectionList									13	324036	-14	0																																													25												
WM080112	108828_fnca	1	1	1	2129151078	1	75.031	75.030	2.0.10.147	2.0.10.242	2.0.10.242	1.0.0.439	7	234	2	3	Verdana	1	80	0	0	0	WM Stimuli\	0.5	1234.8	0.7	1421.42857142857	0.6	1190.66666666667	0.8	1261.625	0.7	1270.71428571429	0.6	1197.16666666667	0.8	1266.125	0.4	1198.25	13	537937	2	537925	27	40	537964	-999999	537940	0	8	TrialsPROC	TO_001_TOOL1_BA.png	1	2	26	SessionSelectionList														nonlure	3	Tools	2-Back	22	80	19	0	0	80	3	39	328621	1	14	59	326582	-1	327619	1	1037	3	3	2039	53	328635	-54	0										1						26												
WM080112	108828_fnca	1	1	1	2129151078	1	75.031	75.030	2.0.10.147	2.0.10.242	2.0.10.242	1.0.0.439	7	234	2	3	Verdana	1	80	0	0	0	WM Stimuli\	0.5	1234.8	0.7	1421.42857142857	0.6	1190.66666666667	0.8	1261.625	0.7	1270.71428571429	0.6	1197.16666666667	0.8	1266.125	0.4	1198.25	13	537937	2	537925	27	40	537964	-999999	537940	0	8	TrialsPROC	TO_002_TOOL2_BA.png	1	2	27	SessionSelectionList														nonlure	3	Tools	2-Back	23	80	20	0	0	80	4	39	331180	1	14	59	329141	-1	329780	1	639	3	3	2039	53	331194	-54	0										2						27												
WM080112	108828_fnca	1	1	1	2129151078	1	75.031	75.030	2.0.10.147	2.0.10.242	2.0.10.242	1.0.0.439	7	234	2	3	Verdana	1	80	0	0	0	WM Stimuli\	0.5	1234.8	0.7	1421.42857142857	0.6	1190.66666666667	0.8	1261.625	0.7	1270.71428571429	0.6	1197.16666666667	0.8	1266.125	0.4	1198.25	13	537937	2	537925	27	40	537964	-999999	537940	0	8	TrialsPROC	TO_004_TOOL4_BA.png	1	2	28	SessionSelectionList														nonlure	3	Tools	2-Back	24	80	21	0	0	80	5	39	333739	1	14	59	331700	-1	332739	1	1039	3	3	2039	53	333753	-54	0										3						28												
WM080112	108828_fnca	1	1	1	2129151078	1	75.031	75.030	2.0.10.147	2.0.10.242	2.0.10.242	1.0.0.439	7	234	2	3	Verdana	1	80	0	0	0	WM Stimuli\	0.5	1234.8	0.7	1421.42857142857	0.6	1190.66666666667	0.8	1261.625	0.7	1270.71428571429	0.6	1197.16666666667	0.8	1266.125	0.4	1198.25	13	537937	2	537925	27	40	537964	-999999	537940	0	8	TrialsPROC	TO_002_TOOL2_BA.png	1	2	29	SessionSelectionList														target	2	Tools	2-Back	25	80	22	0	0	80	6	39	336298	1	14	59	334259	-1	335414	0	1155	3	2	2039	53	336312	-54	0										4						29												
WM080112	108828_fnca	1	1	1	2129151078	1	75.031	75.030	2.0.10.147	2.0.10.242	2.0.10.242	1.0.0.439	7	234	2	3	Verdana	1	80	0	0	0	WM Stimuli\	0.5	1234.8	0.7	1421.42857142857	0.6	1190.66666666667	0.8	1261.625	0.7	1270.71428571429	0.6	1197.16666666667	0.8	1266.125	0.4	1198.25	13	537937	2	537925	27	40	537964	-999999	537940	0	8	TrialsPROC	TO_001_TOOL1_BA.png	1	2	30	SessionSelectionList														lure	3	Tools	2-Back	26	80	23	0	0	80	7	39	338857	1	14	59	336818	-1	338453	1	1635	3	3	2039	53	338871	-54	0										5						30												
WM080112	108828_fnca	1	1	1	2129151078	1	75.031	75.030	2.0.10.147	2.0.10.242	2.0.10.242	1.0.0.439	7	234	2	3	Verdana	1	80	0	0	0	WM Stimuli\	0.5	1234.8	0.7	1421.42857142857	0.6	1190.66666666667	0.8	1261.625	0.7	1270.71428571429	0.6	1197.16666666667	0.8	1266.125	0.4	1198.25	13	537937	2	537925	27	40	537964	-999999	537940	0	8	TrialsPROC	TO_004_TOOL4_BA.png	1	2	31	SessionSelectionList														lure	3	Tools	2-Back	27	80	24	0	0	80	1	39	341416	1	14	59	339377	-1	341151	0	1774	2	3	2039	53	341430	-54	0										6						31												
WM080112	108828_fnca	1	1	1	2129151078	1	75.031	75.030	2.0.10.147	2.0.10.242	2.0.10.242	1.0.0.439	7	234	2	3	Verdana	1	80	0	0	0	WM Stimuli\	0.5	1234.8	0.7	1421.42857142857	0.6	1190.66666666667	0.8	1261.625	0.7	1270.71428571429	0.6	1197.16666666667	0.8	1266.125	0.4	1198.25	13	537937	2	537925	27	40	537964	-999999	537940	0	8	TrialsPROC	TO_006_TOOL6_BA.png	1	2	32	SessionSelectionList														nonlure	3	Tools	2-Back	28	80	25	0	0	80	1	39	343975	1	14	59	341936	-1	343137	1	1201	3	3	2039	53	343989	-54	0										7						32												
WM080112	108828_fnca	1	1	1	2129151078	1	75.031	75.030	2.0.10.147	2.0.10.242	2.0.10.242	1.0.0.439	7	234	2	3	Verdana	1	80	0	0	0	WM Stimuli\	0.5	1234.8	0.7	1421.42857142857	0.6	1190.66666666667	0.8	1261.625	0.7	1270.71428571429	0.6	1197.16666666667	0.8	1266.125	0.4	1198.25	13	537937	2	537925	27	40	537964	-999999	537940	0	8	TrialsPROC	TO_005_TOOL5_BA.png	1	2	33	SessionSelectionList														nonlure	3	Tools	2-Back	29	80	26	0	0	80	2	39	346534	1	14	59	344495	-1	345902	1	1407	3	3	2039	53	346548	-54	0										8						33												
WM080112	108828_fnca	1	1	1	2129151078	1	75.031	75.030	2.0.10.147	2.0.10.242	2.0.10.242	1.0.0.439	7	234	2	3	Verdana	1	80	0	0	0	WM Stimuli\	0.5	1234.8	0.7	1421.42857142857	0.6	1190.66666666667	0.8	1261.625	0.7	1270.71428571429	0.6	1197.16666666667	0.8	1266.125	0.4	1198.25	13	537937	2	537925	27	40	537964	-999999	537940	0	8	TrialsPROC	TO_006_TOOL6_BA.png	1	2	34	SessionSelectionList														target	2	Tools	2-Back	30	80	27	0	0	80	1	39	349093	1	14	59	347054	-1	348528	1	1474	2	2	2039	53	349107	-54	0										9						34												
WM080112	108828_fnca	1	1	1	2129151078	1	75.031	75.030	2.0.10.147	2.0.10.242	2.0.10.242	1.0.0.439	7	234	2	3	Verdana	1	80	0	0	0	WM Stimuli\	0.5	1234.8	0.7	1421.42857142857	0.6	1190.66666666667	0.8	1261.625	0.7	1270.71428571429	0.6	1197.16666666667	0.8	1266.125	0.4	1198.25	13	537937	2	537925	27	40	537964	-999999	537940	0	8	TrialsPROC	TO_003_TOOL3_BA.png	1	2	35	SessionSelectionList														nonlure	3	Tools	2-Back	31	80	28	0	0	80	1	39	351652	1	14	59	349613	-1	351310	1	1697	3	3	2039	53	351666	-54	0										10						35												
WM080112	108828_fnca	1	1	1	2129151078	1	75.031	75.030	2.0.10.147	2.0.10.242	2.0.10.242	1.0.0.439	7	234	2	3	Verdana	1	80	0	0	0	WM Stimuli\	0.5	1234.8	0.7	1421.42857142857	0.6	1190.66666666667	0.8	1261.625	0.7	1270.71428571429	0.6	1197.16666666667	0.8	1266.125	0.4	1198.25	13	537937	2	537925	27	40	537964	-999999	537940	0	9	Cue0BackPROC	BP_007_BP20_BA.png	1	2	36	SessionSelectionList																																										19	352132	-20	0												36												
WM080112	108828_fnca	1	1	1	2129151078	1	75.031	75.030	2.0.10.147	2.0.10.242	2.0.10.242	1.0.0.439	7	234	2	3	Verdana	1	80	0	0	0	WM Stimuli\	0.5	1234.8	0.7	1421.42857142857	0.6	1190.66666666667	0.8	1261.625	0.7	1270.71428571429	0.6	1197.16666666667	0.8	1266.125	0.4	1198.25	13	537937	2	537925	27	40	537964	-999999	537940	0	10	TrialsPROC	BP_007_BP20_BA.png	1	2	37	SessionSelectionList														target	2	Body	0-Back	32	80	28	0	1	73	1	39	356703	1	14	51	354664	-1	0	0	0	""	2	2039	53	356717	-54	0											1					37												
WM080112	108828_fnca	1	1	1	2129151078	1	75.031	75.030	2.0.10.147	2.0.10.242	2.0.10.242	1.0.0.439	7	234	2	3	Verdana	1	80	0	0	0	WM Stimuli\	0.5	1234.8	0.7	1421.42857142857	0.6	1190.66666666667	0.8	1261.625	0.7	1270.71428571429	0.6	1197.16666666667	0.8	1266.125	0.4	1198.25	13	537937	2	537925	27	40	537964	-999999	537940	0	10	TrialsPROC	BP_011_BP4_BA.png	1	2	38	SessionSelectionList														nonlure	3	Body	0-Back	33	80	29	0	0	75	1	39	359262	1	14	59	357223	-1	358351	1	1128	3	3	2039	53	359276	-54	0											2					38												
WM080112	108828_fnca	1	1	1	2129151078	1	75.031	75.030	2.0.10.147	2.0.10.242	2.0.10.242	1.0.0.439	7	234	2	3	Verdana	1	80	0	0	0	WM Stimuli\	0.5	1234.8	0.7	1421.42857142857	0.6	1190.66666666667	0.8	1261.625	0.7	1270.71428571429	0.6	1197.16666666667	0.8	1266.125	0.4	1198.25	13	537937	2	537925	27	40	537964	-999999	537940	0	10	TrialsPROC	BP_010_BP3_BA.png	1	2	39	SessionSelectionList														nonlure	3	Body	0-Back	34	80	30	0	0	77	2	39	361821	1	14	59	359782	-1	361312	1	1530	3	3	2039	53	361835	-54	0											3					39												
WM080112	108828_fnca	1	1	1	2129151078	1	75.031	75.030	2.0.10.147	2.0.10.242	2.0.10.242	1.0.0.439	7	234	2	3	Verdana	1	80	0	0	0	WM Stimuli\	0.5	1234.8	0.7	1421.42857142857	0.6	1190.66666666667	0.8	1261.625	0.7	1270.71428571429	0.6	1197.16666666667	0.8	1266.125	0.4	1198.25	13	537937	2	537925	27	40	537964	-999999	537940	0	10	TrialsPROC	BP_008_BP21_BA.png	1	2	40	SessionSelectionList														nonlure	3	Body	0-Back	35	80	31	0	0	79	3	39	364380	1	14	59	362341	-1	363949	1	1608	3	3	2039	53	364394	-54	0											4					40												
WM080112	108828_fnca	1	1	1	2129151078	1	75.031	75.030	2.0.10.147	2.0.10.242	2.0.10.242	1.0.0.439	7	234	2	3	Verdana	1	80	0	0	0	WM Stimuli\	0.5	1234.8	0.7	1421.42857142857	0.6	1190.66666666667	0.8	1261.625	0.7	1270.71428571429	0.6	1197.16666666667	0.8	1266.125	0.4	1198.25	13	537937	2	537925	27	40	537964	-999999	537940	0	10	TrialsPROC	BP_011_BP4_BA.png	1	2	41	SessionSelectionList														lure	3	Body	0-Back	36	80	32	0	0	73	1	39	366952	2	14	72	364913	-1	366593	0	1680	2	3	2039	53	366966	-54	0											5					41												
WM080112	108828_fnca	1	1	1	2129151078	1	75.031	75.030	2.0.10.147	2.0.10.242	2.0.10.242	1.0.0.439	7	234	2	3	Verdana	1	80	0	0	0	WM Stimuli\	0.5	1234.8	0.7	1421.42857142857	0.6	1190.66666666667	0.8	1261.625	0.7	1270.71428571429	0.6	1197.16666666667	0.8	1266.125	0.4	1198.25	13	537937	2	537925	27	40	537964	-999999	537940	0	10	TrialsPROC	BP_009_BP22_BA.png	1	2	42	SessionSelectionList														nonlure	3	Body	0-Back	37	80	33	0	0	75	1	39	369511	2	14	59	367472	-1	368829	1	1357	3	3	2039	53	369525	-54	0											6					42												
WM080112	108828_fnca	1	1	1	2129151078	1	75.031	75.030	2.0.10.147	2.0.10.242	2.0.10.242	1.0.0.439	7	234	2	3	Verdana	1	80	0	0	0	WM Stimuli\	0.5	1234.8	0.7	1421.42857142857	0.6	1190.66666666667	0.8	1261.625	0.7	1270.71428571429	0.6	1197.16666666667	0.8	1266.125	0.4	1198.25	13	537937	2	537925	27	40	537964	-999999	537940	0	10	TrialsPROC	BP_009_BP22_BA.png	1	2	43	SessionSelectionList														lure	3	Body	0-Back	38	80	34	0	0	71	1	39	372070	2	14	59	370031	-1	371515	0	1484	2	3	2039	53	372084	-54	0											7					43												
WM080112	108828_fnca	1	1	1	2129151078	1	75.031	75.030	2.0.10.147	2.0.10.242	2.0.10.242	1.0.0.439	7	234	2	3	Verdana	1	80	0	0	0	WM Stimuli\	0.5	1234.8	0.7	1421.42857142857	0.6	1190.66666666667	0.8	1261.625	0.7	1270.71428571429	0.6	1197.16666666667	0.8	1266.125	0.4	1198.25	13	537937	2	537925	27	40	537964	-999999	537940	0	10	TrialsPROC	BP_008_BP21_BA.png	1	2	44	SessionSelectionList														lure	3	Body	0-Back	39	80	35	0	0	72	1	39	374629	2	14	59	372590	-1	374446	1	1856	3	3	2039	53	374643	-54	0											8					44												
WM080112	108828_fnca	1	1	1	2129151078	1	75.031	75.030	2.0.10.147	2.0.10.242	2.0.10.242	1.0.0.439	7	234	2	3	Verdana	1	80	0	0	0	WM Stimuli\	0.5	1234.8	0.7	1421.42857142857	0.6	1190.66666666667	0.8	1261.625	0.7	1270.71428571429	0.6	1197.16666666667	0.8	1266.125	0.4	1198.25	13	537937	2	537925	27	40	537964	-999999	537940	0	10	TrialsPROC	BP_007_BP20_BA.png	1	2	45	SessionSelectionList														target	2	Body	0-Back	40	80	36	0	0	74	1	39	377188	2	14	59	375149	-1	376297	1	1148	2	2	2039	53	377202	-54	0											9					45												
WM080112	108828_fnca	1	1	1	2129151078	1	75.031	75.030	2.0.10.147	2.0.10.242	2.0.10.242	1.0.0.439	7	234	2	3	Verdana	1	80	0	0	0	WM Stimuli\	0.5	1234.8	0.7	1421.42857142857	0.6	1190.66666666667	0.8	1261.625	0.7	1270.71428571429	0.6	1197.16666666667	0.8	1266.125	0.4	1198.25	13	537937	2	537925	27	40	537964	-999999	537940	0	10	TrialsPROC	BP_012_BP5_BA.png	1	2	46	SessionSelectionList														nonlure	3	Body	0-Back	41	80	37	0	0	75	1	39	379747	2	14	59	377708	-1	379031	1	1323	3	3	2039	53	379761	-54	0											10					46												
WM080112	108828_fnca	1	1	1	2129151078	1	75.031	75.030	2.0.10.147	2.0.10.242	2.0.10.242	1.0.0.439	7	234	2	3	Verdana	1	80	0	0	0	WM Stimuli\	0.5	1234.8	0.7	1421.42857142857	0.6	1190.66666666667	0.8	1261.625	0.7	1270.71428571429	0.6	1197.16666666667	0.8	1266.125	0.4	1198.25	13	537937	2	537925	27	40	537964	-999999	537940	0	11	Fix15secPROC	""	1	2	47	SessionSelectionList																																															6	380214	-7	0							47												
WM080112	108828_fnca	1	1	1	2129151078	1	75.031	75.030	2.0.10.147	2.0.10.242	2.0.10.242	1.0.0.439	7	234	2	3	Verdana	1	80	0	0	0	WM Stimuli\	0.5	1234.8	0.7	1421.42857142857	0.6	1190.66666666667	0.8	1261.625	0.7	1270.71428571429	0.6	1197.16666666667	0.8	1266.125	0.4	1198.25	13	537937	2	537925	27	40	537964	-999999	537940	0	12	Cue0BackPROC	PL_001_92012.png	1	2	48	SessionSelectionList																																										13	395221	-14	0												48												
WM080112	108828_fnca	1	1	1	2129151078	1	75.031	75.030	2.0.10.147	2.0.10.242	2.0.10.242	1.0.0.439	7	234	2	3	Verdana	1	80	0	0	0	WM Stimuli\	0.5	1234.8	0.7	1421.42857142857	0.6	1190.66666666667	0.8	1261.625	0.7	1270.71428571429	0.6	1197.16666666667	0.8	1266.125	0.4	1198.25	13	537937	2	537925	27	40	537964	-999999	537940	0	13	TrialsPROC	PL_003_92016.png	1	2	49	SessionSelectionList														nonlure	3	Place	0-Back	42	80	37	0	1	71	1	39	399819	2	14	72	397780	-1	0	0	0	""	3	2039	53	399833	-54	0												1				49												
WM080112	108828_fnca	1	1	1	2129151078	1	75.031	75.030	2.0.10.147	2.0.10.242	2.0.10.242	1.0.0.439	7	234	2	3	Verdana	1	80	0	0	0	WM Stimuli\	0.5	1234.8	0.7	1421.42857142857	0.6	1190.66666666667	0.8	1261.625	0.7	1270.71428571429	0.6	1197.16666666667	0.8	1266.125	0.4	1198.25	13	537937	2	537925	27	40	537964	-999999	537940	0	13	TrialsPROC	PL_003_92016.png	1	2	50	SessionSelectionList														lure	3	Place	0-Back	43	80	38	0	0	68	1	39	402391	2	14	72	400352	-1	401433	0	1081	2	3	2039	53	402405	-54	0												2				50												
WM080112	108828_fnca	1	1	1	2129151078	1	75.031	75.030	2.0.10.147	2.0.10.242	2.0.10.242	1.0.0.439	7	234	2	3	Verdana	1	80	0	0	0	WM Stimuli\	0.5	1234.8	0.7	1421.42857142857	0.6	1190.66666666667	0.8	1261.625	0.7	1270.71428571429	0.6	1197.16666666667	0.8	1266.125	0.4	1198.25	13	537937	2	537925	27	40	537964	-999999	537940	0	13	TrialsPROC	PL_006_92025.png	1	2	51	SessionSelectionList														nonlure	3	Place	0-Back	44	80	39	0	0	70	1	40	404964	1	13	72	402924	-1	403978	1	1054	3	3	2040	53	404977	-54	0												3				51												
WM080112	108828_fnca	1	1	1	2129151078	1	75.031	75.030	2.0.10.147	2.0.10.242	2.0.10.242	1.0.0.439	7	234	2	3	Verdana	1	80	0	0	0	WM Stimuli\	0.5	1234.8	0.7	1421.42857142857	0.6	1190.66666666667	0.8	1261.625	0.7	1270.71428571429	0.6	1197.16666666667	0.8	1266.125	0.4	1198.25	13	537937	2	537925	27	40	537964	-999999	537940	0	13	TrialsPROC	PL_001_92012.png	1	2	52	SessionSelectionList														target	2	Place	0-Back	45	80	40	0	0	67	2	39	407536	1	14	73	405497	-1	406918	0	1421	3	2	2039	53	407550	-54	0												4				52												
WM080112	108828_fnca	1	1	1	2129151078	1	75.031	75.030	2.0.10.147	2.0.10.242	2.0.10.242	1.0.0.439	7	234	2	3	Verdana	1	80	0	0	0	WM Stimuli\	0.5	1234.8	0.7	1421.42857142857	0.6	1190.66666666667	0.8	1261.625	0.7	1270.71428571429	0.6	1197.16666666667	0.8	1266.125	0.4	1198.25	13	537937	2	537925	27	40	537964	-999999	537940	0	13	TrialsPROC	PL_004_92023.png	1	2	53	SessionSelectionList														nonlure	3	Place	0-Back	46	80	41	0	0	68	3	39	410108	2	14	72	408069	-1	409409	1	1340	3	3	2039	53	410122	-54	0												5				53												
WM080112	108828_fnca	1	1	1	2129151078	1	75.031	75.030	2.0.10.147	2.0.10.242	2.0.10.242	1.0.0.439	7	234	2	3	Verdana	1	80	0	0	0	WM Stimuli\	0.5	1234.8	0.7	1421.42857142857	0.6	1190.66666666667	0.8	1261.625	0.7	1270.71428571429	0.6	1197.16666666667	0.8	1266.125	0.4	1198.25	13	537937	2	537925	27	40	537964	-999999	537940	0	13	TrialsPROC	PL_005_92024.png	1	2	54	SessionSelectionList														nonlure	3	Place	0-Back	47	80	42	0	0	69	4	40	412681	1	13	72	410641	-1	412196	1	1555	3	3	2040	53	412694	-54	0												6				54												
WM080112	108828_fnca	1	1	1	2129151078	1	75.031	75.030	2.0.10.147	2.0.10.242	2.0.10.242	1.0.0.439	7	234	2	3	Verdana	1	80	0	0	0	WM Stimuli\	0.5	1234.8	0.7	1421.42857142857	0.6	1190.66666666667	0.8	1261.625	0.7	1270.71428571429	0.6	1197.16666666667	0.8	1266.125	0.4	1198.25	13	537937	2	537925	27	40	537964	-999999	537940	0	13	TrialsPROC	PL_001_92012.png	1	2	55	SessionSelectionList														target	2	Place	0-Back	48	80	43	0	0	70	1	39	415253	1	14	73	413214	-1	414513	1	1299	2	2	2039	53	415267	-54	0												7				55												
WM080112	108828_fnca	1	1	1	2129151078	1	75.031	75.030	2.0.10.147	2.0.10.242	2.0.10.242	1.0.0.439	7	234	2	3	Verdana	1	80	0	0	0	WM Stimuli\	0.5	1234.8	0.7	1421.42857142857	0.6	1190.66666666667	0.8	1261.625	0.7	1270.71428571429	0.6	1197.16666666667	0.8	1266.125	0.4	1198.25	13	537937	2	537925	27	40	537964	-999999	537940	0	13	TrialsPROC	PL_002_92014.png	1	2	56	SessionSelectionList														nonlure	3	Place	0-Back	49	80	44	0	0	71	1	39	417825	2	14	72	415786	-1	416565	1	779	3	3	2039	53	417839	-54	0												8				56												
WM080112	108828_fnca	1	1	1	2129151078	1	75.031	75.030	2.0.10.147	2.0.10.242	2.0.10.242	1.0.0.439	7	234	2	3	Verdana	1	80	0	0	0	WM Stimuli\	0.5	1234.8	0.7	1421.42857142857	0.6	1190.66666666667	0.8	1261.625	0.7	1270.71428571429	0.6	1197.16666666667	0.8	1266.125	0.4	1198.25	13	537937	2	537925	27	40	537964	-999999	537940	0	13	TrialsPROC	PL_004_92023.png	1	2	57	SessionSelectionList														lure	3	Place	0-Back	50	80	45	0	0	72	2	39	420397	2	14	72	418358	-1	419514	1	1156	3	3	2039	53	420411	-54	0												9				57												
WM080112	108828_fnca	1	1	1	2129151078	1	75.031	75.030	2.0.10.147	2.0.10.242	2.0.10.242	1.0.0.439	7	234	2	3	Verdana	1	80	0	0	0	WM Stimuli\	0.5	1234.8	0.7	1421.42857142857	0.6	1190.66666666667	0.8	1261.625	0.7	1270.71428571429	0.6	1197.16666666667	0.8	1266.125	0.4	1198.25	13	537937	2	537925	27	40	537964	-999999	537940	0	13	TrialsPROC	PL_006_92025.png	1	2	58	SessionSelectionList														lure	3	Place	0-Back	51	80	46	0	0	70	1	39	422956	2	14	59	420917	-1	421867	0	950	2	3	2039	53	422970	-54	0												10				58												
WM080112	108828_fnca	1	1	1	2129151078	1	75.031	75.030	2.0.10.147	2.0.10.242	2.0.10.242	1.0.0.439	7	234	2	3	Verdana	1	80	0	0	0	WM Stimuli\	0.5	1234.8	0.7	1421.42857142857	0.6	1190.66666666667	0.8	1261.625	0.7	1270.71428571429	0.6	1197.16666666667	0.8	1266.125	0.4	1198.25	13	537937	2	537925	27	40	537964	-999999	537940	0	14	Cue2BackPROC	""	1	2	59	SessionSelectionList									6	423423	-7	0																																													59												
WM080112	108828_fnca	1	1	1	2129151078	1	75.031	75.030	2.0.10.147	2.0.10.242	2.0.10.242	1.0.0.439	7	234	2	3	Verdana	1	80	0	0	0	WM Stimuli\	0.5	1234.8	0.7	1421.42857142857	0.6	1190.66666666667	0.8	1261.625	0.7	1270.71428571429	0.6	1197.16666666667	0.8	1266.125	0.4	1198.25	13	537937	2	537925	27	40	537964	-999999	537940	0	15	TrialsPROC	FC_010_F5.png	1	2	60	SessionSelectionList														nonlure	3	Face	2-Back	52	80	46	0	1	70	1	39	428021	2	14	65	425982	-1	0	0	0	""	3	2039	53	428035	-54	0													1			60												
WM080112	108828_fnca	1	1	1	2129151078	1	75.031	75.030	2.0.10.147	2.0.10.242	2.0.10.242	1.0.0.439	7	234	2	3	Verdana	1	80	0	0	0	WM Stimuli\	0.5	1234.8	0.7	1421.42857142857	0.6	1190.66666666667	0.8	1261.625	0.7	1270.71428571429	0.6	1197.16666666667	0.8	1266.125	0.4	1198.25	13	537937	2	537925	27	40	537964	-999999	537940	0	15	TrialsPROC	FC_012_F6.png	1	2	61	SessionSelectionList														nonlure	3	Face	2-Back	53	80	47	0	0	70	1	53	430607	2	13	72	428554	-1	429908	1	1354	3	3	2053	66	430620	-67	0													2			61												
WM080112	108828_fnca	1	1	1	2129151078	1	75.031	75.030	2.0.10.147	2.0.10.242	2.0.10.242	1.0.0.439	7	234	2	3	Verdana	1	80	0	0	0	WM Stimuli\	0.5	1234.8	0.7	1421.42857142857	0.6	1190.66666666667	0.8	1261.625	0.7	1270.71428571429	0.6	1197.16666666667	0.8	1266.125	0.4	1198.25	13	537937	2	537925	27	40	537964	-999999	537940	0	15	TrialsPROC	FC_010_F5.png	1	2	62	SessionSelectionList														target	2	Face	2-Back	54	80	48	0	0	70	1	39	433166	1	13	73	431127	-1	432205	1	1078	2	2	2039	52	433179	-53	0													3			62												
WM080112	108828_fnca	1	1	1	2129151078	1	75.031	75.030	2.0.10.147	2.0.10.242	2.0.10.242	1.0.0.439	7	234	2	3	Verdana	1	80	0	0	0	WM Stimuli\	0.5	1234.8	0.7	1421.42857142857	0.6	1190.66666666667	0.8	1261.625	0.7	1270.71428571429	0.6	1197.16666666667	0.8	1266.125	0.4	1198.25	13	537937	2	537925	27	40	537964	-999999	537940	0	15	TrialsPROC	FC_008_F4.png	1	2	63	SessionSelectionList														nonlure	3	Face	2-Back	55	80	49	0	0	70	1	39	435738	1	14	72	433699	-1	434805	1	1106	3	3	2039	53	435752	-54	0													4			63												
WM080112	108828_fnca	1	1	1	2129151078	1	75.031	75.030	2.0.10.147	2.0.10.242	2.0.10.242	1.0.0.439	7	234	2	3	Verdana	1	80	0	0	0	WM Stimuli\	0.5	1234.8	0.7	1421.42857142857	0.6	1190.66666666667	0.8	1261.625	0.7	1270.71428571429	0.6	1197.16666666667	0.8	1266.125	0.4	1198.25	13	537937	2	537925	27	40	537964	-999999	537940	0	15	TrialsPROC	FC_012_F6.png	1	2	64	SessionSelectionList														lure	3	Face	2-Back	56	80	50	0	0	70	1	39	438310	2	14	72	436271	-1	437912	0	1641	2	3	2039	53	438324	-54	0													5			64												
WM080112	108828_fnca	1	1	1	2129151078	1	75.031	75.030	2.0.10.147	2.0.10.242	2.0.10.242	1.0.0.439	7	234	2	3	Verdana	1	80	0	0	0	WM Stimuli\	0.5	1234.8	0.7	1421.42857142857	0.6	1190.66666666667	0.8	1261.625	0.7	1270.71428571429	0.6	1197.16666666667	0.8	1266.125	0.4	1198.25	13	537937	2	537925	27	40	537964	-999999	537940	0	15	TrialsPROC	FC_008_F4.png	1	2	65	SessionSelectionList														target	2	Face	2-Back	57	80	50	0	1	70	1	40	440883	1	13	72	438843	-1	0	0	0	""	2	2040	53	440896	-54	0													6			65												
WM080112	108828_fnca	1	1	1	2129151078	1	75.031	75.030	2.0.10.147	2.0.10.242	2.0.10.242	1.0.0.439	7	234	2	3	Verdana	1	80	0	0	0	WM Stimuli\	0.5	1234.8	0.7	1421.42857142857	0.6	1190.66666666667	0.8	1261.625	0.7	1270.71428571429	0.6	1197.16666666667	0.8	1266.125	0.4	1198.25	13	537937	2	537925	27	40	537964	-999999	537940	0	15	TrialsPROC	FC_007_M4.png	1	2	66	SessionSelectionList														nonlure	3	Face	2-Back	58	80	51	0	0	70	1	39	443455	1	14	73	441416	-1	442528	1	1112	3	3	2039	53	443469	-54	0													7			66												
WM080112	108828_fnca	1	1	1	2129151078	1	75.031	75.030	2.0.10.147	2.0.10.242	2.0.10.242	1.0.0.439	7	234	2	3	Verdana	1	80	0	0	0	WM Stimuli\	0.5	1234.8	0.7	1421.42857142857	0.6	1190.66666666667	0.8	1261.625	0.7	1270.71428571429	0.6	1197.16666666667	0.8	1266.125	0.4	1198.25	13	537937	2	537925	27	40	537964	-999999	537940	0	15	TrialsPROC	FC_007_M4.png	1	2	67	SessionSelectionList														lure	3	Face	2-Back	59	80	52	0	0	70	1	39	446027	2	14	72	443988	-1	444905	0	917	2	3	2039	53	446041	-54	0													8			67												
WM080112	108828_fnca	1	1	1	2129151078	1	75.031	75.030	2.0.10.147	2.0.10.242	2.0.10.242	1.0.0.439	7	234	2	3	Verdana	1	80	0	0	0	WM Stimuli\	0.5	1234.8	0.7	1421.42857142857	0.6	1190.66666666667	0.8	1261.625	0.7	1270.71428571429	0.6	1197.16666666667	0.8	1266.125	0.4	1198.25	13	537937	2	537925	27	40	537964	-999999	537940	0	15	TrialsPROC	FC_009_M5.png	1	2	68	SessionSelectionList														nonlure	3	Face	2-Back	60	80	53	0	0	70	1	39	448599	2	14	72	446560	-1	447975	1	1415	3	3	2039	53	448613	-54	0													9			68												
WM080112	108828_fnca	1	1	1	2129151078	1	75.031	75.030	2.0.10.147	2.0.10.242	2.0.10.242	1.0.0.439	7	234	2	3	Verdana	1	80	0	0	0	WM Stimuli\	0.5	1234.8	0.7	1421.42857142857	0.6	1190.66666666667	0.8	1261.625	0.7	1270.71428571429	0.6	1197.16666666667	0.8	1266.125	0.4	1198.25	13	537937	2	537925	27	40	537964	-999999	537940	0	15	TrialsPROC	FC_011_M6.png	1	2	69	SessionSelectionList														nonlure	3	Face	2-Back	61	80	54	0	0	70	2	39	451172	2	14	73	449133	-1	450212	1	1079	3	3	2039	53	451186	-54	0													10			69												
WM080112	108828_fnca	1	1	1	2129151078	1	75.031	75.030	2.0.10.147	2.0.10.242	2.0.10.242	1.0.0.439	7	234	2	3	Verdana	1	80	0	0	0	WM Stimuli\	0.5	1234.8	0.7	1421.42857142857	0.6	1190.66666666667	0.8	1261.625	0.7	1270.71428571429	0.6	1197.16666666667	0.8	1266.125	0.4	1198.25	13	537937	2	537925	27	40	537964	-999999	537940	0	16	Fix15secPROC	""	1	2	70	SessionSelectionList																																															6	451639	-7	0							70												
WM080112	108828_fnca	1	1	1	2129151078	1	75.031	75.030	2.0.10.147	2.0.10.242	2.0.10.242	1.0.0.439	7	234	2	3	Verdana	1	80	0	0	0	WM Stimuli\	0.5	1234.8	0.7	1421.42857142857	0.6	1190.66666666667	0.8	1261.625	0.7	1270.71428571429	0.6	1197.16666666667	0.8	1266.125	0.4	1198.25	13	537937	2	537925	27	40	537964	-999999	537940	0	17	Cue0BackPROC	TO_007_TOOL7_BA.png	1	2	71	SessionSelectionList																																										13	466646	-14	0												71												
WM080112	108828_fnca	1	1	1	2129151078	1	75.031	75.030	2.0.10.147	2.0.10.242	2.0.10.242	1.0.0.439	7	234	2	3	Verdana	1	80	0	0	0	WM Stimuli\	0.5	1234.8	0.7	1421.42857142857	0.6	1190.66666666667	0.8	1261.625	0.7	1270.71428571429	0.6	1197.16666666667	0.8	1266.125	0.4	1198.25	13	537937	2	537925	27	40	537964	-999999	537940	0	18	TrialsPROC	TO_010_TOOL10_BA.png	1	2	72	SessionSelectionList														nonlure	3	Tools	0-Back	62	80	54	0	1	68	2	39	471230	2	14	58	469191	-1	0	0	0	""	3	2039	53	471244	-54	0														1		72												
WM080112	108828_fnca	1	1	1	2129151078	1	75.031	75.030	2.0.10.147	2.0.10.242	2.0.10.242	1.0.0.439	7	234	2	3	Verdana	1	80	0	0	0	WM Stimuli\	0.5	1234.8	0.7	1421.42857142857	0.6	1190.66666666667	0.8	1261.625	0.7	1270.71428571429	0.6	1197.16666666667	0.8	1266.125	0.4	1198.25	13	537937	2	537925	27	40	537964	-999999	537940	0	18	TrialsPROC	TO_009_TOOL9_BA.png	1	2	73	SessionSelectionList														nonlure	3	Tools	0-Back	63	80	54	0	2	66	2	39	473789	2	14	59	471750	-1	0	0	0	""	3	2039	53	473803	-54	0														2		73												
WM080112	108828_fnca	1	1	1	2129151078	1	75.031	75.030	2.0.10.147	2.0.10.242	2.0.10.242	1.0.0.439	7	234	2	3	Verdana	1	80	0	0	0	WM Stimuli\	0.5	1234.8	0.7	1421.42857142857	0.6	1190.66666666667	0.8	1261.625	0.7	1270.71428571429	0.6	1197.16666666667	0.8	1266.125	0.4	1198.25	13	537937	2	537925	27	40	537964	-999999	537940	0	18	TrialsPROC	TO_009_TOOL9_BA.png	1	2	74	SessionSelectionList														lure	3	Tools	0-Back	64	80	55	0	0	64	1	39	476348	2	14	59	474309	-1	475671	0	1362	2	3	2039	53	476362	-54	0														3		74												
WM080112	108828_fnca	1	1	1	2129151078	1	75.031	75.030	2.0.10.147	2.0.10.242	2.0.10.242	1.0.0.439	7	234	2	3	Verdana	1	80	0	0	0	WM Stimuli\	0.5	1234.8	0.7	1421.42857142857	0.6	1190.66666666667	0.8	1261.625	0.7	1270.71428571429	0.6	1197.16666666667	0.8	1266.125	0.4	1198.25	13	537937	2	537925	27	40	537964	-999999	537940	0	18	TrialsPROC	TO_008_TOOL8_BA.png	1	2	75	SessionSelectionList														nonlure	3	Tools	0-Back	65	80	56	0	0	65	1	39	478907	2	14	59	476868	-1	478319	1	1451	3	3	2039	53	478921	-54	0														4		75												
WM080112	108828_fnca	1	1	1	2129151078	1	75.031	75.030	2.0.10.147	2.0.10.242	2.0.10.242	1.0.0.439	7	234	2	3	Verdana	1	80	0	0	0	WM Stimuli\	0.5	1234.8	0.7	1421.42857142857	0.6	1190.66666666667	0.8	1261.625	0.7	1270.71428571429	0.6	1197.16666666667	0.8	1266.125	0.4	1198.25	13	537937	2	537925	27	40	537964	-999999	537940	0	18	TrialsPROC	TO_011_TOOL11_BA.png	1	2	76	SessionSelectionList														nonlure	3	Tools	0-Back	66	80	56	0	1	63	1	39	481466	2	14	59	479427	-1	0	0	0	""	3	2039	53	481480	-54	0														5		76												
WM080112	108828_fnca	1	1	1	2129151078	1	75.031	75.030	2.0.10.147	2.0.10.242	2.0.10.242	1.0.0.439	7	234	2	3	Verdana	1	80	0	0	0	WM Stimuli\	0.5	1234.8	0.7	1421.42857142857	0.6	1190.66666666667	0.8	1261.625	0.7	1270.71428571429	0.6	1197.16666666667	0.8	1266.125	0.4	1198.25	13	537937	2	537925	27	40	537964	-999999	537940	0	18	TrialsPROC	TO_012_TOOL12_BA.png	1	2	77	SessionSelectionList														nonlure	3	Tools	0-Back	67	80	57	0	0	64	1	39	484025	2	14	59	481986	-1	483159	1	1173	3	3	2039	53	484039	-54	0														6		77												
WM080112	108828_fnca	1	1	1	2129151078	1	75.031	75.030	2.0.10.147	2.0.10.242	2.0.10.242	1.0.0.439	7	234	2	3	Verdana	1	80	0	0	0	WM Stimuli\	0.5	1234.8	0.7	1421.42857142857	0.6	1190.66666666667	0.8	1261.625	0.7	1270.71428571429	0.6	1197.16666666667	0.8	1266.125	0.4	1198.25	13	537937	2	537925	27	40	537964	-999999	537940	0	18	TrialsPROC	TO_010_TOOL10_BA.png	1	2	78	SessionSelectionList														lure	3	Tools	0-Back	68	80	58	0	0	62	1	39	486584	2	14	59	484545	-1	485292	0	747	2	3	2039	53	486598	-54	0														7		78												
WM080112	108828_fnca	1	1	1	2129151078	1	75.031	75.030	2.0.10.147	2.0.10.242	2.0.10.242	1.0.0.439	7	234	2	3	Verdana	1	80	0	0	0	WM Stimuli\	0.5	1234.8	0.7	1421.42857142857	0.6	1190.66666666667	0.8	1261.625	0.7	1270.71428571429	0.6	1197.16666666667	0.8	1266.125	0.4	1198.25	13	537937	2	537925	27	40	537964	-999999	537940	0	18	TrialsPROC	TO_007_TOOL7_BA.png	1	2	79	SessionSelectionList														target	2	Tools	0-Back	69	80	59	0	0	61	1	39	489143	2	14	59	487104	-1	488165	0	1061	3	2	2039	53	489157	-54	0														8		79												
WM080112	108828_fnca	1	1	1	2129151078	1	75.031	75.030	2.0.10.147	2.0.10.242	2.0.10.242	1.0.0.439	7	234	2	3	Verdana	1	80	0	0	0	WM Stimuli\	0.5	1234.8	0.7	1421.42857142857	0.6	1190.66666666667	0.8	1261.625	0.7	1270.71428571429	0.6	1197.16666666667	0.8	1266.125	0.4	1198.25	13	537937	2	537925	27	40	537964	-999999	537940	0	18	TrialsPROC	TO_008_TOOL8_BA.png	1	2	80	SessionSelectionList														lure	3	Tools	0-Back	70	80	60	0	0	62	2	39	491702	2	14	59	489663	-1	491096	1	1433	3	3	2039	53	491716	-54	0														9		80												
WM080112	108828_fnca	1	1	1	2129151078	1	75.031	75.030	2.0.10.147	2.0.10.242	2.0.10.242	1.0.0.439	7	234	2	3	Verdana	1	80	0	0	0	WM Stimuli\	0.5	1234.8	0.7	1421.42857142857	0.6	1190.66666666667	0.8	1261.625	0.7	1270.71428571429	0.6	1197.16666666667	0.8	1266.125	0.4	1198.25	13	537937	2	537925	27	40	537964	-999999	537940	0	18	TrialsPROC	TO_007_TOOL7_BA.png	1	2	81	SessionSelectionList														target	2	Tools	0-Back	71	80	61	0	0	62	1	39	494261	2	14	59	492222	-1	492958	1	736	2	2	2039	53	494275	-54	0														10		81												
WM080112	108828_fnca	1	1	1	2129151078	1	75.031	75.030	2.0.10.147	2.0.10.242	2.0.10.242	1.0.0.439	7	234	2	3	Verdana	1	80	0	0	0	WM Stimuli\	0.5	1234.8	0.7	1421.42857142857	0.6	1190.66666666667	0.8	1261.625	0.7	1270.71428571429	0.6	1197.16666666667	0.8	1266.125	0.4	1198.25	13	537937	2	537925	27	40	537964	-999999	537940	0	19	Cue2BackPROC	""	1	2	82	SessionSelectionList									6	494728	-7	0																																													82												
WM080112	108828_fnca	1	1	1	2129151078	1	75.031	75.030	2.0.10.147	2.0.10.242	2.0.10.242	1.0.0.439	7	234	2	3	Verdana	1	80	0	0	0	WM Stimuli\	0.5	1234.8	0.7	1421.42857142857	0.6	1190.66666666667	0.8	1261.625	0.7	1270.71428571429	0.6	1197.16666666667	0.8	1266.125	0.4	1198.25	13	537937	2	537925	27	40	537964	-999999	537940	0	20	TrialsPROC	PL_007_92026.png	1	2	83	SessionSelectionList														nonlure	3	Place	2-Back	72	80	62	0	0	62	1	39	499326	1	14	65	497287	-1	498125	1	838	3	3	2039	53	499340	-54	0															1	83												
WM080112	108828_fnca	1	1	1	2129151078	1	75.031	75.030	2.0.10.147	2.0.10.242	2.0.10.242	1.0.0.439	7	234	2	3	Verdana	1	80	0	0	0	WM Stimuli\	0.5	1234.8	0.7	1421.42857142857	0.6	1190.66666666667	0.8	1261.625	0.7	1270.71428571429	0.6	1197.16666666667	0.8	1266.125	0.4	1198.25	13	537937	2	537925	27	40	537964	-999999	537940	0	20	TrialsPROC	PL_007_92026.png	1	2	84	SessionSelectionList														lure	3	Place	2-Back	73	80	63	0	0	62	1	39	501898	2	14	72	499859	-1	501518	0	1659	2	3	2039	53	501912	-54	0															2	84												
WM080112	108828_fnca	1	1	1	2129151078	1	75.031	75.030	2.0.10.147	2.0.10.242	2.0.10.242	1.0.0.439	7	234	2	3	Verdana	1	80	0	0	0	WM Stimuli\	0.5	1234.8	0.7	1421.42857142857	0.6	1190.66666666667	0.8	1261.625	0.7	1270.71428571429	0.6	1197.16666666667	0.8	1266.125	0.4	1198.25	13	537937	2	537925	27	40	537964	-999999	537940	0	20	TrialsPROC	PL_010_92038.png	1	2	85	SessionSelectionList														nonlure	3	Place	2-Back	74	80	64	0	0	62	1	39	504470	2	14	72	502431	-1	504027	1	1596	3	3	2039	53	504484	-54	0															3	85												
WM080112	108828_fnca	1	1	1	2129151078	1	75.031	75.030	2.0.10.147	2.0.10.242	2.0.10.242	1.0.0.439	7	234	2	3	Verdana	1	80	0	0	0	WM Stimuli\	0.5	1234.8	0.7	1421.42857142857	0.6	1190.66666666667	0.8	1261.625	0.7	1270.71428571429	0.6	1197.16666666667	0.8	1266.125	0.4	1198.25	13	537937	2	537925	27	40	537964	-999999	537940	0	20	TrialsPROC	PL_009_92037.png	1	2	86	SessionSelectionList														nonlure	3	Place	2-Back	75	80	65	0	0	62	2	39	507043	1	13	73	505004	-1	506804	1	1800	3	3	2039	52	507056	-53	0															4	86												
WM080112	108828_fnca	1	1	1	2129151078	1	75.031	75.030	2.0.10.147	2.0.10.242	2.0.10.242	1.0.0.439	7	234	2	3	Verdana	1	80	0	0	0	WM Stimuli\	0.5	1234.8	0.7	1421.42857142857	0.6	1190.66666666667	0.8	1261.625	0.7	1270.71428571429	0.6	1197.16666666667	0.8	1266.125	0.4	1198.25	13	537937	2	537925	27	40	537964	-999999	537940	0	20	TrialsPROC	PL_010_92038.png	1	2	87	SessionSelectionList														target	2	Place	2-Back	76	80	66	0	0	62	1	39	509615	1	14	72	507576	-1	508838	1	1262	2	2	2039	53	509629	-54	0															5	87												
WM080112	108828_fnca	1	1	1	2129151078	1	75.031	75.030	2.0.10.147	2.0.10.242	2.0.10.242	1.0.0.439	7	234	2	3	Verdana	1	80	0	0	0	WM Stimuli\	0.5	1234.8	0.7	1421.42857142857	0.6	1190.66666666667	0.8	1261.625	0.7	1270.71428571429	0.6	1197.16666666667	0.8	1266.125	0.4	1198.25	13	537937	2	537925	27	40	537964	-999999	537940	0	20	TrialsPROC	PL_009_92037.png	1	2	88	SessionSelectionList														target	2	Place	2-Back	77	80	67	0	0	62	1	39	512174	1	14	59	510135	-1	511411	0	1276	3	2	2039	53	512188	-54	0															6	88												
WM080112	108828_fnca	1	1	1	2129151078	1	75.031	75.030	2.0.10.147	2.0.10.242	2.0.10.242	1.0.0.439	7	234	2	3	Verdana	1	80	0	0	0	WM Stimuli\	0.5	1234.8	0.7	1421.42857142857	0.6	1190.66666666667	0.8	1261.625	0.7	1270.71428571429	0.6	1197.16666666667	0.8	1266.125	0.4	1198.25	13	537937	2	537925	27	40	537964	-999999	537940	0	20	TrialsPROC	PL_008_92033.png	1	2	89	SessionSelectionList														nonlure	3	Place	2-Back	78	80	68	0	0	62	2	39	514746	2	14	72	512707	-1	513571	1	864	3	3	2039	53	514760	-54	0															7	89												
WM080112	108828_fnca	1	1	1	2129151078	1	75.031	75.030	2.0.10.147	2.0.10.242	2.0.10.242	1.0.0.439	7	234	2	3	Verdana	1	80	0	0	0	WM Stimuli\	0.5	1234.8	0.7	1421.42857142857	0.6	1190.66666666667	0.8	1261.625	0.7	1270.71428571429	0.6	1197.16666666667	0.8	1266.125	0.4	1198.25	13	537937	2	537925	27	40	537964	-999999	537940	0	20	TrialsPROC	PL_012_92047.png	1	2	90	SessionSelectionList														nonlure	3	Place	2-Back	79	80	69	0	0	62	3	40	517319	1	13	72	515279	-1	516512	1	1233	3	3	2040	53	517332	-54	0															8	90												
WM080112	108828_fnca	1	1	1	2129151078	1	75.031	75.030	2.0.10.147	2.0.10.242	2.0.10.242	1.0.0.439	7	234	2	3	Verdana	1	80	0	0	0	WM Stimuli\	0.5	1234.8	0.7	1421.42857142857	0.6	1190.66666666667	0.8	1261.625	0.7	1270.71428571429	0.6	1197.16666666667	0.8	1266.125	0.4	1198.25	13	537937	2	537925	27	40	537964	-999999	537940	0	20	TrialsPROC	PL_012_92047.png	1	2	91	SessionSelectionList														lure	3	Place	2-Back	80	80	70	0	0	62	1	39	519891	1	14	73	517852	-1	518869	0	1017	2	3	2039	53	519905	-54	0															9	91												
WM080112	108828_fnca	1	1	1	2129151078	1	75.031	75.030	2.0.10.147	2.0.10.242	2.0.10.242	1.0.0.439	7	234	2	3	Verdana	1	80	0	0	0	WM Stimuli\	0.5	1234.8	0.7	1421.42857142857	0.6	1190.66666666667	0.8	1261.625	0.7	1270.71428571429	0.6	1197.16666666667	0.8	1266.125	0.4	1198.25	13	537937	2	537925	27	40	537964	-999999	537940	0	20	TrialsPROC	PL_011_92044.png	1	2	92	SessionSelectionList														nonlure	3	Place	2-Back	80	80	71	0	0	62	1	39	522463	2	14	72	520424	-1	521726	1	1302	3	3	2039	53	522477	-54	0															10	92												
WM080112	108828_fnca	1	1	1	2129151078	1	75.031	75.030	2.0.10.147	2.0.10.242	2.0.10.242	1.0.0.439	7	234	2	3	Verdana	1	80	0	0	0	WM Stimuli\	0.5	1234.8	0.7	1421.42857142857	0.6	1190.66666666667	0.8	1261.625	0.7	1270.71428571429	0.6	1197.16666666667	0.8	1266.125	0.4	1198.25	13	537937	2	537925	27	40	537964	-999999	537940	0	21	Fix15secPROC	""	1	2	93	SessionSelectionList																																															6	522930	-7	0							93												
