ExperimentName	HCPID	RunNumber	Subject	Session	RandomSeed	Group	Laptop.RefreshRate	ScannerD2.RefreshRate	StudioVersion	RuntimeVersion	RuntimeVersionExpected	ExperimentVersion	triggercode	Allowed	Target	Nontarget	FontStyle	RunTrialNumber[Session]	TrialsPerRun[Session]	TotalRespGreater200[Session]	ConsecRTLess200[Session]	ConsecNonResp[Session]	StimuliDir	ACC_2_Back_Body	Avg_RT_For_Correct_Trials_2_Back_Body	ACC_0_Back_Body	Avg_RT_For_Correct_Trials_0_Back_Body	ACC_2_Back_Face	Avg_RT_For_Correct_Trials_2_Back_Face	ACC_0_Back_Face	Avg_RT_For_Correct_Trials_0_Back_Face	ACC_2_Back_Place	Avg_RT_For_Correct_Trials_2_Back_Place	ACC_0_Back_Place	Avg_RT_For_Correct_Trials_0_Back_Place	ACC_2_Back_Tools	Avg_RT_For_Correct_Trials_2_Back_Tools	ACC_0_Back_Tools	Avg_RT_For_Correct_Trials_0_Back_Tools	ExpInstrucFeelFreeToRest.OnsetDelay	ExpInstrucFeelFreeToRest.OnsetTime	ExpInstrucFeelFreeToRest.DurationError	ExpInstrucFeelFreeToRest.StartTime	ExpInstrucFeelFreeToRest.OnsetToOnsetTime	FeelFreeToRest.OnsetDelay	FeelFreeToRest.OnsetTime	FeelFreeToRest.DurationError	FeelFreeToRest.StartTime	FeelFreeToRest.OnsetToOnsetTime	SessionSelectionList	Procedure[Block]	Stimulus[Block]	RunNumberFilterValue	SessionSelectionList.Cycle	SessionSelectionList.Sample	Running[Block]	IntroButtonMap.OnsetDelay	IntroButtonMap.OnsetTime	IntroButtonMap.DurationError	IntroButtonMap.OnsetToOnsetTime	GetReady.OnsetDelay	GetReady.OnsetTime	GetReady.DurationError	GetReady.OnsetToOnsetTime	Cue2Back.OnsetDelay	Cue2Back.OnsetTime	Cue2Back.DurationError	Cue2Back.OnsetToOnsetTime	Run1Block1	TargetType	CorrectResponse	StimType	BlockType	RunTrialNumber[Block]	TrialsPerRun[Block]	TotalRespGreater200[Block]	ConsecRTLess200[Block]	ConsecNonResp[Block]	ControlAcc	ConsecSameResp	ExperimenterWindow.OnsetDelay	ExperimenterWindow.OnsetTime	ExperimenterWindow.DurationError	ExperimenterWindow.OnsetToOnsetTime	Stim.OnsetDelay	Stim.OnsetTime	Stim.DurationError	Stim.RTTime	Stim.ACC	Stim.RT	Stim.RESP	Stim.CRESP	Stim.OnsetToOnsetTime	Fix.OnsetDelay	Fix.OnsetTime	Fix.DurationError	Fix.OnsetToOnsetTime	CueTarget.OnsetDelay	CueTarget.OnsetTime	CueTarget.DurationError	CueTarget.OnsetToOnsetTime	Run1Block2	Fix15sec.OnsetDelay	Fix15sec.OnsetTime	Fix15sec.DurationError	Fix15sec.OnsetToOnsetTime	Run1Block3	Run1Block4	Run1Block5	Run1Block6	Run1Block7	Run1Block8	Block	Procedure[Trial]	Stimulus[Trial]	ReadyList	Running[Trial]	ReadyList.Cycle	ReadyList.Sample	SyncSlide.OnsetDelay	SyncSlide.OnsetTime	SyncSlide.DurationError	SyncSlide.FinishTime	SyncSlide.OnsetToOnsetTime	Trial
WM080112	190031_fnca	1	1	1	1768938337	1	75.031	75.031	2.0.10.147	2.0.10.242	2.0.10.242	1.0.0.439	7	234	2	3	Verdana	1	80	0	0	0	WM Stimuli\	0.9	1328.33333333333	0.9	808.555555555556	0.9	1081.88888888889	1	655.1	0.8	1239.875	1	782.1	1	1493.9	1	641.5	13	559866	2	559854	27	40	559893	-999999	559869	0	1	TRSyncPROC	""	1	2	1	SessionSelectionList	119	166681	-999999	0	41	253832	-999999	0																																																	1	InitialTR	4	1	ReadyList	1	1	17	266546	-18	268528	0	1
WM080112	190031_fnca	1	1	1	1768938337	1	75.031	75.031	2.0.10.147	2.0.10.242	2.0.10.242	1.0.0.439	7	234	2	3	Verdana	1	80	0	0	0	WM Stimuli\	0.9	1328.33333333333	0.9	808.555555555556	0.9	1081.88888888889	1	655.1	0.8	1239.875	1	782.1	1	1493.9	1	641.5	13	559866	2	559854	27	40	559893	-999999	559869	0	1	TRSyncPROC	""	1	2	1	SessionSelectionList	119	166681	-999999	0	41	253832	-999999	0																																																	1	InitialTR	3	2	ReadyList	1	2	17	268546	-18	270528	0	2
WM080112	190031_fnca	1	1	1	1768938337	1	75.031	75.031	2.0.10.147	2.0.10.242	2.0.10.242	1.0.0.439	7	234	2	3	Verdana	1	80	0	0	0	WM Stimuli\	0.9	1328.33333333333	0.9	808.555555555556	0.9	1081.88888888889	1	655.1	0.8	1239.875	1	782.1	1	1493.9	1	641.5	13	559866	2	559854	27	40	559893	-999999	559869	0	1	TRSyncPROC	""	1	2	1	SessionSelectionList	119	166681	-999999	0	41	253832	-999999	0																																																	1	InitialTR	2	3	ReadyList	1	3	16	270545	-17	272528	0	3
WM080112	190031_fnca	1	1	1	1768938337	1	75.031	75.031	2.0.10.147	2.0.10.242	2.0.10.242	1.0.0.439	7	234	2	3	Verdana	1	80	0	0	0	WM Stimuli\	0.9	1328.33333333333	0.9	808.555555555556	0.9	1081.88888888889	1	655.1	0.8	1239.875	1	782.1	1	1493.9	1	641.5	13	559866	2	559854	27	40	559893	-999999	559869	0	1	TRSyncPROC	""	1	2	1	SessionSelectionList	119	166681	-999999	0	41	253832	-999999	0																																																	1	InitialTR	1	4	ReadyList	1	4	15	272544	-16	274528	0	4
WM080112	190031_fnca	1	1	1	1768938337	1	75.031	75.031	2.0.10.147	2.0.10.242	2.0.10.242	1.0.0.439	7	234	2	3	Verdana	1	80	0	0	0	WM Stimuli\	0.9	1328.33333333333	0.9	808.555555555556	0.9	1081.88888888889	1	655.1	0.8	1239.875	1	782.1	1	1493.9	1	641.5	13	559866	2	559854	27	40	559893	-999999	559869	0	2	Cue2BackPROC	""	1	2	2	SessionSelectionList									14	274543	-15	0																																													2												
WM080112	190031_fnca	1	1	1	1768938337	1	75.031	75.031	2.0.10.147	2.0.10.242	2.0.10.242	1.0.0.439	7	234	2	3	Verdana	1	80	0	0	0	WM Stimuli\	0.9	1328.33333333333	0.9	808.555555555556	0.9	1081.88888888889	1	655.1	0.8	1239.875	1	782.1	1	1493.9	1	641.5	13	559866	2	559854	27	40	559893	-999999	559869	0	3	TrialsPROC	BP_002_BP10_BA.png	1	2	3	SessionSelectionList													1	nonlure	3	Body	2-Back	2	80	0	0	1	0	0	53	279168	3	13	86	277115	-1	0	0	0	""	3	2053	66	279181	-67	0																3												
WM080112	190031_fnca	1	1	1	1768938337	1	75.031	75.031	2.0.10.147	2.0.10.242	2.0.10.242	1.0.0.439	7	234	2	3	Verdana	1	80	0	0	0	WM Stimuli\	0.9	1328.33333333333	0.9	808.555555555556	0.9	1081.88888888889	1	655.1	0.8	1239.875	1	782.1	1	1493.9	1	641.5	13	559866	2	559854	27	40	559893	-999999	559869	0	3	TrialsPROC	BP_001_BP1_BA.png	1	2	4	SessionSelectionList													2	nonlure	3	Body	2-Back	3	80	1	0	0	0	1	38	281713	2	14	60	279675	-1	281532	1	1857	3	3	2038	52	281727	-53	0																4												
WM080112	190031_fnca	1	1	1	1768938337	1	75.031	75.031	2.0.10.147	2.0.10.242	2.0.10.242	1.0.0.439	7	234	2	3	Verdana	1	80	0	0	0	WM Stimuli\	0.9	1328.33333333333	0.9	808.555555555556	0.9	1081.88888888889	1	655.1	0.8	1239.875	1	782.1	1	1493.9	1	641.5	13	559866	2	559854	27	40	559893	-999999	559869	0	3	TrialsPROC	BP_006_BP2_BA.png	1	2	5	SessionSelectionList													3	nonlure	3	Body	2-Back	4	80	2	0	0	0	2	39	284272	2	14	58	282233	-1	283283	1	1050	3	3	2039	53	284286	-54	0																5												
WM080112	190031_fnca	1	1	1	1768938337	1	75.031	75.031	2.0.10.147	2.0.10.242	2.0.10.242	1.0.0.439	7	234	2	3	Verdana	1	80	0	0	0	WM Stimuli\	0.9	1328.33333333333	0.9	808.555555555556	0.9	1081.88888888889	1	655.1	0.8	1239.875	1	782.1	1	1493.9	1	641.5	13	559866	2	559854	27	40	559893	-999999	559869	0	3	TrialsPROC	BP_001_BP1_BA.png	1	2	6	SessionSelectionList													4	target	2	Body	2-Back	5	80	3	0	0	0	1	39	286845	1	13	73	284806	-1	285768	1	962	2	2	2039	52	286858	-53	0																6												
WM080112	190031_fnca	1	1	1	1768938337	1	75.031	75.031	2.0.10.147	2.0.10.242	2.0.10.242	1.0.0.439	7	234	2	3	Verdana	1	80	0	0	0	WM Stimuli\	0.9	1328.33333333333	0.9	808.555555555556	0.9	1081.88888888889	1	655.1	0.8	1239.875	1	782.1	1	1493.9	1	641.5	13	559866	2	559854	27	40	559893	-999999	559869	0	3	TrialsPROC	BP_005_BP19_BA.png	1	2	7	SessionSelectionList													5	nonlure	3	Body	2-Back	6	80	4	0	0	0	1	39	289417	1	14	72	287378	-1	288687	1	1309	3	3	2039	53	289431	-54	0																7												
WM080112	190031_fnca	1	1	1	1768938337	1	75.031	75.031	2.0.10.147	2.0.10.242	2.0.10.242	1.0.0.439	7	234	2	3	Verdana	1	80	0	0	0	WM Stimuli\	0.9	1328.33333333333	0.9	808.555555555556	0.9	1081.88888888889	1	655.1	0.8	1239.875	1	782.1	1	1493.9	1	641.5	13	559866	2	559854	27	40	559893	-999999	559869	0	3	TrialsPROC	BP_003_BP16_BA.png	1	2	8	SessionSelectionList													6	nonlure	3	Body	2-Back	7	80	5	0	0	0	2	39	291976	1	14	59	289937	-1	291493	1	1556	3	3	2039	53	291990	-54	0																8												
WM080112	190031_fnca	1	1	1	1768938337	1	75.031	75.031	2.0.10.147	2.0.10.242	2.0.10.242	1.0.0.439	7	234	2	3	Verdana	1	80	0	0	0	WM Stimuli\	0.9	1328.33333333333	0.9	808.555555555556	0.9	1081.88888888889	1	655.1	0.8	1239.875	1	782.1	1	1493.9	1	641.5	13	559866	2	559854	27	40	559893	-999999	559869	0	3	TrialsPROC	BP_006_BP2_BA.png	1	2	9	SessionSelectionList													7	lure	3	Body	2-Back	8	80	6	0	0	0	3	39	294535	1	14	59	292496	-1	293991	1	1495	3	3	2039	53	294549	-54	0																9												
WM080112	190031_fnca	1	1	1	1768938337	1	75.031	75.031	2.0.10.147	2.0.10.242	2.0.10.242	1.0.0.439	7	234	2	3	Verdana	1	80	0	0	0	WM Stimuli\	0.9	1328.33333333333	0.9	808.555555555556	0.9	1081.88888888889	1	655.1	0.8	1239.875	1	782.1	1	1493.9	1	641.5	13	559866	2	559854	27	40	559893	-999999	559869	0	3	TrialsPROC	BP_004_BP18_BA.png	1	2	10	SessionSelectionList													8	nonlure	3	Body	2-Back	9	80	7	0	0	0	4	39	297094	1	13	59	295055	-1	296494	1	1439	3	3	2039	52	297107	-53	0																10												
WM080112	190031_fnca	1	1	1	1768938337	1	75.031	75.031	2.0.10.147	2.0.10.242	2.0.10.242	1.0.0.439	7	234	2	3	Verdana	1	80	0	0	0	WM Stimuli\	0.9	1328.33333333333	0.9	808.555555555556	0.9	1081.88888888889	1	655.1	0.8	1239.875	1	782.1	1	1493.9	1	641.5	13	559866	2	559854	27	40	559893	-999999	559869	0	3	TrialsPROC	BP_005_BP19_BA.png	1	2	11	SessionSelectionList													9	lure	3	Body	2-Back	10	80	8	0	0	0	5	39	299653	1	13	59	297614	-1	298830	1	1216	3	3	2039	52	299666	-53	0																11												
WM080112	190031_fnca	1	1	1	1768938337	1	75.031	75.031	2.0.10.147	2.0.10.242	2.0.10.242	1.0.0.439	7	234	2	3	Verdana	1	80	0	0	0	WM Stimuli\	0.9	1328.33333333333	0.9	808.555555555556	0.9	1081.88888888889	1	655.1	0.8	1239.875	1	782.1	1	1493.9	1	641.5	13	559866	2	559854	27	40	559893	-999999	559869	0	3	TrialsPROC	BP_004_BP18_BA.png	1	2	12	SessionSelectionList													10	target	2	Body	2-Back	11	80	9	0	0	0	1	39	302212	1	13	59	300173	-1	301244	1	1071	2	2	2039	52	302225	-53	0																12												
WM080112	190031_fnca	1	1	1	1768938337	1	75.031	75.031	2.0.10.147	2.0.10.242	2.0.10.242	1.0.0.439	7	234	2	3	Verdana	1	80	0	0	0	WM Stimuli\	0.9	1328.33333333333	0.9	808.555555555556	0.9	1081.88888888889	1	655.1	0.8	1239.875	1	782.1	1	1493.9	1	641.5	13	559866	2	559854	27	40	559893	-999999	559869	0	4	Cue0BackPROC	FC_001_M1.png	1	2	13	SessionSelectionList																																										18	302691	-19	0												13												
WM080112	190031_fnca	1	1	1	1768938337	1	75.031	75.031	2.0.10.147	2.0.10.242	2.0.10.242	1.0.0.439	7	234	2	3	Verdana	1	80	0	0	0	WM Stimuli\	0.9	1328.33333333333	0.9	808.555555555556	0.9	1081.88888888889	1	655.1	0.8	1239.875	1	782.1	1	1493.9	1	641.5	13	559866	2	559854	27	40	559893	-999999	559869	0	5	TrialsPROC	FC_005_M3.png	1	2	14	SessionSelectionList														nonlure	3	Face	0-Back	12	80	10	0	0	100	1	39	307276	2	14	64	305237	-1	306090	1	853	3	3	2039	53	307290	-54	0					1											14												
WM080112	190031_fnca	1	1	1	1768938337	1	75.031	75.031	2.0.10.147	2.0.10.242	2.0.10.242	1.0.0.439	7	234	2	3	Verdana	1	80	0	0	0	WM Stimuli\	0.9	1328.33333333333	0.9	808.555555555556	0.9	1081.88888888889	1	655.1	0.8	1239.875	1	782.1	1	1493.9	1	641.5	13	559866	2	559854	27	40	559893	-999999	559869	0	5	TrialsPROC	FC_001_M1.png	1	2	15	SessionSelectionList														target	2	Face	0-Back	13	80	11	0	0	100	1	40	309849	1	13	72	307809	-1	308347	1	538	2	2	2040	53	309862	-54	0					2											15												
WM080112	190031_fnca	1	1	1	1768938337	1	75.031	75.031	2.0.10.147	2.0.10.242	2.0.10.242	1.0.0.439	7	234	2	3	Verdana	1	80	0	0	0	WM Stimuli\	0.9	1328.33333333333	0.9	808.555555555556	0.9	1081.88888888889	1	655.1	0.8	1239.875	1	782.1	1	1493.9	1	641.5	13	559866	2	559854	27	40	559893	-999999	559869	0	5	TrialsPROC	FC_003_M2.png	1	2	16	SessionSelectionList														nonlure	3	Face	0-Back	14	80	12	0	0	100	1	39	312421	1	13	73	310382	-1	310932	1	550	3	3	2039	52	312434	-53	0					3											16												
WM080112	190031_fnca	1	1	1	1768938337	1	75.031	75.031	2.0.10.147	2.0.10.242	2.0.10.242	1.0.0.439	7	234	2	3	Verdana	1	80	0	0	0	WM Stimuli\	0.9	1328.33333333333	0.9	808.555555555556	0.9	1081.88888888889	1	655.1	0.8	1239.875	1	782.1	1	1493.9	1	641.5	13	559866	2	559854	27	40	559893	-999999	559869	0	5	TrialsPROC	FC_004_F2.png	1	2	17	SessionSelectionList														nonlure	3	Face	0-Back	15	80	13	0	0	100	2	39	314993	1	14	72	312954	-1	313544	1	590	3	3	2039	53	315007	-54	0					4											17												
WM080112	190031_fnca	1	1	1	1768938337	1	75.031	75.031	2.0.10.147	2.0.10.242	2.0.10.242	1.0.0.439	7	234	2	3	Verdana	1	80	0	0	0	WM Stimuli\	0.9	1328.33333333333	0.9	808.555555555556	0.9	1081.88888888889	1	655.1	0.8	1239.875	1	782.1	1	1493.9	1	641.5	13	559866	2	559854	27	40	559893	-999999	559869	0	5	TrialsPROC	FC_004_F2.png	1	2	18	SessionSelectionList														lure	3	Face	0-Back	16	80	14	0	0	100	3	39	317565	2	14	72	315526	-1	316108	1	582	3	3	2039	53	317579	-54	0					5											18												
WM080112	190031_fnca	1	1	1	1768938337	1	75.031	75.031	2.0.10.147	2.0.10.242	2.0.10.242	1.0.0.439	7	234	2	3	Verdana	1	80	0	0	0	WM Stimuli\	0.9	1328.33333333333	0.9	808.555555555556	0.9	1081.88888888889	1	655.1	0.8	1239.875	1	782.1	1	1493.9	1	641.5	13	559866	2	559854	27	40	559893	-999999	559869	0	5	TrialsPROC	FC_001_M1.png	1	2	19	SessionSelectionList														target	2	Face	0-Back	17	80	15	0	0	100	1	40	320138	1	13	72	318098	-1	318719	1	621	2	2	2040	53	320151	-54	0					6											19												
WM080112	190031_fnca	1	1	1	1768938337	1	75.031	75.031	2.0.10.147	2.0.10.242	2.0.10.242	1.0.0.439	7	234	2	3	Verdana	1	80	0	0	0	WM Stimuli\	0.9	1328.33333333333	0.9	808.555555555556	0.9	1081.88888888889	1	655.1	0.8	1239.875	1	782.1	1	1493.9	1	641.5	13	559866	2	559854	27	40	559893	-999999	559869	0	5	TrialsPROC	FC_006_F3.png	1	2	20	SessionSelectionList														nonlure	3	Face	0-Back	18	80	16	0	0	100	1	39	322710	1	14	73	320671	-1	321319	1	648	3	3	2039	53	322724	-54	0					7											20												
WM080112	190031_fnca	1	1	1	1768938337	1	75.031	75.031	2.0.10.147	2.0.10.242	2.0.10.242	1.0.0.439	7	234	2	3	Verdana	1	80	0	0	0	WM Stimuli\	0.9	1328.33333333333	0.9	808.555555555556	0.9	1081.88888888889	1	655.1	0.8	1239.875	1	782.1	1	1493.9	1	641.5	13	559866	2	559854	27	40	559893	-999999	559869	0	5	TrialsPROC	FC_006_F3.png	1	2	21	SessionSelectionList														lure	3	Face	0-Back	19	80	17	0	0	100	2	39	325282	2	14	72	323243	-1	323774	1	531	3	3	2039	53	325296	-54	0					8											21												
WM080112	190031_fnca	1	1	1	1768938337	1	75.031	75.031	2.0.10.147	2.0.10.242	2.0.10.242	1.0.0.439	7	234	2	3	Verdana	1	80	0	0	0	WM Stimuli\	0.9	1328.33333333333	0.9	808.555555555556	0.9	1081.88888888889	1	655.1	0.8	1239.875	1	782.1	1	1493.9	1	641.5	13	559866	2	559854	27	40	559893	-999999	559869	0	5	TrialsPROC	FC_003_M2.png	1	2	22	SessionSelectionList														lure	3	Face	0-Back	20	80	18	0	0	100	3	39	327854	2	14	72	325815	-1	326700	1	885	3	3	2039	53	327868	-54	0					9											22												
WM080112	190031_fnca	1	1	1	1768938337	1	75.031	75.031	2.0.10.147	2.0.10.242	2.0.10.242	1.0.0.439	7	234	2	3	Verdana	1	80	0	0	0	WM Stimuli\	0.9	1328.33333333333	0.9	808.555555555556	0.9	1081.88888888889	1	655.1	0.8	1239.875	1	782.1	1	1493.9	1	641.5	13	559866	2	559854	27	40	559893	-999999	559869	0	5	TrialsPROC	FC_002_F1.png	1	2	23	SessionSelectionList														nonlure	3	Face	0-Back	21	80	19	0	0	100	4	39	330427	1	13	73	328388	-1	329141	1	753	3	3	2039	52	330440	-53	0					10											23												
WM080112	190031_fnca	1	1	1	1768938337	1	75.031	75.031	2.0.10.147	2.0.10.242	2.0.10.242	1.0.0.439	7	234	2	3	Verdana	1	80	0	0	0	WM Stimuli\	0.9	1328.33333333333	0.9	808.555555555556	0.9	1081.88888888889	1	655.1	0.8	1239.875	1	782.1	1	1493.9	1	641.5	13	559866	2	559854	27	40	559893	-999999	559869	0	6	Fix15secPROC	""	1	2	24	SessionSelectionList																																															6	330894	-7	0							24												
WM080112	190031_fnca	1	1	1	1768938337	1	75.031	75.031	2.0.10.147	2.0.10.242	2.0.10.242	1.0.0.439	7	234	2	3	Verdana	1	80	0	0	0	WM Stimuli\	0.9	1328.33333333333	0.9	808.555555555556	0.9	1081.88888888889	1	655.1	0.8	1239.875	1	782.1	1	1493.9	1	641.5	13	559866	2	559854	27	40	559893	-999999	559869	0	7	Cue2BackPROC	""	1	2	25	SessionSelectionList									12	345900	-13	0																																													25												
WM080112	190031_fnca	1	1	1	1768938337	1	75.031	75.031	2.0.10.147	2.0.10.242	2.0.10.242	1.0.0.439	7	234	2	3	Verdana	1	80	0	0	0	WM Stimuli\	0.9	1328.33333333333	0.9	808.555555555556	0.9	1081.88888888889	1	655.1	0.8	1239.875	1	782.1	1	1493.9	1	641.5	13	559866	2	559854	27	40	559893	-999999	559869	0	8	TrialsPROC	TO_001_TOOL1_BA.png	1	2	26	SessionSelectionList														nonlure	3	Tools	2-Back	22	80	20	0	0	100	5	39	350485	2	14	58	348446	-1	349939	1	1493	3	3	2039	53	350499	-54	0										1						26												
WM080112	190031_fnca	1	1	1	1768938337	1	75.031	75.031	2.0.10.147	2.0.10.242	2.0.10.242	1.0.0.439	7	234	2	3	Verdana	1	80	0	0	0	WM Stimuli\	0.9	1328.33333333333	0.9	808.555555555556	0.9	1081.88888888889	1	655.1	0.8	1239.875	1	782.1	1	1493.9	1	641.5	13	559866	2	559854	27	40	559893	-999999	559869	0	8	TrialsPROC	TO_002_TOOL2_BA.png	1	2	27	SessionSelectionList														nonlure	3	Tools	2-Back	23	80	21	0	0	100	6	39	353044	2	14	59	351005	-1	352149	1	1144	3	3	2039	53	353058	-54	0										2						27												
WM080112	190031_fnca	1	1	1	1768938337	1	75.031	75.031	2.0.10.147	2.0.10.242	2.0.10.242	1.0.0.439	7	234	2	3	Verdana	1	80	0	0	0	WM Stimuli\	0.9	1328.33333333333	0.9	808.555555555556	0.9	1081.88888888889	1	655.1	0.8	1239.875	1	782.1	1	1493.9	1	641.5	13	559866	2	559854	27	40	559893	-999999	559869	0	8	TrialsPROC	TO_004_TOOL4_BA.png	1	2	28	SessionSelectionList														nonlure	3	Tools	2-Back	24	80	22	0	0	100	7	39	355603	1	14	59	353564	-1	355135	1	1571	3	3	2039	53	355617	-54	0										3						28												
WM080112	190031_fnca	1	1	1	1768938337	1	75.031	75.031	2.0.10.147	2.0.10.242	2.0.10.242	1.0.0.439	7	234	2	3	Verdana	1	80	0	0	0	WM Stimuli\	0.9	1328.33333333333	0.9	808.555555555556	0.9	1081.88888888889	1	655.1	0.8	1239.875	1	782.1	1	1493.9	1	641.5	13	559866	2	559854	27	40	559893	-999999	559869	0	8	TrialsPROC	TO_002_TOOL2_BA.png	1	2	29	SessionSelectionList														target	2	Tools	2-Back	25	80	23	0	0	100	1	39	358162	1	14	59	356123	-1	356990	1	867	2	2	2039	53	358176	-54	0										4						29												
WM080112	190031_fnca	1	1	1	1768938337	1	75.031	75.031	2.0.10.147	2.0.10.242	2.0.10.242	1.0.0.439	7	234	2	3	Verdana	1	80	0	0	0	WM Stimuli\	0.9	1328.33333333333	0.9	808.555555555556	0.9	1081.88888888889	1	655.1	0.8	1239.875	1	782.1	1	1493.9	1	641.5	13	559866	2	559854	27	40	559893	-999999	559869	0	8	TrialsPROC	TO_001_TOOL1_BA.png	1	2	30	SessionSelectionList														lure	3	Tools	2-Back	26	80	24	0	0	100	1	39	360721	1	14	59	358682	-1	360158	1	1476	3	3	2039	53	360735	-54	0										5						30												
WM080112	190031_fnca	1	1	1	1768938337	1	75.031	75.031	2.0.10.147	2.0.10.242	2.0.10.242	1.0.0.439	7	234	2	3	Verdana	1	80	0	0	0	WM Stimuli\	0.9	1328.33333333333	0.9	808.555555555556	0.9	1081.88888888889	1	655.1	0.8	1239.875	1	782.1	1	1493.9	1	641.5	13	559866	2	559854	27	40	559893	-999999	559869	0	8	TrialsPROC	TO_004_TOOL4_BA.png	1	2	31	SessionSelectionList														lure	3	Tools	2-Back	27	80	25	0	0	100	2	39	363280	1	14	59	361241	-1	362898	1	1657	3	3	2039	53	363294	-54	0										6						31												
WM080112	190031_fnca	1	1	1	1768938337	1	75.031	75.031	2.0.10.147	2.0.10.242	2.0.10.242	1.0.0.439	7	234	2	3	Verdana	1	80	0	0	0	WM Stimuli\	0.9	1328.33333333333	0.9	808.555555555556	0.9	1081.88888888889	1	655.1	0.8	1239.875	1	782.1	1	1493.9	1	641.5	13	559866	2	559854	27	40	559893	-999999	559869	0	8	TrialsPROC	TO_006_TOOL6_BA.png	1	2	32	SessionSelectionList														nonlure	3	Tools	2-Back	28	80	26	0	0	100	3	39	365839	1	13	59	363800	-1	365453	1	1653	3	3	2039	52	365852	-53	0										7						32												
WM080112	190031_fnca	1	1	1	1768938337	1	75.031	75.031	2.0.10.147	2.0.10.242	2.0.10.242	1.0.0.439	7	234	2	3	Verdana	1	80	0	0	0	WM Stimuli\	0.9	1328.33333333333	0.9	808.555555555556	0.9	1081.88888888889	1	655.1	0.8	1239.875	1	782.1	1	1493.9	1	641.5	13	559866	2	559854	27	40	559893	-999999	559869	0	8	TrialsPROC	TO_005_TOOL5_BA.png	1	2	33	SessionSelectionList														nonlure	3	Tools	2-Back	29	80	27	0	0	100	4	39	368398	1	13	59	366359	-1	368188	1	1829	3	3	2039	52	368411	-53	0										8						33												
WM080112	190031_fnca	1	1	1	1768938337	1	75.031	75.031	2.0.10.147	2.0.10.242	2.0.10.242	1.0.0.439	7	234	2	3	Verdana	1	80	0	0	0	WM Stimuli\	0.9	1328.33333333333	0.9	808.555555555556	0.9	1081.88888888889	1	655.1	0.8	1239.875	1	782.1	1	1493.9	1	641.5	13	559866	2	559854	27	40	559893	-999999	559869	0	8	TrialsPROC	TO_006_TOOL6_BA.png	1	2	34	SessionSelectionList														target	2	Tools	2-Back	30	80	28	0	0	100	1	39	370957	1	13	59	368918	-1	370392	1	1474	2	2	2039	52	370970	-53	0										9						34												
WM080112	190031_fnca	1	1	1	1768938337	1	75.031	75.031	2.0.10.147	2.0.10.242	2.0.10.242	1.0.0.439	7	234	2	3	Verdana	1	80	0	0	0	WM Stimuli\	0.9	1328.33333333333	0.9	808.555555555556	0.9	1081.88888888889	1	655.1	0.8	1239.875	1	782.1	1	1493.9	1	641.5	13	559866	2	559854	27	40	559893	-999999	559869	0	8	TrialsPROC	TO_003_TOOL3_BA.png	1	2	35	SessionSelectionList														nonlure	3	Tools	2-Back	31	80	29	0	0	100	1	39	373516	1	13	59	371477	-1	373252	1	1775	3	3	2039	52	373529	-53	0										10						35												
WM080112	190031_fnca	1	1	1	1768938337	1	75.031	75.031	2.0.10.147	2.0.10.242	2.0.10.242	1.0.0.439	7	234	2	3	Verdana	1	80	0	0	0	WM Stimuli\	0.9	1328.33333333333	0.9	808.555555555556	0.9	1081.88888888889	1	655.1	0.8	1239.875	1	782.1	1	1493.9	1	641.5	13	559866	2	559854	27	40	559893	-999999	559869	0	9	Cue0BackPROC	BP_007_BP20_BA.png	1	2	36	SessionSelectionList																																										18	373995	-19	0												36												
WM080112	190031_fnca	1	1	1	1768938337	1	75.031	75.031	2.0.10.147	2.0.10.242	2.0.10.242	1.0.0.439	7	234	2	3	Verdana	1	80	0	0	0	WM Stimuli\	0.9	1328.33333333333	0.9	808.555555555556	0.9	1081.88888888889	1	655.1	0.8	1239.875	1	782.1	1	1493.9	1	641.5	13	559866	2	559854	27	40	559893	-999999	559869	0	10	TrialsPROC	BP_007_BP20_BA.png	1	2	37	SessionSelectionList														target	2	Body	0-Back	32	80	29	0	1	91	1	39	378567	1	14	51	376528	-1	0	0	0	""	2	2039	53	378581	-54	0											1					37												
WM080112	190031_fnca	1	1	1	1768938337	1	75.031	75.031	2.0.10.147	2.0.10.242	2.0.10.242	1.0.0.439	7	234	2	3	Verdana	1	80	0	0	0	WM Stimuli\	0.9	1328.33333333333	0.9	808.555555555556	0.9	1081.88888888889	1	655.1	0.8	1239.875	1	782.1	1	1493.9	1	641.5	13	559866	2	559854	27	40	559893	-999999	559869	0	10	TrialsPROC	BP_011_BP4_BA.png	1	2	38	SessionSelectionList														nonlure	3	Body	0-Back	33	80	30	0	0	92	1	39	381139	2	14	72	379100	-1	380276	1	1176	3	3	2039	53	381153	-54	0											2					38												
WM080112	190031_fnca	1	1	1	1768938337	1	75.031	75.031	2.0.10.147	2.0.10.242	2.0.10.242	1.0.0.439	7	234	2	3	Verdana	1	80	0	0	0	WM Stimuli\	0.9	1328.33333333333	0.9	808.555555555556	0.9	1081.88888888889	1	655.1	0.8	1239.875	1	782.1	1	1493.9	1	641.5	13	559866	2	559854	27	40	559893	-999999	559869	0	10	TrialsPROC	BP_010_BP3_BA.png	1	2	39	SessionSelectionList														nonlure	3	Body	0-Back	34	80	31	0	0	92	2	39	383698	2	14	59	381659	-1	382257	1	598	3	3	2039	53	383712	-54	0											3					39												
WM080112	190031_fnca	1	1	1	1768938337	1	75.031	75.031	2.0.10.147	2.0.10.242	2.0.10.242	1.0.0.439	7	234	2	3	Verdana	1	80	0	0	0	WM Stimuli\	0.9	1328.33333333333	0.9	808.555555555556	0.9	1081.88888888889	1	655.1	0.8	1239.875	1	782.1	1	1493.9	1	641.5	13	559866	2	559854	27	40	559893	-999999	559869	0	10	TrialsPROC	BP_008_BP21_BA.png	1	2	40	SessionSelectionList														nonlure	3	Body	0-Back	35	80	32	0	0	93	3	39	386257	1	14	59	384218	-1	384909	1	691	3	3	2039	53	386271	-54	0											4					40												
WM080112	190031_fnca	1	1	1	1768938337	1	75.031	75.031	2.0.10.147	2.0.10.242	2.0.10.242	1.0.0.439	7	234	2	3	Verdana	1	80	0	0	0	WM Stimuli\	0.9	1328.33333333333	0.9	808.555555555556	0.9	1081.88888888889	1	655.1	0.8	1239.875	1	782.1	1	1493.9	1	641.5	13	559866	2	559854	27	40	559893	-999999	559869	0	10	TrialsPROC	BP_011_BP4_BA.png	1	2	41	SessionSelectionList														lure	3	Body	0-Back	36	80	33	0	0	93	4	39	388829	2	14	72	386790	-1	387513	1	723	3	3	2039	53	388843	-54	0											5					41												
WM080112	190031_fnca	1	1	1	1768938337	1	75.031	75.031	2.0.10.147	2.0.10.242	2.0.10.242	1.0.0.439	7	234	2	3	Verdana	1	80	0	0	0	WM Stimuli\	0.9	1328.33333333333	0.9	808.555555555556	0.9	1081.88888888889	1	655.1	0.8	1239.875	1	782.1	1	1493.9	1	641.5	13	559866	2	559854	27	40	559893	-999999	559869	0	10	TrialsPROC	BP_009_BP22_BA.png	1	2	42	SessionSelectionList														nonlure	3	Body	0-Back	37	80	34	0	0	94	5	39	391388	2	14	59	389349	-1	390108	1	759	3	3	2039	53	391402	-54	0											6					42												
WM080112	190031_fnca	1	1	1	1768938337	1	75.031	75.031	2.0.10.147	2.0.10.242	2.0.10.242	1.0.0.439	7	234	2	3	Verdana	1	80	0	0	0	WM Stimuli\	0.9	1328.33333333333	0.9	808.555555555556	0.9	1081.88888888889	1	655.1	0.8	1239.875	1	782.1	1	1493.9	1	641.5	13	559866	2	559854	27	40	559893	-999999	559869	0	10	TrialsPROC	BP_009_BP22_BA.png	1	2	43	SessionSelectionList														lure	3	Body	0-Back	38	80	35	0	0	94	6	39	393947	2	14	59	391908	-1	392966	1	1058	3	3	2039	53	393961	-54	0											7					43												
WM080112	190031_fnca	1	1	1	1768938337	1	75.031	75.031	2.0.10.147	2.0.10.242	2.0.10.242	1.0.0.439	7	234	2	3	Verdana	1	80	0	0	0	WM Stimuli\	0.9	1328.33333333333	0.9	808.555555555556	0.9	1081.88888888889	1	655.1	0.8	1239.875	1	782.1	1	1493.9	1	641.5	13	559866	2	559854	27	40	559893	-999999	559869	0	10	TrialsPROC	BP_008_BP21_BA.png	1	2	44	SessionSelectionList														lure	3	Body	0-Back	39	80	36	0	0	94	7	39	396506	2	14	59	394467	-1	395315	1	848	3	3	2039	53	396520	-54	0											8					44												
WM080112	190031_fnca	1	1	1	1768938337	1	75.031	75.031	2.0.10.147	2.0.10.242	2.0.10.242	1.0.0.439	7	234	2	3	Verdana	1	80	0	0	0	WM Stimuli\	0.9	1328.33333333333	0.9	808.555555555556	0.9	1081.88888888889	1	655.1	0.8	1239.875	1	782.1	1	1493.9	1	641.5	13	559866	2	559854	27	40	559893	-999999	559869	0	10	TrialsPROC	BP_007_BP20_BA.png	1	2	45	SessionSelectionList														target	2	Body	0-Back	40	80	37	0	0	95	1	39	399065	2	14	59	397026	-1	397807	1	781	2	2	2039	53	399079	-54	0											9					45												
WM080112	190031_fnca	1	1	1	1768938337	1	75.031	75.031	2.0.10.147	2.0.10.242	2.0.10.242	1.0.0.439	7	234	2	3	Verdana	1	80	0	0	0	WM Stimuli\	0.9	1328.33333333333	0.9	808.555555555556	0.9	1081.88888888889	1	655.1	0.8	1239.875	1	782.1	1	1493.9	1	641.5	13	559866	2	559854	27	40	559893	-999999	559869	0	10	TrialsPROC	BP_012_BP5_BA.png	1	2	46	SessionSelectionList														nonlure	3	Body	0-Back	41	80	38	0	0	95	1	39	401624	1	14	59	399585	-1	400228	1	643	3	3	2039	53	401638	-54	0											10					46												
WM080112	190031_fnca	1	1	1	1768938337	1	75.031	75.031	2.0.10.147	2.0.10.242	2.0.10.242	1.0.0.439	7	234	2	3	Verdana	1	80	0	0	0	WM Stimuli\	0.9	1328.33333333333	0.9	808.555555555556	0.9	1081.88888888889	1	655.1	0.8	1239.875	1	782.1	1	1493.9	1	641.5	13	559866	2	559854	27	40	559893	-999999	559869	0	11	Fix15secPROC	""	1	2	47	SessionSelectionList																																															6	402091	-7	0							47												
WM080112	190031_fnca	1	1	1	1768938337	1	75.031	75.031	2.0.10.147	2.0.10.242	2.0.10.242	1.0.0.439	7	234	2	3	Verdana	1	80	0	0	0	WM Stimuli\	0.9	1328.33333333333	0.9	808.555555555556	0.9	1081.88888888889	1	655.1	0.8	1239.875	1	782.1	1	1493.9	1	641.5	13	559866	2	559854	27	40	559893	-999999	559869	0	12	Cue0BackPROC	PL_001_92012.png	1	2	48	SessionSelectionList																																										13	417098	-14	0												48												
WM080112	190031_fnca	1	1	1	1768938337	1	75.031	75.031	2.0.10.147	2.0.10.242	2.0.10.242	1.0.0.439	7	234	2	3	Verdana	1	80	0	0	0	WM Stimuli\	0.9	1328.33333333333	0.9	808.555555555556	0.9	1081.88888888889	1	655.1	0.8	1239.875	1	782.1	1	1493.9	1	641.5	13	559866	2	559854	27	40	559893	-999999	559869	0	13	TrialsPROC	PL_003_92016.png	1	2	49	SessionSelectionList														nonlure	3	Place	0-Back	42	80	39	0	0	95	2	39	421696	1	14	72	419657	-1	421596	1	1939	3	3	2039	53	421710	-54	0												1				49												
WM080112	190031_fnca	1	1	1	1768938337	1	75.031	75.031	2.0.10.147	2.0.10.242	2.0.10.242	1.0.0.439	7	234	2	3	Verdana	1	80	0	0	0	WM Stimuli\	0.9	1328.33333333333	0.9	808.555555555556	0.9	1081.88888888889	1	655.1	0.8	1239.875	1	782.1	1	1493.9	1	641.5	13	559866	2	559854	27	40	559893	-999999	559869	0	13	TrialsPROC	PL_003_92016.png	1	2	50	SessionSelectionList														lure	3	Place	0-Back	43	80	40	0	0	95	3	39	424255	1	13	59	422216	-1	422810	1	594	3	3	2039	52	424268	-53	0												2				50												
WM080112	190031_fnca	1	1	1	1768938337	1	75.031	75.031	2.0.10.147	2.0.10.242	2.0.10.242	1.0.0.439	7	234	2	3	Verdana	1	80	0	0	0	WM Stimuli\	0.9	1328.33333333333	0.9	808.555555555556	0.9	1081.88888888889	1	655.1	0.8	1239.875	1	782.1	1	1493.9	1	641.5	13	559866	2	559854	27	40	559893	-999999	559869	0	13	TrialsPROC	PL_006_92025.png	1	2	51	SessionSelectionList														nonlure	3	Place	0-Back	44	80	41	0	0	96	4	39	426814	1	13	59	424775	-1	425647	1	872	3	3	2039	52	426827	-53	0												3				51												
WM080112	190031_fnca	1	1	1	1768938337	1	75.031	75.031	2.0.10.147	2.0.10.242	2.0.10.242	1.0.0.439	7	234	2	3	Verdana	1	80	0	0	0	WM Stimuli\	0.9	1328.33333333333	0.9	808.555555555556	0.9	1081.88888888889	1	655.1	0.8	1239.875	1	782.1	1	1493.9	1	641.5	13	559866	2	559854	27	40	559893	-999999	559869	0	13	TrialsPROC	PL_001_92012.png	1	2	52	SessionSelectionList														target	2	Place	0-Back	45	80	42	0	0	96	1	39	429386	1	14	72	427347	-1	428050	1	703	2	2	2039	53	429400	-54	0												4				52												
WM080112	190031_fnca	1	1	1	1768938337	1	75.031	75.031	2.0.10.147	2.0.10.242	2.0.10.242	1.0.0.439	7	234	2	3	Verdana	1	80	0	0	0	WM Stimuli\	0.9	1328.33333333333	0.9	808.555555555556	0.9	1081.88888888889	1	655.1	0.8	1239.875	1	782.1	1	1493.9	1	641.5	13	559866	2	559854	27	40	559893	-999999	559869	0	13	TrialsPROC	PL_004_92023.png	1	2	53	SessionSelectionList														nonlure	3	Place	0-Back	46	80	43	0	0	96	1	39	431945	1	14	59	429906	-1	430586	1	680	3	3	2039	53	431959	-54	0												5				53												
WM080112	190031_fnca	1	1	1	1768938337	1	75.031	75.031	2.0.10.147	2.0.10.242	2.0.10.242	1.0.0.439	7	234	2	3	Verdana	1	80	0	0	0	WM Stimuli\	0.9	1328.33333333333	0.9	808.555555555556	0.9	1081.88888888889	1	655.1	0.8	1239.875	1	782.1	1	1493.9	1	641.5	13	559866	2	559854	27	40	559893	-999999	559869	0	13	TrialsPROC	PL_005_92024.png	1	2	54	SessionSelectionList														nonlure	3	Place	0-Back	47	80	44	0	0	96	2	39	434517	2	14	72	432478	-1	433234	1	756	3	3	2039	53	434531	-54	0												6				54												
WM080112	190031_fnca	1	1	1	1768938337	1	75.031	75.031	2.0.10.147	2.0.10.242	2.0.10.242	1.0.0.439	7	234	2	3	Verdana	1	80	0	0	0	WM Stimuli\	0.9	1328.33333333333	0.9	808.555555555556	0.9	1081.88888888889	1	655.1	0.8	1239.875	1	782.1	1	1493.9	1	641.5	13	559866	2	559854	27	40	559893	-999999	559869	0	13	TrialsPROC	PL_001_92012.png	1	2	55	SessionSelectionList														target	2	Place	0-Back	48	80	45	0	0	96	1	39	437076	2	14	59	435037	-1	435628	1	591	2	2	2039	53	437090	-54	0												7				55												
WM080112	190031_fnca	1	1	1	1768938337	1	75.031	75.031	2.0.10.147	2.0.10.242	2.0.10.242	1.0.0.439	7	234	2	3	Verdana	1	80	0	0	0	WM Stimuli\	0.9	1328.33333333333	0.9	808.555555555556	0.9	1081.88888888889	1	655.1	0.8	1239.875	1	782.1	1	1493.9	1	641.5	13	559866	2	559854	27	40	559893	-999999	559869	0	13	TrialsPROC	PL_002_92014.png	1	2	56	SessionSelectionList														nonlure	3	Place	0-Back	49	80	46	0	0	96	1	39	439635	2	14	59	437596	-1	438136	1	540	3	3	2039	53	439649	-54	0												8				56												
WM080112	190031_fnca	1	1	1	1768938337	1	75.031	75.031	2.0.10.147	2.0.10.242	2.0.10.242	1.0.0.439	7	234	2	3	Verdana	1	80	0	0	0	WM Stimuli\	0.9	1328.33333333333	0.9	808.555555555556	0.9	1081.88888888889	1	655.1	0.8	1239.875	1	782.1	1	1493.9	1	641.5	13	559866	2	559854	27	40	559893	-999999	559869	0	13	TrialsPROC	PL_004_92023.png	1	2	57	SessionSelectionList														lure	3	Place	0-Back	50	80	47	0	0	97	2	39	442207	2	14	72	440168	-1	440775	1	607	3	3	2039	53	442221	-54	0												9				57												
WM080112	190031_fnca	1	1	1	1768938337	1	75.031	75.031	2.0.10.147	2.0.10.242	2.0.10.242	1.0.0.439	7	234	2	3	Verdana	1	80	0	0	0	WM Stimuli\	0.9	1328.33333333333	0.9	808.555555555556	0.9	1081.88888888889	1	655.1	0.8	1239.875	1	782.1	1	1493.9	1	641.5	13	559866	2	559854	27	40	559893	-999999	559869	0	13	TrialsPROC	PL_006_92025.png	1	2	58	SessionSelectionList														lure	3	Place	0-Back	51	80	48	0	0	97	3	39	444766	2	14	59	442727	-1	443266	1	539	3	3	2039	53	444780	-54	0												10				58												
WM080112	190031_fnca	1	1	1	1768938337	1	75.031	75.031	2.0.10.147	2.0.10.242	2.0.10.242	1.0.0.439	7	234	2	3	Verdana	1	80	0	0	0	WM Stimuli\	0.9	1328.33333333333	0.9	808.555555555556	0.9	1081.88888888889	1	655.1	0.8	1239.875	1	782.1	1	1493.9	1	641.5	13	559866	2	559854	27	40	559893	-999999	559869	0	14	Cue2BackPROC	""	1	2	59	SessionSelectionList									6	445233	-7	0																																													59												
WM080112	190031_fnca	1	1	1	1768938337	1	75.031	75.031	2.0.10.147	2.0.10.242	2.0.10.242	1.0.0.439	7	234	2	3	Verdana	1	80	0	0	0	WM Stimuli\	0.9	1328.33333333333	0.9	808.555555555556	0.9	1081.88888888889	1	655.1	0.8	1239.875	1	782.1	1	1493.9	1	641.5	13	559866	2	559854	27	40	559893	-999999	559869	0	15	TrialsPROC	FC_010_F5.png	1	2	60	SessionSelectionList														nonlure	3	Face	2-Back	52	80	48	0	1	97	3	39	449831	1	14	65	447792	-1	0	0	0	""	3	2039	53	449845	-54	0													1			60												
WM080112	190031_fnca	1	1	1	1768938337	1	75.031	75.031	2.0.10.147	2.0.10.242	2.0.10.242	1.0.0.439	7	234	2	3	Verdana	1	80	0	0	0	WM Stimuli\	0.9	1328.33333333333	0.9	808.555555555556	0.9	1081.88888888889	1	655.1	0.8	1239.875	1	782.1	1	1493.9	1	641.5	13	559866	2	559854	27	40	559893	-999999	559869	0	15	TrialsPROC	FC_012_F6.png	1	2	61	SessionSelectionList														nonlure	3	Face	2-Back	53	80	49	0	0	97	1	39	452403	2	14	72	450364	-1	451272	1	908	3	3	2039	53	452417	-54	0													2			61												
WM080112	190031_fnca	1	1	1	1768938337	1	75.031	75.031	2.0.10.147	2.0.10.242	2.0.10.242	1.0.0.439	7	234	2	3	Verdana	1	80	0	0	0	WM Stimuli\	0.9	1328.33333333333	0.9	808.555555555556	0.9	1081.88888888889	1	655.1	0.8	1239.875	1	782.1	1	1493.9	1	641.5	13	559866	2	559854	27	40	559893	-999999	559869	0	15	TrialsPROC	FC_010_F5.png	1	2	62	SessionSelectionList														target	2	Face	2-Back	54	80	50	0	0	97	1	39	454975	2	14	72	452936	-1	453661	1	725	2	2	2039	53	454989	-54	0													3			62												
WM080112	190031_fnca	1	1	1	1768938337	1	75.031	75.031	2.0.10.147	2.0.10.242	2.0.10.242	1.0.0.439	7	234	2	3	Verdana	1	80	0	0	0	WM Stimuli\	0.9	1328.33333333333	0.9	808.555555555556	0.9	1081.88888888889	1	655.1	0.8	1239.875	1	782.1	1	1493.9	1	641.5	13	559866	2	559854	27	40	559893	-999999	559869	0	15	TrialsPROC	FC_008_F4.png	1	2	63	SessionSelectionList														nonlure	3	Face	2-Back	55	80	51	0	0	97	1	39	457548	1	13	73	455509	-1	456263	1	754	3	3	2039	52	457561	-53	0													4			63												
WM080112	190031_fnca	1	1	1	1768938337	1	75.031	75.031	2.0.10.147	2.0.10.242	2.0.10.242	1.0.0.439	7	234	2	3	Verdana	1	80	0	0	0	WM Stimuli\	0.9	1328.33333333333	0.9	808.555555555556	0.9	1081.88888888889	1	655.1	0.8	1239.875	1	782.1	1	1493.9	1	641.5	13	559866	2	559854	27	40	559893	-999999	559869	0	15	TrialsPROC	FC_012_F6.png	1	2	64	SessionSelectionList														lure	3	Face	2-Back	56	80	52	0	0	97	2	39	460120	1	14	72	458081	-1	459308	1	1227	3	3	2039	53	460134	-54	0													5			64												
WM080112	190031_fnca	1	1	1	1768938337	1	75.031	75.031	2.0.10.147	2.0.10.242	2.0.10.242	1.0.0.439	7	234	2	3	Verdana	1	80	0	0	0	WM Stimuli\	0.9	1328.33333333333	0.9	808.555555555556	0.9	1081.88888888889	1	655.1	0.8	1239.875	1	782.1	1	1493.9	1	641.5	13	559866	2	559854	27	40	559893	-999999	559869	0	15	TrialsPROC	FC_008_F4.png	1	2	65	SessionSelectionList														target	2	Face	2-Back	57	80	53	0	0	97	1	39	462692	2	14	72	460653	-1	461561	1	908	2	2	2039	53	462706	-54	0													6			65												
WM080112	190031_fnca	1	1	1	1768938337	1	75.031	75.031	2.0.10.147	2.0.10.242	2.0.10.242	1.0.0.439	7	234	2	3	Verdana	1	80	0	0	0	WM Stimuli\	0.9	1328.33333333333	0.9	808.555555555556	0.9	1081.88888888889	1	655.1	0.8	1239.875	1	782.1	1	1493.9	1	641.5	13	559866	2	559854	27	40	559893	-999999	559869	0	15	TrialsPROC	FC_007_M4.png	1	2	66	SessionSelectionList														nonlure	3	Face	2-Back	58	80	54	0	0	97	1	40	465265	1	13	72	463225	-1	464244	1	1019	3	3	2040	53	465278	-54	0													7			66												
WM080112	190031_fnca	1	1	1	1768938337	1	75.031	75.031	2.0.10.147	2.0.10.242	2.0.10.242	1.0.0.439	7	234	2	3	Verdana	1	80	0	0	0	WM Stimuli\	0.9	1328.33333333333	0.9	808.555555555556	0.9	1081.88888888889	1	655.1	0.8	1239.875	1	782.1	1	1493.9	1	641.5	13	559866	2	559854	27	40	559893	-999999	559869	0	15	TrialsPROC	FC_007_M4.png	1	2	67	SessionSelectionList														lure	3	Face	2-Back	59	80	55	0	0	97	2	39	467837	1	13	73	465798	-1	467154	1	1356	3	3	2039	52	467850	-53	0													8			67												
WM080112	190031_fnca	1	1	1	1768938337	1	75.031	75.031	2.0.10.147	2.0.10.242	2.0.10.242	1.0.0.439	7	234	2	3	Verdana	1	80	0	0	0	WM Stimuli\	0.9	1328.33333333333	0.9	808.555555555556	0.9	1081.88888888889	1	655.1	0.8	1239.875	1	782.1	1	1493.9	1	641.5	13	559866	2	559854	27	40	559893	-999999	559869	0	15	TrialsPROC	FC_009_M5.png	1	2	68	SessionSelectionList														nonlure	3	Face	2-Back	60	80	56	0	0	97	3	39	470409	2	14	72	468370	-1	469933	1	1563	3	3	2039	53	470423	-54	0													9			68												
WM080112	190031_fnca	1	1	1	1768938337	1	75.031	75.031	2.0.10.147	2.0.10.242	2.0.10.242	1.0.0.439	7	234	2	3	Verdana	1	80	0	0	0	WM Stimuli\	0.9	1328.33333333333	0.9	808.555555555556	0.9	1081.88888888889	1	655.1	0.8	1239.875	1	782.1	1	1493.9	1	641.5	13	559866	2	559854	27	40	559893	-999999	559869	0	15	TrialsPROC	FC_011_M6.png	1	2	69	SessionSelectionList														nonlure	3	Face	2-Back	61	80	57	0	0	97	4	39	472981	2	14	72	470942	-1	472219	1	1277	3	3	2039	53	472995	-54	0													10			69												
WM080112	190031_fnca	1	1	1	1768938337	1	75.031	75.031	2.0.10.147	2.0.10.242	2.0.10.242	1.0.0.439	7	234	2	3	Verdana	1	80	0	0	0	WM Stimuli\	0.9	1328.33333333333	0.9	808.555555555556	0.9	1081.88888888889	1	655.1	0.8	1239.875	1	782.1	1	1493.9	1	641.5	13	559866	2	559854	27	40	559893	-999999	559869	0	16	Fix15secPROC	""	1	2	70	SessionSelectionList																																															6	473448	-7	0							70												
WM080112	190031_fnca	1	1	1	1768938337	1	75.031	75.031	2.0.10.147	2.0.10.242	2.0.10.242	1.0.0.439	7	234	2	3	Verdana	1	80	0	0	0	WM Stimuli\	0.9	1328.33333333333	0.9	808.555555555556	0.9	1081.88888888889	1	655.1	0.8	1239.875	1	782.1	1	1493.9	1	641.5	13	559866	2	559854	27	40	559893	-999999	559869	0	17	Cue0BackPROC	TO_007_TOOL7_BA.png	1	2	71	SessionSelectionList																																										26	488468	-27	0												71												
WM080112	190031_fnca	1	1	1	1768938337	1	75.031	75.031	2.0.10.147	2.0.10.242	2.0.10.242	1.0.0.439	7	234	2	3	Verdana	1	80	0	0	0	WM Stimuli\	0.9	1328.33333333333	0.9	808.555555555556	0.9	1081.88888888889	1	655.1	0.8	1239.875	1	782.1	1	1493.9	1	641.5	13	559866	2	559854	27	40	559893	-999999	559869	0	18	TrialsPROC	TO_010_TOOL10_BA.png	1	2	72	SessionSelectionList														nonlure	3	Tools	0-Back	62	80	58	0	0	97	5	39	493053	1	14	72	491014	-1	491756	1	742	3	3	2039	53	493067	-54	0														1		72												
WM080112	190031_fnca	1	1	1	1768938337	1	75.031	75.031	2.0.10.147	2.0.10.242	2.0.10.242	1.0.0.439	7	234	2	3	Verdana	1	80	0	0	0	WM Stimuli\	0.9	1328.33333333333	0.9	808.555555555556	0.9	1081.88888888889	1	655.1	0.8	1239.875	1	782.1	1	1493.9	1	641.5	13	559866	2	559854	27	40	559893	-999999	559869	0	18	TrialsPROC	TO_009_TOOL9_BA.png	1	2	73	SessionSelectionList														nonlure	3	Tools	0-Back	63	80	59	0	0	97	6	39	495639	1	13	86	493600	-1	494229	1	629	3	3	2039	52	495652	-53	0														2		73												
WM080112	190031_fnca	1	1	1	1768938337	1	75.031	75.031	2.0.10.147	2.0.10.242	2.0.10.242	1.0.0.439	7	234	2	3	Verdana	1	80	0	0	0	WM Stimuli\	0.9	1328.33333333333	0.9	808.555555555556	0.9	1081.88888888889	1	655.1	0.8	1239.875	1	782.1	1	1493.9	1	641.5	13	559866	2	559854	27	40	559893	-999999	559869	0	18	TrialsPROC	TO_009_TOOL9_BA.png	1	2	74	SessionSelectionList														lure	3	Tools	0-Back	64	80	60	0	0	97	7	39	498198	1	13	59	496159	-1	496644	1	485	3	3	2039	52	498211	-53	0														3		74												
WM080112	190031_fnca	1	1	1	1768938337	1	75.031	75.031	2.0.10.147	2.0.10.242	2.0.10.242	1.0.0.439	7	234	2	3	Verdana	1	80	0	0	0	WM Stimuli\	0.9	1328.33333333333	0.9	808.555555555556	0.9	1081.88888888889	1	655.1	0.8	1239.875	1	782.1	1	1493.9	1	641.5	13	559866	2	559854	27	40	559893	-999999	559869	0	18	TrialsPROC	TO_008_TOOL8_BA.png	1	2	75	SessionSelectionList														nonlure	3	Tools	0-Back	65	80	61	0	0	97	8	39	500770	1	14	72	498731	-1	499384	1	653	3	3	2039	53	500784	-54	0														4		75												
WM080112	190031_fnca	1	1	1	1768938337	1	75.031	75.031	2.0.10.147	2.0.10.242	2.0.10.242	1.0.0.439	7	234	2	3	Verdana	1	80	0	0	0	WM Stimuli\	0.9	1328.33333333333	0.9	808.555555555556	0.9	1081.88888888889	1	655.1	0.8	1239.875	1	782.1	1	1493.9	1	641.5	13	559866	2	559854	27	40	559893	-999999	559869	0	18	TrialsPROC	TO_011_TOOL11_BA.png	1	2	76	SessionSelectionList														nonlure	3	Tools	0-Back	66	80	62	0	0	97	9	40	503356	1	13	85	501316	-1	501952	1	636	3	3	2040	53	503369	-54	0														5		76												
WM080112	190031_fnca	1	1	1	1768938337	1	75.031	75.031	2.0.10.147	2.0.10.242	2.0.10.242	1.0.0.439	7	234	2	3	Verdana	1	80	0	0	0	WM Stimuli\	0.9	1328.33333333333	0.9	808.555555555556	0.9	1081.88888888889	1	655.1	0.8	1239.875	1	782.1	1	1493.9	1	641.5	13	559866	2	559854	27	40	559893	-999999	559869	0	18	TrialsPROC	TO_012_TOOL12_BA.png	1	2	77	SessionSelectionList														nonlure	3	Tools	0-Back	67	80	63	0	0	97	10	39	505928	1	13	73	503889	-1	504477	1	588	3	3	2039	52	505941	-53	0														6		77												
WM080112	190031_fnca	1	1	1	1768938337	1	75.031	75.031	2.0.10.147	2.0.10.242	2.0.10.242	1.0.0.439	7	234	2	3	Verdana	1	80	0	0	0	WM Stimuli\	0.9	1328.33333333333	0.9	808.555555555556	0.9	1081.88888888889	1	655.1	0.8	1239.875	1	782.1	1	1493.9	1	641.5	13	559866	2	559854	27	40	559893	-999999	559869	0	18	TrialsPROC	TO_010_TOOL10_BA.png	1	2	78	SessionSelectionList														lure	3	Tools	0-Back	68	80	64	0	0	97	11	39	508487	1	13	59	506448	-1	507018	1	570	3	3	2039	52	508500	-53	0														7		78												
WM080112	190031_fnca	1	1	1	1768938337	1	75.031	75.031	2.0.10.147	2.0.10.242	2.0.10.242	1.0.0.439	7	234	2	3	Verdana	1	80	0	0	0	WM Stimuli\	0.9	1328.33333333333	0.9	808.555555555556	0.9	1081.88888888889	1	655.1	0.8	1239.875	1	782.1	1	1493.9	1	641.5	13	559866	2	559854	27	40	559893	-999999	559869	0	18	TrialsPROC	TO_007_TOOL7_BA.png	1	2	79	SessionSelectionList														target	2	Tools	0-Back	69	80	65	0	0	97	1	39	511046	1	13	59	509007	-1	509817	1	810	2	2	2039	52	511059	-53	0														8		79												
WM080112	190031_fnca	1	1	1	1768938337	1	75.031	75.031	2.0.10.147	2.0.10.242	2.0.10.242	1.0.0.439	7	234	2	3	Verdana	1	80	0	0	0	WM Stimuli\	0.9	1328.33333333333	0.9	808.555555555556	0.9	1081.88888888889	1	655.1	0.8	1239.875	1	782.1	1	1493.9	1	641.5	13	559866	2	559854	27	40	559893	-999999	559869	0	18	TrialsPROC	TO_008_TOOL8_BA.png	1	2	80	SessionSelectionList														lure	3	Tools	0-Back	70	80	66	0	0	97	1	40	513605	1	13	58	511565	-1	512215	1	650	3	3	2040	53	513618	-54	0														9		80												
WM080112	190031_fnca	1	1	1	1768938337	1	75.031	75.031	2.0.10.147	2.0.10.242	2.0.10.242	1.0.0.439	7	234	2	3	Verdana	1	80	0	0	0	WM Stimuli\	0.9	1328.33333333333	0.9	808.555555555556	0.9	1081.88888888889	1	655.1	0.8	1239.875	1	782.1	1	1493.9	1	641.5	13	559866	2	559854	27	40	559893	-999999	559869	0	18	TrialsPROC	TO_007_TOOL7_BA.png	1	2	81	SessionSelectionList														target	2	Tools	0-Back	71	80	67	0	0	98	1	40	516164	1	13	59	514124	-1	514776	1	652	2	2	2040	53	516177	-54	0														10		81												
WM080112	190031_fnca	1	1	1	1768938337	1	75.031	75.031	2.0.10.147	2.0.10.242	2.0.10.242	1.0.0.439	7	234	2	3	Verdana	1	80	0	0	0	WM Stimuli\	0.9	1328.33333333333	0.9	808.555555555556	0.9	1081.88888888889	1	655.1	0.8	1239.875	1	782.1	1	1493.9	1	641.5	13	559866	2	559854	27	40	559893	-999999	559869	0	19	Cue2BackPROC	""	1	2	82	SessionSelectionList									6	516630	-7	0																																													82												
WM080112	190031_fnca	1	1	1	1768938337	1	75.031	75.031	2.0.10.147	2.0.10.242	2.0.10.242	1.0.0.439	7	234	2	3	Verdana	1	80	0	0	0	WM Stimuli\	0.9	1328.33333333333	0.9	808.555555555556	0.9	1081.88888888889	1	655.1	0.8	1239.875	1	782.1	1	1493.9	1	641.5	13	559866	2	559854	27	40	559893	-999999	559869	0	20	TrialsPROC	PL_007_92026.png	1	2	83	SessionSelectionList														nonlure	3	Place	2-Back	72	80	67	0	1	98	1	39	521255	1	13	92	519216	-1	0	0	0	""	3	2039	52	521268	-53	0															1	83												
WM080112	190031_fnca	1	1	1	1768938337	1	75.031	75.031	2.0.10.147	2.0.10.242	2.0.10.242	1.0.0.439	7	234	2	3	Verdana	1	80	0	0	0	WM Stimuli\	0.9	1328.33333333333	0.9	808.555555555556	0.9	1081.88888888889	1	655.1	0.8	1239.875	1	782.1	1	1493.9	1	641.5	13	559866	2	559854	27	40	559893	-999999	559869	0	20	TrialsPROC	PL_007_92026.png	1	2	84	SessionSelectionList														lure	3	Place	2-Back	73	80	68	0	0	98	1	39	523814	1	13	59	521775	-1	523124	0	1349	2	3	2039	52	523827	-53	0															2	84												
WM080112	190031_fnca	1	1	1	1768938337	1	75.031	75.031	2.0.10.147	2.0.10.242	2.0.10.242	1.0.0.439	7	234	2	3	Verdana	1	80	0	0	0	WM Stimuli\	0.9	1328.33333333333	0.9	808.555555555556	0.9	1081.88888888889	1	655.1	0.8	1239.875	1	782.1	1	1493.9	1	641.5	13	559866	2	559854	27	40	559893	-999999	559869	0	20	TrialsPROC	PL_010_92038.png	1	2	85	SessionSelectionList														nonlure	3	Place	2-Back	74	80	69	0	0	98	1	39	526399	2	14	85	524360	-1	525629	1	1269	3	3	2039	53	526413	-54	0															3	85												
WM080112	190031_fnca	1	1	1	1768938337	1	75.031	75.031	2.0.10.147	2.0.10.242	2.0.10.242	1.0.0.439	7	234	2	3	Verdana	1	80	0	0	0	WM Stimuli\	0.9	1328.33333333333	0.9	808.555555555556	0.9	1081.88888888889	1	655.1	0.8	1239.875	1	782.1	1	1493.9	1	641.5	13	559866	2	559854	27	40	559893	-999999	559869	0	20	TrialsPROC	PL_009_92037.png	1	2	86	SessionSelectionList														nonlure	3	Place	2-Back	75	80	70	0	0	98	2	40	528972	1	13	72	526932	-1	528561	1	1629	3	3	2040	53	528985	-54	0															4	86												
WM080112	190031_fnca	1	1	1	1768938337	1	75.031	75.031	2.0.10.147	2.0.10.242	2.0.10.242	1.0.0.439	7	234	2	3	Verdana	1	80	0	0	0	WM Stimuli\	0.9	1328.33333333333	0.9	808.555555555556	0.9	1081.88888888889	1	655.1	0.8	1239.875	1	782.1	1	1493.9	1	641.5	13	559866	2	559854	27	40	559893	-999999	559869	0	20	TrialsPROC	PL_010_92038.png	1	2	87	SessionSelectionList														target	2	Place	2-Back	76	80	71	0	0	98	1	39	531544	1	14	73	529505	-1	530359	1	854	2	2	2039	53	531558	-54	0															5	87												
WM080112	190031_fnca	1	1	1	1768938337	1	75.031	75.031	2.0.10.147	2.0.10.242	2.0.10.242	1.0.0.439	7	234	2	3	Verdana	1	80	0	0	0	WM Stimuli\	0.9	1328.33333333333	0.9	808.555555555556	0.9	1081.88888888889	1	655.1	0.8	1239.875	1	782.1	1	1493.9	1	641.5	13	559866	2	559854	27	40	559893	-999999	559869	0	20	TrialsPROC	PL_009_92037.png	1	2	88	SessionSelectionList														target	2	Place	2-Back	77	80	72	0	0	98	2	39	534103	1	14	59	532064	-1	533075	1	1011	2	2	2039	53	534117	-54	0															6	88												
WM080112	190031_fnca	1	1	1	1768938337	1	75.031	75.031	2.0.10.147	2.0.10.242	2.0.10.242	1.0.0.439	7	234	2	3	Verdana	1	80	0	0	0	WM Stimuli\	0.9	1328.33333333333	0.9	808.555555555556	0.9	1081.88888888889	1	655.1	0.8	1239.875	1	782.1	1	1493.9	1	641.5	13	559866	2	559854	27	40	559893	-999999	559869	0	20	TrialsPROC	PL_008_92033.png	1	2	89	SessionSelectionList														nonlure	3	Place	2-Back	78	80	73	0	0	98	1	39	536675	2	14	72	534636	-1	535961	1	1325	3	3	2039	53	536689	-54	0															7	89												
WM080112	190031_fnca	1	1	1	1768938337	1	75.031	75.031	2.0.10.147	2.0.10.242	2.0.10.242	1.0.0.439	7	234	2	3	Verdana	1	80	0	0	0	WM Stimuli\	0.9	1328.33333333333	0.9	808.555555555556	0.9	1081.88888888889	1	655.1	0.8	1239.875	1	782.1	1	1493.9	1	641.5	13	559866	2	559854	27	40	559893	-999999	559869	0	20	TrialsPROC	PL_012_92047.png	1	2	90	SessionSelectionList														nonlure	3	Place	2-Back	79	80	74	0	0	98	2	39	539247	2	14	72	537208	-1	538454	1	1246	3	3	2039	53	539261	-54	0															8	90												
WM080112	190031_fnca	1	1	1	1768938337	1	75.031	75.031	2.0.10.147	2.0.10.242	2.0.10.242	1.0.0.439	7	234	2	3	Verdana	1	80	0	0	0	WM Stimuli\	0.9	1328.33333333333	0.9	808.555555555556	0.9	1081.88888888889	1	655.1	0.8	1239.875	1	782.1	1	1493.9	1	641.5	13	559866	2	559854	27	40	559893	-999999	559869	0	20	TrialsPROC	PL_012_92047.png	1	2	91	SessionSelectionList														lure	3	Place	2-Back	80	80	75	0	0	98	3	39	541820	1	13	73	539781	-1	541151	1	1370	3	3	2039	52	541833	-53	0															9	91												
WM080112	190031_fnca	1	1	1	1768938337	1	75.031	75.031	2.0.10.147	2.0.10.242	2.0.10.242	1.0.0.439	7	234	2	3	Verdana	1	80	0	0	0	WM Stimuli\	0.9	1328.33333333333	0.9	808.555555555556	0.9	1081.88888888889	1	655.1	0.8	1239.875	1	782.1	1	1493.9	1	641.5	13	559866	2	559854	27	40	559893	-999999	559869	0	20	TrialsPROC	PL_011_92044.png	1	2	92	SessionSelectionList														nonlure	3	Place	2-Back	80	80	76	0	0	98	4	39	544392	1	14	72	542353	-1	543568	1	1215	3	3	2039	53	544406	-54	0															10	92												
WM080112	190031_fnca	1	1	1	1768938337	1	75.031	75.031	2.0.10.147	2.0.10.242	2.0.10.242	1.0.0.439	7	234	2	3	Verdana	1	80	0	0	0	WM Stimuli\	0.9	1328.33333333333	0.9	808.555555555556	0.9	1081.88888888889	1	655.1	0.8	1239.875	1	782.1	1	1493.9	1	641.5	13	559866	2	559854	27	40	559893	-999999	559869	0	21	Fix15secPROC	""	1	2	93	SessionSelectionList																																															6	544859	-7	0							93												
