ExperimentName	HCPID	RunNumber	Subject	Session	RandomSeed	Group	Laptop.RefreshRate	ScannerD2.RefreshRate	StudioVersion	RuntimeVersion	RuntimeVersionExpected	ExperimentVersion	triggercode	Allowed	Target	Nontarget	FontStyle	RunTrialNumber[Session]	TrialsPerRun[Session]	TotalRespGreater200[Session]	ConsecRTLess200[Session]	ConsecNonResp[Session]	StimuliDir	ACC_2_Back_Body	Avg_RT_For_Correct_Trials_2_Back_Body	ACC_0_Back_Body	Avg_RT_For_Correct_Trials_0_Back_Body	ACC_2_Back_Face	Avg_RT_For_Correct_Trials_2_Back_Face	ACC_0_Back_Face	Avg_RT_For_Correct_Trials_0_Back_Face	ACC_2_Back_Place	Avg_RT_For_Correct_Trials_2_Back_Place	ACC_0_Back_Place	Avg_RT_For_Correct_Trials_0_Back_Place	ACC_2_Back_Tools	Avg_RT_For_Correct_Trials_2_Back_Tools	ACC_0_Back_Tools	Avg_RT_For_Correct_Trials_0_Back_Tools	ExpInstrucFeelFreeToRest.OnsetDelay	ExpInstrucFeelFreeToRest.OnsetTime	ExpInstrucFeelFreeToRest.DurationError	ExpInstrucFeelFreeToRest.StartTime	ExpInstrucFeelFreeToRest.OnsetToOnsetTime	FeelFreeToRest.OnsetDelay	FeelFreeToRest.OnsetTime	FeelFreeToRest.DurationError	FeelFreeToRest.StartTime	FeelFreeToRest.OnsetToOnsetTime	SessionSelectionList	Procedure[Block]	Stimulus[Block]	RunNumberFilterValue	SessionSelectionList.Cycle	SessionSelectionList.Sample	Running[Block]	IntroButtonMap.OnsetDelay	IntroButtonMap.OnsetTime	IntroButtonMap.DurationError	IntroButtonMap.OnsetToOnsetTime	GetReady.OnsetDelay	GetReady.OnsetTime	GetReady.DurationError	GetReady.OnsetToOnsetTime	Cue2Back.OnsetDelay	Cue2Back.OnsetTime	Cue2Back.DurationError	Cue2Back.OnsetToOnsetTime	Run1Block1	TargetType	CorrectResponse	StimType	BlockType	RunTrialNumber[Block]	TrialsPerRun[Block]	TotalRespGreater200[Block]	ConsecRTLess200[Block]	ConsecNonResp[Block]	ControlAcc	ConsecSameResp	ExperimenterWindow.OnsetDelay	ExperimenterWindow.OnsetTime	ExperimenterWindow.DurationError	ExperimenterWindow.OnsetToOnsetTime	Stim.OnsetDelay	Stim.OnsetTime	Stim.DurationError	Stim.RTTime	Stim.ACC	Stim.RT	Stim.RESP	Stim.CRESP	Stim.OnsetToOnsetTime	Fix.OnsetDelay	Fix.OnsetTime	Fix.DurationError	Fix.OnsetToOnsetTime	CueTarget.OnsetDelay	CueTarget.OnsetTime	CueTarget.DurationError	CueTarget.OnsetToOnsetTime	Run1Block2	Fix15sec.OnsetDelay	Fix15sec.OnsetTime	Fix15sec.DurationError	Fix15sec.OnsetToOnsetTime	Run1Block3	Run1Block4	Run1Block5	Run1Block6	Run1Block7	Run1Block8	Block	Procedure[Trial]	Stimulus[Trial]	ReadyList	Running[Trial]	ReadyList.Cycle	ReadyList.Sample	SyncSlide.OnsetDelay	SyncSlide.OnsetTime	SyncSlide.DurationError	SyncSlide.FinishTime	SyncSlide.OnsetToOnsetTime	Trial
WM080112	128127_fnca	1	1	1	-448310837	1	75.031	75.031	2.0.10.147	2.0.10.242	2.0.10.242	1.0.0.439	7	234	2	3	Verdana	1	80	0	0	0	WM Stimuli\	0.8	1293.5	0.8	732.5	1	737	1	799	0.9	696.777777777778	1	610	1	1003.7	1	547	13	412413	3	412401	27	40	412440	-999999	412416	0	1	TRSyncPROC	""	1	2	1	SessionSelectionList	117	15335	-999999	0	40	103273	-999999	0																																																	1	InitialTR	4	1	ReadyList	1	1	16	118347	-17	120330	0	1
WM080112	128127_fnca	1	1	1	-448310837	1	75.031	75.031	2.0.10.147	2.0.10.242	2.0.10.242	1.0.0.439	7	234	2	3	Verdana	1	80	0	0	0	WM Stimuli\	0.8	1293.5	0.8	732.5	1	737	1	799	0.9	696.777777777778	1	610	1	1003.7	1	547	13	412413	3	412401	27	40	412440	-999999	412416	0	1	TRSyncPROC	""	1	2	1	SessionSelectionList	117	15335	-999999	0	40	103273	-999999	0																																																	1	InitialTR	3	2	ReadyList	1	2	15	120346	-16	122330	0	2
WM080112	128127_fnca	1	1	1	-448310837	1	75.031	75.031	2.0.10.147	2.0.10.242	2.0.10.242	1.0.0.439	7	234	2	3	Verdana	1	80	0	0	0	WM Stimuli\	0.8	1293.5	0.8	732.5	1	737	1	799	0.9	696.777777777778	1	610	1	1003.7	1	547	13	412413	3	412401	27	40	412440	-999999	412416	0	1	TRSyncPROC	""	1	2	1	SessionSelectionList	117	15335	-999999	0	40	103273	-999999	0																																																	1	InitialTR	2	3	ReadyList	1	3	14	122345	-15	124330	0	3
WM080112	128127_fnca	1	1	1	-448310837	1	75.031	75.031	2.0.10.147	2.0.10.242	2.0.10.242	1.0.0.439	7	234	2	3	Verdana	1	80	0	0	0	WM Stimuli\	0.8	1293.5	0.8	732.5	1	737	1	799	0.9	696.777777777778	1	610	1	1003.7	1	547	13	412413	3	412401	27	40	412440	-999999	412416	0	1	TRSyncPROC	""	1	2	1	SessionSelectionList	117	15335	-999999	0	40	103273	-999999	0																																																	1	InitialTR	1	4	ReadyList	1	4	13	124344	-14	126330	0	4
WM080112	128127_fnca	1	1	1	-448310837	1	75.031	75.031	2.0.10.147	2.0.10.242	2.0.10.242	1.0.0.439	7	234	2	3	Verdana	1	80	0	0	0	WM Stimuli\	0.8	1293.5	0.8	732.5	1	737	1	799	0.9	696.777777777778	1	610	1	1003.7	1	547	13	412413	3	412401	27	40	412440	-999999	412416	0	2	Cue2BackPROC	""	1	2	2	SessionSelectionList									12	126343	-13	0																																													2												
WM080112	128127_fnca	1	1	1	-448310837	1	75.031	75.031	2.0.10.147	2.0.10.242	2.0.10.242	1.0.0.439	7	234	2	3	Verdana	1	80	0	0	0	WM Stimuli\	0.8	1293.5	0.8	732.5	1	737	1	799	0.9	696.777777777778	1	610	1	1003.7	1	547	13	412413	3	412401	27	40	412440	-999999	412416	0	3	TrialsPROC	BP_002_BP10_BA.png	1	2	3	SessionSelectionList													1	nonlure	3	Body	2-Back	2	80	1	0	0	0	1	53	130982	3	13	98	128929	-1	129744	1	815	3	3	2053	66	130995	-67	0																3												
WM080112	128127_fnca	1	1	1	-448310837	1	75.031	75.031	2.0.10.147	2.0.10.242	2.0.10.242	1.0.0.439	7	234	2	3	Verdana	1	80	0	0	0	WM Stimuli\	0.8	1293.5	0.8	732.5	1	737	1	799	0.9	696.777777777778	1	610	1	1003.7	1	547	13	412413	3	412401	27	40	412440	-999999	412416	0	3	TrialsPROC	BP_001_BP1_BA.png	1	2	4	SessionSelectionList													2	nonlure	3	Body	2-Back	3	80	2	0	0	0	2	39	133554	2	13	86	131515	-1	132377	1	862	3	3	2039	52	133567	-53	0																4												
WM080112	128127_fnca	1	1	1	-448310837	1	75.031	75.031	2.0.10.147	2.0.10.242	2.0.10.242	1.0.0.439	7	234	2	3	Verdana	1	80	0	0	0	WM Stimuli\	0.8	1293.5	0.8	732.5	1	737	1	799	0.9	696.777777777778	1	610	1	1003.7	1	547	13	412413	3	412401	27	40	412440	-999999	412416	0	3	TrialsPROC	BP_006_BP2_BA.png	1	2	5	SessionSelectionList													3	nonlure	3	Body	2-Back	4	80	3	0	0	0	1	39	136139	2	14	85	134100	-1	135131	0	1031	2	3	2039	53	136153	-54	0																5												
WM080112	128127_fnca	1	1	1	-448310837	1	75.031	75.031	2.0.10.147	2.0.10.242	2.0.10.242	1.0.0.439	7	234	2	3	Verdana	1	80	0	0	0	WM Stimuli\	0.8	1293.5	0.8	732.5	1	737	1	799	0.9	696.777777777778	1	610	1	1003.7	1	547	13	412413	3	412401	27	40	412440	-999999	412416	0	3	TrialsPROC	BP_001_BP1_BA.png	1	2	6	SessionSelectionList													4	target	2	Body	2-Back	5	80	4	0	0	0	2	39	138712	2	13	73	136673	-1	138014	1	1341	2	2	2039	52	138725	-53	0																6												
WM080112	128127_fnca	1	1	1	-448310837	1	75.031	75.031	2.0.10.147	2.0.10.242	2.0.10.242	1.0.0.439	7	234	2	3	Verdana	1	80	0	0	0	WM Stimuli\	0.8	1293.5	0.8	732.5	1	737	1	799	0.9	696.777777777778	1	610	1	1003.7	1	547	13	412413	3	412401	27	40	412440	-999999	412416	0	3	TrialsPROC	BP_005_BP19_BA.png	1	2	7	SessionSelectionList													5	nonlure	3	Body	2-Back	6	80	5	0	0	0	1	39	141297	3	14	85	139258	-1	140535	1	1277	3	3	2039	53	141311	-54	0																7												
WM080112	128127_fnca	1	1	1	-448310837	1	75.031	75.031	2.0.10.147	2.0.10.242	2.0.10.242	1.0.0.439	7	234	2	3	Verdana	1	80	0	0	0	WM Stimuli\	0.8	1293.5	0.8	732.5	1	737	1	799	0.9	696.777777777778	1	610	1	1003.7	1	547	13	412413	3	412401	27	40	412440	-999999	412416	0	3	TrialsPROC	BP_003_BP16_BA.png	1	2	8	SessionSelectionList													6	nonlure	3	Body	2-Back	7	80	6	0	0	0	2	39	143883	1	13	86	141844	-1	143764	1	1920	3	3	2039	52	143896	-53	0																8												
WM080112	128127_fnca	1	1	1	-448310837	1	75.031	75.031	2.0.10.147	2.0.10.242	2.0.10.242	1.0.0.439	7	234	2	3	Verdana	1	80	0	0	0	WM Stimuli\	0.8	1293.5	0.8	732.5	1	737	1	799	0.9	696.777777777778	1	610	1	1003.7	1	547	13	412413	3	412401	27	40	412440	-999999	412416	0	3	TrialsPROC	BP_006_BP2_BA.png	1	2	9	SessionSelectionList													7	lure	3	Body	2-Back	8	80	7	0	0	0	3	39	146442	1	13	59	144403	-1	145896	1	1493	3	3	2039	52	146455	-53	0																9												
WM080112	128127_fnca	1	1	1	-448310837	1	75.031	75.031	2.0.10.147	2.0.10.242	2.0.10.242	1.0.0.439	7	234	2	3	Verdana	1	80	0	0	0	WM Stimuli\	0.8	1293.5	0.8	732.5	1	737	1	799	0.9	696.777777777778	1	610	1	1003.7	1	547	13	412413	3	412401	27	40	412440	-999999	412416	0	3	TrialsPROC	BP_004_BP18_BA.png	1	2	10	SessionSelectionList													8	nonlure	3	Body	2-Back	9	80	7	0	1	0	3	40	149028	2	13	85	146988	-1	0	0	0	""	3	2040	53	149041	-54	0																10												
WM080112	128127_fnca	1	1	1	-448310837	1	75.031	75.031	2.0.10.147	2.0.10.242	2.0.10.242	1.0.0.439	7	234	2	3	Verdana	1	80	0	0	0	WM Stimuli\	0.8	1293.5	0.8	732.5	1	737	1	799	0.9	696.777777777778	1	610	1	1003.7	1	547	13	412413	3	412401	27	40	412440	-999999	412416	0	3	TrialsPROC	BP_005_BP19_BA.png	1	2	11	SessionSelectionList													9	lure	3	Body	2-Back	10	80	8	0	0	0	1	39	151586	2	14	59	149547	-1	150962	1	1415	3	3	2039	53	151600	-54	0																11												
WM080112	128127_fnca	1	1	1	-448310837	1	75.031	75.031	2.0.10.147	2.0.10.242	2.0.10.242	1.0.0.439	7	234	2	3	Verdana	1	80	0	0	0	WM Stimuli\	0.8	1293.5	0.8	732.5	1	737	1	799	0.9	696.777777777778	1	610	1	1003.7	1	547	13	412413	3	412401	27	40	412440	-999999	412416	0	3	TrialsPROC	BP_004_BP18_BA.png	1	2	12	SessionSelectionList													10	target	2	Body	2-Back	11	80	9	0	0	0	1	39	154145	2	14	59	152106	-1	153331	1	1225	2	2	2039	53	154159	-54	0																12												
WM080112	128127_fnca	1	1	1	-448310837	1	75.031	75.031	2.0.10.147	2.0.10.242	2.0.10.242	1.0.0.439	7	234	2	3	Verdana	1	80	0	0	0	WM Stimuli\	0.8	1293.5	0.8	732.5	1	737	1	799	0.9	696.777777777778	1	610	1	1003.7	1	547	13	412413	3	412401	27	40	412440	-999999	412416	0	4	Cue0BackPROC	FC_001_M1.png	1	2	13	SessionSelectionList																																										46	154652	-47	0												13												
WM080112	128127_fnca	1	1	1	-448310837	1	75.031	75.031	2.0.10.147	2.0.10.242	2.0.10.242	1.0.0.439	7	234	2	3	Verdana	1	80	0	0	0	WM Stimuli\	0.8	1293.5	0.8	732.5	1	737	1	799	0.9	696.777777777778	1	610	1	1003.7	1	547	13	412413	3	412401	27	40	412440	-999999	412416	0	5	TrialsPROC	FC_005_M3.png	1	2	14	SessionSelectionList														nonlure	3	Face	0-Back	12	80	10	0	0	100	1	39	159223	2	14	78	157184	-1	157902	1	718	3	3	2039	53	159237	-54	0					1											14												
WM080112	128127_fnca	1	1	1	-448310837	1	75.031	75.031	2.0.10.147	2.0.10.242	2.0.10.242	1.0.0.439	7	234	2	3	Verdana	1	80	0	0	0	WM Stimuli\	0.8	1293.5	0.8	732.5	1	737	1	799	0.9	696.777777777778	1	610	1	1003.7	1	547	13	412413	3	412401	27	40	412440	-999999	412416	0	5	TrialsPROC	FC_001_M1.png	1	2	15	SessionSelectionList														target	2	Face	0-Back	13	80	11	0	0	100	1	40	161796	2	13	72	159756	-1	160232	1	476	2	2	2040	53	161809	-54	0					2											15												
WM080112	128127_fnca	1	1	1	-448310837	1	75.031	75.031	2.0.10.147	2.0.10.242	2.0.10.242	1.0.0.439	7	234	2	3	Verdana	1	80	0	0	0	WM Stimuli\	0.8	1293.5	0.8	732.5	1	737	1	799	0.9	696.777777777778	1	610	1	1003.7	1	547	13	412413	3	412401	27	40	412440	-999999	412416	0	5	TrialsPROC	FC_003_M2.png	1	2	16	SessionSelectionList														nonlure	3	Face	0-Back	14	80	12	0	0	100	1	39	164381	2	14	86	162342	-1	163050	1	708	3	3	2039	53	164395	-54	0					3											16												
WM080112	128127_fnca	1	1	1	-448310837	1	75.031	75.031	2.0.10.147	2.0.10.242	2.0.10.242	1.0.0.439	7	234	2	3	Verdana	1	80	0	0	0	WM Stimuli\	0.8	1293.5	0.8	732.5	1	737	1	799	0.9	696.777777777778	1	610	1	1003.7	1	547	13	412413	3	412401	27	40	412440	-999999	412416	0	5	TrialsPROC	FC_004_F2.png	1	2	17	SessionSelectionList														nonlure	3	Face	0-Back	15	80	13	0	0	100	2	39	166967	1	13	86	164928	-1	165707	1	779	3	3	2039	52	166980	-53	0					4											17												
WM080112	128127_fnca	1	1	1	-448310837	1	75.031	75.031	2.0.10.147	2.0.10.242	2.0.10.242	1.0.0.439	7	234	2	3	Verdana	1	80	0	0	0	WM Stimuli\	0.8	1293.5	0.8	732.5	1	737	1	799	0.9	696.777777777778	1	610	1	1003.7	1	547	13	412413	3	412401	27	40	412440	-999999	412416	0	5	TrialsPROC	FC_004_F2.png	1	2	18	SessionSelectionList														lure	3	Face	0-Back	16	80	14	0	0	100	3	39	169539	2	14	72	167500	-1	168405	1	905	3	3	2039	53	169553	-54	0					5											18												
WM080112	128127_fnca	1	1	1	-448310837	1	75.031	75.031	2.0.10.147	2.0.10.242	2.0.10.242	1.0.0.439	7	234	2	3	Verdana	1	80	0	0	0	WM Stimuli\	0.8	1293.5	0.8	732.5	1	737	1	799	0.9	696.777777777778	1	610	1	1003.7	1	547	13	412413	3	412401	27	40	412440	-999999	412416	0	5	TrialsPROC	FC_001_M1.png	1	2	19	SessionSelectionList														target	2	Face	0-Back	17	80	15	0	0	100	1	39	172111	3	14	72	170072	-1	170814	1	742	2	2	2039	53	172125	-54	0					6											19												
WM080112	128127_fnca	1	1	1	-448310837	1	75.031	75.031	2.0.10.147	2.0.10.242	2.0.10.242	1.0.0.439	7	234	2	3	Verdana	1	80	0	0	0	WM Stimuli\	0.8	1293.5	0.8	732.5	1	737	1	799	0.9	696.777777777778	1	610	1	1003.7	1	547	13	412413	3	412401	27	40	412440	-999999	412416	0	5	TrialsPROC	FC_006_F3.png	1	2	20	SessionSelectionList														nonlure	3	Face	0-Back	18	80	16	0	0	100	1	39	174697	3	13	86	172658	-1	173388	1	730	3	3	2039	52	174710	-53	0					7											20												
WM080112	128127_fnca	1	1	1	-448310837	1	75.031	75.031	2.0.10.147	2.0.10.242	2.0.10.242	1.0.0.439	7	234	2	3	Verdana	1	80	0	0	0	WM Stimuli\	0.8	1293.5	0.8	732.5	1	737	1	799	0.9	696.777777777778	1	610	1	1003.7	1	547	13	412413	3	412401	27	40	412440	-999999	412416	0	5	TrialsPROC	FC_006_F3.png	1	2	21	SessionSelectionList														lure	3	Face	0-Back	19	80	17	0	0	100	2	39	177269	3	14	72	175230	-1	176066	1	836	3	3	2039	53	177283	-54	0					8											21												
WM080112	128127_fnca	1	1	1	-448310837	1	75.031	75.031	2.0.10.147	2.0.10.242	2.0.10.242	1.0.0.439	7	234	2	3	Verdana	1	80	0	0	0	WM Stimuli\	0.8	1293.5	0.8	732.5	1	737	1	799	0.9	696.777777777778	1	610	1	1003.7	1	547	13	412413	3	412401	27	40	412440	-999999	412416	0	5	TrialsPROC	FC_003_M2.png	1	2	22	SessionSelectionList														lure	3	Face	0-Back	20	80	18	0	0	100	3	40	179842	2	13	72	177802	-1	179080	1	1278	3	3	2040	53	179855	-54	0					9											22												
WM080112	128127_fnca	1	1	1	-448310837	1	75.031	75.031	2.0.10.147	2.0.10.242	2.0.10.242	1.0.0.439	7	234	2	3	Verdana	1	80	0	0	0	WM Stimuli\	0.8	1293.5	0.8	732.5	1	737	1	799	0.9	696.777777777778	1	610	1	1003.7	1	547	13	412413	3	412401	27	40	412440	-999999	412416	0	5	TrialsPROC	FC_002_F1.png	1	2	23	SessionSelectionList														nonlure	3	Face	0-Back	21	80	19	0	0	100	4	39	182427	2	14	86	180388	-1	181206	1	818	3	3	2039	53	182441	-54	0					10											23												
WM080112	128127_fnca	1	1	1	-448310837	1	75.031	75.031	2.0.10.147	2.0.10.242	2.0.10.242	1.0.0.439	7	234	2	3	Verdana	1	80	0	0	0	WM Stimuli\	0.8	1293.5	0.8	732.5	1	737	1	799	0.9	696.777777777778	1	610	1	1003.7	1	547	13	412413	3	412401	27	40	412440	-999999	412416	0	6	Fix15secPROC	""	1	2	24	SessionSelectionList																																															6	182894	-7	0							24												
WM080112	128127_fnca	1	1	1	-448310837	1	75.031	75.031	2.0.10.147	2.0.10.242	2.0.10.242	1.0.0.439	7	234	2	3	Verdana	1	80	0	0	0	WM Stimuli\	0.8	1293.5	0.8	732.5	1	737	1	799	0.9	696.777777777778	1	610	1	1003.7	1	547	13	412413	3	412401	27	40	412440	-999999	412416	0	7	Cue2BackPROC	""	1	2	25	SessionSelectionList									13	197901	-14	0																																													25												
WM080112	128127_fnca	1	1	1	-448310837	1	75.031	75.031	2.0.10.147	2.0.10.242	2.0.10.242	1.0.0.439	7	234	2	3	Verdana	1	80	0	0	0	WM Stimuli\	0.8	1293.5	0.8	732.5	1	737	1	799	0.9	696.777777777778	1	610	1	1003.7	1	547	13	412413	3	412401	27	40	412440	-999999	412416	0	8	TrialsPROC	TO_001_TOOL1_BA.png	1	2	26	SessionSelectionList														nonlure	3	Tools	2-Back	22	80	20	0	0	100	5	39	202512	2	14	85	200473	-1	201139	1	666	3	3	2039	53	202526	-54	0										1						26												
WM080112	128127_fnca	1	1	1	-448310837	1	75.031	75.031	2.0.10.147	2.0.10.242	2.0.10.242	1.0.0.439	7	234	2	3	Verdana	1	80	0	0	0	WM Stimuli\	0.8	1293.5	0.8	732.5	1	737	1	799	0.9	696.777777777778	1	610	1	1003.7	1	547	13	412413	3	412401	27	40	412440	-999999	412416	0	8	TrialsPROC	TO_002_TOOL2_BA.png	1	2	27	SessionSelectionList														nonlure	3	Tools	2-Back	23	80	21	0	0	100	6	39	205098	2	13	86	203059	-1	203525	1	466	3	3	2039	52	205111	-53	0										2						27												
WM080112	128127_fnca	1	1	1	-448310837	1	75.031	75.031	2.0.10.147	2.0.10.242	2.0.10.242	1.0.0.439	7	234	2	3	Verdana	1	80	0	0	0	WM Stimuli\	0.8	1293.5	0.8	732.5	1	737	1	799	0.9	696.777777777778	1	610	1	1003.7	1	547	13	412413	3	412401	27	40	412440	-999999	412416	0	8	TrialsPROC	TO_004_TOOL4_BA.png	1	2	28	SessionSelectionList														nonlure	3	Tools	2-Back	24	80	22	0	0	100	7	40	207684	1	13	85	205644	-1	206879	1	1235	3	3	2040	53	207697	-54	0										3						28												
WM080112	128127_fnca	1	1	1	-448310837	1	75.031	75.031	2.0.10.147	2.0.10.242	2.0.10.242	1.0.0.439	7	234	2	3	Verdana	1	80	0	0	0	WM Stimuli\	0.8	1293.5	0.8	732.5	1	737	1	799	0.9	696.777777777778	1	610	1	1003.7	1	547	13	412413	3	412401	27	40	412440	-999999	412416	0	8	TrialsPROC	TO_002_TOOL2_BA.png	1	2	29	SessionSelectionList														target	2	Tools	2-Back	25	80	23	0	0	100	1	40	210243	2	13	59	208203	-1	209235	1	1032	2	2	2040	53	210256	-54	0										4						29												
WM080112	128127_fnca	1	1	1	-448310837	1	75.031	75.031	2.0.10.147	2.0.10.242	2.0.10.242	1.0.0.439	7	234	2	3	Verdana	1	80	0	0	0	WM Stimuli\	0.8	1293.5	0.8	732.5	1	737	1	799	0.9	696.777777777778	1	610	1	1003.7	1	547	13	412413	3	412401	27	40	412440	-999999	412416	0	8	TrialsPROC	TO_001_TOOL1_BA.png	1	2	30	SessionSelectionList														lure	3	Tools	2-Back	26	80	24	0	0	100	1	39	212801	2	14	59	210762	-1	211829	1	1067	3	3	2039	53	212815	-54	0										5						30												
WM080112	128127_fnca	1	1	1	-448310837	1	75.031	75.031	2.0.10.147	2.0.10.242	2.0.10.242	1.0.0.439	7	234	2	3	Verdana	1	80	0	0	0	WM Stimuli\	0.8	1293.5	0.8	732.5	1	737	1	799	0.9	696.777777777778	1	610	1	1003.7	1	547	13	412413	3	412401	27	40	412440	-999999	412416	0	8	TrialsPROC	TO_004_TOOL4_BA.png	1	2	31	SessionSelectionList														lure	3	Tools	2-Back	27	80	25	0	0	100	2	39	215360	2	14	59	213321	-1	215042	1	1721	3	3	2039	53	215374	-54	0										6						31												
WM080112	128127_fnca	1	1	1	-448310837	1	75.031	75.031	2.0.10.147	2.0.10.242	2.0.10.242	1.0.0.439	7	234	2	3	Verdana	1	80	0	0	0	WM Stimuli\	0.8	1293.5	0.8	732.5	1	737	1	799	0.9	696.777777777778	1	610	1	1003.7	1	547	13	412413	3	412401	27	40	412440	-999999	412416	0	8	TrialsPROC	TO_006_TOOL6_BA.png	1	2	32	SessionSelectionList														nonlure	3	Tools	2-Back	28	80	26	0	0	100	3	39	217946	3	13	86	215907	-1	217139	1	1232	3	3	2039	52	217959	-53	0										7						32												
WM080112	128127_fnca	1	1	1	-448310837	1	75.031	75.031	2.0.10.147	2.0.10.242	2.0.10.242	1.0.0.439	7	234	2	3	Verdana	1	80	0	0	0	WM Stimuli\	0.8	1293.5	0.8	732.5	1	737	1	799	0.9	696.777777777778	1	610	1	1003.7	1	547	13	412413	3	412401	27	40	412440	-999999	412416	0	8	TrialsPROC	TO_005_TOOL5_BA.png	1	2	33	SessionSelectionList														nonlure	3	Tools	2-Back	29	80	27	0	0	100	4	40	220532	1	13	85	218492	-1	219916	1	1424	3	3	2040	53	220545	-54	0										8						33												
WM080112	128127_fnca	1	1	1	-448310837	1	75.031	75.031	2.0.10.147	2.0.10.242	2.0.10.242	1.0.0.439	7	234	2	3	Verdana	1	80	0	0	0	WM Stimuli\	0.8	1293.5	0.8	732.5	1	737	1	799	0.9	696.777777777778	1	610	1	1003.7	1	547	13	412413	3	412401	27	40	412440	-999999	412416	0	8	TrialsPROC	TO_006_TOOL6_BA.png	1	2	34	SessionSelectionList														target	2	Tools	2-Back	30	80	28	0	0	100	1	40	223091	2	13	59	221051	-1	221665	1	614	2	2	2040	53	223104	-54	0										9						34												
WM080112	128127_fnca	1	1	1	-448310837	1	75.031	75.031	2.0.10.147	2.0.10.242	2.0.10.242	1.0.0.439	7	234	2	3	Verdana	1	80	0	0	0	WM Stimuli\	0.8	1293.5	0.8	732.5	1	737	1	799	0.9	696.777777777778	1	610	1	1003.7	1	547	13	412413	3	412401	27	40	412440	-999999	412416	0	8	TrialsPROC	TO_003_TOOL3_BA.png	1	2	35	SessionSelectionList														nonlure	3	Tools	2-Back	31	80	29	0	0	100	1	39	225676	2	14	86	223637	-1	224217	1	580	3	3	2039	53	225690	-54	0										10						35												
WM080112	128127_fnca	1	1	1	-448310837	1	75.031	75.031	2.0.10.147	2.0.10.242	2.0.10.242	1.0.0.439	7	234	2	3	Verdana	1	80	0	0	0	WM Stimuli\	0.8	1293.5	0.8	732.5	1	737	1	799	0.9	696.777777777778	1	610	1	1003.7	1	547	13	412413	3	412401	27	40	412440	-999999	412416	0	9	Cue0BackPROC	BP_007_BP20_BA.png	1	2	36	SessionSelectionList																																										46	226183	-47	0												36												
WM080112	128127_fnca	1	1	1	-448310837	1	75.031	75.031	2.0.10.147	2.0.10.242	2.0.10.242	1.0.0.439	7	234	2	3	Verdana	1	80	0	0	0	WM Stimuli\	0.8	1293.5	0.8	732.5	1	737	1	799	0.9	696.777777777778	1	610	1	1003.7	1	547	13	412413	3	412401	27	40	412440	-999999	412416	0	10	TrialsPROC	BP_007_BP20_BA.png	1	2	37	SessionSelectionList														target	2	Body	0-Back	32	80	30	0	0	100	1	39	230727	2	14	51	228688	-1	229905	1	1217	2	2	2039	53	230741	-54	0											1					37												
WM080112	128127_fnca	1	1	1	-448310837	1	75.031	75.031	2.0.10.147	2.0.10.242	2.0.10.242	1.0.0.439	7	234	2	3	Verdana	1	80	0	0	0	WM Stimuli\	0.8	1293.5	0.8	732.5	1	737	1	799	0.9	696.777777777778	1	610	1	1003.7	1	547	13	412413	3	412401	27	40	412440	-999999	412416	0	10	TrialsPROC	BP_011_BP4_BA.png	1	2	38	SessionSelectionList														nonlure	3	Body	0-Back	33	80	31	0	0	100	1	39	233313	3	14	86	231274	-1	231844	1	570	3	3	2039	53	233327	-54	0											2					38												
WM080112	128127_fnca	1	1	1	-448310837	1	75.031	75.031	2.0.10.147	2.0.10.242	2.0.10.242	1.0.0.439	7	234	2	3	Verdana	1	80	0	0	0	WM Stimuli\	0.8	1293.5	0.8	732.5	1	737	1	799	0.9	696.777777777778	1	610	1	1003.7	1	547	13	412413	3	412401	27	40	412440	-999999	412416	0	10	TrialsPROC	BP_010_BP3_BA.png	1	2	39	SessionSelectionList														nonlure	3	Body	0-Back	34	80	32	0	0	100	2	39	235912	2	13	99	233873	-1	234404	1	531	3	3	2039	52	235925	-53	0											3					39												
WM080112	128127_fnca	1	1	1	-448310837	1	75.031	75.031	2.0.10.147	2.0.10.242	2.0.10.242	1.0.0.439	7	234	2	3	Verdana	1	80	0	0	0	WM Stimuli\	0.8	1293.5	0.8	732.5	1	737	1	799	0.9	696.777777777778	1	610	1	1003.7	1	547	13	412413	3	412401	27	40	412440	-999999	412416	0	10	TrialsPROC	BP_008_BP21_BA.png	1	2	40	SessionSelectionList														nonlure	3	Body	0-Back	35	80	33	0	0	100	3	40	238498	1	13	85	236458	-1	237169	1	711	3	3	2040	53	238511	-54	0											4					40												
WM080112	128127_fnca	1	1	1	-448310837	1	75.031	75.031	2.0.10.147	2.0.10.242	2.0.10.242	1.0.0.439	7	234	2	3	Verdana	1	80	0	0	0	WM Stimuli\	0.8	1293.5	0.8	732.5	1	737	1	799	0.9	696.777777777778	1	610	1	1003.7	1	547	13	412413	3	412401	27	40	412440	-999999	412416	0	10	TrialsPROC	BP_011_BP4_BA.png	1	2	41	SessionSelectionList														lure	3	Body	0-Back	36	80	34	0	0	93	1	39	241057	1	13	60	239018	-1	239532	0	514	2	3	2039	52	241070	-53	0											5					41												
WM080112	128127_fnca	1	1	1	-448310837	1	75.031	75.031	2.0.10.147	2.0.10.242	2.0.10.242	1.0.0.439	7	234	2	3	Verdana	1	80	0	0	0	WM Stimuli\	0.8	1293.5	0.8	732.5	1	737	1	799	0.9	696.777777777778	1	610	1	1003.7	1	547	13	412413	3	412401	27	40	412440	-999999	412416	0	10	TrialsPROC	BP_009_BP22_BA.png	1	2	42	SessionSelectionList														nonlure	3	Body	0-Back	37	80	35	0	0	94	1	39	243642	2	14	85	241603	-1	242226	1	623	3	3	2039	53	243656	-54	0											6					42												
WM080112	128127_fnca	1	1	1	-448310837	1	75.031	75.031	2.0.10.147	2.0.10.242	2.0.10.242	1.0.0.439	7	234	2	3	Verdana	1	80	0	0	0	WM Stimuli\	0.8	1293.5	0.8	732.5	1	737	1	799	0.9	696.777777777778	1	610	1	1003.7	1	547	13	412413	3	412401	27	40	412440	-999999	412416	0	10	TrialsPROC	BP_009_BP22_BA.png	1	2	43	SessionSelectionList														lure	3	Body	0-Back	38	80	36	0	0	94	2	39	246201	2	14	59	244162	-1	244601	1	439	3	3	2039	53	246215	-54	0											7					43												
WM080112	128127_fnca	1	1	1	-448310837	1	75.031	75.031	2.0.10.147	2.0.10.242	2.0.10.242	1.0.0.439	7	234	2	3	Verdana	1	80	0	0	0	WM Stimuli\	0.8	1293.5	0.8	732.5	1	737	1	799	0.9	696.777777777778	1	610	1	1003.7	1	547	13	412413	3	412401	27	40	412440	-999999	412416	0	10	TrialsPROC	BP_008_BP21_BA.png	1	2	44	SessionSelectionList														lure	3	Body	0-Back	39	80	37	0	0	94	3	39	248760	2	14	59	246721	-1	247379	1	658	3	3	2039	53	248774	-54	0											8					44												
WM080112	128127_fnca	1	1	1	-448310837	1	75.031	75.031	2.0.10.147	2.0.10.242	2.0.10.242	1.0.0.439	7	234	2	3	Verdana	1	80	0	0	0	WM Stimuli\	0.8	1293.5	0.8	732.5	1	737	1	799	0.9	696.777777777778	1	610	1	1003.7	1	547	13	412413	3	412401	27	40	412440	-999999	412416	0	10	TrialsPROC	BP_007_BP20_BA.png	1	2	45	SessionSelectionList														target	2	Body	0-Back	40	80	38	0	0	89	4	39	251319	1	14	59	249280	-1	250490	0	1210	3	2	2039	53	251333	-54	0											9					45												
WM080112	128127_fnca	1	1	1	-448310837	1	75.031	75.031	2.0.10.147	2.0.10.242	2.0.10.242	1.0.0.439	7	234	2	3	Verdana	1	80	0	0	0	WM Stimuli\	0.8	1293.5	0.8	732.5	1	737	1	799	0.9	696.777777777778	1	610	1	1003.7	1	547	13	412413	3	412401	27	40	412440	-999999	412416	0	10	TrialsPROC	BP_012_BP5_BA.png	1	2	46	SessionSelectionList														nonlure	3	Body	0-Back	41	80	39	0	0	90	5	39	253905	2	13	86	251866	-1	252977	1	1111	3	3	2039	52	253918	-53	0											10					46												
WM080112	128127_fnca	1	1	1	-448310837	1	75.031	75.031	2.0.10.147	2.0.10.242	2.0.10.242	1.0.0.439	7	234	2	3	Verdana	1	80	0	0	0	WM Stimuli\	0.8	1293.5	0.8	732.5	1	737	1	799	0.9	696.777777777778	1	610	1	1003.7	1	547	13	412413	3	412401	27	40	412440	-999999	412416	0	11	Fix15secPROC	""	1	2	47	SessionSelectionList																																															5	254371	-6	0							47												
WM080112	128127_fnca	1	1	1	-448310837	1	75.031	75.031	2.0.10.147	2.0.10.242	2.0.10.242	1.0.0.439	7	234	2	3	Verdana	1	80	0	0	0	WM Stimuli\	0.8	1293.5	0.8	732.5	1	737	1	799	0.9	696.777777777778	1	610	1	1003.7	1	547	13	412413	3	412401	27	40	412440	-999999	412416	0	12	Cue0BackPROC	PL_001_92012.png	1	2	48	SessionSelectionList																																										39	269405	-40	0												48												
WM080112	128127_fnca	1	1	1	-448310837	1	75.031	75.031	2.0.10.147	2.0.10.242	2.0.10.242	1.0.0.439	7	234	2	3	Verdana	1	80	0	0	0	WM Stimuli\	0.8	1293.5	0.8	732.5	1	737	1	799	0.9	696.777777777778	1	610	1	1003.7	1	547	13	412413	3	412401	27	40	412440	-999999	412416	0	13	TrialsPROC	PL_003_92016.png	1	2	49	SessionSelectionList														nonlure	3	Place	0-Back	42	80	40	0	0	90	6	39	273990	1	13	85	271951	-1	272702	1	751	3	3	2039	52	274003	-53	0												1				49												
WM080112	128127_fnca	1	1	1	-448310837	1	75.031	75.031	2.0.10.147	2.0.10.242	2.0.10.242	1.0.0.439	7	234	2	3	Verdana	1	80	0	0	0	WM Stimuli\	0.8	1293.5	0.8	732.5	1	737	1	799	0.9	696.777777777778	1	610	1	1003.7	1	547	13	412413	3	412401	27	40	412440	-999999	412416	0	13	TrialsPROC	PL_003_92016.png	1	2	50	SessionSelectionList														lure	3	Place	0-Back	43	80	41	0	0	91	7	39	276562	1	14	72	274523	-1	275257	1	734	3	3	2039	53	276576	-54	0												2				50												
WM080112	128127_fnca	1	1	1	-448310837	1	75.031	75.031	2.0.10.147	2.0.10.242	2.0.10.242	1.0.0.439	7	234	2	3	Verdana	1	80	0	0	0	WM Stimuli\	0.8	1293.5	0.8	732.5	1	737	1	799	0.9	696.777777777778	1	610	1	1003.7	1	547	13	412413	3	412401	27	40	412440	-999999	412416	0	13	TrialsPROC	PL_006_92025.png	1	2	51	SessionSelectionList														nonlure	3	Place	0-Back	44	80	42	0	0	91	8	39	279148	1	13	86	277109	-1	277838	1	729	3	3	2039	52	279161	-53	0												3				51												
WM080112	128127_fnca	1	1	1	-448310837	1	75.031	75.031	2.0.10.147	2.0.10.242	2.0.10.242	1.0.0.439	7	234	2	3	Verdana	1	80	0	0	0	WM Stimuli\	0.8	1293.5	0.8	732.5	1	737	1	799	0.9	696.777777777778	1	610	1	1003.7	1	547	13	412413	3	412401	27	40	412440	-999999	412416	0	13	TrialsPROC	PL_001_92012.png	1	2	52	SessionSelectionList														target	2	Place	0-Back	45	80	43	0	0	92	1	39	281707	2	13	59	279668	-1	280230	1	562	2	2	2039	52	281720	-53	0												4				52												
WM080112	128127_fnca	1	1	1	-448310837	1	75.031	75.031	2.0.10.147	2.0.10.242	2.0.10.242	1.0.0.439	7	234	2	3	Verdana	1	80	0	0	0	WM Stimuli\	0.8	1293.5	0.8	732.5	1	737	1	799	0.9	696.777777777778	1	610	1	1003.7	1	547	13	412413	3	412401	27	40	412440	-999999	412416	0	13	TrialsPROC	PL_004_92023.png	1	2	53	SessionSelectionList														nonlure	3	Place	0-Back	46	80	44	0	0	92	1	39	284292	3	14	85	282253	-1	282806	1	553	3	3	2039	53	284306	-54	0												5				53												
WM080112	128127_fnca	1	1	1	-448310837	1	75.031	75.031	2.0.10.147	2.0.10.242	2.0.10.242	1.0.0.439	7	234	2	3	Verdana	1	80	0	0	0	WM Stimuli\	0.8	1293.5	0.8	732.5	1	737	1	799	0.9	696.777777777778	1	610	1	1003.7	1	547	13	412413	3	412401	27	40	412440	-999999	412416	0	13	TrialsPROC	PL_005_92024.png	1	2	54	SessionSelectionList														nonlure	3	Place	0-Back	47	80	45	0	0	92	2	39	286878	2	13	86	284839	-1	285328	1	489	3	3	2039	52	286891	-53	0												6				54												
WM080112	128127_fnca	1	1	1	-448310837	1	75.031	75.031	2.0.10.147	2.0.10.242	2.0.10.242	1.0.0.439	7	234	2	3	Verdana	1	80	0	0	0	WM Stimuli\	0.8	1293.5	0.8	732.5	1	737	1	799	0.9	696.777777777778	1	610	1	1003.7	1	547	13	412413	3	412401	27	40	412440	-999999	412416	0	13	TrialsPROC	PL_001_92012.png	1	2	55	SessionSelectionList														target	2	Place	0-Back	48	80	46	0	0	93	1	39	289450	2	14	72	287411	-1	288025	1	614	2	2	2039	53	289464	-54	0												7				55												
WM080112	128127_fnca	1	1	1	-448310837	1	75.031	75.031	2.0.10.147	2.0.10.242	2.0.10.242	1.0.0.439	7	234	2	3	Verdana	1	80	0	0	0	WM Stimuli\	0.8	1293.5	0.8	732.5	1	737	1	799	0.9	696.777777777778	1	610	1	1003.7	1	547	13	412413	3	412401	27	40	412440	-999999	412416	0	13	TrialsPROC	PL_002_92014.png	1	2	56	SessionSelectionList														nonlure	3	Place	0-Back	49	80	47	0	0	93	1	39	292036	2	13	86	289997	-1	290600	1	603	3	3	2039	52	292049	-53	0												8				56												
WM080112	128127_fnca	1	1	1	-448310837	1	75.031	75.031	2.0.10.147	2.0.10.242	2.0.10.242	1.0.0.439	7	234	2	3	Verdana	1	80	0	0	0	WM Stimuli\	0.8	1293.5	0.8	732.5	1	737	1	799	0.9	696.777777777778	1	610	1	1003.7	1	547	13	412413	3	412401	27	40	412440	-999999	412416	0	13	TrialsPROC	PL_004_92023.png	1	2	57	SessionSelectionList														lure	3	Place	0-Back	50	80	48	0	0	93	2	39	294608	1	14	72	292569	-1	293098	1	529	3	3	2039	53	294622	-54	0												9				57												
WM080112	128127_fnca	1	1	1	-448310837	1	75.031	75.031	2.0.10.147	2.0.10.242	2.0.10.242	1.0.0.439	7	234	2	3	Verdana	1	80	0	0	0	WM Stimuli\	0.8	1293.5	0.8	732.5	1	737	1	799	0.9	696.777777777778	1	610	1	1003.7	1	547	13	412413	3	412401	27	40	412440	-999999	412416	0	13	TrialsPROC	PL_006_92025.png	1	2	58	SessionSelectionList														lure	3	Place	0-Back	51	80	49	0	0	93	3	39	297180	3	14	72	295141	-1	295677	1	536	3	3	2039	53	297194	-54	0												10				58												
WM080112	128127_fnca	1	1	1	-448310837	1	75.031	75.031	2.0.10.147	2.0.10.242	2.0.10.242	1.0.0.439	7	234	2	3	Verdana	1	80	0	0	0	WM Stimuli\	0.8	1293.5	0.8	732.5	1	737	1	799	0.9	696.777777777778	1	610	1	1003.7	1	547	13	412413	3	412401	27	40	412440	-999999	412416	0	14	Cue2BackPROC	""	1	2	59	SessionSelectionList									6	297647	-7	0																																													59												
WM080112	128127_fnca	1	1	1	-448310837	1	75.031	75.031	2.0.10.147	2.0.10.242	2.0.10.242	1.0.0.439	7	234	2	3	Verdana	1	80	0	0	0	WM Stimuli\	0.8	1293.5	0.8	732.5	1	737	1	799	0.9	696.777777777778	1	610	1	1003.7	1	547	13	412413	3	412401	27	40	412440	-999999	412416	0	15	TrialsPROC	FC_010_F5.png	1	2	60	SessionSelectionList														nonlure	3	Face	2-Back	52	80	50	0	0	93	4	38	302258	3	14	79	300220	-1	300683	1	463	3	3	2038	52	302272	-53	0													1			60												
WM080112	128127_fnca	1	1	1	-448310837	1	75.031	75.031	2.0.10.147	2.0.10.242	2.0.10.242	1.0.0.439	7	234	2	3	Verdana	1	80	0	0	0	WM Stimuli\	0.8	1293.5	0.8	732.5	1	737	1	799	0.9	696.777777777778	1	610	1	1003.7	1	547	13	412413	3	412401	27	40	412440	-999999	412416	0	15	TrialsPROC	FC_012_F6.png	1	2	61	SessionSelectionList														nonlure	3	Face	2-Back	53	80	51	0	0	93	5	39	304844	2	13	85	302805	-1	303203	1	398	3	3	2039	52	304857	-53	0													2			61												
WM080112	128127_fnca	1	1	1	-448310837	1	75.031	75.031	2.0.10.147	2.0.10.242	2.0.10.242	1.0.0.439	7	234	2	3	Verdana	1	80	0	0	0	WM Stimuli\	0.8	1293.5	0.8	732.5	1	737	1	799	0.9	696.777777777778	1	610	1	1003.7	1	547	13	412413	3	412401	27	40	412440	-999999	412416	0	15	TrialsPROC	FC_010_F5.png	1	2	62	SessionSelectionList														target	2	Face	2-Back	54	80	52	0	0	93	1	39	307416	2	14	72	305377	-1	305888	1	511	2	2	2039	53	307430	-54	0													3			62												
WM080112	128127_fnca	1	1	1	-448310837	1	75.031	75.031	2.0.10.147	2.0.10.242	2.0.10.242	1.0.0.439	7	234	2	3	Verdana	1	80	0	0	0	WM Stimuli\	0.8	1293.5	0.8	732.5	1	737	1	799	0.9	696.777777777778	1	610	1	1003.7	1	547	13	412413	3	412401	27	40	412440	-999999	412416	0	15	TrialsPROC	FC_008_F4.png	1	2	63	SessionSelectionList														nonlure	3	Face	2-Back	55	80	53	0	0	93	1	39	310002	2	13	86	307963	-1	308721	1	758	3	3	2039	52	310015	-53	0													4			63												
WM080112	128127_fnca	1	1	1	-448310837	1	75.031	75.031	2.0.10.147	2.0.10.242	2.0.10.242	1.0.0.439	7	234	2	3	Verdana	1	80	0	0	0	WM Stimuli\	0.8	1293.5	0.8	732.5	1	737	1	799	0.9	696.777777777778	1	610	1	1003.7	1	547	13	412413	3	412401	27	40	412440	-999999	412416	0	15	TrialsPROC	FC_012_F6.png	1	2	64	SessionSelectionList														lure	3	Face	2-Back	56	80	54	0	0	93	2	39	312574	1	14	72	310535	-1	311555	1	1020	3	3	2039	53	312588	-54	0													5			64												
WM080112	128127_fnca	1	1	1	-448310837	1	75.031	75.031	2.0.10.147	2.0.10.242	2.0.10.242	1.0.0.439	7	234	2	3	Verdana	1	80	0	0	0	WM Stimuli\	0.8	1293.5	0.8	732.5	1	737	1	799	0.9	696.777777777778	1	610	1	1003.7	1	547	13	412413	3	412401	27	40	412440	-999999	412416	0	15	TrialsPROC	FC_008_F4.png	1	2	65	SessionSelectionList														target	2	Face	2-Back	57	80	55	0	0	93	1	39	315146	3	14	72	313107	-1	313802	1	695	2	2	2039	53	315160	-54	0													6			65												
WM080112	128127_fnca	1	1	1	-448310837	1	75.031	75.031	2.0.10.147	2.0.10.242	2.0.10.242	1.0.0.439	7	234	2	3	Verdana	1	80	0	0	0	WM Stimuli\	0.8	1293.5	0.8	732.5	1	737	1	799	0.9	696.777777777778	1	610	1	1003.7	1	547	13	412413	3	412401	27	40	412440	-999999	412416	0	15	TrialsPROC	FC_007_M4.png	1	2	66	SessionSelectionList														nonlure	3	Face	2-Back	58	80	56	0	0	93	1	39	317732	1	13	86	315693	-1	316270	1	577	3	3	2039	52	317745	-53	0													7			66												
WM080112	128127_fnca	1	1	1	-448310837	1	75.031	75.031	2.0.10.147	2.0.10.242	2.0.10.242	1.0.0.439	7	234	2	3	Verdana	1	80	0	0	0	WM Stimuli\	0.8	1293.5	0.8	732.5	1	737	1	799	0.9	696.777777777778	1	610	1	1003.7	1	547	13	412413	3	412401	27	40	412440	-999999	412416	0	15	TrialsPROC	FC_007_M4.png	1	2	67	SessionSelectionList														lure	3	Face	2-Back	59	80	57	0	0	93	2	39	320304	3	14	72	318265	-1	319309	1	1044	3	3	2039	53	320318	-54	0													8			67												
WM080112	128127_fnca	1	1	1	-448310837	1	75.031	75.031	2.0.10.147	2.0.10.242	2.0.10.242	1.0.0.439	7	234	2	3	Verdana	1	80	0	0	0	WM Stimuli\	0.8	1293.5	0.8	732.5	1	737	1	799	0.9	696.777777777778	1	610	1	1003.7	1	547	13	412413	3	412401	27	40	412440	-999999	412416	0	15	TrialsPROC	FC_009_M5.png	1	2	68	SessionSelectionList														nonlure	3	Face	2-Back	60	80	58	0	0	93	3	39	322903	3	14	99	320864	-1	321828	1	964	3	3	2039	53	322917	-54	0													9			68												
WM080112	128127_fnca	1	1	1	-448310837	1	75.031	75.031	2.0.10.147	2.0.10.242	2.0.10.242	1.0.0.439	7	234	2	3	Verdana	1	80	0	0	0	WM Stimuli\	0.8	1293.5	0.8	732.5	1	737	1	799	0.9	696.777777777778	1	610	1	1003.7	1	547	13	412413	3	412401	27	40	412440	-999999	412416	0	15	TrialsPROC	FC_011_M6.png	1	2	69	SessionSelectionList														nonlure	3	Face	2-Back	61	80	59	0	0	93	4	39	325489	1	13	86	323450	-1	324390	1	940	3	3	2039	52	325502	-53	0													10			69												
WM080112	128127_fnca	1	1	1	-448310837	1	75.031	75.031	2.0.10.147	2.0.10.242	2.0.10.242	1.0.0.439	7	234	2	3	Verdana	1	80	0	0	0	WM Stimuli\	0.8	1293.5	0.8	732.5	1	737	1	799	0.9	696.777777777778	1	610	1	1003.7	1	547	13	412413	3	412401	27	40	412440	-999999	412416	0	16	Fix15secPROC	""	1	2	70	SessionSelectionList																																															5	325955	-6	0							70												
WM080112	128127_fnca	1	1	1	-448310837	1	75.031	75.031	2.0.10.147	2.0.10.242	2.0.10.242	1.0.0.439	7	234	2	3	Verdana	1	80	0	0	0	WM Stimuli\	0.8	1293.5	0.8	732.5	1	737	1	799	0.9	696.777777777778	1	610	1	1003.7	1	547	13	412413	3	412401	27	40	412440	-999999	412416	0	17	Cue0BackPROC	TO_007_TOOL7_BA.png	1	2	71	SessionSelectionList																																										39	340989	-40	0												71												
WM080112	128127_fnca	1	1	1	-448310837	1	75.031	75.031	2.0.10.147	2.0.10.242	2.0.10.242	1.0.0.439	7	234	2	3	Verdana	1	80	0	0	0	WM Stimuli\	0.8	1293.5	0.8	732.5	1	737	1	799	0.9	696.777777777778	1	610	1	1003.7	1	547	13	412413	3	412401	27	40	412440	-999999	412416	0	18	TrialsPROC	TO_010_TOOL10_BA.png	1	2	72	SessionSelectionList														nonlure	3	Tools	0-Back	62	80	60	0	0	94	5	40	345561	1	13	71	343521	-1	344204	1	683	3	3	2040	53	345574	-54	0														1		72												
WM080112	128127_fnca	1	1	1	-448310837	1	75.031	75.031	2.0.10.147	2.0.10.242	2.0.10.242	1.0.0.439	7	234	2	3	Verdana	1	80	0	0	0	WM Stimuli\	0.8	1293.5	0.8	732.5	1	737	1	799	0.9	696.777777777778	1	610	1	1003.7	1	547	13	412413	3	412401	27	40	412440	-999999	412416	0	18	TrialsPROC	TO_009_TOOL9_BA.png	1	2	73	SessionSelectionList														nonlure	3	Tools	0-Back	63	80	61	0	0	94	6	39	348146	2	14	86	346107	-1	346593	1	486	3	3	2039	53	348160	-54	0														2		73												
WM080112	128127_fnca	1	1	1	-448310837	1	75.031	75.031	2.0.10.147	2.0.10.242	2.0.10.242	1.0.0.439	7	234	2	3	Verdana	1	80	0	0	0	WM Stimuli\	0.8	1293.5	0.8	732.5	1	737	1	799	0.9	696.777777777778	1	610	1	1003.7	1	547	13	412413	3	412401	27	40	412440	-999999	412416	0	18	TrialsPROC	TO_009_TOOL9_BA.png	1	2	74	SessionSelectionList														lure	3	Tools	0-Back	64	80	62	0	0	94	7	39	350705	2	14	59	348666	-1	349176	1	510	3	3	2039	53	350719	-54	0														3		74												
WM080112	128127_fnca	1	1	1	-448310837	1	75.031	75.031	2.0.10.147	2.0.10.242	2.0.10.242	1.0.0.439	7	234	2	3	Verdana	1	80	0	0	0	WM Stimuli\	0.8	1293.5	0.8	732.5	1	737	1	799	0.9	696.777777777778	1	610	1	1003.7	1	547	13	412413	3	412401	27	40	412440	-999999	412416	0	18	TrialsPROC	TO_008_TOOL8_BA.png	1	2	75	SessionSelectionList														nonlure	3	Tools	0-Back	65	80	63	0	0	94	8	39	353291	1	13	86	351252	-1	351866	1	614	3	3	2039	52	353304	-53	0														4		75												
WM080112	128127_fnca	1	1	1	-448310837	1	75.031	75.031	2.0.10.147	2.0.10.242	2.0.10.242	1.0.0.439	7	234	2	3	Verdana	1	80	0	0	0	WM Stimuli\	0.8	1293.5	0.8	732.5	1	737	1	799	0.9	696.777777777778	1	610	1	1003.7	1	547	13	412413	3	412401	27	40	412440	-999999	412416	0	18	TrialsPROC	TO_011_TOOL11_BA.png	1	2	76	SessionSelectionList														nonlure	3	Tools	0-Back	66	80	64	0	0	94	9	39	355876	2	14	85	353837	-1	354284	1	447	3	3	2039	53	355890	-54	0														5		76												
WM080112	128127_fnca	1	1	1	-448310837	1	75.031	75.031	2.0.10.147	2.0.10.242	2.0.10.242	1.0.0.439	7	234	2	3	Verdana	1	80	0	0	0	WM Stimuli\	0.8	1293.5	0.8	732.5	1	737	1	799	0.9	696.777777777778	1	610	1	1003.7	1	547	13	412413	3	412401	27	40	412440	-999999	412416	0	18	TrialsPROC	TO_012_TOOL12_BA.png	1	2	77	SessionSelectionList														nonlure	3	Tools	0-Back	67	80	65	0	0	94	10	39	358475	2	14	99	356436	-1	356943	1	507	3	3	2039	53	358489	-54	0														6		77												
WM080112	128127_fnca	1	1	1	-448310837	1	75.031	75.031	2.0.10.147	2.0.10.242	2.0.10.242	1.0.0.439	7	234	2	3	Verdana	1	80	0	0	0	WM Stimuli\	0.8	1293.5	0.8	732.5	1	737	1	799	0.9	696.777777777778	1	610	1	1003.7	1	547	13	412413	3	412401	27	40	412440	-999999	412416	0	18	TrialsPROC	TO_010_TOOL10_BA.png	1	2	78	SessionSelectionList														lure	3	Tools	0-Back	68	80	66	0	0	95	11	39	361034	2	14	59	358995	-1	359502	1	507	3	3	2039	53	361048	-54	0														7		78												
WM080112	128127_fnca	1	1	1	-448310837	1	75.031	75.031	2.0.10.147	2.0.10.242	2.0.10.242	1.0.0.439	7	234	2	3	Verdana	1	80	0	0	0	WM Stimuli\	0.8	1293.5	0.8	732.5	1	737	1	799	0.9	696.777777777778	1	610	1	1003.7	1	547	13	412413	3	412401	27	40	412440	-999999	412416	0	18	TrialsPROC	TO_007_TOOL7_BA.png	1	2	79	SessionSelectionList														target	2	Tools	0-Back	69	80	67	0	0	95	1	39	363593	3	14	59	361554	-1	362185	1	631	2	2	2039	53	363607	-54	0														8		79												
WM080112	128127_fnca	1	1	1	-448310837	1	75.031	75.031	2.0.10.147	2.0.10.242	2.0.10.242	1.0.0.439	7	234	2	3	Verdana	1	80	0	0	0	WM Stimuli\	0.8	1293.5	0.8	732.5	1	737	1	799	0.9	696.777777777778	1	610	1	1003.7	1	547	13	412413	3	412401	27	40	412440	-999999	412416	0	18	TrialsPROC	TO_008_TOOL8_BA.png	1	2	80	SessionSelectionList														lure	3	Tools	0-Back	70	80	68	0	0	95	1	39	366152	2	14	59	364113	-1	364639	1	526	3	3	2039	53	366166	-54	0														9		80												
WM080112	128127_fnca	1	1	1	-448310837	1	75.031	75.031	2.0.10.147	2.0.10.242	2.0.10.242	1.0.0.439	7	234	2	3	Verdana	1	80	0	0	0	WM Stimuli\	0.8	1293.5	0.8	732.5	1	737	1	799	0.9	696.777777777778	1	610	1	1003.7	1	547	13	412413	3	412401	27	40	412440	-999999	412416	0	18	TrialsPROC	TO_007_TOOL7_BA.png	1	2	81	SessionSelectionList														target	2	Tools	0-Back	71	80	69	0	0	95	1	39	368711	2	14	59	366672	-1	367231	1	559	2	2	2039	53	368725	-54	0														10		81												
WM080112	128127_fnca	1	1	1	-448310837	1	75.031	75.031	2.0.10.147	2.0.10.242	2.0.10.242	1.0.0.439	7	234	2	3	Verdana	1	80	0	0	0	WM Stimuli\	0.8	1293.5	0.8	732.5	1	737	1	799	0.9	696.777777777778	1	610	1	1003.7	1	547	13	412413	3	412401	27	40	412440	-999999	412416	0	19	Cue2BackPROC	""	1	2	82	SessionSelectionList									6	369178	-7	0																																													82												
WM080112	128127_fnca	1	1	1	-448310837	1	75.031	75.031	2.0.10.147	2.0.10.242	2.0.10.242	1.0.0.439	7	234	2	3	Verdana	1	80	0	0	0	WM Stimuli\	0.8	1293.5	0.8	732.5	1	737	1	799	0.9	696.777777777778	1	610	1	1003.7	1	547	13	412413	3	412401	27	40	412440	-999999	412416	0	20	TrialsPROC	PL_007_92026.png	1	2	83	SessionSelectionList														nonlure	3	Place	2-Back	72	80	69	0	1	95	1	39	373776	1	13	65	371737	-1	0	0	0	""	3	2039	52	373789	-53	0															1	83												
WM080112	128127_fnca	1	1	1	-448310837	1	75.031	75.031	2.0.10.147	2.0.10.242	2.0.10.242	1.0.0.439	7	234	2	3	Verdana	1	80	0	0	0	WM Stimuli\	0.8	1293.5	0.8	732.5	1	737	1	799	0.9	696.777777777778	1	610	1	1003.7	1	547	13	412413	3	412401	27	40	412440	-999999	412416	0	20	TrialsPROC	PL_007_92026.png	1	2	84	SessionSelectionList														lure	3	Place	2-Back	73	80	70	0	0	95	1	39	376335	1	13	59	374296	-1	374985	1	689	3	3	2039	52	376348	-53	0															2	84												
WM080112	128127_fnca	1	1	1	-448310837	1	75.031	75.031	2.0.10.147	2.0.10.242	2.0.10.242	1.0.0.439	7	234	2	3	Verdana	1	80	0	0	0	WM Stimuli\	0.8	1293.5	0.8	732.5	1	737	1	799	0.9	696.777777777778	1	610	1	1003.7	1	547	13	412413	3	412401	27	40	412440	-999999	412416	0	20	TrialsPROC	PL_010_92038.png	1	2	85	SessionSelectionList														nonlure	3	Place	2-Back	74	80	71	0	0	95	2	39	378907	2	13	72	376868	-1	377781	1	913	3	3	2039	52	378920	-53	0															3	85												
WM080112	128127_fnca	1	1	1	-448310837	1	75.031	75.031	2.0.10.147	2.0.10.242	2.0.10.242	1.0.0.439	7	234	2	3	Verdana	1	80	0	0	0	WM Stimuli\	0.8	1293.5	0.8	732.5	1	737	1	799	0.9	696.777777777778	1	610	1	1003.7	1	547	13	412413	3	412401	27	40	412440	-999999	412416	0	20	TrialsPROC	PL_009_92037.png	1	2	86	SessionSelectionList														nonlure	3	Place	2-Back	75	80	72	0	0	95	3	40	381493	2	13	85	379453	-1	380099	1	646	3	3	2040	53	381506	-54	0															4	86												
WM080112	128127_fnca	1	1	1	-448310837	1	75.031	75.031	2.0.10.147	2.0.10.242	2.0.10.242	1.0.0.439	7	234	2	3	Verdana	1	80	0	0	0	WM Stimuli\	0.8	1293.5	0.8	732.5	1	737	1	799	0.9	696.777777777778	1	610	1	1003.7	1	547	13	412413	3	412401	27	40	412440	-999999	412416	0	20	TrialsPROC	PL_010_92038.png	1	2	87	SessionSelectionList														target	2	Place	2-Back	76	80	73	0	0	95	1	39	384052	2	13	60	382013	-1	382383	1	370	2	2	2039	52	384065	-53	0															5	87												
WM080112	128127_fnca	1	1	1	-448310837	1	75.031	75.031	2.0.10.147	2.0.10.242	2.0.10.242	1.0.0.439	7	234	2	3	Verdana	1	80	0	0	0	WM Stimuli\	0.8	1293.5	0.8	732.5	1	737	1	799	0.9	696.777777777778	1	610	1	1003.7	1	547	13	412413	3	412401	27	40	412440	-999999	412416	0	20	TrialsPROC	PL_009_92037.png	1	2	88	SessionSelectionList														target	2	Place	2-Back	77	80	74	0	0	95	2	39	386610	3	14	58	384571	-1	385608	1	1037	2	2	2039	53	386624	-54	0															6	88												
WM080112	128127_fnca	1	1	1	-448310837	1	75.031	75.031	2.0.10.147	2.0.10.242	2.0.10.242	1.0.0.439	7	234	2	3	Verdana	1	80	0	0	0	WM Stimuli\	0.8	1293.5	0.8	732.5	1	737	1	799	0.9	696.777777777778	1	610	1	1003.7	1	547	13	412413	3	412401	27	40	412440	-999999	412416	0	20	TrialsPROC	PL_008_92033.png	1	2	89	SessionSelectionList														nonlure	3	Place	2-Back	78	80	75	0	0	95	1	39	389196	3	14	86	387157	-1	387759	1	602	3	3	2039	53	389210	-54	0															7	89												
WM080112	128127_fnca	1	1	1	-448310837	1	75.031	75.031	2.0.10.147	2.0.10.242	2.0.10.242	1.0.0.439	7	234	2	3	Verdana	1	80	0	0	0	WM Stimuli\	0.8	1293.5	0.8	732.5	1	737	1	799	0.9	696.777777777778	1	610	1	1003.7	1	547	13	412413	3	412401	27	40	412440	-999999	412416	0	20	TrialsPROC	PL_012_92047.png	1	2	90	SessionSelectionList														nonlure	3	Place	2-Back	79	80	76	0	0	95	2	39	391782	2	13	86	389743	-1	390265	1	522	3	3	2039	52	391795	-53	0															8	90												
WM080112	128127_fnca	1	1	1	-448310837	1	75.031	75.031	2.0.10.147	2.0.10.242	2.0.10.242	1.0.0.439	7	234	2	3	Verdana	1	80	0	0	0	WM Stimuli\	0.8	1293.5	0.8	732.5	1	737	1	799	0.9	696.777777777778	1	610	1	1003.7	1	547	13	412413	3	412401	27	40	412440	-999999	412416	0	20	TrialsPROC	PL_012_92047.png	1	2	91	SessionSelectionList														lure	3	Place	2-Back	80	80	77	0	0	95	3	39	394354	1	13	72	392315	-1	393163	1	848	3	3	2039	52	394367	-53	0															9	91												
WM080112	128127_fnca	1	1	1	-448310837	1	75.031	75.031	2.0.10.147	2.0.10.242	2.0.10.242	1.0.0.439	7	234	2	3	Verdana	1	80	0	0	0	WM Stimuli\	0.8	1293.5	0.8	732.5	1	737	1	799	0.9	696.777777777778	1	610	1	1003.7	1	547	13	412413	3	412401	27	40	412440	-999999	412416	0	20	TrialsPROC	PL_011_92044.png	1	2	92	SessionSelectionList														nonlure	3	Place	2-Back	80	80	78	0	0	95	4	40	396940	2	13	85	394900	-1	395544	1	644	3	3	2040	53	396953	-54	0															10	92												
WM080112	128127_fnca	1	1	1	-448310837	1	75.031	75.031	2.0.10.147	2.0.10.242	2.0.10.242	1.0.0.439	7	234	2	3	Verdana	1	80	0	0	0	WM Stimuli\	0.8	1293.5	0.8	732.5	1	737	1	799	0.9	696.777777777778	1	610	1	1003.7	1	547	13	412413	3	412401	27	40	412440	-999999	412416	0	21	Fix15secPROC	""	1	2	93	SessionSelectionList																																															6	397406	-7	0							93												
