ExperimentName	HCPID	RunNumber	Subject	Session	RandomSeed	Group	Laptop.RefreshRate	ScannerD2.RefreshRate	StudioVersion	RuntimeVersion	RuntimeVersionExpected	ExperimentVersion	triggercode	Allowed	Target	Nontarget	FontStyle	RunTrialNumber[Session]	TrialsPerRun[Session]	TotalRespGreater200[Session]	ConsecRTLess200[Session]	ConsecNonResp[Session]	StimuliDir	ACC_2_Back_Body	Avg_RT_For_Correct_Trials_2_Back_Body	ACC_0_Back_Body	Avg_RT_For_Correct_Trials_0_Back_Body	ACC_2_Back_Face	Avg_RT_For_Correct_Trials_2_Back_Face	ACC_0_Back_Face	Avg_RT_For_Correct_Trials_0_Back_Face	ACC_2_Back_Place	Avg_RT_For_Correct_Trials_2_Back_Place	ACC_0_Back_Place	Avg_RT_For_Correct_Trials_0_Back_Place	ACC_2_Back_Tools	Avg_RT_For_Correct_Trials_2_Back_Tools	ACC_0_Back_Tools	Avg_RT_For_Correct_Trials_0_Back_Tools	ExpInstrucFeelFreeToRest.OnsetDelay	ExpInstrucFeelFreeToRest.OnsetTime	ExpInstrucFeelFreeToRest.DurationError	ExpInstrucFeelFreeToRest.StartTime	ExpInstrucFeelFreeToRest.OnsetToOnsetTime	FeelFreeToRest.OnsetDelay	FeelFreeToRest.OnsetTime	FeelFreeToRest.DurationError	FeelFreeToRest.StartTime	FeelFreeToRest.OnsetToOnsetTime	SessionSelectionList	Procedure[Block]	Stimulus[Block]	RunNumberFilterValue	SessionSelectionList.Cycle	SessionSelectionList.Sample	Running[Block]	IntroButtonMap.OnsetDelay	IntroButtonMap.OnsetTime	IntroButtonMap.DurationError	IntroButtonMap.OnsetToOnsetTime	GetReady.OnsetDelay	GetReady.OnsetTime	GetReady.DurationError	GetReady.OnsetToOnsetTime	Cue2Back.OnsetDelay	Cue2Back.OnsetTime	Cue2Back.DurationError	Cue2Back.OnsetToOnsetTime	Run1Block1	TargetType	CorrectResponse	StimType	BlockType	RunTrialNumber[Block]	TrialsPerRun[Block]	TotalRespGreater200[Block]	ConsecRTLess200[Block]	ConsecNonResp[Block]	ControlAcc	ConsecSameResp	ExperimenterWindow.OnsetDelay	ExperimenterWindow.OnsetTime	ExperimenterWindow.DurationError	ExperimenterWindow.OnsetToOnsetTime	Stim.OnsetDelay	Stim.OnsetTime	Stim.DurationError	Stim.RTTime	Stim.ACC	Stim.RT	Stim.RESP	Stim.CRESP	Stim.OnsetToOnsetTime	Fix.OnsetDelay	Fix.OnsetTime	Fix.DurationError	Fix.OnsetToOnsetTime	CueTarget.OnsetDelay	CueTarget.OnsetTime	CueTarget.DurationError	CueTarget.OnsetToOnsetTime	Run1Block2	Fix15sec.OnsetDelay	Fix15sec.OnsetTime	Fix15sec.DurationError	Fix15sec.OnsetToOnsetTime	Run1Block3	Run1Block4	Run1Block5	Run1Block6	Run1Block7	Run1Block8	Block	Procedure[Trial]	Stimulus[Trial]	ReadyList	Running[Trial]	ReadyList.Cycle	ReadyList.Sample	SyncSlide.OnsetDelay	SyncSlide.OnsetTime	SyncSlide.DurationError	SyncSlide.FinishTime	SyncSlide.OnsetToOnsetTime	Trial
WM080112	120111_fnca	1	1	1	-657985087	1	75.032	75.031	2.0.10.147	2.0.10.242	2.0.10.242	1.0.0.439	7	234	2	3	Verdana	1	80	0	0	0	WM Stimuli\	0.7	1338.71428571429	1	687.7	0.8	859	1	721.6	0.7	1008.42857142857	1	588.8	0.8	777.25	0.8	886.75	13	541600	2	541588	27	40	541627	-999999	541603	0	1	TRSyncPROC	""	1	2	1	SessionSelectionList	120	18534	-999999	0	34	235419	-999999	0																																																	1	InitialTR	4	1	ReadyList	1	1	19	248173	-20	250153	0	1
WM080112	120111_fnca	1	1	1	-657985087	1	75.032	75.031	2.0.10.147	2.0.10.242	2.0.10.242	1.0.0.439	7	234	2	3	Verdana	1	80	0	0	0	WM Stimuli\	0.7	1338.71428571429	1	687.7	0.8	859	1	721.6	0.7	1008.42857142857	1	588.8	0.8	777.25	0.8	886.75	13	541600	2	541588	27	40	541627	-999999	541603	0	1	TRSyncPROC	""	1	2	1	SessionSelectionList	120	18534	-999999	0	34	235419	-999999	0																																																	1	InitialTR	3	2	ReadyList	1	2	18	250172	-19	252153	0	2
WM080112	120111_fnca	1	1	1	-657985087	1	75.032	75.031	2.0.10.147	2.0.10.242	2.0.10.242	1.0.0.439	7	234	2	3	Verdana	1	80	0	0	0	WM Stimuli\	0.7	1338.71428571429	1	687.7	0.8	859	1	721.6	0.7	1008.42857142857	1	588.8	0.8	777.25	0.8	886.75	13	541600	2	541588	27	40	541627	-999999	541603	0	1	TRSyncPROC	""	1	2	1	SessionSelectionList	120	18534	-999999	0	34	235419	-999999	0																																																	1	InitialTR	2	3	ReadyList	1	3	4	252158	-5	254153	0	3
WM080112	120111_fnca	1	1	1	-657985087	1	75.032	75.031	2.0.10.147	2.0.10.242	2.0.10.242	1.0.0.439	7	234	2	3	Verdana	1	80	0	0	0	WM Stimuli\	0.7	1338.71428571429	1	687.7	0.8	859	1	721.6	0.7	1008.42857142857	1	588.8	0.8	777.25	0.8	886.75	13	541600	2	541588	27	40	541627	-999999	541603	0	1	TRSyncPROC	""	1	2	1	SessionSelectionList	120	18534	-999999	0	34	235419	-999999	0																																																	1	InitialTR	1	4	ReadyList	1	4	3	254157	-4	256153	0	4
WM080112	120111_fnca	1	1	1	-657985087	1	75.032	75.031	2.0.10.147	2.0.10.242	2.0.10.242	1.0.0.439	7	234	2	3	Verdana	1	80	0	0	0	WM Stimuli\	0.7	1338.71428571429	1	687.7	0.8	859	1	721.6	0.7	1008.42857142857	1	588.8	0.8	777.25	0.8	886.75	13	541600	2	541588	27	40	541627	-999999	541603	0	2	Cue2BackPROC	""	1	2	2	SessionSelectionList									16	256170	-17	0																																													2												
WM080112	120111_fnca	1	1	1	-657985087	1	75.032	75.031	2.0.10.147	2.0.10.242	2.0.10.242	1.0.0.439	7	234	2	3	Verdana	1	80	0	0	0	WM Stimuli\	0.7	1338.71428571429	1	687.7	0.8	859	1	721.6	0.7	1008.42857142857	1	588.8	0.8	777.25	0.8	886.75	13	541600	2	541588	27	40	541627	-999999	541603	0	3	TrialsPROC	BP_002_BP10_BA.png	1	2	3	SessionSelectionList													1	nonlure	3	Body	2-Back	2	80	1	0	0	0	1	52	260781	3	14	75	258729	-1	259609	1	880	3	3	2052	66	260795	-67	0																3												
WM080112	120111_fnca	1	1	1	-657985087	1	75.032	75.031	2.0.10.147	2.0.10.242	2.0.10.242	1.0.0.439	7	234	2	3	Verdana	1	80	0	0	0	WM Stimuli\	0.7	1338.71428571429	1	687.7	0.8	859	1	721.6	0.7	1008.42857142857	1	588.8	0.8	777.25	0.8	886.75	13	541600	2	541588	27	40	541627	-999999	541603	0	3	TrialsPROC	BP_001_BP1_BA.png	1	2	4	SessionSelectionList													2	nonlure	3	Body	2-Back	3	80	2	0	0	0	2	39	263327	2	14	59	261288	-1	262399	1	1111	3	3	2039	53	263341	-54	0																4												
WM080112	120111_fnca	1	1	1	-657985087	1	75.032	75.031	2.0.10.147	2.0.10.242	2.0.10.242	1.0.0.439	7	234	2	3	Verdana	1	80	0	0	0	WM Stimuli\	0.7	1338.71428571429	1	687.7	0.8	859	1	721.6	0.7	1008.42857142857	1	588.8	0.8	777.25	0.8	886.75	13	541600	2	541588	27	40	541627	-999999	541603	0	3	TrialsPROC	BP_006_BP2_BA.png	1	2	5	SessionSelectionList													3	nonlure	3	Body	2-Back	4	80	3	0	0	0	1	39	265886	1	14	59	263847	-1	264857	0	1010	2	3	2039	53	265900	-54	0																5												
WM080112	120111_fnca	1	1	1	-657985087	1	75.032	75.031	2.0.10.147	2.0.10.242	2.0.10.242	1.0.0.439	7	234	2	3	Verdana	1	80	0	0	0	WM Stimuli\	0.7	1338.71428571429	1	687.7	0.8	859	1	721.6	0.7	1008.42857142857	1	588.8	0.8	777.25	0.8	886.75	13	541600	2	541588	27	40	541627	-999999	541603	0	3	TrialsPROC	BP_001_BP1_BA.png	1	2	6	SessionSelectionList													4	target	2	Body	2-Back	5	80	4	0	0	0	1	39	268458	2	14	72	266419	-1	267920	0	1501	3	2	2039	53	268472	-54	0																6												
WM080112	120111_fnca	1	1	1	-657985087	1	75.032	75.031	2.0.10.147	2.0.10.242	2.0.10.242	1.0.0.439	7	234	2	3	Verdana	1	80	0	0	0	WM Stimuli\	0.7	1338.71428571429	1	687.7	0.8	859	1	721.6	0.7	1008.42857142857	1	588.8	0.8	777.25	0.8	886.75	13	541600	2	541588	27	40	541627	-999999	541603	0	3	TrialsPROC	BP_005_BP19_BA.png	1	2	7	SessionSelectionList													5	nonlure	3	Body	2-Back	6	80	5	0	0	0	2	39	271030	2	14	72	268991	-1	270691	1	1700	3	3	2039	53	271044	-54	0																7												
WM080112	120111_fnca	1	1	1	-657985087	1	75.032	75.031	2.0.10.147	2.0.10.242	2.0.10.242	1.0.0.439	7	234	2	3	Verdana	1	80	0	0	0	WM Stimuli\	0.7	1338.71428571429	1	687.7	0.8	859	1	721.6	0.7	1008.42857142857	1	588.8	0.8	777.25	0.8	886.75	13	541600	2	541588	27	40	541627	-999999	541603	0	3	TrialsPROC	BP_003_BP16_BA.png	1	2	8	SessionSelectionList													6	nonlure	3	Body	2-Back	7	80	6	0	0	0	3	39	273589	2	14	59	271550	-1	273244	1	1694	3	3	2039	53	273603	-54	0																8												
WM080112	120111_fnca	1	1	1	-657985087	1	75.032	75.031	2.0.10.147	2.0.10.242	2.0.10.242	1.0.0.439	7	234	2	3	Verdana	1	80	0	0	0	WM Stimuli\	0.7	1338.71428571429	1	687.7	0.8	859	1	721.6	0.7	1008.42857142857	1	588.8	0.8	777.25	0.8	886.75	13	541600	2	541588	27	40	541627	-999999	541603	0	3	TrialsPROC	BP_006_BP2_BA.png	1	2	9	SessionSelectionList													7	lure	3	Body	2-Back	8	80	7	0	0	0	4	39	276148	2	14	59	274109	-1	275675	1	1566	3	3	2039	53	276162	-54	0																9												
WM080112	120111_fnca	1	1	1	-657985087	1	75.032	75.031	2.0.10.147	2.0.10.242	2.0.10.242	1.0.0.439	7	234	2	3	Verdana	1	80	0	0	0	WM Stimuli\	0.7	1338.71428571429	1	687.7	0.8	859	1	721.6	0.7	1008.42857142857	1	588.8	0.8	777.25	0.8	886.75	13	541600	2	541588	27	40	541627	-999999	541603	0	3	TrialsPROC	BP_004_BP18_BA.png	1	2	10	SessionSelectionList													8	nonlure	3	Body	2-Back	9	80	8	0	0	0	5	39	278707	2	14	59	276668	-1	277860	1	1192	3	3	2039	53	278721	-54	0																10												
WM080112	120111_fnca	1	1	1	-657985087	1	75.032	75.031	2.0.10.147	2.0.10.242	2.0.10.242	1.0.0.439	7	234	2	3	Verdana	1	80	0	0	0	WM Stimuli\	0.7	1338.71428571429	1	687.7	0.8	859	1	721.6	0.7	1008.42857142857	1	588.8	0.8	777.25	0.8	886.75	13	541600	2	541588	27	40	541627	-999999	541603	0	3	TrialsPROC	BP_005_BP19_BA.png	1	2	11	SessionSelectionList													9	lure	3	Body	2-Back	10	80	8	0	1	0	5	39	281266	2	14	59	279227	-1	0	0	0	""	3	2039	53	281280	-54	0																11												
WM080112	120111_fnca	1	1	1	-657985087	1	75.032	75.031	2.0.10.147	2.0.10.242	2.0.10.242	1.0.0.439	7	234	2	3	Verdana	1	80	0	0	0	WM Stimuli\	0.7	1338.71428571429	1	687.7	0.8	859	1	721.6	0.7	1008.42857142857	1	588.8	0.8	777.25	0.8	886.75	13	541600	2	541588	27	40	541627	-999999	541603	0	3	TrialsPROC	BP_004_BP18_BA.png	1	2	12	SessionSelectionList													10	target	2	Body	2-Back	11	80	9	0	0	0	1	39	283825	2	14	59	281786	-1	283014	1	1228	2	2	2039	53	283839	-54	0																12												
WM080112	120111_fnca	1	1	1	-657985087	1	75.032	75.031	2.0.10.147	2.0.10.242	2.0.10.242	1.0.0.439	7	234	2	3	Verdana	1	80	0	0	0	WM Stimuli\	0.7	1338.71428571429	1	687.7	0.8	859	1	721.6	0.7	1008.42857142857	1	588.8	0.8	777.25	0.8	886.75	13	541600	2	541588	27	40	541627	-999999	541603	0	4	Cue0BackPROC	FC_001_M1.png	1	2	13	SessionSelectionList																																										19	284305	-20	0												13												
WM080112	120111_fnca	1	1	1	-657985087	1	75.032	75.031	2.0.10.147	2.0.10.242	2.0.10.242	1.0.0.439	7	234	2	3	Verdana	1	80	0	0	0	WM Stimuli\	0.7	1338.71428571429	1	687.7	0.8	859	1	721.6	0.7	1008.42857142857	1	588.8	0.8	777.25	0.8	886.75	13	541600	2	541588	27	40	541627	-999999	541603	0	5	TrialsPROC	FC_005_M3.png	1	2	14	SessionSelectionList														nonlure	3	Face	0-Back	12	80	10	0	0	100	1	39	288890	1	14	65	286851	-1	287708	1	857	3	3	2039	53	288904	-54	0					1											14												
WM080112	120111_fnca	1	1	1	-657985087	1	75.032	75.031	2.0.10.147	2.0.10.242	2.0.10.242	1.0.0.439	7	234	2	3	Verdana	1	80	0	0	0	WM Stimuli\	0.7	1338.71428571429	1	687.7	0.8	859	1	721.6	0.7	1008.42857142857	1	588.8	0.8	777.25	0.8	886.75	13	541600	2	541588	27	40	541627	-999999	541603	0	5	TrialsPROC	FC_001_M1.png	1	2	15	SessionSelectionList														target	2	Face	0-Back	13	80	11	0	0	100	1	39	291462	1	14	72	289423	-1	290264	1	841	2	2	2039	53	291476	-54	0					2											15												
WM080112	120111_fnca	1	1	1	-657985087	1	75.032	75.031	2.0.10.147	2.0.10.242	2.0.10.242	1.0.0.439	7	234	2	3	Verdana	1	80	0	0	0	WM Stimuli\	0.7	1338.71428571429	1	687.7	0.8	859	1	721.6	0.7	1008.42857142857	1	588.8	0.8	777.25	0.8	886.75	13	541600	2	541588	27	40	541627	-999999	541603	0	5	TrialsPROC	FC_003_M2.png	1	2	16	SessionSelectionList														nonlure	3	Face	0-Back	14	80	12	0	0	100	1	39	294034	2	14	72	291995	-1	292796	1	801	3	3	2039	53	294048	-54	0					3											16												
WM080112	120111_fnca	1	1	1	-657985087	1	75.032	75.031	2.0.10.147	2.0.10.242	2.0.10.242	1.0.0.439	7	234	2	3	Verdana	1	80	0	0	0	WM Stimuli\	0.7	1338.71428571429	1	687.7	0.8	859	1	721.6	0.7	1008.42857142857	1	588.8	0.8	777.25	0.8	886.75	13	541600	2	541588	27	40	541627	-999999	541603	0	5	TrialsPROC	FC_004_F2.png	1	2	17	SessionSelectionList														nonlure	3	Face	0-Back	15	80	13	0	0	100	2	40	296607	1	13	72	294567	-1	295180	1	613	3	3	2040	53	296620	-54	0					4											17												
WM080112	120111_fnca	1	1	1	-657985087	1	75.032	75.031	2.0.10.147	2.0.10.242	2.0.10.242	1.0.0.439	7	234	2	3	Verdana	1	80	0	0	0	WM Stimuli\	0.7	1338.71428571429	1	687.7	0.8	859	1	721.6	0.7	1008.42857142857	1	588.8	0.8	777.25	0.8	886.75	13	541600	2	541588	27	40	541627	-999999	541603	0	5	TrialsPROC	FC_004_F2.png	1	2	18	SessionSelectionList														lure	3	Face	0-Back	16	80	14	0	0	100	3	39	299179	1	14	73	297140	-1	297942	1	802	3	3	2039	53	299193	-54	0					5											18												
WM080112	120111_fnca	1	1	1	-657985087	1	75.032	75.031	2.0.10.147	2.0.10.242	2.0.10.242	1.0.0.439	7	234	2	3	Verdana	1	80	0	0	0	WM Stimuli\	0.7	1338.71428571429	1	687.7	0.8	859	1	721.6	0.7	1008.42857142857	1	588.8	0.8	777.25	0.8	886.75	13	541600	2	541588	27	40	541627	-999999	541603	0	5	TrialsPROC	FC_001_M1.png	1	2	19	SessionSelectionList														target	2	Face	0-Back	17	80	15	0	0	100	1	39	301751	2	14	72	299712	-1	300359	1	647	2	2	2039	53	301765	-54	0					6											19												
WM080112	120111_fnca	1	1	1	-657985087	1	75.032	75.031	2.0.10.147	2.0.10.242	2.0.10.242	1.0.0.439	7	234	2	3	Verdana	1	80	0	0	0	WM Stimuli\	0.7	1338.71428571429	1	687.7	0.8	859	1	721.6	0.7	1008.42857142857	1	588.8	0.8	777.25	0.8	886.75	13	541600	2	541588	27	40	541627	-999999	541603	0	5	TrialsPROC	FC_006_F3.png	1	2	20	SessionSelectionList														nonlure	3	Face	0-Back	18	80	16	0	0	100	1	39	304323	2	14	72	302284	-1	302897	1	613	3	3	2039	53	304337	-54	0					7											20												
WM080112	120111_fnca	1	1	1	-657985087	1	75.032	75.031	2.0.10.147	2.0.10.242	2.0.10.242	1.0.0.439	7	234	2	3	Verdana	1	80	0	0	0	WM Stimuli\	0.7	1338.71428571429	1	687.7	0.8	859	1	721.6	0.7	1008.42857142857	1	588.8	0.8	777.25	0.8	886.75	13	541600	2	541588	27	40	541627	-999999	541603	0	5	TrialsPROC	FC_006_F3.png	1	2	21	SessionSelectionList														lure	3	Face	0-Back	19	80	17	0	0	100	2	39	306896	1	13	73	304857	-1	305554	1	697	3	3	2039	52	306909	-53	0					8											21												
WM080112	120111_fnca	1	1	1	-657985087	1	75.032	75.031	2.0.10.147	2.0.10.242	2.0.10.242	1.0.0.439	7	234	2	3	Verdana	1	80	0	0	0	WM Stimuli\	0.7	1338.71428571429	1	687.7	0.8	859	1	721.6	0.7	1008.42857142857	1	588.8	0.8	777.25	0.8	886.75	13	541600	2	541588	27	40	541627	-999999	541603	0	5	TrialsPROC	FC_003_M2.png	1	2	22	SessionSelectionList														lure	3	Face	0-Back	20	80	18	0	0	100	3	39	309468	1	14	72	307429	-1	308089	1	660	3	3	2039	53	309482	-54	0					9											22												
WM080112	120111_fnca	1	1	1	-657985087	1	75.032	75.031	2.0.10.147	2.0.10.242	2.0.10.242	1.0.0.439	7	234	2	3	Verdana	1	80	0	0	0	WM Stimuli\	0.7	1338.71428571429	1	687.7	0.8	859	1	721.6	0.7	1008.42857142857	1	588.8	0.8	777.25	0.8	886.75	13	541600	2	541588	27	40	541627	-999999	541603	0	5	TrialsPROC	FC_002_F1.png	1	2	23	SessionSelectionList														nonlure	3	Face	0-Back	21	80	19	0	0	100	4	39	312040	2	14	72	310001	-1	310686	1	685	3	3	2039	53	312054	-54	0					10											23												
WM080112	120111_fnca	1	1	1	-657985087	1	75.032	75.031	2.0.10.147	2.0.10.242	2.0.10.242	1.0.0.439	7	234	2	3	Verdana	1	80	0	0	0	WM Stimuli\	0.7	1338.71428571429	1	687.7	0.8	859	1	721.6	0.7	1008.42857142857	1	588.8	0.8	777.25	0.8	886.75	13	541600	2	541588	27	40	541627	-999999	541603	0	6	Fix15secPROC	""	1	2	24	SessionSelectionList																																															6	312507	-7	0							24												
WM080112	120111_fnca	1	1	1	-657985087	1	75.032	75.031	2.0.10.147	2.0.10.242	2.0.10.242	1.0.0.439	7	234	2	3	Verdana	1	80	0	0	0	WM Stimuli\	0.7	1338.71428571429	1	687.7	0.8	859	1	721.6	0.7	1008.42857142857	1	588.8	0.8	777.25	0.8	886.75	13	541600	2	541588	27	40	541627	-999999	541603	0	7	Cue2BackPROC	""	1	2	25	SessionSelectionList									13	327514	-14	0																																													25												
WM080112	120111_fnca	1	1	1	-657985087	1	75.032	75.031	2.0.10.147	2.0.10.242	2.0.10.242	1.0.0.439	7	234	2	3	Verdana	1	80	0	0	0	WM Stimuli\	0.7	1338.71428571429	1	687.7	0.8	859	1	721.6	0.7	1008.42857142857	1	588.8	0.8	777.25	0.8	886.75	13	541600	2	541588	27	40	541627	-999999	541603	0	8	TrialsPROC	TO_001_TOOL1_BA.png	1	2	26	SessionSelectionList														nonlure	3	Tools	2-Back	22	80	19	0	1	100	4	39	332099	1	14	59	330060	-1	0	0	0	""	3	2039	53	332113	-54	0										1						26												
WM080112	120111_fnca	1	1	1	-657985087	1	75.032	75.031	2.0.10.147	2.0.10.242	2.0.10.242	1.0.0.439	7	234	2	3	Verdana	1	80	0	0	0	WM Stimuli\	0.7	1338.71428571429	1	687.7	0.8	859	1	721.6	0.7	1008.42857142857	1	588.8	0.8	777.25	0.8	886.75	13	541600	2	541588	27	40	541627	-999999	541603	0	8	TrialsPROC	TO_002_TOOL2_BA.png	1	2	27	SessionSelectionList														nonlure	3	Tools	2-Back	23	80	20	0	0	100	1	39	334658	1	13	59	332619	-1	333436	1	817	3	3	2039	52	334671	-53	0										2						27												
WM080112	120111_fnca	1	1	1	-657985087	1	75.032	75.031	2.0.10.147	2.0.10.242	2.0.10.242	1.0.0.439	7	234	2	3	Verdana	1	80	0	0	0	WM Stimuli\	0.7	1338.71428571429	1	687.7	0.8	859	1	721.6	0.7	1008.42857142857	1	588.8	0.8	777.25	0.8	886.75	13	541600	2	541588	27	40	541627	-999999	541603	0	8	TrialsPROC	TO_004_TOOL4_BA.png	1	2	28	SessionSelectionList														nonlure	3	Tools	2-Back	24	80	21	0	0	100	2	39	337217	1	13	59	335178	-1	335906	1	728	3	3	2039	52	337230	-53	0										3						28												
WM080112	120111_fnca	1	1	1	-657985087	1	75.032	75.031	2.0.10.147	2.0.10.242	2.0.10.242	1.0.0.439	7	234	2	3	Verdana	1	80	0	0	0	WM Stimuli\	0.7	1338.71428571429	1	687.7	0.8	859	1	721.6	0.7	1008.42857142857	1	588.8	0.8	777.25	0.8	886.75	13	541600	2	541588	27	40	541627	-999999	541603	0	8	TrialsPROC	TO_002_TOOL2_BA.png	1	2	29	SessionSelectionList														target	2	Tools	2-Back	25	80	22	0	0	100	1	40	339776	1	13	58	337736	-1	338465	1	729	2	2	2040	53	339789	-54	0										4						29												
WM080112	120111_fnca	1	1	1	-657985087	1	75.032	75.031	2.0.10.147	2.0.10.242	2.0.10.242	1.0.0.439	7	234	2	3	Verdana	1	80	0	0	0	WM Stimuli\	0.7	1338.71428571429	1	687.7	0.8	859	1	721.6	0.7	1008.42857142857	1	588.8	0.8	777.25	0.8	886.75	13	541600	2	541588	27	40	541627	-999999	541603	0	8	TrialsPROC	TO_001_TOOL1_BA.png	1	2	30	SessionSelectionList														lure	3	Tools	2-Back	26	80	23	0	0	100	1	40	342335	1	13	59	340295	-1	340999	1	704	3	3	2040	53	342348	-54	0										5						30												
WM080112	120111_fnca	1	1	1	-657985087	1	75.032	75.031	2.0.10.147	2.0.10.242	2.0.10.242	1.0.0.439	7	234	2	3	Verdana	1	80	0	0	0	WM Stimuli\	0.7	1338.71428571429	1	687.7	0.8	859	1	721.6	0.7	1008.42857142857	1	588.8	0.8	777.25	0.8	886.75	13	541600	2	541588	27	40	541627	-999999	541603	0	8	TrialsPROC	TO_004_TOOL4_BA.png	1	2	31	SessionSelectionList														lure	3	Tools	2-Back	27	80	24	0	0	100	1	40	344894	1	13	59	342854	-1	343575	0	721	2	3	2040	53	344907	-54	0										6						31												
WM080112	120111_fnca	1	1	1	-657985087	1	75.032	75.031	2.0.10.147	2.0.10.242	2.0.10.242	1.0.0.439	7	234	2	3	Verdana	1	80	0	0	0	WM Stimuli\	0.7	1338.71428571429	1	687.7	0.8	859	1	721.6	0.7	1008.42857142857	1	588.8	0.8	777.25	0.8	886.75	13	541600	2	541588	27	40	541627	-999999	541603	0	8	TrialsPROC	TO_006_TOOL6_BA.png	1	2	32	SessionSelectionList														nonlure	3	Tools	2-Back	28	80	25	0	0	100	1	39	347452	2	14	59	345413	-1	346129	1	716	3	3	2039	53	347466	-54	0										7						32												
WM080112	120111_fnca	1	1	1	-657985087	1	75.032	75.031	2.0.10.147	2.0.10.242	2.0.10.242	1.0.0.439	7	234	2	3	Verdana	1	80	0	0	0	WM Stimuli\	0.7	1338.71428571429	1	687.7	0.8	859	1	721.6	0.7	1008.42857142857	1	588.8	0.8	777.25	0.8	886.75	13	541600	2	541588	27	40	541627	-999999	541603	0	8	TrialsPROC	TO_005_TOOL5_BA.png	1	2	33	SessionSelectionList														nonlure	3	Tools	2-Back	29	80	26	0	0	100	2	39	350011	2	14	59	347972	-1	348921	1	949	3	3	2039	53	350025	-54	0										8						33												
WM080112	120111_fnca	1	1	1	-657985087	1	75.032	75.031	2.0.10.147	2.0.10.242	2.0.10.242	1.0.0.439	7	234	2	3	Verdana	1	80	0	0	0	WM Stimuli\	0.7	1338.71428571429	1	687.7	0.8	859	1	721.6	0.7	1008.42857142857	1	588.8	0.8	777.25	0.8	886.75	13	541600	2	541588	27	40	541627	-999999	541603	0	8	TrialsPROC	TO_006_TOOL6_BA.png	1	2	34	SessionSelectionList														target	2	Tools	2-Back	30	80	27	0	0	100	1	39	352570	2	14	59	350531	-1	351397	1	866	2	2	2039	53	352584	-54	0										9						34												
WM080112	120111_fnca	1	1	1	-657985087	1	75.032	75.031	2.0.10.147	2.0.10.242	2.0.10.242	1.0.0.439	7	234	2	3	Verdana	1	80	0	0	0	WM Stimuli\	0.7	1338.71428571429	1	687.7	0.8	859	1	721.6	0.7	1008.42857142857	1	588.8	0.8	777.25	0.8	886.75	13	541600	2	541588	27	40	541627	-999999	541603	0	8	TrialsPROC	TO_003_TOOL3_BA.png	1	2	35	SessionSelectionList														nonlure	3	Tools	2-Back	31	80	28	0	0	100	1	39	355129	2	14	59	353090	-1	353799	1	709	3	3	2039	53	355143	-54	0										10						35												
WM080112	120111_fnca	1	1	1	-657985087	1	75.032	75.031	2.0.10.147	2.0.10.242	2.0.10.242	1.0.0.439	7	234	2	3	Verdana	1	80	0	0	0	WM Stimuli\	0.7	1338.71428571429	1	687.7	0.8	859	1	721.6	0.7	1008.42857142857	1	588.8	0.8	777.25	0.8	886.75	13	541600	2	541588	27	40	541627	-999999	541603	0	9	Cue0BackPROC	BP_007_BP20_BA.png	1	2	36	SessionSelectionList																																										19	355609	-20	0												36												
WM080112	120111_fnca	1	1	1	-657985087	1	75.032	75.031	2.0.10.147	2.0.10.242	2.0.10.242	1.0.0.439	7	234	2	3	Verdana	1	80	0	0	0	WM Stimuli\	0.7	1338.71428571429	1	687.7	0.8	859	1	721.6	0.7	1008.42857142857	1	588.8	0.8	777.25	0.8	886.75	13	541600	2	541588	27	40	541627	-999999	541603	0	10	TrialsPROC	BP_007_BP20_BA.png	1	2	37	SessionSelectionList														target	2	Body	0-Back	32	80	29	0	0	100	1	40	360181	1	13	51	358141	-1	359269	1	1128	2	2	2040	53	360194	-54	0											1					37												
WM080112	120111_fnca	1	1	1	-657985087	1	75.032	75.031	2.0.10.147	2.0.10.242	2.0.10.242	1.0.0.439	7	234	2	3	Verdana	1	80	0	0	0	WM Stimuli\	0.7	1338.71428571429	1	687.7	0.8	859	1	721.6	0.7	1008.42857142857	1	588.8	0.8	777.25	0.8	886.75	13	541600	2	541588	27	40	541627	-999999	541603	0	10	TrialsPROC	BP_011_BP4_BA.png	1	2	38	SessionSelectionList														nonlure	3	Body	0-Back	33	80	30	0	0	100	1	39	362753	1	14	73	360714	-1	361265	1	551	3	3	2039	53	362767	-54	0											2					38												
WM080112	120111_fnca	1	1	1	-657985087	1	75.032	75.031	2.0.10.147	2.0.10.242	2.0.10.242	1.0.0.439	7	234	2	3	Verdana	1	80	0	0	0	WM Stimuli\	0.7	1338.71428571429	1	687.7	0.8	859	1	721.6	0.7	1008.42857142857	1	588.8	0.8	777.25	0.8	886.75	13	541600	2	541588	27	40	541627	-999999	541603	0	10	TrialsPROC	BP_010_BP3_BA.png	1	2	39	SessionSelectionList														nonlure	3	Body	0-Back	34	80	31	0	0	100	2	39	365312	1	14	59	363273	-1	363848	1	575	3	3	2039	53	365326	-54	0											3					39												
WM080112	120111_fnca	1	1	1	-657985087	1	75.032	75.031	2.0.10.147	2.0.10.242	2.0.10.242	1.0.0.439	7	234	2	3	Verdana	1	80	0	0	0	WM Stimuli\	0.7	1338.71428571429	1	687.7	0.8	859	1	721.6	0.7	1008.42857142857	1	588.8	0.8	777.25	0.8	886.75	13	541600	2	541588	27	40	541627	-999999	541603	0	10	TrialsPROC	BP_008_BP21_BA.png	1	2	40	SessionSelectionList														nonlure	3	Body	0-Back	35	80	32	0	0	100	3	39	367871	1	14	59	365832	-1	366420	1	588	3	3	2039	53	367885	-54	0											4					40												
WM080112	120111_fnca	1	1	1	-657985087	1	75.032	75.031	2.0.10.147	2.0.10.242	2.0.10.242	1.0.0.439	7	234	2	3	Verdana	1	80	0	0	0	WM Stimuli\	0.7	1338.71428571429	1	687.7	0.8	859	1	721.6	0.7	1008.42857142857	1	588.8	0.8	777.25	0.8	886.75	13	541600	2	541588	27	40	541627	-999999	541603	0	10	TrialsPROC	BP_011_BP4_BA.png	1	2	41	SessionSelectionList														lure	3	Body	0-Back	36	80	33	0	0	100	4	39	370430	1	13	59	368391	-1	369000	1	609	3	3	2039	52	370443	-53	0											5					41												
WM080112	120111_fnca	1	1	1	-657985087	1	75.032	75.031	2.0.10.147	2.0.10.242	2.0.10.242	1.0.0.439	7	234	2	3	Verdana	1	80	0	0	0	WM Stimuli\	0.7	1338.71428571429	1	687.7	0.8	859	1	721.6	0.7	1008.42857142857	1	588.8	0.8	777.25	0.8	886.75	13	541600	2	541588	27	40	541627	-999999	541603	0	10	TrialsPROC	BP_009_BP22_BA.png	1	2	42	SessionSelectionList														nonlure	3	Body	0-Back	37	80	34	0	0	100	5	39	372989	1	13	59	370950	-1	371556	1	606	3	3	2039	52	373002	-53	0											6					42												
WM080112	120111_fnca	1	1	1	-657985087	1	75.032	75.031	2.0.10.147	2.0.10.242	2.0.10.242	1.0.0.439	7	234	2	3	Verdana	1	80	0	0	0	WM Stimuli\	0.7	1338.71428571429	1	687.7	0.8	859	1	721.6	0.7	1008.42857142857	1	588.8	0.8	777.25	0.8	886.75	13	541600	2	541588	27	40	541627	-999999	541603	0	10	TrialsPROC	BP_009_BP22_BA.png	1	2	43	SessionSelectionList														lure	3	Body	0-Back	38	80	35	0	0	100	6	40	375548	1	13	58	373508	-1	374150	1	642	3	3	2040	53	375561	-54	0											7					43												
WM080112	120111_fnca	1	1	1	-657985087	1	75.032	75.031	2.0.10.147	2.0.10.242	2.0.10.242	1.0.0.439	7	234	2	3	Verdana	1	80	0	0	0	WM Stimuli\	0.7	1338.71428571429	1	687.7	0.8	859	1	721.6	0.7	1008.42857142857	1	588.8	0.8	777.25	0.8	886.75	13	541600	2	541588	27	40	541627	-999999	541603	0	10	TrialsPROC	BP_008_BP21_BA.png	1	2	44	SessionSelectionList														lure	3	Body	0-Back	39	80	36	0	0	100	7	40	378107	1	13	59	376067	-1	376910	1	843	3	3	2040	53	378120	-54	0											8					44												
WM080112	120111_fnca	1	1	1	-657985087	1	75.032	75.031	2.0.10.147	2.0.10.242	2.0.10.242	1.0.0.439	7	234	2	3	Verdana	1	80	0	0	0	WM Stimuli\	0.7	1338.71428571429	1	687.7	0.8	859	1	721.6	0.7	1008.42857142857	1	588.8	0.8	777.25	0.8	886.75	13	541600	2	541588	27	40	541627	-999999	541603	0	10	TrialsPROC	BP_007_BP20_BA.png	1	2	45	SessionSelectionList														target	2	Body	0-Back	40	80	37	0	0	100	1	40	380666	1	13	59	378626	-1	379425	1	799	2	2	2040	53	380679	-54	0											9					45												
WM080112	120111_fnca	1	1	1	-657985087	1	75.032	75.031	2.0.10.147	2.0.10.242	2.0.10.242	1.0.0.439	7	234	2	3	Verdana	1	80	0	0	0	WM Stimuli\	0.7	1338.71428571429	1	687.7	0.8	859	1	721.6	0.7	1008.42857142857	1	588.8	0.8	777.25	0.8	886.75	13	541600	2	541588	27	40	541627	-999999	541603	0	10	TrialsPROC	BP_012_BP5_BA.png	1	2	46	SessionSelectionList														nonlure	3	Body	0-Back	41	80	38	0	0	100	1	39	383225	1	13	60	381186	-1	381722	1	536	3	3	2039	52	383238	-53	0											10					46												
WM080112	120111_fnca	1	1	1	-657985087	1	75.032	75.031	2.0.10.147	2.0.10.242	2.0.10.242	1.0.0.439	7	234	2	3	Verdana	1	80	0	0	0	WM Stimuli\	0.7	1338.71428571429	1	687.7	0.8	859	1	721.6	0.7	1008.42857142857	1	588.8	0.8	777.25	0.8	886.75	13	541600	2	541588	27	40	541627	-999999	541603	0	11	Fix15secPROC	""	1	2	47	SessionSelectionList																																															5	383691	-6	0							47												
WM080112	120111_fnca	1	1	1	-657985087	1	75.032	75.031	2.0.10.147	2.0.10.242	2.0.10.242	1.0.0.439	7	234	2	3	Verdana	1	80	0	0	0	WM Stimuli\	0.7	1338.71428571429	1	687.7	0.8	859	1	721.6	0.7	1008.42857142857	1	588.8	0.8	777.25	0.8	886.75	13	541600	2	541588	27	40	541627	-999999	541603	0	12	Cue0BackPROC	PL_001_92012.png	1	2	48	SessionSelectionList																																										12	398698	-13	0												48												
WM080112	120111_fnca	1	1	1	-657985087	1	75.032	75.031	2.0.10.147	2.0.10.242	2.0.10.242	1.0.0.439	7	234	2	3	Verdana	1	80	0	0	0	WM Stimuli\	0.7	1338.71428571429	1	687.7	0.8	859	1	721.6	0.7	1008.42857142857	1	588.8	0.8	777.25	0.8	886.75	13	541600	2	541588	27	40	541627	-999999	541603	0	13	TrialsPROC	PL_003_92016.png	1	2	49	SessionSelectionList														nonlure	3	Place	0-Back	42	80	39	0	0	100	2	39	403296	2	14	71	401257	-1	402071	1	814	3	3	2039	53	403310	-54	0												1				49												
WM080112	120111_fnca	1	1	1	-657985087	1	75.032	75.031	2.0.10.147	2.0.10.242	2.0.10.242	1.0.0.439	7	234	2	3	Verdana	1	80	0	0	0	WM Stimuli\	0.7	1338.71428571429	1	687.7	0.8	859	1	721.6	0.7	1008.42857142857	1	588.8	0.8	777.25	0.8	886.75	13	541600	2	541588	27	40	541627	-999999	541603	0	13	TrialsPROC	PL_003_92016.png	1	2	50	SessionSelectionList														lure	3	Place	0-Back	43	80	40	0	0	100	3	40	405869	1	13	72	403829	-1	404344	1	515	3	3	2040	53	405882	-54	0												2				50												
WM080112	120111_fnca	1	1	1	-657985087	1	75.032	75.031	2.0.10.147	2.0.10.242	2.0.10.242	1.0.0.439	7	234	2	3	Verdana	1	80	0	0	0	WM Stimuli\	0.7	1338.71428571429	1	687.7	0.8	859	1	721.6	0.7	1008.42857142857	1	588.8	0.8	777.25	0.8	886.75	13	541600	2	541588	27	40	541627	-999999	541603	0	13	TrialsPROC	PL_006_92025.png	1	2	51	SessionSelectionList														nonlure	3	Place	0-Back	44	80	41	0	0	100	4	39	408441	1	14	73	406402	-1	406974	1	572	3	3	2039	53	408455	-54	0												3				51												
WM080112	120111_fnca	1	1	1	-657985087	1	75.032	75.031	2.0.10.147	2.0.10.242	2.0.10.242	1.0.0.439	7	234	2	3	Verdana	1	80	0	0	0	WM Stimuli\	0.7	1338.71428571429	1	687.7	0.8	859	1	721.6	0.7	1008.42857142857	1	588.8	0.8	777.25	0.8	886.75	13	541600	2	541588	27	40	541627	-999999	541603	0	13	TrialsPROC	PL_001_92012.png	1	2	52	SessionSelectionList														target	2	Place	0-Back	45	80	42	0	0	100	1	39	411013	2	14	72	408974	-1	409657	1	683	2	2	2039	53	411027	-54	0												4				52												
WM080112	120111_fnca	1	1	1	-657985087	1	75.032	75.031	2.0.10.147	2.0.10.242	2.0.10.242	1.0.0.439	7	234	2	3	Verdana	1	80	0	0	0	WM Stimuli\	0.7	1338.71428571429	1	687.7	0.8	859	1	721.6	0.7	1008.42857142857	1	588.8	0.8	777.25	0.8	886.75	13	541600	2	541588	27	40	541627	-999999	541603	0	13	TrialsPROC	PL_004_92023.png	1	2	53	SessionSelectionList														nonlure	3	Place	0-Back	46	80	43	0	0	100	1	39	413585	2	14	72	411546	-1	412008	1	462	3	3	2039	53	413599	-54	0												5				53												
WM080112	120111_fnca	1	1	1	-657985087	1	75.032	75.031	2.0.10.147	2.0.10.242	2.0.10.242	1.0.0.439	7	234	2	3	Verdana	1	80	0	0	0	WM Stimuli\	0.7	1338.71428571429	1	687.7	0.8	859	1	721.6	0.7	1008.42857142857	1	588.8	0.8	777.25	0.8	886.75	13	541600	2	541588	27	40	541627	-999999	541603	0	13	TrialsPROC	PL_005_92024.png	1	2	54	SessionSelectionList														nonlure	3	Place	0-Back	47	80	44	0	0	100	2	39	416158	1	13	73	414119	-1	414627	1	508	3	3	2039	52	416171	-53	0												6				54												
WM080112	120111_fnca	1	1	1	-657985087	1	75.032	75.031	2.0.10.147	2.0.10.242	2.0.10.242	1.0.0.439	7	234	2	3	Verdana	1	80	0	0	0	WM Stimuli\	0.7	1338.71428571429	1	687.7	0.8	859	1	721.6	0.7	1008.42857142857	1	588.8	0.8	777.25	0.8	886.75	13	541600	2	541588	27	40	541627	-999999	541603	0	13	TrialsPROC	PL_001_92012.png	1	2	55	SessionSelectionList														target	2	Place	0-Back	48	80	45	0	0	100	1	39	418730	1	14	72	416691	-1	417384	1	693	2	2	2039	53	418744	-54	0												7				55												
WM080112	120111_fnca	1	1	1	-657985087	1	75.032	75.031	2.0.10.147	2.0.10.242	2.0.10.242	1.0.0.439	7	234	2	3	Verdana	1	80	0	0	0	WM Stimuli\	0.7	1338.71428571429	1	687.7	0.8	859	1	721.6	0.7	1008.42857142857	1	588.8	0.8	777.25	0.8	886.75	13	541600	2	541588	27	40	541627	-999999	541603	0	13	TrialsPROC	PL_002_92014.png	1	2	56	SessionSelectionList														nonlure	3	Place	0-Back	49	80	46	0	0	100	1	39	421302	2	14	72	419263	-1	419780	1	517	3	3	2039	53	421316	-54	0												8				56												
WM080112	120111_fnca	1	1	1	-657985087	1	75.032	75.031	2.0.10.147	2.0.10.242	2.0.10.242	1.0.0.439	7	234	2	3	Verdana	1	80	0	0	0	WM Stimuli\	0.7	1338.71428571429	1	687.7	0.8	859	1	721.6	0.7	1008.42857142857	1	588.8	0.8	777.25	0.8	886.75	13	541600	2	541588	27	40	541627	-999999	541603	0	13	TrialsPROC	PL_004_92023.png	1	2	57	SessionSelectionList														lure	3	Place	0-Back	50	80	47	0	0	100	2	39	423861	2	14	59	421822	-1	422338	1	516	3	3	2039	53	423875	-54	0												9				57												
WM080112	120111_fnca	1	1	1	-657985087	1	75.032	75.031	2.0.10.147	2.0.10.242	2.0.10.242	1.0.0.439	7	234	2	3	Verdana	1	80	0	0	0	WM Stimuli\	0.7	1338.71428571429	1	687.7	0.8	859	1	721.6	0.7	1008.42857142857	1	588.8	0.8	777.25	0.8	886.75	13	541600	2	541588	27	40	541627	-999999	541603	0	13	TrialsPROC	PL_006_92025.png	1	2	58	SessionSelectionList														lure	3	Place	0-Back	51	80	48	0	0	100	3	40	426434	1	13	72	424394	-1	425002	1	608	3	3	2040	53	426447	-54	0												10				58												
WM080112	120111_fnca	1	1	1	-657985087	1	75.032	75.031	2.0.10.147	2.0.10.242	2.0.10.242	1.0.0.439	7	234	2	3	Verdana	1	80	0	0	0	WM Stimuli\	0.7	1338.71428571429	1	687.7	0.8	859	1	721.6	0.7	1008.42857142857	1	588.8	0.8	777.25	0.8	886.75	13	541600	2	541588	27	40	541627	-999999	541603	0	14	Cue2BackPROC	""	1	2	59	SessionSelectionList									6	426900	-7	0																																													59												
WM080112	120111_fnca	1	1	1	-657985087	1	75.032	75.031	2.0.10.147	2.0.10.242	2.0.10.242	1.0.0.439	7	234	2	3	Verdana	1	80	0	0	0	WM Stimuli\	0.7	1338.71428571429	1	687.7	0.8	859	1	721.6	0.7	1008.42857142857	1	588.8	0.8	777.25	0.8	886.75	13	541600	2	541588	27	40	541627	-999999	541603	0	15	TrialsPROC	FC_010_F5.png	1	2	60	SessionSelectionList														nonlure	3	Face	2-Back	52	80	49	0	0	100	4	39	431498	2	14	65	429459	-1	430967	1	1508	3	3	2039	53	431512	-54	0													1			60												
WM080112	120111_fnca	1	1	1	-657985087	1	75.032	75.031	2.0.10.147	2.0.10.242	2.0.10.242	1.0.0.439	7	234	2	3	Verdana	1	80	0	0	0	WM Stimuli\	0.7	1338.71428571429	1	687.7	0.8	859	1	721.6	0.7	1008.42857142857	1	588.8	0.8	777.25	0.8	886.75	13	541600	2	541588	27	40	541627	-999999	541603	0	15	TrialsPROC	FC_012_F6.png	1	2	61	SessionSelectionList														nonlure	3	Face	2-Back	53	80	50	0	0	100	5	39	434070	2	14	72	432031	-1	432786	1	755	3	3	2039	53	434084	-54	0													2			61												
WM080112	120111_fnca	1	1	1	-657985087	1	75.032	75.031	2.0.10.147	2.0.10.242	2.0.10.242	1.0.0.439	7	234	2	3	Verdana	1	80	0	0	0	WM Stimuli\	0.7	1338.71428571429	1	687.7	0.8	859	1	721.6	0.7	1008.42857142857	1	588.8	0.8	777.25	0.8	886.75	13	541600	2	541588	27	40	541627	-999999	541603	0	15	TrialsPROC	FC_010_F5.png	1	2	62	SessionSelectionList														target	2	Face	2-Back	54	80	51	0	0	100	1	39	436643	1	13	73	434604	-1	435122	1	518	2	2	2039	52	436656	-53	0													3			62												
WM080112	120111_fnca	1	1	1	-657985087	1	75.032	75.031	2.0.10.147	2.0.10.242	2.0.10.242	1.0.0.439	7	234	2	3	Verdana	1	80	0	0	0	WM Stimuli\	0.7	1338.71428571429	1	687.7	0.8	859	1	721.6	0.7	1008.42857142857	1	588.8	0.8	777.25	0.8	886.75	13	541600	2	541588	27	40	541627	-999999	541603	0	15	TrialsPROC	FC_008_F4.png	1	2	63	SessionSelectionList														nonlure	3	Face	2-Back	55	80	52	0	0	100	1	39	439215	1	14	72	437176	-1	437777	1	601	3	3	2039	53	439229	-54	0													4			63												
WM080112	120111_fnca	1	1	1	-657985087	1	75.032	75.031	2.0.10.147	2.0.10.242	2.0.10.242	1.0.0.439	7	234	2	3	Verdana	1	80	0	0	0	WM Stimuli\	0.7	1338.71428571429	1	687.7	0.8	859	1	721.6	0.7	1008.42857142857	1	588.8	0.8	777.25	0.8	886.75	13	541600	2	541588	27	40	541627	-999999	541603	0	15	TrialsPROC	FC_012_F6.png	1	2	64	SessionSelectionList														lure	3	Face	2-Back	56	80	53	0	0	100	1	39	441787	2	14	72	439748	-1	440566	0	818	2	3	2039	53	441801	-54	0													5			64												
WM080112	120111_fnca	1	1	1	-657985087	1	75.032	75.031	2.0.10.147	2.0.10.242	2.0.10.242	1.0.0.439	7	234	2	3	Verdana	1	80	0	0	0	WM Stimuli\	0.7	1338.71428571429	1	687.7	0.8	859	1	721.6	0.7	1008.42857142857	1	588.8	0.8	777.25	0.8	886.75	13	541600	2	541588	27	40	541627	-999999	541603	0	15	TrialsPROC	FC_008_F4.png	1	2	65	SessionSelectionList														target	2	Face	2-Back	57	80	54	0	0	100	1	40	444360	1	13	72	442320	-1	442864	0	544	3	2	2040	53	444373	-54	0													6			65												
WM080112	120111_fnca	1	1	1	-657985087	1	75.032	75.031	2.0.10.147	2.0.10.242	2.0.10.242	1.0.0.439	7	234	2	3	Verdana	1	80	0	0	0	WM Stimuli\	0.7	1338.71428571429	1	687.7	0.8	859	1	721.6	0.7	1008.42857142857	1	588.8	0.8	777.25	0.8	886.75	13	541600	2	541588	27	40	541627	-999999	541603	0	15	TrialsPROC	FC_007_M4.png	1	2	66	SessionSelectionList														nonlure	3	Face	2-Back	58	80	55	0	0	100	2	39	446932	1	13	73	444893	-1	445870	1	977	3	3	2039	52	446945	-53	0													7			66												
WM080112	120111_fnca	1	1	1	-657985087	1	75.032	75.031	2.0.10.147	2.0.10.242	2.0.10.242	1.0.0.439	7	234	2	3	Verdana	1	80	0	0	0	WM Stimuli\	0.7	1338.71428571429	1	687.7	0.8	859	1	721.6	0.7	1008.42857142857	1	588.8	0.8	777.25	0.8	886.75	13	541600	2	541588	27	40	541627	-999999	541603	0	15	TrialsPROC	FC_007_M4.png	1	2	67	SessionSelectionList														lure	3	Face	2-Back	59	80	56	0	0	100	3	39	449504	2	14	72	447465	-1	448335	1	870	3	3	2039	53	449518	-54	0													8			67												
WM080112	120111_fnca	1	1	1	-657985087	1	75.032	75.031	2.0.10.147	2.0.10.242	2.0.10.242	1.0.0.439	7	234	2	3	Verdana	1	80	0	0	0	WM Stimuli\	0.7	1338.71428571429	1	687.7	0.8	859	1	721.6	0.7	1008.42857142857	1	588.8	0.8	777.25	0.8	886.75	13	541600	2	541588	27	40	541627	-999999	541603	0	15	TrialsPROC	FC_009_M5.png	1	2	68	SessionSelectionList														nonlure	3	Face	2-Back	60	80	57	0	0	100	4	39	452090	1	13	86	450051	-1	450908	1	857	3	3	2039	52	452103	-53	0													9			68												
WM080112	120111_fnca	1	1	1	-657985087	1	75.032	75.031	2.0.10.147	2.0.10.242	2.0.10.242	1.0.0.439	7	234	2	3	Verdana	1	80	0	0	0	WM Stimuli\	0.7	1338.71428571429	1	687.7	0.8	859	1	721.6	0.7	1008.42857142857	1	588.8	0.8	777.25	0.8	886.75	13	541600	2	541588	27	40	541627	-999999	541603	0	15	TrialsPROC	FC_011_M6.png	1	2	69	SessionSelectionList														nonlure	3	Face	2-Back	61	80	58	0	0	100	5	39	454662	1	14	72	452623	-1	453409	1	786	3	3	2039	53	454676	-54	0													10			69												
WM080112	120111_fnca	1	1	1	-657985087	1	75.032	75.031	2.0.10.147	2.0.10.242	2.0.10.242	1.0.0.439	7	234	2	3	Verdana	1	80	0	0	0	WM Stimuli\	0.7	1338.71428571429	1	687.7	0.8	859	1	721.6	0.7	1008.42857142857	1	588.8	0.8	777.25	0.8	886.75	13	541600	2	541588	27	40	541627	-999999	541603	0	16	Fix15secPROC	""	1	2	70	SessionSelectionList																																															6	455129	-7	0							70												
WM080112	120111_fnca	1	1	1	-657985087	1	75.032	75.031	2.0.10.147	2.0.10.242	2.0.10.242	1.0.0.439	7	234	2	3	Verdana	1	80	0	0	0	WM Stimuli\	0.7	1338.71428571429	1	687.7	0.8	859	1	721.6	0.7	1008.42857142857	1	588.8	0.8	777.25	0.8	886.75	13	541600	2	541588	27	40	541627	-999999	541603	0	17	Cue0BackPROC	TO_007_TOOL7_BA.png	1	2	71	SessionSelectionList																																										39	470162	-40	0												71												
WM080112	120111_fnca	1	1	1	-657985087	1	75.032	75.031	2.0.10.147	2.0.10.242	2.0.10.242	1.0.0.439	7	234	2	3	Verdana	1	80	0	0	0	WM Stimuli\	0.7	1338.71428571429	1	687.7	0.8	859	1	721.6	0.7	1008.42857142857	1	588.8	0.8	777.25	0.8	886.75	13	541600	2	541588	27	40	541627	-999999	541603	0	18	TrialsPROC	TO_010_TOOL10_BA.png	1	2	72	SessionSelectionList														nonlure	3	Tools	0-Back	62	80	59	0	0	100	6	39	474747	1	14	85	472708	-1	474322	1	1614	3	3	2039	53	474761	-54	0														1		72												
WM080112	120111_fnca	1	1	1	-657985087	1	75.032	75.031	2.0.10.147	2.0.10.242	2.0.10.242	1.0.0.439	7	234	2	3	Verdana	1	80	0	0	0	WM Stimuli\	0.7	1338.71428571429	1	687.7	0.8	859	1	721.6	0.7	1008.42857142857	1	588.8	0.8	777.25	0.8	886.75	13	541600	2	541588	27	40	541627	-999999	541603	0	18	TrialsPROC	TO_009_TOOL9_BA.png	1	2	73	SessionSelectionList														nonlure	3	Tools	0-Back	63	80	60	0	0	100	7	52	477346	1	14	86	475294	-1	475950	1	656	3	3	2052	66	477360	-67	0														2		73												
WM080112	120111_fnca	1	1	1	-657985087	1	75.032	75.031	2.0.10.147	2.0.10.242	2.0.10.242	1.0.0.439	7	234	2	3	Verdana	1	80	0	0	0	WM Stimuli\	0.7	1338.71428571429	1	687.7	0.8	859	1	721.6	0.7	1008.42857142857	1	588.8	0.8	777.25	0.8	886.75	13	541600	2	541588	27	40	541627	-999999	541603	0	18	TrialsPROC	TO_009_TOOL9_BA.png	1	2	74	SessionSelectionList														lure	3	Tools	0-Back	64	80	61	0	0	100	8	40	479892	1	13	58	477852	-1	478529	1	677	3	3	2040	53	479905	-54	0														3		74												
WM080112	120111_fnca	1	1	1	-657985087	1	75.032	75.031	2.0.10.147	2.0.10.242	2.0.10.242	1.0.0.439	7	234	2	3	Verdana	1	80	0	0	0	WM Stimuli\	0.7	1338.71428571429	1	687.7	0.8	859	1	721.6	0.7	1008.42857142857	1	588.8	0.8	777.25	0.8	886.75	13	541600	2	541588	27	40	541627	-999999	541603	0	18	TrialsPROC	TO_008_TOOL8_BA.png	1	2	75	SessionSelectionList														nonlure	3	Tools	0-Back	65	80	62	0	0	100	9	39	482477	2	14	86	480438	-1	481519	1	1081	3	3	2039	53	482491	-54	0														4		75												
WM080112	120111_fnca	1	1	1	-657985087	1	75.032	75.031	2.0.10.147	2.0.10.242	2.0.10.242	1.0.0.439	7	234	2	3	Verdana	1	80	0	0	0	WM Stimuli\	0.7	1338.71428571429	1	687.7	0.8	859	1	721.6	0.7	1008.42857142857	1	588.8	0.8	777.25	0.8	886.75	13	541600	2	541588	27	40	541627	-999999	541603	0	18	TrialsPROC	TO_011_TOOL11_BA.png	1	2	76	SessionSelectionList														nonlure	3	Tools	0-Back	66	80	63	0	0	100	10	39	485063	1	14	86	483024	-1	483708	1	684	3	3	2039	53	485077	-54	0														5		76												
WM080112	120111_fnca	1	1	1	-657985087	1	75.032	75.031	2.0.10.147	2.0.10.242	2.0.10.242	1.0.0.439	7	234	2	3	Verdana	1	80	0	0	0	WM Stimuli\	0.7	1338.71428571429	1	687.7	0.8	859	1	721.6	0.7	1008.42857142857	1	588.8	0.8	777.25	0.8	886.75	13	541600	2	541588	27	40	541627	-999999	541603	0	18	TrialsPROC	TO_012_TOOL12_BA.png	1	2	77	SessionSelectionList														nonlure	3	Tools	0-Back	67	80	64	0	0	100	11	39	487648	2	14	85	485609	-1	486180	1	571	3	3	2039	53	487662	-54	0														6		77												
WM080112	120111_fnca	1	1	1	-657985087	1	75.032	75.031	2.0.10.147	2.0.10.242	2.0.10.242	1.0.0.439	7	234	2	3	Verdana	1	80	0	0	0	WM Stimuli\	0.7	1338.71428571429	1	687.7	0.8	859	1	721.6	0.7	1008.42857142857	1	588.8	0.8	777.25	0.8	886.75	13	541600	2	541588	27	40	541627	-999999	541603	0	18	TrialsPROC	TO_010_TOOL10_BA.png	1	2	78	SessionSelectionList														lure	3	Tools	0-Back	68	80	65	0	0	100	12	39	490207	2	14	59	488168	-1	489111	1	943	3	3	2039	53	490221	-54	0														7		78												
WM080112	120111_fnca	1	1	1	-657985087	1	75.032	75.031	2.0.10.147	2.0.10.242	2.0.10.242	1.0.0.439	7	234	2	3	Verdana	1	80	0	0	0	WM Stimuli\	0.7	1338.71428571429	1	687.7	0.8	859	1	721.6	0.7	1008.42857142857	1	588.8	0.8	777.25	0.8	886.75	13	541600	2	541588	27	40	541627	-999999	541603	0	18	TrialsPROC	TO_007_TOOL7_BA.png	1	2	79	SessionSelectionList														target	2	Tools	0-Back	69	80	66	0	0	97	13	39	492766	2	14	59	490727	-1	491734	0	1007	3	2	2039	53	492780	-54	0														8		79												
WM080112	120111_fnca	1	1	1	-657985087	1	75.032	75.031	2.0.10.147	2.0.10.242	2.0.10.242	1.0.0.439	7	234	2	3	Verdana	1	80	0	0	0	WM Stimuli\	0.7	1338.71428571429	1	687.7	0.8	859	1	721.6	0.7	1008.42857142857	1	588.8	0.8	777.25	0.8	886.75	13	541600	2	541588	27	40	541627	-999999	541603	0	18	TrialsPROC	TO_008_TOOL8_BA.png	1	2	80	SessionSelectionList														lure	3	Tools	0-Back	70	80	67	0	0	97	14	39	495325	2	14	59	493286	-1	494154	1	868	3	3	2039	53	495339	-54	0														9		80												
WM080112	120111_fnca	1	1	1	-657985087	1	75.032	75.031	2.0.10.147	2.0.10.242	2.0.10.242	1.0.0.439	7	234	2	3	Verdana	1	80	0	0	0	WM Stimuli\	0.7	1338.71428571429	1	687.7	0.8	859	1	721.6	0.7	1008.42857142857	1	588.8	0.8	777.25	0.8	886.75	13	541600	2	541588	27	40	541627	-999999	541603	0	18	TrialsPROC	TO_007_TOOL7_BA.png	1	2	81	SessionSelectionList														target	2	Tools	0-Back	71	80	68	0	0	95	15	39	497884	2	14	59	495845	-1	496851	0	1006	3	2	2039	53	497898	-54	0														10		81												
WM080112	120111_fnca	1	1	1	-657985087	1	75.032	75.031	2.0.10.147	2.0.10.242	2.0.10.242	1.0.0.439	7	234	2	3	Verdana	1	80	0	0	0	WM Stimuli\	0.7	1338.71428571429	1	687.7	0.8	859	1	721.6	0.7	1008.42857142857	1	588.8	0.8	777.25	0.8	886.75	13	541600	2	541588	27	40	541627	-999999	541603	0	19	Cue2BackPROC	""	1	2	82	SessionSelectionList									6	498351	-7	0																																													82												
WM080112	120111_fnca	1	1	1	-657985087	1	75.032	75.031	2.0.10.147	2.0.10.242	2.0.10.242	1.0.0.439	7	234	2	3	Verdana	1	80	0	0	0	WM Stimuli\	0.7	1338.71428571429	1	687.7	0.8	859	1	721.6	0.7	1008.42857142857	1	588.8	0.8	777.25	0.8	886.75	13	541600	2	541588	27	40	541627	-999999	541603	0	20	TrialsPROC	PL_007_92026.png	1	2	83	SessionSelectionList														nonlure	3	Place	2-Back	72	80	68	0	1	95	15	39	502962	2	14	78	500923	-1	0	0	0	""	3	2039	53	502976	-54	0															1	83												
WM080112	120111_fnca	1	1	1	-657985087	1	75.032	75.031	2.0.10.147	2.0.10.242	2.0.10.242	1.0.0.439	7	234	2	3	Verdana	1	80	0	0	0	WM Stimuli\	0.7	1338.71428571429	1	687.7	0.8	859	1	721.6	0.7	1008.42857142857	1	588.8	0.8	777.25	0.8	886.75	13	541600	2	541588	27	40	541627	-999999	541603	0	20	TrialsPROC	PL_007_92026.png	1	2	84	SessionSelectionList														lure	3	Place	2-Back	73	80	69	0	0	95	1	39	505534	2	14	72	503495	-1	504074	1	579	3	3	2039	53	505548	-54	0															2	84												
WM080112	120111_fnca	1	1	1	-657985087	1	75.032	75.031	2.0.10.147	2.0.10.242	2.0.10.242	1.0.0.439	7	234	2	3	Verdana	1	80	0	0	0	WM Stimuli\	0.7	1338.71428571429	1	687.7	0.8	859	1	721.6	0.7	1008.42857142857	1	588.8	0.8	777.25	0.8	886.75	13	541600	2	541588	27	40	541627	-999999	541603	0	20	TrialsPROC	PL_010_92038.png	1	2	85	SessionSelectionList														nonlure	3	Place	2-Back	74	80	70	0	0	95	2	39	508120	1	14	86	506081	-1	506853	1	772	3	3	2039	53	508134	-54	0															3	85												
WM080112	120111_fnca	1	1	1	-657985087	1	75.032	75.031	2.0.10.147	2.0.10.242	2.0.10.242	1.0.0.439	7	234	2	3	Verdana	1	80	0	0	0	WM Stimuli\	0.7	1338.71428571429	1	687.7	0.8	859	1	721.6	0.7	1008.42857142857	1	588.8	0.8	777.25	0.8	886.75	13	541600	2	541588	27	40	541627	-999999	541603	0	20	TrialsPROC	PL_009_92037.png	1	2	86	SessionSelectionList														nonlure	3	Place	2-Back	75	80	71	0	0	95	3	39	510706	1	13	86	508667	-1	509273	1	606	3	3	2039	52	510719	-53	0															4	86												
WM080112	120111_fnca	1	1	1	-657985087	1	75.032	75.031	2.0.10.147	2.0.10.242	2.0.10.242	1.0.0.439	7	234	2	3	Verdana	1	80	0	0	0	WM Stimuli\	0.7	1338.71428571429	1	687.7	0.8	859	1	721.6	0.7	1008.42857142857	1	588.8	0.8	777.25	0.8	886.75	13	541600	2	541588	27	40	541627	-999999	541603	0	20	TrialsPROC	PL_010_92038.png	1	2	87	SessionSelectionList														target	2	Place	2-Back	76	80	72	0	0	95	4	39	513265	1	13	59	511226	-1	511958	0	732	3	2	2039	52	513278	-53	0															5	87												
WM080112	120111_fnca	1	1	1	-657985087	1	75.032	75.031	2.0.10.147	2.0.10.242	2.0.10.242	1.0.0.439	7	234	2	3	Verdana	1	80	0	0	0	WM Stimuli\	0.7	1338.71428571429	1	687.7	0.8	859	1	721.6	0.7	1008.42857142857	1	588.8	0.8	777.25	0.8	886.75	13	541600	2	541588	27	40	541627	-999999	541603	0	20	TrialsPROC	PL_009_92037.png	1	2	88	SessionSelectionList														target	2	Place	2-Back	77	80	73	0	0	95	5	39	515824	1	13	59	513785	-1	514472	0	687	3	2	2039	52	515837	-53	0															6	88												
WM080112	120111_fnca	1	1	1	-657985087	1	75.032	75.031	2.0.10.147	2.0.10.242	2.0.10.242	1.0.0.439	7	234	2	3	Verdana	1	80	0	0	0	WM Stimuli\	0.7	1338.71428571429	1	687.7	0.8	859	1	721.6	0.7	1008.42857142857	1	588.8	0.8	777.25	0.8	886.75	13	541600	2	541588	27	40	541627	-999999	541603	0	20	TrialsPROC	PL_008_92033.png	1	2	89	SessionSelectionList														nonlure	3	Place	2-Back	78	80	74	0	0	95	6	39	518409	3	14	85	516370	-1	516972	1	602	3	3	2039	53	518423	-54	0															7	89												
WM080112	120111_fnca	1	1	1	-657985087	1	75.032	75.031	2.0.10.147	2.0.10.242	2.0.10.242	1.0.0.439	7	234	2	3	Verdana	1	80	0	0	0	WM Stimuli\	0.7	1338.71428571429	1	687.7	0.8	859	1	721.6	0.7	1008.42857142857	1	588.8	0.8	777.25	0.8	886.75	13	541600	2	541588	27	40	541627	-999999	541603	0	20	TrialsPROC	PL_012_92047.png	1	2	90	SessionSelectionList														nonlure	3	Place	2-Back	79	80	75	0	0	95	7	39	520995	1	14	86	518956	-1	520806	1	1850	3	3	2039	53	521009	-54	0															8	90												
WM080112	120111_fnca	1	1	1	-657985087	1	75.032	75.031	2.0.10.147	2.0.10.242	2.0.10.242	1.0.0.439	7	234	2	3	Verdana	1	80	0	0	0	WM Stimuli\	0.7	1338.71428571429	1	687.7	0.8	859	1	721.6	0.7	1008.42857142857	1	588.8	0.8	777.25	0.8	886.75	13	541600	2	541588	27	40	541627	-999999	541603	0	20	TrialsPROC	PL_012_92047.png	1	2	91	SessionSelectionList														lure	3	Place	2-Back	80	80	76	0	0	95	8	39	523554	1	14	59	521515	-1	522825	1	1310	3	3	2039	53	523568	-54	0															9	91												
WM080112	120111_fnca	1	1	1	-657985087	1	75.032	75.031	2.0.10.147	2.0.10.242	2.0.10.242	1.0.0.439	7	234	2	3	Verdana	1	80	0	0	0	WM Stimuli\	0.7	1338.71428571429	1	687.7	0.8	859	1	721.6	0.7	1008.42857142857	1	588.8	0.8	777.25	0.8	886.75	13	541600	2	541588	27	40	541627	-999999	541603	0	20	TrialsPROC	PL_011_92044.png	1	2	92	SessionSelectionList														nonlure	3	Place	2-Back	80	80	77	0	0	95	9	39	526126	1	14	72	524087	-1	525427	1	1340	3	3	2039	53	526140	-54	0															10	92												
WM080112	120111_fnca	1	1	1	-657985087	1	75.032	75.031	2.0.10.147	2.0.10.242	2.0.10.242	1.0.0.439	7	234	2	3	Verdana	1	80	0	0	0	WM Stimuli\	0.7	1338.71428571429	1	687.7	0.8	859	1	721.6	0.7	1008.42857142857	1	588.8	0.8	777.25	0.8	886.75	13	541600	2	541588	27	40	541627	-999999	541603	0	21	Fix15secPROC	""	1	2	93	SessionSelectionList																																															6	526593	-7	0							93												
