ExperimentName	HCPID	RunNumber	Subject	Session	RandomSeed	Group	Laptop.RefreshRate	ScannerD2.RefreshRate	StudioVersion	RuntimeVersion	RuntimeVersionExpected	ExperimentVersion	triggercode	Allowed	Target	Nontarget	FontStyle	RunTrialNumber[Session]	TrialsPerRun[Session]	TotalRespGreater200[Session]	ConsecRTLess200[Session]	ConsecNonResp[Session]	StimuliDir	ACC_2_Back_Body	Avg_RT_For_Correct_Trials_2_Back_Body	ACC_0_Back_Body	Avg_RT_For_Correct_Trials_0_Back_Body	ACC_2_Back_Face	Avg_RT_For_Correct_Trials_2_Back_Face	ACC_0_Back_Face	Avg_RT_For_Correct_Trials_0_Back_Face	ACC_2_Back_Place	Avg_RT_For_Correct_Trials_2_Back_Place	ACC_0_Back_Place	Avg_RT_For_Correct_Trials_0_Back_Place	ACC_2_Back_Tools	Avg_RT_For_Correct_Trials_2_Back_Tools	ACC_0_Back_Tools	Avg_RT_For_Correct_Trials_0_Back_Tools	ExpInstrucFeelFreeToRest.OnsetDelay	ExpInstrucFeelFreeToRest.OnsetTime	ExpInstrucFeelFreeToRest.DurationError	ExpInstrucFeelFreeToRest.StartTime	ExpInstrucFeelFreeToRest.OnsetToOnsetTime	FeelFreeToRest.OnsetDelay	FeelFreeToRest.OnsetTime	FeelFreeToRest.DurationError	FeelFreeToRest.StartTime	FeelFreeToRest.OnsetToOnsetTime	SessionSelectionList	Procedure[Block]	Stimulus[Block]	RunNumberFilterValue	SessionSelectionList.Cycle	SessionSelectionList.Sample	Running[Block]	IntroButtonMap.OnsetDelay	IntroButtonMap.OnsetTime	IntroButtonMap.DurationError	IntroButtonMap.OnsetToOnsetTime	GetReady.OnsetDelay	GetReady.OnsetTime	GetReady.DurationError	GetReady.OnsetToOnsetTime	Cue2Back.OnsetDelay	Cue2Back.OnsetTime	Cue2Back.DurationError	Cue2Back.OnsetToOnsetTime	Run1Block1	TargetType	CorrectResponse	StimType	BlockType	RunTrialNumber[Block]	TrialsPerRun[Block]	TotalRespGreater200[Block]	ConsecRTLess200[Block]	ConsecNonResp[Block]	ControlAcc	ConsecSameResp	ExperimenterWindow.OnsetDelay	ExperimenterWindow.OnsetTime	ExperimenterWindow.DurationError	ExperimenterWindow.OnsetToOnsetTime	Stim.OnsetDelay	Stim.OnsetTime	Stim.DurationError	Stim.RTTime	Stim.ACC	Stim.RT	Stim.RESP	Stim.CRESP	Stim.OnsetToOnsetTime	Fix.OnsetDelay	Fix.OnsetTime	Fix.DurationError	Fix.OnsetToOnsetTime	CueTarget.OnsetDelay	CueTarget.OnsetTime	CueTarget.DurationError	CueTarget.OnsetToOnsetTime	Run1Block2	Fix15sec.OnsetDelay	Fix15sec.OnsetTime	Fix15sec.DurationError	Fix15sec.OnsetToOnsetTime	Run1Block3	Run1Block4	Run1Block5	Run1Block6	Run1Block7	Run1Block8	Block	Procedure[Trial]	Stimulus[Trial]	ReadyList	Running[Trial]	ReadyList.Cycle	ReadyList.Sample	SyncSlide.OnsetDelay	SyncSlide.OnsetTime	SyncSlide.DurationError	SyncSlide.FinishTime	SyncSlide.OnsetToOnsetTime	Trial
WM080112	189450_fnca	2	1	1	-1660584398	1	75.033	75.031	2.0.10.147	2.0.10.242	2.0.10.242	1.0.0.439	7	234	2	3	Verdana	1	80	0	0	0	WM Stimuli\	0.5	1221.6	1	936.5	0.8	1148.625	1	847.1	0.6	1370.33333333333	0.9	829.555555555556	0.8	1237.5	0.9	756.333333333333	13	425943	2	425931	26	39	425969	-999999	425946	0	22	TRSyncPROC	""	2	2	1	SessionSelectionList	119	8424	-999999	0	28	117499	-999999	0																																																	1	InitialTR	4	1	ReadyList	1	1	16	132306	-17	134289	0	1
WM080112	189450_fnca	2	1	1	-1660584398	1	75.033	75.031	2.0.10.147	2.0.10.242	2.0.10.242	1.0.0.439	7	234	2	3	Verdana	1	80	0	0	0	WM Stimuli\	0.5	1221.6	1	936.5	0.8	1148.625	1	847.1	0.6	1370.33333333333	0.9	829.555555555556	0.8	1237.5	0.9	756.333333333333	13	425943	2	425931	26	39	425969	-999999	425946	0	22	TRSyncPROC	""	2	2	1	SessionSelectionList	119	8424	-999999	0	28	117499	-999999	0																																																	1	InitialTR	3	2	ReadyList	1	2	15	134305	-16	136289	0	2
WM080112	189450_fnca	2	1	1	-1660584398	1	75.033	75.031	2.0.10.147	2.0.10.242	2.0.10.242	1.0.0.439	7	234	2	3	Verdana	1	80	0	0	0	WM Stimuli\	0.5	1221.6	1	936.5	0.8	1148.625	1	847.1	0.6	1370.33333333333	0.9	829.555555555556	0.8	1237.5	0.9	756.333333333333	13	425943	2	425931	26	39	425969	-999999	425946	0	22	TRSyncPROC	""	2	2	1	SessionSelectionList	119	8424	-999999	0	28	117499	-999999	0																																																	1	InitialTR	2	3	ReadyList	1	3	14	136304	-15	138289	0	3
WM080112	189450_fnca	2	1	1	-1660584398	1	75.033	75.031	2.0.10.147	2.0.10.242	2.0.10.242	1.0.0.439	7	234	2	3	Verdana	1	80	0	0	0	WM Stimuli\	0.5	1221.6	1	936.5	0.8	1148.625	1	847.1	0.6	1370.33333333333	0.9	829.555555555556	0.8	1237.5	0.9	756.333333333333	13	425943	2	425931	26	39	425969	-999999	425946	0	22	TRSyncPROC	""	2	2	1	SessionSelectionList	119	8424	-999999	0	28	117499	-999999	0																																																	1	InitialTR	1	4	ReadyList	1	4	13	138303	-14	140289	0	4
WM080112	189450_fnca	2	1	1	-1660584398	1	75.033	75.031	2.0.10.147	2.0.10.242	2.0.10.242	1.0.0.439	7	234	2	3	Verdana	1	80	0	0	0	WM Stimuli\	0.5	1221.6	1	936.5	0.8	1148.625	1	847.1	0.6	1370.33333333333	0.9	829.555555555556	0.8	1237.5	0.9	756.333333333333	13	425943	2	425931	26	39	425969	-999999	425946	0	23	Cue2BackPROC	""	2	2	2	SessionSelectionList									12	140302	-13	0																																													2												
WM080112	189450_fnca	2	1	1	-1660584398	1	75.033	75.031	2.0.10.147	2.0.10.242	2.0.10.242	1.0.0.439	7	234	2	3	Verdana	1	80	0	0	0	WM Stimuli\	0.5	1221.6	1	936.5	0.8	1148.625	1	847.1	0.6	1370.33333333333	0.9	829.555555555556	0.8	1237.5	0.9	756.333333333333	13	425943	2	425931	26	39	425969	-999999	425946	0	24	TrialsPROC	TO_014_TOOL14_BA.png	2	2	3	SessionSelectionList														nonlure	3	Tools	2-Back	2	80	1	0	0	0	1	52	144940	3	14	98	142888	-1	143667	1	779	3	3	2052	66	144954	-67	0																3												
WM080112	189450_fnca	2	1	1	-1660584398	1	75.033	75.031	2.0.10.147	2.0.10.242	2.0.10.242	1.0.0.439	7	234	2	3	Verdana	1	80	0	0	0	WM Stimuli\	0.5	1221.6	1	936.5	0.8	1148.625	1	847.1	0.6	1370.33333333333	0.9	829.555555555556	0.8	1237.5	0.9	756.333333333333	13	425943	2	425931	26	39	425969	-999999	425946	0	24	TrialsPROC	TO_013_TOOL13_BA.png	2	2	4	SessionSelectionList														nonlure	3	Tools	2-Back	3	80	2	0	0	0	2	39	147512	3	14	85	145473	-1	145839	1	366	3	3	2039	53	147526	-54	0																4												
WM080112	189450_fnca	2	1	1	-1660584398	1	75.033	75.031	2.0.10.147	2.0.10.242	2.0.10.242	1.0.0.439	7	234	2	3	Verdana	1	80	0	0	0	WM Stimuli\	0.5	1221.6	1	936.5	0.8	1148.625	1	847.1	0.6	1370.33333333333	0.9	829.555555555556	0.8	1237.5	0.9	756.333333333333	13	425943	2	425931	26	39	425969	-999999	425946	0	24	TrialsPROC	TO_016_TOOL16_BA.png	2	2	5	SessionSelectionList														nonlure	3	Tools	2-Back	4	80	3	0	0	0	3	39	150098	1	14	86	148059	-1	149769	1	1710	3	3	2039	53	150112	-54	0																5												
WM080112	189450_fnca	2	1	1	-1660584398	1	75.033	75.031	2.0.10.147	2.0.10.242	2.0.10.242	1.0.0.439	7	234	2	3	Verdana	1	80	0	0	0	WM Stimuli\	0.5	1221.6	1	936.5	0.8	1148.625	1	847.1	0.6	1370.33333333333	0.9	829.555555555556	0.8	1237.5	0.9	756.333333333333	13	425943	2	425931	26	39	425969	-999999	425946	0	24	TrialsPROC	TO_014_TOOL14_BA.png	2	2	6	SessionSelectionList														lure	3	Tools	2-Back	5	80	4	0	0	0	1	39	152670	3	14	72	150631	-1	151550	0	919	2	3	2039	53	152684	-54	0																6												
WM080112	189450_fnca	2	1	1	-1660584398	1	75.033	75.031	2.0.10.147	2.0.10.242	2.0.10.242	1.0.0.439	7	234	2	3	Verdana	1	80	0	0	0	WM Stimuli\	0.5	1221.6	1	936.5	0.8	1148.625	1	847.1	0.6	1370.33333333333	0.9	829.555555555556	0.8	1237.5	0.9	756.333333333333	13	425943	2	425931	26	39	425969	-999999	425946	0	24	TrialsPROC	TO_016_TOOL16_BA.png	2	2	7	SessionSelectionList														target	2	Tools	2-Back	6	80	4	0	1	0	1	38	155229	2	14	60	153191	-1	0	0	0	""	2	2038	52	155243	-53	0																7												
WM080112	189450_fnca	2	1	1	-1660584398	1	75.033	75.031	2.0.10.147	2.0.10.242	2.0.10.242	1.0.0.439	7	234	2	3	Verdana	1	80	0	0	0	WM Stimuli\	0.5	1221.6	1	936.5	0.8	1148.625	1	847.1	0.6	1370.33333333333	0.9	829.555555555556	0.8	1237.5	0.9	756.333333333333	13	425943	2	425931	26	39	425969	-999999	425946	0	24	TrialsPROC	TO_018_TOOL18_BA.png	2	2	8	SessionSelectionList														nonlure	3	Tools	2-Back	7	80	5	0	0	0	1	39	157815	2	13	85	155776	-1	157060	1	1284	3	3	2039	52	157828	-53	0																8												
WM080112	189450_fnca	2	1	1	-1660584398	1	75.033	75.031	2.0.10.147	2.0.10.242	2.0.10.242	1.0.0.439	7	234	2	3	Verdana	1	80	0	0	0	WM Stimuli\	0.5	1221.6	1	936.5	0.8	1148.625	1	847.1	0.6	1370.33333333333	0.9	829.555555555556	0.8	1237.5	0.9	756.333333333333	13	425943	2	425931	26	39	425969	-999999	425946	0	24	TrialsPROC	TO_017_TOOL17_BA.png	2	2	9	SessionSelectionList														nonlure	3	Tools	2-Back	8	80	6	0	0	0	2	39	160400	3	14	85	158361	-1	159740	1	1379	3	3	2039	53	160414	-54	0																9												
WM080112	189450_fnca	2	1	1	-1660584398	1	75.033	75.031	2.0.10.147	2.0.10.242	2.0.10.242	1.0.0.439	7	234	2	3	Verdana	1	80	0	0	0	WM Stimuli\	0.5	1221.6	1	936.5	0.8	1148.625	1	847.1	0.6	1370.33333333333	0.9	829.555555555556	0.8	1237.5	0.9	756.333333333333	13	425943	2	425931	26	39	425969	-999999	425946	0	24	TrialsPROC	TO_018_TOOL18_BA.png	2	2	10	SessionSelectionList														target	2	Tools	2-Back	9	80	7	0	0	0	1	39	162959	3	14	59	160920	-1	162230	1	1310	2	2	2039	53	162973	-54	0																10												
WM080112	189450_fnca	2	1	1	-1660584398	1	75.033	75.031	2.0.10.147	2.0.10.242	2.0.10.242	1.0.0.439	7	234	2	3	Verdana	1	80	0	0	0	WM Stimuli\	0.5	1221.6	1	936.5	0.8	1148.625	1	847.1	0.6	1370.33333333333	0.9	829.555555555556	0.8	1237.5	0.9	756.333333333333	13	425943	2	425931	26	39	425969	-999999	425946	0	24	TrialsPROC	TO_015_TOOL15_BA.png	2	2	11	SessionSelectionList														nonlure	3	Tools	2-Back	10	80	8	0	0	0	1	39	165518	3	14	59	163479	-1	164804	1	1325	3	3	2039	53	165532	-54	0																11												
WM080112	189450_fnca	2	1	1	-1660584398	1	75.033	75.031	2.0.10.147	2.0.10.242	2.0.10.242	1.0.0.439	7	234	2	3	Verdana	1	80	0	0	0	WM Stimuli\	0.5	1221.6	1	936.5	0.8	1148.625	1	847.1	0.6	1370.33333333333	0.9	829.555555555556	0.8	1237.5	0.9	756.333333333333	13	425943	2	425931	26	39	425969	-999999	425946	0	24	TrialsPROC	TO_017_TOOL17_BA.png	2	2	12	SessionSelectionList														lure	3	Tools	2-Back	11	80	9	0	0	0	2	39	168077	3	14	59	166038	-1	167785	1	1747	3	3	2039	53	168091	-54	0																12												
WM080112	189450_fnca	2	1	1	-1660584398	1	75.033	75.031	2.0.10.147	2.0.10.242	2.0.10.242	1.0.0.439	7	234	2	3	Verdana	1	80	0	0	0	WM Stimuli\	0.5	1221.6	1	936.5	0.8	1148.625	1	847.1	0.6	1370.33333333333	0.9	829.555555555556	0.8	1237.5	0.9	756.333333333333	13	425943	2	425931	26	39	425969	-999999	425946	0	25	Cue0BackPROC	BP_013_BP7_BA.png	2	2	13	SessionSelectionList																																										19	168557	-20	0												13												
WM080112	189450_fnca	2	1	1	-1660584398	1	75.033	75.031	2.0.10.147	2.0.10.242	2.0.10.242	1.0.0.439	7	234	2	3	Verdana	1	80	0	0	0	WM Stimuli\	0.5	1221.6	1	936.5	0.8	1148.625	1	847.1	0.6	1370.33333333333	0.9	829.555555555556	0.8	1237.5	0.9	756.333333333333	13	425943	2	425931	26	39	425969	-999999	425946	0	26	TrialsPROC	BP_015_H10-T_BA.png	2	2	14	SessionSelectionList														nonlure	3	Body	0-Back	12	80	10	0	0	100	3	38	173128	2	14	52	171090	-1	172093	1	1003	3	3	2038	52	173142	-53	0																14												
WM080112	189450_fnca	2	1	1	-1660584398	1	75.033	75.031	2.0.10.147	2.0.10.242	2.0.10.242	1.0.0.439	7	234	2	3	Verdana	1	80	0	0	0	WM Stimuli\	0.5	1221.6	1	936.5	0.8	1148.625	1	847.1	0.6	1370.33333333333	0.9	829.555555555556	0.8	1237.5	0.9	756.333333333333	13	425943	2	425931	26	39	425969	-999999	425946	0	26	TrialsPROC	BP_018_H13-T_BA.png	2	2	15	SessionSelectionList														nonlure	3	Body	0-Back	13	80	11	0	0	100	4	38	175687	3	14	59	173649	-1	174617	1	968	3	3	2038	52	175701	-53	0																15												
WM080112	189450_fnca	2	1	1	-1660584398	1	75.033	75.031	2.0.10.147	2.0.10.242	2.0.10.242	1.0.0.439	7	234	2	3	Verdana	1	80	0	0	0	WM Stimuli\	0.5	1221.6	1	936.5	0.8	1148.625	1	847.1	0.6	1370.33333333333	0.9	829.555555555556	0.8	1237.5	0.9	756.333333333333	13	425943	2	425931	26	39	425969	-999999	425946	0	26	TrialsPROC	BP_014_BP9_BA.png	2	2	16	SessionSelectionList														nonlure	3	Body	0-Back	14	80	12	0	0	100	5	38	178246	3	14	59	176208	-1	177448	1	1240	3	3	2038	52	178260	-53	0																16												
WM080112	189450_fnca	2	1	1	-1660584398	1	75.033	75.031	2.0.10.147	2.0.10.242	2.0.10.242	1.0.0.439	7	234	2	3	Verdana	1	80	0	0	0	WM Stimuli\	0.5	1221.6	1	936.5	0.8	1148.625	1	847.1	0.6	1370.33333333333	0.9	829.555555555556	0.8	1237.5	0.9	756.333333333333	13	425943	2	425931	26	39	425969	-999999	425946	0	26	TrialsPROC	BP_018_H13-T_BA.png	2	2	17	SessionSelectionList														lure	3	Body	0-Back	15	80	13	0	0	100	6	39	180805	3	14	58	178766	-1	179378	1	612	3	3	2039	53	180819	-54	0																17												
WM080112	189450_fnca	2	1	1	-1660584398	1	75.033	75.031	2.0.10.147	2.0.10.242	2.0.10.242	1.0.0.439	7	234	2	3	Verdana	1	80	0	0	0	WM Stimuli\	0.5	1221.6	1	936.5	0.8	1148.625	1	847.1	0.6	1370.33333333333	0.9	829.555555555556	0.8	1237.5	0.9	756.333333333333	13	425943	2	425931	26	39	425969	-999999	425946	0	26	TrialsPROC	BP_013_BP7_BA.png	2	2	18	SessionSelectionList														target	2	Body	0-Back	16	80	14	0	0	100	1	39	183377	2	14	72	181338	-1	182178	1	840	2	2	2039	53	183391	-54	0																18												
WM080112	189450_fnca	2	1	1	-1660584398	1	75.033	75.031	2.0.10.147	2.0.10.242	2.0.10.242	1.0.0.439	7	234	2	3	Verdana	1	80	0	0	0	WM Stimuli\	0.5	1221.6	1	936.5	0.8	1148.625	1	847.1	0.6	1370.33333333333	0.9	829.555555555556	0.8	1237.5	0.9	756.333333333333	13	425943	2	425931	26	39	425969	-999999	425946	0	26	TrialsPROC	BP_015_H10-T_BA.png	2	2	19	SessionSelectionList														lure	3	Body	0-Back	17	80	15	0	0	100	1	38	185936	3	14	60	183898	-1	184669	1	771	3	3	2038	52	185950	-53	0																19												
WM080112	189450_fnca	2	1	1	-1660584398	1	75.033	75.031	2.0.10.147	2.0.10.242	2.0.10.242	1.0.0.439	7	234	2	3	Verdana	1	80	0	0	0	WM Stimuli\	0.5	1221.6	1	936.5	0.8	1148.625	1	847.1	0.6	1370.33333333333	0.9	829.555555555556	0.8	1237.5	0.9	756.333333333333	13	425943	2	425931	26	39	425969	-999999	425946	0	26	TrialsPROC	BP_016_H11-T_BA.png	2	2	20	SessionSelectionList														nonlure	3	Body	0-Back	18	80	16	0	0	100	2	39	188509	2	13	72	186470	-1	187132	1	662	3	3	2039	52	188522	-53	0																20												
WM080112	189450_fnca	2	1	1	-1660584398	1	75.033	75.031	2.0.10.147	2.0.10.242	2.0.10.242	1.0.0.439	7	234	2	3	Verdana	1	80	0	0	0	WM Stimuli\	0.5	1221.6	1	936.5	0.8	1148.625	1	847.1	0.6	1370.33333333333	0.9	829.555555555556	0.8	1237.5	0.9	756.333333333333	13	425943	2	425931	26	39	425969	-999999	425946	0	26	TrialsPROC	BP_013_BP7_BA.png	2	2	21	SessionSelectionList														target	2	Body	0-Back	19	80	17	0	0	100	1	39	191068	1	13	59	189029	-1	189848	1	819	2	2	2039	52	191081	-53	0																21												
WM080112	189450_fnca	2	1	1	-1660584398	1	75.033	75.031	2.0.10.147	2.0.10.242	2.0.10.242	1.0.0.439	7	234	2	3	Verdana	1	80	0	0	0	WM Stimuli\	0.5	1221.6	1	936.5	0.8	1148.625	1	847.1	0.6	1370.33333333333	0.9	829.555555555556	0.8	1237.5	0.9	756.333333333333	13	425943	2	425931	26	39	425969	-999999	425946	0	26	TrialsPROC	BP_017_H12-T_BA.png	2	2	22	SessionSelectionList														nonlure	3	Body	0-Back	20	80	18	0	0	100	1	39	193627	2	13	59	191588	-1	192214	1	626	3	3	2039	52	193640	-53	0																22												
WM080112	189450_fnca	2	1	1	-1660584398	1	75.033	75.031	2.0.10.147	2.0.10.242	2.0.10.242	1.0.0.439	7	234	2	3	Verdana	1	80	0	0	0	WM Stimuli\	0.5	1221.6	1	936.5	0.8	1148.625	1	847.1	0.6	1370.33333333333	0.9	829.555555555556	0.8	1237.5	0.9	756.333333333333	13	425943	2	425931	26	39	425969	-999999	425946	0	26	TrialsPROC	BP_014_BP9_BA.png	2	2	23	SessionSelectionList														lure	3	Body	0-Back	21	80	19	0	0	100	2	39	196185	3	14	58	194146	-1	195970	1	1824	3	3	2039	53	196199	-54	0																23												
WM080112	189450_fnca	2	1	1	-1660584398	1	75.033	75.031	2.0.10.147	2.0.10.242	2.0.10.242	1.0.0.439	7	234	2	3	Verdana	1	80	0	0	0	WM Stimuli\	0.5	1221.6	1	936.5	0.8	1148.625	1	847.1	0.6	1370.33333333333	0.9	829.555555555556	0.8	1237.5	0.9	756.333333333333	13	425943	2	425931	26	39	425969	-999999	425946	0	27	Fix15secPROC	""	2	2	24	SessionSelectionList																																															6	196652	-7	0							24												
WM080112	189450_fnca	2	1	1	-1660584398	1	75.033	75.031	2.0.10.147	2.0.10.242	2.0.10.242	1.0.0.439	7	234	2	3	Verdana	1	80	0	0	0	WM Stimuli\	0.5	1221.6	1	936.5	0.8	1148.625	1	847.1	0.6	1370.33333333333	0.9	829.555555555556	0.8	1237.5	0.9	756.333333333333	13	425943	2	425931	26	39	425969	-999999	425946	0	28	Cue2BackPROC	""	2	2	25	SessionSelectionList									13	211659	-14	0																																													25												
WM080112	189450_fnca	2	1	1	-1660584398	1	75.033	75.031	2.0.10.147	2.0.10.242	2.0.10.242	1.0.0.439	7	234	2	3	Verdana	1	80	0	0	0	WM Stimuli\	0.5	1221.6	1	936.5	0.8	1148.625	1	847.1	0.6	1370.33333333333	0.9	829.555555555556	0.8	1237.5	0.9	756.333333333333	13	425943	2	425931	26	39	425969	-999999	425946	0	29	TrialsPROC	FC_015_M8.png	2	2	26	SessionSelectionList														nonlure	3	Face	2-Back	22	80	20	0	0	100	3	39	216257	3	14	72	214218	-1	214789	1	571	3	3	2039	53	216271	-54	0																26												
WM080112	189450_fnca	2	1	1	-1660584398	1	75.033	75.031	2.0.10.147	2.0.10.242	2.0.10.242	1.0.0.439	7	234	2	3	Verdana	1	80	0	0	0	WM Stimuli\	0.5	1221.6	1	936.5	0.8	1148.625	1	847.1	0.6	1370.33333333333	0.9	829.555555555556	0.8	1237.5	0.9	756.333333333333	13	425943	2	425931	26	39	425969	-999999	425946	0	29	TrialsPROC	FC_018_F9.png	2	2	27	SessionSelectionList														nonlure	3	Face	2-Back	23	80	21	0	0	100	4	39	218829	2	14	72	216790	-1	217506	1	716	3	3	2039	53	218843	-54	0																27												
WM080112	189450_fnca	2	1	1	-1660584398	1	75.033	75.031	2.0.10.147	2.0.10.242	2.0.10.242	1.0.0.439	7	234	2	3	Verdana	1	80	0	0	0	WM Stimuli\	0.5	1221.6	1	936.5	0.8	1148.625	1	847.1	0.6	1370.33333333333	0.9	829.555555555556	0.8	1237.5	0.9	756.333333333333	13	425943	2	425931	26	39	425969	-999999	425946	0	29	TrialsPROC	FC_018_F9.png	2	2	28	SessionSelectionList														lure	3	Face	2-Back	24	80	21	0	1	100	4	40	221402	2	13	72	219362	-1	0	0	0	""	3	2040	53	221415	-54	0																28												
WM080112	189450_fnca	2	1	1	-1660584398	1	75.033	75.031	2.0.10.147	2.0.10.242	2.0.10.242	1.0.0.439	7	234	2	3	Verdana	1	80	0	0	0	WM Stimuli\	0.5	1221.6	1	936.5	0.8	1148.625	1	847.1	0.6	1370.33333333333	0.9	829.555555555556	0.8	1237.5	0.9	756.333333333333	13	425943	2	425931	26	39	425969	-999999	425946	0	29	TrialsPROC	FC_017_M9.png	2	2	29	SessionSelectionList														nonlure	3	Face	2-Back	25	80	22	0	0	100	1	39	223974	2	13	73	221935	-1	223079	1	1144	3	3	2039	52	223987	-53	0																29												
WM080112	189450_fnca	2	1	1	-1660584398	1	75.033	75.031	2.0.10.147	2.0.10.242	2.0.10.242	1.0.0.439	7	234	2	3	Verdana	1	80	0	0	0	WM Stimuli\	0.5	1221.6	1	936.5	0.8	1148.625	1	847.1	0.6	1370.33333333333	0.9	829.555555555556	0.8	1237.5	0.9	756.333333333333	13	425943	2	425931	26	39	425969	-999999	425946	0	29	TrialsPROC	FC_017_M9.png	2	2	30	SessionSelectionList														lure	3	Face	2-Back	26	80	23	0	0	100	2	39	226546	3	14	72	224507	-1	226091	1	1584	3	3	2039	53	226560	-54	0																30												
WM080112	189450_fnca	2	1	1	-1660584398	1	75.033	75.031	2.0.10.147	2.0.10.242	2.0.10.242	1.0.0.439	7	234	2	3	Verdana	1	80	0	0	0	WM Stimuli\	0.5	1221.6	1	936.5	0.8	1148.625	1	847.1	0.6	1370.33333333333	0.9	829.555555555556	0.8	1237.5	0.9	756.333333333333	13	425943	2	425931	26	39	425969	-999999	425946	0	29	TrialsPROC	FC_016_F8.png	2	2	31	SessionSelectionList														nonlure	3	Face	2-Back	27	80	24	0	0	100	3	39	229118	2	14	72	227079	-1	228722	1	1643	3	3	2039	53	229132	-54	0																31												
WM080112	189450_fnca	2	1	1	-1660584398	1	75.033	75.031	2.0.10.147	2.0.10.242	2.0.10.242	1.0.0.439	7	234	2	3	Verdana	1	80	0	0	0	WM Stimuli\	0.5	1221.6	1	936.5	0.8	1148.625	1	847.1	0.6	1370.33333333333	0.9	829.555555555556	0.8	1237.5	0.9	756.333333333333	13	425943	2	425931	26	39	425969	-999999	425946	0	29	TrialsPROC	FC_013_M7.png	2	2	32	SessionSelectionList														nonlure	3	Face	2-Back	28	80	25	0	0	100	4	40	231691	2	13	72	229651	-1	231405	1	1754	3	3	2040	53	231704	-54	0																32												
WM080112	189450_fnca	2	1	1	-1660584398	1	75.033	75.031	2.0.10.147	2.0.10.242	2.0.10.242	1.0.0.439	7	234	2	3	Verdana	1	80	0	0	0	WM Stimuli\	0.5	1221.6	1	936.5	0.8	1148.625	1	847.1	0.6	1370.33333333333	0.9	829.555555555556	0.8	1237.5	0.9	756.333333333333	13	425943	2	425931	26	39	425969	-999999	425946	0	29	TrialsPROC	FC_014_F7.png	2	2	33	SessionSelectionList														nonlure	3	Face	2-Back	29	80	26	0	0	100	5	39	234263	2	13	73	232224	-1	233303	1	1079	3	3	2039	52	234276	-53	0																33												
WM080112	189450_fnca	2	1	1	-1660584398	1	75.033	75.031	2.0.10.147	2.0.10.242	2.0.10.242	1.0.0.439	7	234	2	3	Verdana	1	80	0	0	0	WM Stimuli\	0.5	1221.6	1	936.5	0.8	1148.625	1	847.1	0.6	1370.33333333333	0.9	829.555555555556	0.8	1237.5	0.9	756.333333333333	13	425943	2	425931	26	39	425969	-999999	425946	0	29	TrialsPROC	FC_013_M7.png	2	2	34	SessionSelectionList														target	2	Face	2-Back	30	80	27	0	0	100	1	39	236835	3	14	72	234796	-1	235494	1	698	2	2	2039	53	236849	-54	0																34												
WM080112	189450_fnca	2	1	1	-1660584398	1	75.033	75.031	2.0.10.147	2.0.10.242	2.0.10.242	1.0.0.439	7	234	2	3	Verdana	1	80	0	0	0	WM Stimuli\	0.5	1221.6	1	936.5	0.8	1148.625	1	847.1	0.6	1370.33333333333	0.9	829.555555555556	0.8	1237.5	0.9	756.333333333333	13	425943	2	425931	26	39	425969	-999999	425946	0	29	TrialsPROC	FC_014_F7.png	2	2	35	SessionSelectionList														target	2	Face	2-Back	31	80	28	0	0	100	1	39	239407	2	14	72	237368	-1	239030	0	1662	3	2	2039	53	239421	-54	0																35												
WM080112	189450_fnca	2	1	1	-1660584398	1	75.033	75.031	2.0.10.147	2.0.10.242	2.0.10.242	1.0.0.439	7	234	2	3	Verdana	1	80	0	0	0	WM Stimuli\	0.5	1221.6	1	936.5	0.8	1148.625	1	847.1	0.6	1370.33333333333	0.9	829.555555555556	0.8	1237.5	0.9	756.333333333333	13	425943	2	425931	26	39	425969	-999999	425946	0	30	Cue0BackPROC	TO_019_TOOL19_BA.png	2	2	36	SessionSelectionList																																										19	239887	-20	0												36												
WM080112	189450_fnca	2	1	1	-1660584398	1	75.033	75.031	2.0.10.147	2.0.10.242	2.0.10.242	1.0.0.439	7	234	2	3	Verdana	1	80	0	0	0	WM Stimuli\	0.5	1221.6	1	936.5	0.8	1148.625	1	847.1	0.6	1370.33333333333	0.9	829.555555555556	0.8	1237.5	0.9	756.333333333333	13	425943	2	425931	26	39	425969	-999999	425946	0	31	TrialsPROC	TO_019_TOOL19_BA.png	2	2	37	SessionSelectionList														target	2	Tools	0-Back	32	80	28	0	1	91	1	40	244459	2	13	51	242419	-1	0	0	0	""	2	2040	53	244472	-54	0																37												
WM080112	189450_fnca	2	1	1	-1660584398	1	75.033	75.031	2.0.10.147	2.0.10.242	2.0.10.242	1.0.0.439	7	234	2	3	Verdana	1	80	0	0	0	WM Stimuli\	0.5	1221.6	1	936.5	0.8	1148.625	1	847.1	0.6	1370.33333333333	0.9	829.555555555556	0.8	1237.5	0.9	756.333333333333	13	425943	2	425931	26	39	425969	-999999	425946	0	31	TrialsPROC	TO_024_TOOL24_BA.png	2	2	38	SessionSelectionList														nonlure	3	Tools	0-Back	33	80	29	0	0	92	1	38	247017	3	14	60	244979	-1	245782	1	803	3	3	2038	52	247031	-53	0																38												
WM080112	189450_fnca	2	1	1	-1660584398	1	75.033	75.031	2.0.10.147	2.0.10.242	2.0.10.242	1.0.0.439	7	234	2	3	Verdana	1	80	0	0	0	WM Stimuli\	0.5	1221.6	1	936.5	0.8	1148.625	1	847.1	0.6	1370.33333333333	0.9	829.555555555556	0.8	1237.5	0.9	756.333333333333	13	425943	2	425931	26	39	425969	-999999	425946	0	31	TrialsPROC	TO_019_TOOL19_BA.png	2	2	39	SessionSelectionList														target	2	Tools	0-Back	34	80	30	0	0	92	1	39	249576	3	14	58	247537	-1	248271	1	734	2	2	2039	53	249590	-54	0																39												
WM080112	189450_fnca	2	1	1	-1660584398	1	75.033	75.031	2.0.10.147	2.0.10.242	2.0.10.242	1.0.0.439	7	234	2	3	Verdana	1	80	0	0	0	WM Stimuli\	0.5	1221.6	1	936.5	0.8	1148.625	1	847.1	0.6	1370.33333333333	0.9	829.555555555556	0.8	1237.5	0.9	756.333333333333	13	425943	2	425931	26	39	425969	-999999	425946	0	31	TrialsPROC	TO_023_TOOL23_BA.png	2	2	40	SessionSelectionList														nonlure	3	Tools	0-Back	35	80	31	0	0	93	1	38	252135	3	14	60	250097	-1	251029	1	932	3	3	2038	52	252149	-53	0																40												
WM080112	189450_fnca	2	1	1	-1660584398	1	75.033	75.031	2.0.10.147	2.0.10.242	2.0.10.242	1.0.0.439	7	234	2	3	Verdana	1	80	0	0	0	WM Stimuli\	0.5	1221.6	1	936.5	0.8	1148.625	1	847.1	0.6	1370.33333333333	0.9	829.555555555556	0.8	1237.5	0.9	756.333333333333	13	425943	2	425931	26	39	425969	-999999	425946	0	31	TrialsPROC	TO_020_TOOL20_BA.png	2	2	41	SessionSelectionList														nonlure	3	Tools	0-Back	36	80	32	0	0	93	2	39	254694	2	14	58	252655	-1	253380	1	725	3	3	2039	53	254708	-54	0																41												
WM080112	189450_fnca	2	1	1	-1660584398	1	75.033	75.031	2.0.10.147	2.0.10.242	2.0.10.242	1.0.0.439	7	234	2	3	Verdana	1	80	0	0	0	WM Stimuli\	0.5	1221.6	1	936.5	0.8	1148.625	1	847.1	0.6	1370.33333333333	0.9	829.555555555556	0.8	1237.5	0.9	756.333333333333	13	425943	2	425931	26	39	425969	-999999	425946	0	31	TrialsPROC	TO_020_TOOL20_BA.png	2	2	42	SessionSelectionList														lure	3	Tools	0-Back	37	80	33	0	0	94	3	39	257253	2	14	59	255214	-1	255720	1	506	3	3	2039	53	257267	-54	0																42												
WM080112	189450_fnca	2	1	1	-1660584398	1	75.033	75.031	2.0.10.147	2.0.10.242	2.0.10.242	1.0.0.439	7	234	2	3	Verdana	1	80	0	0	0	WM Stimuli\	0.5	1221.6	1	936.5	0.8	1148.625	1	847.1	0.6	1370.33333333333	0.9	829.555555555556	0.8	1237.5	0.9	756.333333333333	13	425943	2	425931	26	39	425969	-999999	425946	0	31	TrialsPROC	TO_022_TOOL22_BA.png	2	2	43	SessionSelectionList														nonlure	3	Tools	0-Back	38	80	34	0	0	94	4	39	259812	3	14	59	257773	-1	258838	1	1065	3	3	2039	53	259826	-54	0																43												
WM080112	189450_fnca	2	1	1	-1660584398	1	75.033	75.031	2.0.10.147	2.0.10.242	2.0.10.242	1.0.0.439	7	234	2	3	Verdana	1	80	0	0	0	WM Stimuli\	0.5	1221.6	1	936.5	0.8	1148.625	1	847.1	0.6	1370.33333333333	0.9	829.555555555556	0.8	1237.5	0.9	756.333333333333	13	425943	2	425931	26	39	425969	-999999	425946	0	31	TrialsPROC	TO_022_TOOL22_BA.png	2	2	44	SessionSelectionList														lure	3	Tools	0-Back	39	80	35	0	0	94	5	39	262371	3	14	59	260332	-1	260899	1	567	3	3	2039	53	262385	-54	0																44												
WM080112	189450_fnca	2	1	1	-1660584398	1	75.033	75.031	2.0.10.147	2.0.10.242	2.0.10.242	1.0.0.439	7	234	2	3	Verdana	1	80	0	0	0	WM Stimuli\	0.5	1221.6	1	936.5	0.8	1148.625	1	847.1	0.6	1370.33333333333	0.9	829.555555555556	0.8	1237.5	0.9	756.333333333333	13	425943	2	425931	26	39	425969	-999999	425946	0	31	TrialsPROC	TO_021_TOOL21_BA.png	2	2	45	SessionSelectionList														nonlure	3	Tools	0-Back	40	80	36	0	0	95	6	39	264930	2	14	59	262891	-1	263590	1	699	3	3	2039	53	264944	-54	0																45												
WM080112	189450_fnca	2	1	1	-1660584398	1	75.033	75.031	2.0.10.147	2.0.10.242	2.0.10.242	1.0.0.439	7	234	2	3	Verdana	1	80	0	0	0	WM Stimuli\	0.5	1221.6	1	936.5	0.8	1148.625	1	847.1	0.6	1370.33333333333	0.9	829.555555555556	0.8	1237.5	0.9	756.333333333333	13	425943	2	425931	26	39	425969	-999999	425946	0	31	TrialsPROC	TO_021_TOOL21_BA.png	2	2	46	SessionSelectionList														lure	3	Tools	0-Back	41	80	37	0	0	95	7	39	267489	1	14	59	265450	-1	266226	1	776	3	3	2039	53	267503	-54	0																46												
WM080112	189450_fnca	2	1	1	-1660584398	1	75.033	75.031	2.0.10.147	2.0.10.242	2.0.10.242	1.0.0.439	7	234	2	3	Verdana	1	80	0	0	0	WM Stimuli\	0.5	1221.6	1	936.5	0.8	1148.625	1	847.1	0.6	1370.33333333333	0.9	829.555555555556	0.8	1237.5	0.9	756.333333333333	13	425943	2	425931	26	39	425969	-999999	425946	0	32	Fix15secPROC	""	2	2	47	SessionSelectionList																																															6	267956	-7	0							47												
WM080112	189450_fnca	2	1	1	-1660584398	1	75.033	75.031	2.0.10.147	2.0.10.242	2.0.10.242	1.0.0.439	7	234	2	3	Verdana	1	80	0	0	0	WM Stimuli\	0.5	1221.6	1	936.5	0.8	1148.625	1	847.1	0.6	1370.33333333333	0.9	829.555555555556	0.8	1237.5	0.9	756.333333333333	13	425943	2	425931	26	39	425969	-999999	425946	0	33	Cue2BackPROC	""	2	2	48	SessionSelectionList									12	282962	-13	0																																													48												
WM080112	189450_fnca	2	1	1	-1660584398	1	75.033	75.031	2.0.10.147	2.0.10.242	2.0.10.242	1.0.0.439	7	234	2	3	Verdana	1	80	0	0	0	WM Stimuli\	0.5	1221.6	1	936.5	0.8	1148.625	1	847.1	0.6	1370.33333333333	0.9	829.555555555556	0.8	1237.5	0.9	756.333333333333	13	425943	2	425931	26	39	425969	-999999	425946	0	34	TrialsPROC	BP_020_H17-T_BA.png	2	2	49	SessionSelectionList														nonlure	3	Body	2-Back	42	80	38	0	0	95	8	40	287561	1	13	71	285521	-1	286411	1	890	3	3	2040	53	287574	-54	0																49												
WM080112	189450_fnca	2	1	1	-1660584398	1	75.033	75.031	2.0.10.147	2.0.10.242	2.0.10.242	1.0.0.439	7	234	2	3	Verdana	1	80	0	0	0	WM Stimuli\	0.5	1221.6	1	936.5	0.8	1148.625	1	847.1	0.6	1370.33333333333	0.9	829.555555555556	0.8	1237.5	0.9	756.333333333333	13	425943	2	425931	26	39	425969	-999999	425946	0	34	TrialsPROC	BP_019_H14-T_BA.png	2	2	50	SessionSelectionList														nonlure	3	Body	2-Back	43	80	39	0	0	95	9	39	290133	1	13	73	288094	-1	289872	1	1778	3	3	2039	52	290146	-53	0																50												
WM080112	189450_fnca	2	1	1	-1660584398	1	75.033	75.031	2.0.10.147	2.0.10.242	2.0.10.242	1.0.0.439	7	234	2	3	Verdana	1	80	0	0	0	WM Stimuli\	0.5	1221.6	1	936.5	0.8	1148.625	1	847.1	0.6	1370.33333333333	0.9	829.555555555556	0.8	1237.5	0.9	756.333333333333	13	425943	2	425931	26	39	425969	-999999	425946	0	34	TrialsPROC	BP_020_H17-T_BA.png	2	2	51	SessionSelectionList														target	2	Body	2-Back	44	80	40	0	0	95	1	39	292692	2	13	59	290653	-1	291525	1	872	2	2	2039	52	292705	-53	0																51												
WM080112	189450_fnca	2	1	1	-1660584398	1	75.033	75.031	2.0.10.147	2.0.10.242	2.0.10.242	1.0.0.439	7	234	2	3	Verdana	1	80	0	0	0	WM Stimuli\	0.5	1221.6	1	936.5	0.8	1148.625	1	847.1	0.6	1370.33333333333	0.9	829.555555555556	0.8	1237.5	0.9	756.333333333333	13	425943	2	425931	26	39	425969	-999999	425946	0	34	TrialsPROC	BP_019_H14-T_BA.png	2	2	52	SessionSelectionList														target	2	Body	2-Back	45	80	40	0	1	95	1	39	295251	1	13	59	293212	-1	0	0	0	""	2	2039	52	295264	-53	0																52												
WM080112	189450_fnca	2	1	1	-1660584398	1	75.033	75.031	2.0.10.147	2.0.10.242	2.0.10.242	1.0.0.439	7	234	2	3	Verdana	1	80	0	0	0	WM Stimuli\	0.5	1221.6	1	936.5	0.8	1148.625	1	847.1	0.6	1370.33333333333	0.9	829.555555555556	0.8	1237.5	0.9	756.333333333333	13	425943	2	425931	26	39	425969	-999999	425946	0	34	TrialsPROC	BP_024_H3-T_BA.png	2	2	53	SessionSelectionList														nonlure	3	Body	2-Back	46	80	41	0	0	95	1	39	297823	2	13	72	295784	-1	297718	0	1934	2	3	2039	52	297836	-53	0																53												
WM080112	189450_fnca	2	1	1	-1660584398	1	75.033	75.031	2.0.10.147	2.0.10.242	2.0.10.242	1.0.0.439	7	234	2	3	Verdana	1	80	0	0	0	WM Stimuli\	0.5	1221.6	1	936.5	0.8	1148.625	1	847.1	0.6	1370.33333333333	0.9	829.555555555556	0.8	1237.5	0.9	756.333333333333	13	425943	2	425931	26	39	425969	-999999	425946	0	34	TrialsPROC	BP_024_H3-T_BA.png	2	2	54	SessionSelectionList														lure	3	Body	2-Back	47	80	42	0	0	95	2	39	300382	2	13	59	298343	-1	300084	0	1741	2	3	2039	52	300395	-53	0																54												
WM080112	189450_fnca	2	1	1	-1660584398	1	75.033	75.031	2.0.10.147	2.0.10.242	2.0.10.242	1.0.0.439	7	234	2	3	Verdana	1	80	0	0	0	WM Stimuli\	0.5	1221.6	1	936.5	0.8	1148.625	1	847.1	0.6	1370.33333333333	0.9	829.555555555556	0.8	1237.5	0.9	756.333333333333	13	425943	2	425931	26	39	425969	-999999	425946	0	34	TrialsPROC	BP_025_H5-T_BA.png	2	2	55	SessionSelectionList														nonlure	3	Body	2-Back	48	80	43	0	0	95	3	39	302941	2	13	59	300902	-1	302205	0	1303	2	3	2039	52	302954	-53	0																55												
WM080112	189450_fnca	2	1	1	-1660584398	1	75.033	75.031	2.0.10.147	2.0.10.242	2.0.10.242	1.0.0.439	7	234	2	3	Verdana	1	80	0	0	0	WM Stimuli\	0.5	1221.6	1	936.5	0.8	1148.625	1	847.1	0.6	1370.33333333333	0.9	829.555555555556	0.8	1237.5	0.9	756.333333333333	13	425943	2	425931	26	39	425969	-999999	425946	0	34	TrialsPROC	BP_023_H25-T_BA.png	2	2	56	SessionSelectionList														nonlure	3	Body	2-Back	49	80	44	0	0	95	4	39	305513	1	14	72	303474	-1	305316	0	1842	2	3	2039	53	305527	-54	0																56												
WM080112	189450_fnca	2	1	1	-1660584398	1	75.033	75.031	2.0.10.147	2.0.10.242	2.0.10.242	1.0.0.439	7	234	2	3	Verdana	1	80	0	0	0	WM Stimuli\	0.5	1221.6	1	936.5	0.8	1148.625	1	847.1	0.6	1370.33333333333	0.9	829.555555555556	0.8	1237.5	0.9	756.333333333333	13	425943	2	425931	26	39	425969	-999999	425946	0	34	TrialsPROC	BP_022_H24-T_BA.png	2	2	57	SessionSelectionList														nonlure	3	Body	2-Back	50	80	45	0	0	95	1	39	308085	2	14	72	306046	-1	307112	1	1066	3	3	2039	53	308099	-54	0																57												
WM080112	189450_fnca	2	1	1	-1660584398	1	75.033	75.031	2.0.10.147	2.0.10.242	2.0.10.242	1.0.0.439	7	234	2	3	Verdana	1	80	0	0	0	WM Stimuli\	0.5	1221.6	1	936.5	0.8	1148.625	1	847.1	0.6	1370.33333333333	0.9	829.555555555556	0.8	1237.5	0.9	756.333333333333	13	425943	2	425931	26	39	425969	-999999	425946	0	34	TrialsPROC	BP_022_H24-T_BA.png	2	2	58	SessionSelectionList														lure	3	Body	2-Back	51	80	46	0	0	95	2	39	310644	3	14	59	308605	-1	310107	1	1502	3	3	2039	53	310658	-54	0																58												
WM080112	189450_fnca	2	1	1	-1660584398	1	75.033	75.031	2.0.10.147	2.0.10.242	2.0.10.242	1.0.0.439	7	234	2	3	Verdana	1	80	0	0	0	WM Stimuli\	0.5	1221.6	1	936.5	0.8	1148.625	1	847.1	0.6	1370.33333333333	0.9	829.555555555556	0.8	1237.5	0.9	756.333333333333	13	425943	2	425931	26	39	425969	-999999	425946	0	35	Cue2BackPROC	""	2	2	59	SessionSelectionList									6	311111	-7	0																																													59												
WM080112	189450_fnca	2	1	1	-1660584398	1	75.033	75.031	2.0.10.147	2.0.10.242	2.0.10.242	1.0.0.439	7	234	2	3	Verdana	1	80	0	0	0	WM Stimuli\	0.5	1221.6	1	936.5	0.8	1148.625	1	847.1	0.6	1370.33333333333	0.9	829.555555555556	0.8	1237.5	0.9	756.333333333333	13	425943	2	425931	26	39	425969	-999999	425946	0	36	TrialsPROC	PL_019_SCENE_05.png	2	2	60	SessionSelectionList														nonlure	3	Place	2-Back	52	80	47	0	0	95	1	39	315709	2	13	65	313670	-1	315537	0	1867	2	3	2039	52	315722	-53	0																60												
WM080112	189450_fnca	2	1	1	-1660584398	1	75.033	75.031	2.0.10.147	2.0.10.242	2.0.10.242	1.0.0.439	7	234	2	3	Verdana	1	80	0	0	0	WM Stimuli\	0.5	1221.6	1	936.5	0.8	1148.625	1	847.1	0.6	1370.33333333333	0.9	829.555555555556	0.8	1237.5	0.9	756.333333333333	13	425943	2	425931	26	39	425969	-999999	425946	0	36	TrialsPROC	PL_017_SCENE_03.png	2	2	61	SessionSelectionList														nonlure	3	Place	2-Back	53	80	48	0	0	95	1	39	318281	2	14	72	316242	-1	317362	1	1120	3	3	2039	53	318295	-54	0																61												
WM080112	189450_fnca	2	1	1	-1660584398	1	75.033	75.031	2.0.10.147	2.0.10.242	2.0.10.242	1.0.0.439	7	234	2	3	Verdana	1	80	0	0	0	WM Stimuli\	0.5	1221.6	1	936.5	0.8	1148.625	1	847.1	0.6	1370.33333333333	0.9	829.555555555556	0.8	1237.5	0.9	756.333333333333	13	425943	2	425931	26	39	425969	-999999	425946	0	36	TrialsPROC	PL_017_SCENE_03.png	2	2	62	SessionSelectionList														lure	3	Place	2-Back	54	80	48	0	1	95	1	39	320853	2	14	72	318814	-1	0	0	0	""	3	2039	53	320867	-54	0																62												
WM080112	189450_fnca	2	1	1	-1660584398	1	75.033	75.031	2.0.10.147	2.0.10.242	2.0.10.242	1.0.0.439	7	234	2	3	Verdana	1	80	0	0	0	WM Stimuli\	0.5	1221.6	1	936.5	0.8	1148.625	1	847.1	0.6	1370.33333333333	0.9	829.555555555556	0.8	1237.5	0.9	756.333333333333	13	425943	2	425931	26	39	425969	-999999	425946	0	36	TrialsPROC	PL_016_SCENE_02.png	2	2	63	SessionSelectionList														nonlure	3	Place	2-Back	55	80	49	0	0	95	1	39	323425	2	14	72	321386	-1	322771	1	1385	3	3	2039	53	323439	-54	0																63												
WM080112	189450_fnca	2	1	1	-1660584398	1	75.033	75.031	2.0.10.147	2.0.10.242	2.0.10.242	1.0.0.439	7	234	2	3	Verdana	1	80	0	0	0	WM Stimuli\	0.5	1221.6	1	936.5	0.8	1148.625	1	847.1	0.6	1370.33333333333	0.9	829.555555555556	0.8	1237.5	0.9	756.333333333333	13	425943	2	425931	26	39	425969	-999999	425946	0	36	TrialsPROC	PL_015_SCENE_01.png	2	2	64	SessionSelectionList														nonlure	3	Place	2-Back	56	80	50	0	0	95	2	39	325998	2	13	73	323959	-1	325694	1	1735	3	3	2039	52	326011	-53	0																64												
WM080112	189450_fnca	2	1	1	-1660584398	1	75.033	75.031	2.0.10.147	2.0.10.242	2.0.10.242	1.0.0.439	7	234	2	3	Verdana	1	80	0	0	0	WM Stimuli\	0.5	1221.6	1	936.5	0.8	1148.625	1	847.1	0.6	1370.33333333333	0.9	829.555555555556	0.8	1237.5	0.9	756.333333333333	13	425943	2	425931	26	39	425969	-999999	425946	0	36	TrialsPROC	PL_016_SCENE_02.png	2	2	65	SessionSelectionList														target	2	Place	2-Back	57	80	51	0	0	95	1	39	328570	1	14	72	326531	-1	327509	1	978	2	2	2039	53	328584	-54	0																65												
WM080112	189450_fnca	2	1	1	-1660584398	1	75.033	75.031	2.0.10.147	2.0.10.242	2.0.10.242	1.0.0.439	7	234	2	3	Verdana	1	80	0	0	0	WM Stimuli\	0.5	1221.6	1	936.5	0.8	1148.625	1	847.1	0.6	1370.33333333333	0.9	829.555555555556	0.8	1237.5	0.9	756.333333333333	13	425943	2	425931	26	39	425969	-999999	425946	0	36	TrialsPROC	PL_015_SCENE_01.png	2	2	66	SessionSelectionList														target	2	Place	2-Back	58	80	52	0	0	95	2	39	331142	2	14	72	329103	-1	330956	1	1853	2	2	2039	53	331156	-54	0																66												
WM080112	189450_fnca	2	1	1	-1660584398	1	75.033	75.031	2.0.10.147	2.0.10.242	2.0.10.242	1.0.0.439	7	234	2	3	Verdana	1	80	0	0	0	WM Stimuli\	0.5	1221.6	1	936.5	0.8	1148.625	1	847.1	0.6	1370.33333333333	0.9	829.555555555556	0.8	1237.5	0.9	756.333333333333	13	425943	2	425931	26	39	425969	-999999	425946	0	36	TrialsPROC	PL_020_SCENE_06.png	2	2	67	SessionSelectionList														nonlure	3	Place	2-Back	59	80	53	0	0	95	1	39	333714	2	14	72	331675	-1	332826	1	1151	3	3	2039	53	333728	-54	0																67												
WM080112	189450_fnca	2	1	1	-1660584398	1	75.033	75.031	2.0.10.147	2.0.10.242	2.0.10.242	1.0.0.439	7	234	2	3	Verdana	1	80	0	0	0	WM Stimuli\	0.5	1221.6	1	936.5	0.8	1148.625	1	847.1	0.6	1370.33333333333	0.9	829.555555555556	0.8	1237.5	0.9	756.333333333333	13	425943	2	425931	26	39	425969	-999999	425946	0	36	TrialsPROC	PL_020_SCENE_06.png	2	2	68	SessionSelectionList														lure	3	Place	2-Back	60	80	53	0	1	95	1	39	336287	1	13	73	334248	-1	0	0	0	""	3	2039	52	336300	-53	0																68												
WM080112	189450_fnca	2	1	1	-1660584398	1	75.033	75.031	2.0.10.147	2.0.10.242	2.0.10.242	1.0.0.439	7	234	2	3	Verdana	1	80	0	0	0	WM Stimuli\	0.5	1221.6	1	936.5	0.8	1148.625	1	847.1	0.6	1370.33333333333	0.9	829.555555555556	0.8	1237.5	0.9	756.333333333333	13	425943	2	425931	26	39	425969	-999999	425946	0	36	TrialsPROC	PL_018_SCENE_04.png	2	2	69	SessionSelectionList														nonlure	3	Place	2-Back	61	80	53	0	2	95	1	39	338886	1	13	99	336847	-1	0	0	0	""	3	2039	52	338899	-53	0																69												
WM080112	189450_fnca	2	1	1	-1660584398	1	75.033	75.031	2.0.10.147	2.0.10.242	2.0.10.242	1.0.0.439	7	234	2	3	Verdana	1	80	0	0	0	WM Stimuli\	0.5	1221.6	1	936.5	0.8	1148.625	1	847.1	0.6	1370.33333333333	0.9	829.555555555556	0.8	1237.5	0.9	756.333333333333	13	425943	2	425931	26	39	425969	-999999	425946	0	37	Fix15secPROC	""	2	2	70	SessionSelectionList																																															5	339352	-6	0							70												
WM080112	189450_fnca	2	1	1	-1660584398	1	75.033	75.031	2.0.10.147	2.0.10.242	2.0.10.242	1.0.0.439	7	234	2	3	Verdana	1	80	0	0	0	WM Stimuli\	0.5	1221.6	1	936.5	0.8	1148.625	1	847.1	0.6	1370.33333333333	0.9	829.555555555556	0.8	1237.5	0.9	756.333333333333	13	425943	2	425931	26	39	425969	-999999	425946	0	38	Cue0BackPROC	FC_020_F10.png	2	2	71	SessionSelectionList																																										52	354399	-53	0												71												
WM080112	189450_fnca	2	1	1	-1660584398	1	75.033	75.031	2.0.10.147	2.0.10.242	2.0.10.242	1.0.0.439	7	234	2	3	Verdana	1	80	0	0	0	WM Stimuli\	0.5	1221.6	1	936.5	0.8	1148.625	1	847.1	0.6	1370.33333333333	0.9	829.555555555556	0.8	1237.5	0.9	756.333333333333	13	425943	2	425931	26	39	425969	-999999	425946	0	39	TrialsPROC	FC_024_F12.png	2	2	72	SessionSelectionList														nonlure	3	Face	0-Back	62	80	54	0	0	95	1	39	358984	2	14	98	356945	-1	358067	1	1122	3	3	2039	53	358998	-54	0																72												
WM080112	189450_fnca	2	1	1	-1660584398	1	75.033	75.031	2.0.10.147	2.0.10.242	2.0.10.242	1.0.0.439	7	234	2	3	Verdana	1	80	0	0	0	WM Stimuli\	0.5	1221.6	1	936.5	0.8	1148.625	1	847.1	0.6	1370.33333333333	0.9	829.555555555556	0.8	1237.5	0.9	756.333333333333	13	425943	2	425931	26	39	425969	-999999	425946	0	39	TrialsPROC	FC_023_M12.png	2	2	73	SessionSelectionList														nonlure	3	Face	0-Back	63	80	55	0	0	95	2	39	361569	3	14	85	359530	-1	360318	1	788	3	3	2039	53	361583	-54	0																73												
WM080112	189450_fnca	2	1	1	-1660584398	1	75.033	75.031	2.0.10.147	2.0.10.242	2.0.10.242	1.0.0.439	7	234	2	3	Verdana	1	80	0	0	0	WM Stimuli\	0.5	1221.6	1	936.5	0.8	1148.625	1	847.1	0.6	1370.33333333333	0.9	829.555555555556	0.8	1237.5	0.9	756.333333333333	13	425943	2	425931	26	39	425969	-999999	425946	0	39	TrialsPROC	FC_020_F10.png	2	2	74	SessionSelectionList														target	2	Face	0-Back	64	80	56	0	0	96	1	39	364142	2	13	73	362103	-1	362846	1	743	2	2	2039	52	364155	-53	0																74												
WM080112	189450_fnca	2	1	1	-1660584398	1	75.033	75.031	2.0.10.147	2.0.10.242	2.0.10.242	1.0.0.439	7	234	2	3	Verdana	1	80	0	0	0	WM Stimuli\	0.5	1221.6	1	936.5	0.8	1148.625	1	847.1	0.6	1370.33333333333	0.9	829.555555555556	0.8	1237.5	0.9	756.333333333333	13	425943	2	425931	26	39	425969	-999999	425946	0	39	TrialsPROC	FC_024_F12.png	2	2	75	SessionSelectionList														lure	3	Face	0-Back	65	80	57	0	0	96	1	39	366714	1	14	72	364675	-1	365353	1	678	3	3	2039	53	366728	-54	0																75												
WM080112	189450_fnca	2	1	1	-1660584398	1	75.033	75.031	2.0.10.147	2.0.10.242	2.0.10.242	1.0.0.439	7	234	2	3	Verdana	1	80	0	0	0	WM Stimuli\	0.5	1221.6	1	936.5	0.8	1148.625	1	847.1	0.6	1370.33333333333	0.9	829.555555555556	0.8	1237.5	0.9	756.333333333333	13	425943	2	425931	26	39	425969	-999999	425946	0	39	TrialsPROC	FC_020_F10.png	2	2	76	SessionSelectionList														target	2	Face	0-Back	66	80	58	0	0	96	1	39	369286	3	14	72	367247	-1	368051	1	804	2	2	2039	53	369300	-54	0																76												
WM080112	189450_fnca	2	1	1	-1660584398	1	75.033	75.031	2.0.10.147	2.0.10.242	2.0.10.242	1.0.0.439	7	234	2	3	Verdana	1	80	0	0	0	WM Stimuli\	0.5	1221.6	1	936.5	0.8	1148.625	1	847.1	0.6	1370.33333333333	0.9	829.555555555556	0.8	1237.5	0.9	756.333333333333	13	425943	2	425931	26	39	425969	-999999	425946	0	39	TrialsPROC	FC_022_F11.png	2	2	77	SessionSelectionList														nonlure	3	Face	0-Back	67	80	59	0	0	96	1	39	371872	2	13	86	369833	-1	370522	1	689	3	3	2039	52	371885	-53	0																77												
WM080112	189450_fnca	2	1	1	-1660584398	1	75.033	75.031	2.0.10.147	2.0.10.242	2.0.10.242	1.0.0.439	7	234	2	3	Verdana	1	80	0	0	0	WM Stimuli\	0.5	1221.6	1	936.5	0.8	1148.625	1	847.1	0.6	1370.33333333333	0.9	829.555555555556	0.8	1237.5	0.9	756.333333333333	13	425943	2	425931	26	39	425969	-999999	425946	0	39	TrialsPROC	FC_023_M12.png	2	2	78	SessionSelectionList														lure	3	Face	0-Back	68	80	60	0	0	96	2	39	374444	1	14	72	372405	-1	373661	1	1256	3	3	2039	53	374458	-54	0																78												
WM080112	189450_fnca	2	1	1	-1660584398	1	75.033	75.031	2.0.10.147	2.0.10.242	2.0.10.242	1.0.0.439	7	234	2	3	Verdana	1	80	0	0	0	WM Stimuli\	0.5	1221.6	1	936.5	0.8	1148.625	1	847.1	0.6	1370.33333333333	0.9	829.555555555556	0.8	1237.5	0.9	756.333333333333	13	425943	2	425931	26	39	425969	-999999	425946	0	39	TrialsPROC	FC_021_M11.png	2	2	79	SessionSelectionList														nonlure	3	Face	0-Back	69	80	61	0	0	96	3	39	377030	1	13	86	374991	-1	375928	1	937	3	3	2039	52	377043	-53	0																79												
WM080112	189450_fnca	2	1	1	-1660584398	1	75.033	75.031	2.0.10.147	2.0.10.242	2.0.10.242	1.0.0.439	7	234	2	3	Verdana	1	80	0	0	0	WM Stimuli\	0.5	1221.6	1	936.5	0.8	1148.625	1	847.1	0.6	1370.33333333333	0.9	829.555555555556	0.8	1237.5	0.9	756.333333333333	13	425943	2	425931	26	39	425969	-999999	425946	0	39	TrialsPROC	FC_021_M11.png	2	2	80	SessionSelectionList														lure	3	Face	0-Back	70	80	62	0	0	97	4	39	379602	2	14	72	377563	-1	378055	1	492	3	3	2039	53	379616	-54	0																80												
WM080112	189450_fnca	2	1	1	-1660584398	1	75.033	75.031	2.0.10.147	2.0.10.242	2.0.10.242	1.0.0.439	7	234	2	3	Verdana	1	80	0	0	0	WM Stimuli\	0.5	1221.6	1	936.5	0.8	1148.625	1	847.1	0.6	1370.33333333333	0.9	829.555555555556	0.8	1237.5	0.9	756.333333333333	13	425943	2	425931	26	39	425969	-999999	425946	0	39	TrialsPROC	FC_019_M10.png	2	2	81	SessionSelectionList														nonlure	3	Face	0-Back	71	80	63	0	0	97	5	39	382201	1	13	99	380162	-1	381124	1	962	3	3	2039	52	382214	-53	0																81												
WM080112	189450_fnca	2	1	1	-1660584398	1	75.033	75.031	2.0.10.147	2.0.10.242	2.0.10.242	1.0.0.439	7	234	2	3	Verdana	1	80	0	0	0	WM Stimuli\	0.5	1221.6	1	936.5	0.8	1148.625	1	847.1	0.6	1370.33333333333	0.9	829.555555555556	0.8	1237.5	0.9	756.333333333333	13	425943	2	425931	26	39	425969	-999999	425946	0	40	Cue0BackPROC	PL_021_SCENE_07.png	2	2	82	SessionSelectionList																																										45	382707	-46	0												82												
WM080112	189450_fnca	2	1	1	-1660584398	1	75.033	75.031	2.0.10.147	2.0.10.242	2.0.10.242	1.0.0.439	7	234	2	3	Verdana	1	80	0	0	0	WM Stimuli\	0.5	1221.6	1	936.5	0.8	1148.625	1	847.1	0.6	1370.33333333333	0.9	829.555555555556	0.8	1237.5	0.9	756.333333333333	13	425943	2	425931	26	39	425969	-999999	425946	0	41	TrialsPROC	PL_025_SCENE_18.png	2	2	83	SessionSelectionList														nonlure	3	Place	0-Back	72	80	64	0	0	97	6	39	387279	1	13	78	385240	-1	386309	1	1069	3	3	2039	52	387292	-53	0																83												
WM080112	189450_fnca	2	1	1	-1660584398	1	75.033	75.031	2.0.10.147	2.0.10.242	2.0.10.242	1.0.0.439	7	234	2	3	Verdana	1	80	0	0	0	WM Stimuli\	0.5	1221.6	1	936.5	0.8	1148.625	1	847.1	0.6	1370.33333333333	0.9	829.555555555556	0.8	1237.5	0.9	756.333333333333	13	425943	2	425931	26	39	425969	-999999	425946	0	41	TrialsPROC	PL_026_SCENE_24.png	2	2	84	SessionSelectionList														nonlure	3	Place	0-Back	73	80	65	0	0	97	7	40	389878	1	13	98	387838	-1	388621	1	783	3	3	2040	53	389891	-54	0																84												
WM080112	189450_fnca	2	1	1	-1660584398	1	75.033	75.031	2.0.10.147	2.0.10.242	2.0.10.242	1.0.0.439	7	234	2	3	Verdana	1	80	0	0	0	WM Stimuli\	0.5	1221.6	1	936.5	0.8	1148.625	1	847.1	0.6	1370.33333333333	0.9	829.555555555556	0.8	1237.5	0.9	756.333333333333	13	425943	2	425931	26	39	425969	-999999	425946	0	41	TrialsPROC	PL_025_SCENE_18.png	2	2	85	SessionSelectionList														lure	3	Place	0-Back	74	80	66	0	0	97	8	39	392450	2	14	73	390411	-1	391503	1	1092	3	3	2039	53	392464	-54	0																85												
WM080112	189450_fnca	2	1	1	-1660584398	1	75.033	75.031	2.0.10.147	2.0.10.242	2.0.10.242	1.0.0.439	7	234	2	3	Verdana	1	80	0	0	0	WM Stimuli\	0.5	1221.6	1	936.5	0.8	1148.625	1	847.1	0.6	1370.33333333333	0.9	829.555555555556	0.8	1237.5	0.9	756.333333333333	13	425943	2	425931	26	39	425969	-999999	425946	0	41	TrialsPROC	PL_022_SCENE_08.png	2	2	86	SessionSelectionList														nonlure	3	Place	0-Back	75	80	67	0	0	97	9	39	395022	2	14	72	392983	-1	393634	1	651	3	3	2039	53	395036	-54	0																86												
WM080112	189450_fnca	2	1	1	-1660584398	1	75.033	75.031	2.0.10.147	2.0.10.242	2.0.10.242	1.0.0.439	7	234	2	3	Verdana	1	80	0	0	0	WM Stimuli\	0.5	1221.6	1	936.5	0.8	1148.625	1	847.1	0.6	1370.33333333333	0.9	829.555555555556	0.8	1237.5	0.9	756.333333333333	13	425943	2	425931	26	39	425969	-999999	425946	0	41	TrialsPROC	PL_026_SCENE_24.png	2	2	87	SessionSelectionList														lure	3	Place	0-Back	76	80	68	0	0	97	10	39	397594	2	14	72	395555	-1	396172	1	617	3	3	2039	53	397608	-54	0																87												
WM080112	189450_fnca	2	1	1	-1660584398	1	75.033	75.031	2.0.10.147	2.0.10.242	2.0.10.242	1.0.0.439	7	234	2	3	Verdana	1	80	0	0	0	WM Stimuli\	0.5	1221.6	1	936.5	0.8	1148.625	1	847.1	0.6	1370.33333333333	0.9	829.555555555556	0.8	1237.5	0.9	756.333333333333	13	425943	2	425931	26	39	425969	-999999	425946	0	41	TrialsPROC	PL_021_SCENE_07.png	2	2	88	SessionSelectionList														target	2	Place	0-Back	77	80	68	0	1	94	10	40	400167	2	13	72	398127	-1	0	0	0	""	2	2040	53	400180	-54	0																88												
WM080112	189450_fnca	2	1	1	-1660584398	1	75.033	75.031	2.0.10.147	2.0.10.242	2.0.10.242	1.0.0.439	7	234	2	3	Verdana	1	80	0	0	0	WM Stimuli\	0.5	1221.6	1	936.5	0.8	1148.625	1	847.1	0.6	1370.33333333333	0.9	829.555555555556	0.8	1237.5	0.9	756.333333333333	13	425943	2	425931	26	39	425969	-999999	425946	0	41	TrialsPROC	PL_021_SCENE_07.png	2	2	89	SessionSelectionList														target	2	Place	0-Back	78	80	69	0	0	95	1	39	402739	2	14	73	400700	-1	401659	1	959	2	2	2039	53	402753	-54	0																89												
WM080112	189450_fnca	2	1	1	-1660584398	1	75.033	75.031	2.0.10.147	2.0.10.242	2.0.10.242	1.0.0.439	7	234	2	3	Verdana	1	80	0	0	0	WM Stimuli\	0.5	1221.6	1	936.5	0.8	1148.625	1	847.1	0.6	1370.33333333333	0.9	829.555555555556	0.8	1237.5	0.9	756.333333333333	13	425943	2	425931	26	39	425969	-999999	425946	0	41	TrialsPROC	PL_023_SCENE_09.png	2	2	90	SessionSelectionList														nonlure	3	Place	0-Back	79	80	70	0	0	95	1	39	405324	2	14	85	403285	-1	403991	1	706	3	3	2039	53	405338	-54	0																90												
WM080112	189450_fnca	2	1	1	-1660584398	1	75.033	75.031	2.0.10.147	2.0.10.242	2.0.10.242	1.0.0.439	7	234	2	3	Verdana	1	80	0	0	0	WM Stimuli\	0.5	1221.6	1	936.5	0.8	1148.625	1	847.1	0.6	1370.33333333333	0.9	829.555555555556	0.8	1237.5	0.9	756.333333333333	13	425943	2	425931	26	39	425969	-999999	425946	0	41	TrialsPROC	PL_024_SCENE_10.png	2	2	91	SessionSelectionList														nonlure	3	Place	0-Back	80	80	71	0	0	95	2	39	407897	1	13	73	405858	-1	406602	1	744	3	3	2039	52	407910	-53	0																91												
WM080112	189450_fnca	2	1	1	-1660584398	1	75.033	75.031	2.0.10.147	2.0.10.242	2.0.10.242	1.0.0.439	7	234	2	3	Verdana	1	80	0	0	0	WM Stimuli\	0.5	1221.6	1	936.5	0.8	1148.625	1	847.1	0.6	1370.33333333333	0.9	829.555555555556	0.8	1237.5	0.9	756.333333333333	13	425943	2	425931	26	39	425969	-999999	425946	0	41	TrialsPROC	PL_022_SCENE_08.png	2	2	92	SessionSelectionList														lure	3	Place	0-Back	80	80	72	0	0	95	3	39	410469	1	14	72	408430	-1	409275	1	845	3	3	2039	53	410483	-54	0																92												
WM080112	189450_fnca	2	1	1	-1660584398	1	75.033	75.031	2.0.10.147	2.0.10.242	2.0.10.242	1.0.0.439	7	234	2	3	Verdana	1	80	0	0	0	WM Stimuli\	0.5	1221.6	1	936.5	0.8	1148.625	1	847.1	0.6	1370.33333333333	0.9	829.555555555556	0.8	1237.5	0.9	756.333333333333	13	425943	2	425931	26	39	425969	-999999	425946	0	42	Fix15secPROC	""	2	2	93	SessionSelectionList																																															6	410936	-7	0							93												
