ExperimentName	HCPID	RunNumber	Subject	Session	RandomSeed	Group	Laptop.RefreshRate	ScannerD2.RefreshRate	StudioVersion	RuntimeVersion	RuntimeVersionExpected	ExperimentVersion	triggercode	Allowed	Target	Nontarget	FontStyle	RunTrialNumber[Session]	TrialsPerRun[Session]	TotalRespGreater200[Session]	ConsecRTLess200[Session]	ConsecNonResp[Session]	StimuliDir	ACC_2_Back_Body	Avg_RT_For_Correct_Trials_2_Back_Body	ACC_0_Back_Body	Avg_RT_For_Correct_Trials_0_Back_Body	ACC_2_Back_Face	Avg_RT_For_Correct_Trials_2_Back_Face	ACC_0_Back_Face	Avg_RT_For_Correct_Trials_0_Back_Face	ACC_2_Back_Place	Avg_RT_For_Correct_Trials_2_Back_Place	ACC_0_Back_Place	Avg_RT_For_Correct_Trials_0_Back_Place	ACC_2_Back_Tools	Avg_RT_For_Correct_Trials_2_Back_Tools	ACC_0_Back_Tools	Avg_RT_For_Correct_Trials_0_Back_Tools	ExpInstrucFeelFreeToRest.OnsetDelay	ExpInstrucFeelFreeToRest.OnsetTime	ExpInstrucFeelFreeToRest.DurationError	ExpInstrucFeelFreeToRest.StartTime	ExpInstrucFeelFreeToRest.OnsetToOnsetTime	FeelFreeToRest.OnsetDelay	FeelFreeToRest.OnsetTime	FeelFreeToRest.DurationError	FeelFreeToRest.StartTime	FeelFreeToRest.OnsetToOnsetTime	SessionSelectionList	Procedure[Block]	Stimulus[Block]	RunNumberFilterValue	SessionSelectionList.Cycle	SessionSelectionList.Sample	Running[Block]	IntroButtonMap.OnsetDelay	IntroButtonMap.OnsetTime	IntroButtonMap.DurationError	IntroButtonMap.OnsetToOnsetTime	GetReady.OnsetDelay	GetReady.OnsetTime	GetReady.DurationError	GetReady.OnsetToOnsetTime	Cue2Back.OnsetDelay	Cue2Back.OnsetTime	Cue2Back.DurationError	Cue2Back.OnsetToOnsetTime	Run1Block1	TargetType	CorrectResponse	StimType	BlockType	RunTrialNumber[Block]	TrialsPerRun[Block]	TotalRespGreater200[Block]	ConsecRTLess200[Block]	ConsecNonResp[Block]	ControlAcc	ConsecSameResp	ExperimenterWindow.OnsetDelay	ExperimenterWindow.OnsetTime	ExperimenterWindow.DurationError	ExperimenterWindow.OnsetToOnsetTime	Stim.OnsetDelay	Stim.OnsetTime	Stim.DurationError	Stim.RTTime	Stim.ACC	Stim.RT	Stim.RESP	Stim.CRESP	Stim.OnsetToOnsetTime	Fix.OnsetDelay	Fix.OnsetTime	Fix.DurationError	Fix.OnsetToOnsetTime	CueTarget.OnsetDelay	CueTarget.OnsetTime	CueTarget.DurationError	CueTarget.OnsetToOnsetTime	Run1Block2	Fix15sec.OnsetDelay	Fix15sec.OnsetTime	Fix15sec.DurationError	Fix15sec.OnsetToOnsetTime	Run1Block3	Run1Block4	Run1Block5	Run1Block6	Run1Block7	Run1Block8	Block	Procedure[Trial]	Stimulus[Trial]	ReadyList	Running[Trial]	ReadyList.Cycle	ReadyList.Sample	SyncSlide.OnsetDelay	SyncSlide.OnsetTime	SyncSlide.DurationError	SyncSlide.FinishTime	SyncSlide.OnsetToOnsetTime	Trial
WM080112	101915_fnca	1	1	1	-1664714638	1	75.032	75.031	2.0.10.147	2.0.10.242	2.0.10.242	1.0.0.439	7	234	2	3	Verdana	1	80	0	0	0	WM Stimuli\	0.5	1137.2	0.7	1070.57142857143	0.8	1028.875	1	887.9	0.9	1162.66666666667	1	730	1	1261.9	1	575.7	13	520975	2	520963	27	40	521002	-999999	520978	0	1	TRSyncPROC	""	1	2	1	SessionSelectionList	118	19525	-999999	0	38	208715	-999999	0																																																	1	InitialTR	4	1	ReadyList	1	1	15	226654	-16	228638	0	1
WM080112	101915_fnca	1	1	1	-1664714638	1	75.032	75.031	2.0.10.147	2.0.10.242	2.0.10.242	1.0.0.439	7	234	2	3	Verdana	1	80	0	0	0	WM Stimuli\	0.5	1137.2	0.7	1070.57142857143	0.8	1028.875	1	887.9	0.9	1162.66666666667	1	730	1	1261.9	1	575.7	13	520975	2	520963	27	40	521002	-999999	520978	0	1	TRSyncPROC	""	1	2	1	SessionSelectionList	118	19525	-999999	0	38	208715	-999999	0																																																	1	InitialTR	3	2	ReadyList	1	2	14	228653	-15	230638	0	2
WM080112	101915_fnca	1	1	1	-1664714638	1	75.032	75.031	2.0.10.147	2.0.10.242	2.0.10.242	1.0.0.439	7	234	2	3	Verdana	1	80	0	0	0	WM Stimuli\	0.5	1137.2	0.7	1070.57142857143	0.8	1028.875	1	887.9	0.9	1162.66666666667	1	730	1	1261.9	1	575.7	13	520975	2	520963	27	40	521002	-999999	520978	0	1	TRSyncPROC	""	1	2	1	SessionSelectionList	118	19525	-999999	0	38	208715	-999999	0																																																	1	InitialTR	2	3	ReadyList	1	3	14	230653	-15	232638	0	3
WM080112	101915_fnca	1	1	1	-1664714638	1	75.032	75.031	2.0.10.147	2.0.10.242	2.0.10.242	1.0.0.439	7	234	2	3	Verdana	1	80	0	0	0	WM Stimuli\	0.5	1137.2	0.7	1070.57142857143	0.8	1028.875	1	887.9	0.9	1162.66666666667	1	730	1	1261.9	1	575.7	13	520975	2	520963	27	40	521002	-999999	520978	0	1	TRSyncPROC	""	1	2	1	SessionSelectionList	118	19525	-999999	0	38	208715	-999999	0																																																	1	InitialTR	1	4	ReadyList	1	4	13	232652	-14	234638	0	4
WM080112	101915_fnca	1	1	1	-1664714638	1	75.032	75.031	2.0.10.147	2.0.10.242	2.0.10.242	1.0.0.439	7	234	2	3	Verdana	1	80	0	0	0	WM Stimuli\	0.5	1137.2	0.7	1070.57142857143	0.8	1028.875	1	887.9	0.9	1162.66666666667	1	730	1	1261.9	1	575.7	13	520975	2	520963	27	40	521002	-999999	520978	0	2	Cue2BackPROC	""	1	2	2	SessionSelectionList									12	234651	-13	0																																													2												
WM080112	101915_fnca	1	1	1	-1664714638	1	75.032	75.031	2.0.10.147	2.0.10.242	2.0.10.242	1.0.0.439	7	234	2	3	Verdana	1	80	0	0	0	WM Stimuli\	0.5	1137.2	0.7	1070.57142857143	0.8	1028.875	1	887.9	0.9	1162.66666666667	1	730	1	1261.9	1	575.7	13	520975	2	520963	27	40	521002	-999999	520978	0	3	TrialsPROC	BP_002_BP10_BA.png	1	2	3	SessionSelectionList													1	nonlure	3	Body	2-Back	2	80	1	0	0	0	1	52	239289	3	14	98	237237	-1	237678	1	441	3	3	2052	66	239303	-67	0																3												
WM080112	101915_fnca	1	1	1	-1664714638	1	75.032	75.031	2.0.10.147	2.0.10.242	2.0.10.242	1.0.0.439	7	234	2	3	Verdana	1	80	0	0	0	WM Stimuli\	0.5	1137.2	0.7	1070.57142857143	0.8	1028.875	1	887.9	0.9	1162.66666666667	1	730	1	1261.9	1	575.7	13	520975	2	520963	27	40	521002	-999999	520978	0	3	TrialsPROC	BP_001_BP1_BA.png	1	2	4	SessionSelectionList													2	nonlure	3	Body	2-Back	3	80	2	0	0	0	2	39	241875	2	13	99	239836	-1	241062	1	1226	3	3	2039	52	241888	-53	0																4												
WM080112	101915_fnca	1	1	1	-1664714638	1	75.032	75.031	2.0.10.147	2.0.10.242	2.0.10.242	1.0.0.439	7	234	2	3	Verdana	1	80	0	0	0	WM Stimuli\	0.5	1137.2	0.7	1070.57142857143	0.8	1028.875	1	887.9	0.9	1162.66666666667	1	730	1	1261.9	1	575.7	13	520975	2	520963	27	40	521002	-999999	520978	0	3	TrialsPROC	BP_006_BP2_BA.png	1	2	5	SessionSelectionList													3	nonlure	3	Body	2-Back	4	80	3	0	0	0	1	39	244460	2	14	85	242421	-1	243715	0	1294	2	3	2039	53	244474	-54	0																5												
WM080112	101915_fnca	1	1	1	-1664714638	1	75.032	75.031	2.0.10.147	2.0.10.242	2.0.10.242	1.0.0.439	7	234	2	3	Verdana	1	80	0	0	0	WM Stimuli\	0.5	1137.2	0.7	1070.57142857143	0.8	1028.875	1	887.9	0.9	1162.66666666667	1	730	1	1261.9	1	575.7	13	520975	2	520963	27	40	521002	-999999	520978	0	3	TrialsPROC	BP_001_BP1_BA.png	1	2	6	SessionSelectionList													4	target	2	Body	2-Back	5	80	3	0	1	0	1	40	247033	2	13	72	244993	-1	0	0	0	""	2	2040	53	247046	-54	0																6												
WM080112	101915_fnca	1	1	1	-1664714638	1	75.032	75.031	2.0.10.147	2.0.10.242	2.0.10.242	1.0.0.439	7	234	2	3	Verdana	1	80	0	0	0	WM Stimuli\	0.5	1137.2	0.7	1070.57142857143	0.8	1028.875	1	887.9	0.9	1162.66666666667	1	730	1	1261.9	1	575.7	13	520975	2	520963	27	40	521002	-999999	520978	0	3	TrialsPROC	BP_005_BP19_BA.png	1	2	7	SessionSelectionList													5	nonlure	3	Body	2-Back	6	80	4	0	0	0	1	40	249632	1	13	99	247592	-1	248788	1	1196	3	3	2040	53	249645	-54	0																7												
WM080112	101915_fnca	1	1	1	-1664714638	1	75.032	75.031	2.0.10.147	2.0.10.242	2.0.10.242	1.0.0.439	7	234	2	3	Verdana	1	80	0	0	0	WM Stimuli\	0.5	1137.2	0.7	1070.57142857143	0.8	1028.875	1	887.9	0.9	1162.66666666667	1	730	1	1261.9	1	575.7	13	520975	2	520963	27	40	521002	-999999	520978	0	3	TrialsPROC	BP_003_BP16_BA.png	1	2	8	SessionSelectionList													6	nonlure	3	Body	2-Back	7	80	5	0	0	0	2	39	252217	2	14	86	250178	-1	251968	1	1790	3	3	2039	53	252231	-54	0																8												
WM080112	101915_fnca	1	1	1	-1664714638	1	75.032	75.031	2.0.10.147	2.0.10.242	2.0.10.242	1.0.0.439	7	234	2	3	Verdana	1	80	0	0	0	WM Stimuli\	0.5	1137.2	0.7	1070.57142857143	0.8	1028.875	1	887.9	0.9	1162.66666666667	1	730	1	1261.9	1	575.7	13	520975	2	520963	27	40	521002	-999999	520978	0	3	TrialsPROC	BP_006_BP2_BA.png	1	2	9	SessionSelectionList													7	lure	3	Body	2-Back	8	80	5	0	1	0	2	39	254776	2	14	59	252737	-1	0	0	0	""	3	2039	53	254790	-54	0																9												
WM080112	101915_fnca	1	1	1	-1664714638	1	75.032	75.031	2.0.10.147	2.0.10.242	2.0.10.242	1.0.0.439	7	234	2	3	Verdana	1	80	0	0	0	WM Stimuli\	0.5	1137.2	0.7	1070.57142857143	0.8	1028.875	1	887.9	0.9	1162.66666666667	1	730	1	1261.9	1	575.7	13	520975	2	520963	27	40	521002	-999999	520978	0	3	TrialsPROC	BP_004_BP18_BA.png	1	2	10	SessionSelectionList													8	nonlure	3	Body	2-Back	9	80	5	0	2	0	2	39	257335	2	14	59	255296	-1	0	0	0	""	3	2039	53	257349	-54	0																10												
WM080112	101915_fnca	1	1	1	-1664714638	1	75.032	75.031	2.0.10.147	2.0.10.242	2.0.10.242	1.0.0.439	7	234	2	3	Verdana	1	80	0	0	0	WM Stimuli\	0.5	1137.2	0.7	1070.57142857143	0.8	1028.875	1	887.9	0.9	1162.66666666667	1	730	1	1261.9	1	575.7	13	520975	2	520963	27	40	521002	-999999	520978	0	3	TrialsPROC	BP_005_BP19_BA.png	1	2	11	SessionSelectionList													9	lure	3	Body	2-Back	10	80	5	0	3	0	2	39	259894	3	14	59	257855	-1	0	0	0	""	3	2039	53	259908	-54	0																11												
WM080112	101915_fnca	1	1	1	-1664714638	1	75.032	75.031	2.0.10.147	2.0.10.242	2.0.10.242	1.0.0.439	7	234	2	3	Verdana	1	80	0	0	0	WM Stimuli\	0.5	1137.2	0.7	1070.57142857143	0.8	1028.875	1	887.9	0.9	1162.66666666667	1	730	1	1261.9	1	575.7	13	520975	2	520963	27	40	521002	-999999	520978	0	3	TrialsPROC	BP_004_BP18_BA.png	1	2	12	SessionSelectionList													10	target	2	Body	2-Back	11	80	6	0	0	0	1	39	262453	1	14	59	260414	-1	261447	1	1033	2	2	2039	53	262467	-54	0																12												
WM080112	101915_fnca	1	1	1	-1664714638	1	75.032	75.031	2.0.10.147	2.0.10.242	2.0.10.242	1.0.0.439	7	234	2	3	Verdana	1	80	0	0	0	WM Stimuli\	0.5	1137.2	0.7	1070.57142857143	0.8	1028.875	1	887.9	0.9	1162.66666666667	1	730	1	1261.9	1	575.7	13	520975	2	520963	27	40	521002	-999999	520978	0	4	Cue0BackPROC	FC_001_M1.png	1	2	13	SessionSelectionList																																										59	262973	-60	0												13												
WM080112	101915_fnca	1	1	1	-1664714638	1	75.032	75.031	2.0.10.147	2.0.10.242	2.0.10.242	1.0.0.439	7	234	2	3	Verdana	1	80	0	0	0	WM Stimuli\	0.5	1137.2	0.7	1070.57142857143	0.8	1028.875	1	887.9	0.9	1162.66666666667	1	730	1	1261.9	1	575.7	13	520975	2	520963	27	40	521002	-999999	520978	0	5	TrialsPROC	FC_005_M3.png	1	2	14	SessionSelectionList														nonlure	3	Face	0-Back	12	80	7	0	0	100	1	39	267544	2	14	91	265505	-1	266414	1	909	3	3	2039	53	267558	-54	0					1											14												
WM080112	101915_fnca	1	1	1	-1664714638	1	75.032	75.031	2.0.10.147	2.0.10.242	2.0.10.242	1.0.0.439	7	234	2	3	Verdana	1	80	0	0	0	WM Stimuli\	0.5	1137.2	0.7	1070.57142857143	0.8	1028.875	1	887.9	0.9	1162.66666666667	1	730	1	1261.9	1	575.7	13	520975	2	520963	27	40	521002	-999999	520978	0	5	TrialsPROC	FC_001_M1.png	1	2	15	SessionSelectionList														target	2	Face	0-Back	13	80	8	0	0	100	1	40	270117	2	13	72	268077	-1	269038	1	961	2	2	2040	53	270130	-54	0					2											15												
WM080112	101915_fnca	1	1	1	-1664714638	1	75.032	75.031	2.0.10.147	2.0.10.242	2.0.10.242	1.0.0.439	7	234	2	3	Verdana	1	80	0	0	0	WM Stimuli\	0.5	1137.2	0.7	1070.57142857143	0.8	1028.875	1	887.9	0.9	1162.66666666667	1	730	1	1261.9	1	575.7	13	520975	2	520963	27	40	521002	-999999	520978	0	5	TrialsPROC	FC_003_M2.png	1	2	16	SessionSelectionList														nonlure	3	Face	0-Back	14	80	9	0	0	100	1	40	272716	1	13	99	270676	-1	271597	1	921	3	3	2040	53	272729	-54	0					3											16												
WM080112	101915_fnca	1	1	1	-1664714638	1	75.032	75.031	2.0.10.147	2.0.10.242	2.0.10.242	1.0.0.439	7	234	2	3	Verdana	1	80	0	0	0	WM Stimuli\	0.5	1137.2	0.7	1070.57142857143	0.8	1028.875	1	887.9	0.9	1162.66666666667	1	730	1	1261.9	1	575.7	13	520975	2	520963	27	40	521002	-999999	520978	0	5	TrialsPROC	FC_004_F2.png	1	2	17	SessionSelectionList														nonlure	3	Face	0-Back	15	80	10	0	0	100	2	39	275314	2	14	99	273275	-1	274248	1	973	3	3	2039	53	275328	-54	0					4											17												
WM080112	101915_fnca	1	1	1	-1664714638	1	75.032	75.031	2.0.10.147	2.0.10.242	2.0.10.242	1.0.0.439	7	234	2	3	Verdana	1	80	0	0	0	WM Stimuli\	0.5	1137.2	0.7	1070.57142857143	0.8	1028.875	1	887.9	0.9	1162.66666666667	1	730	1	1261.9	1	575.7	13	520975	2	520963	27	40	521002	-999999	520978	0	5	TrialsPROC	FC_004_F2.png	1	2	18	SessionSelectionList														lure	3	Face	0-Back	16	80	11	0	0	100	3	39	277887	1	14	73	275848	-1	276821	1	973	3	3	2039	53	277901	-54	0					5											18												
WM080112	101915_fnca	1	1	1	-1664714638	1	75.032	75.031	2.0.10.147	2.0.10.242	2.0.10.242	1.0.0.439	7	234	2	3	Verdana	1	80	0	0	0	WM Stimuli\	0.5	1137.2	0.7	1070.57142857143	0.8	1028.875	1	887.9	0.9	1162.66666666667	1	730	1	1261.9	1	575.7	13	520975	2	520963	27	40	521002	-999999	520978	0	5	TrialsPROC	FC_001_M1.png	1	2	19	SessionSelectionList														target	2	Face	0-Back	17	80	12	0	0	100	1	39	280459	3	14	72	278420	-1	279080	1	660	2	2	2039	53	280473	-54	0					6											19												
WM080112	101915_fnca	1	1	1	-1664714638	1	75.032	75.031	2.0.10.147	2.0.10.242	2.0.10.242	1.0.0.439	7	234	2	3	Verdana	1	80	0	0	0	WM Stimuli\	0.5	1137.2	0.7	1070.57142857143	0.8	1028.875	1	887.9	0.9	1162.66666666667	1	730	1	1261.9	1	575.7	13	520975	2	520963	27	40	521002	-999999	520978	0	5	TrialsPROC	FC_006_F3.png	1	2	20	SessionSelectionList														nonlure	3	Face	0-Back	18	80	13	0	0	100	1	39	283058	1	14	99	281019	-1	281684	1	665	3	3	2039	53	283072	-54	0					7											20												
WM080112	101915_fnca	1	1	1	-1664714638	1	75.032	75.031	2.0.10.147	2.0.10.242	2.0.10.242	1.0.0.439	7	234	2	3	Verdana	1	80	0	0	0	WM Stimuli\	0.5	1137.2	0.7	1070.57142857143	0.8	1028.875	1	887.9	0.9	1162.66666666667	1	730	1	1261.9	1	575.7	13	520975	2	520963	27	40	521002	-999999	520978	0	5	TrialsPROC	FC_006_F3.png	1	2	21	SessionSelectionList														lure	3	Face	0-Back	19	80	14	0	0	100	2	39	285630	2	14	72	283591	-1	284392	1	801	3	3	2039	53	285644	-54	0					8											21												
WM080112	101915_fnca	1	1	1	-1664714638	1	75.032	75.031	2.0.10.147	2.0.10.242	2.0.10.242	1.0.0.439	7	234	2	3	Verdana	1	80	0	0	0	WM Stimuli\	0.5	1137.2	0.7	1070.57142857143	0.8	1028.875	1	887.9	0.9	1162.66666666667	1	730	1	1261.9	1	575.7	13	520975	2	520963	27	40	521002	-999999	520978	0	5	TrialsPROC	FC_003_M2.png	1	2	22	SessionSelectionList														lure	3	Face	0-Back	20	80	15	0	0	100	3	40	288203	1	13	72	286163	-1	287140	1	977	3	3	2040	53	288216	-54	0					9											22												
WM080112	101915_fnca	1	1	1	-1664714638	1	75.032	75.031	2.0.10.147	2.0.10.242	2.0.10.242	1.0.0.439	7	234	2	3	Verdana	1	80	0	0	0	WM Stimuli\	0.5	1137.2	0.7	1070.57142857143	0.8	1028.875	1	887.9	0.9	1162.66666666667	1	730	1	1261.9	1	575.7	13	520975	2	520963	27	40	521002	-999999	520978	0	5	TrialsPROC	FC_002_F1.png	1	2	23	SessionSelectionList														nonlure	3	Face	0-Back	21	80	16	0	0	100	4	39	290801	2	14	99	288762	-1	289801	1	1039	3	3	2039	53	290815	-54	0					10											23												
WM080112	101915_fnca	1	1	1	-1664714638	1	75.032	75.031	2.0.10.147	2.0.10.242	2.0.10.242	1.0.0.439	7	234	2	3	Verdana	1	80	0	0	0	WM Stimuli\	0.5	1137.2	0.7	1070.57142857143	0.8	1028.875	1	887.9	0.9	1162.66666666667	1	730	1	1261.9	1	575.7	13	520975	2	520963	27	40	521002	-999999	520978	0	6	Fix15secPROC	""	1	2	24	SessionSelectionList																																															6	291268	-7	0							24												
WM080112	101915_fnca	1	1	1	-1664714638	1	75.032	75.031	2.0.10.147	2.0.10.242	2.0.10.242	1.0.0.439	7	234	2	3	Verdana	1	80	0	0	0	WM Stimuli\	0.5	1137.2	0.7	1070.57142857143	0.8	1028.875	1	887.9	0.9	1162.66666666667	1	730	1	1261.9	1	575.7	13	520975	2	520963	27	40	521002	-999999	520978	0	7	Cue2BackPROC	""	1	2	25	SessionSelectionList									13	306275	-14	0																																													25												
WM080112	101915_fnca	1	1	1	-1664714638	1	75.032	75.031	2.0.10.147	2.0.10.242	2.0.10.242	1.0.0.439	7	234	2	3	Verdana	1	80	0	0	0	WM Stimuli\	0.5	1137.2	0.7	1070.57142857143	0.8	1028.875	1	887.9	0.9	1162.66666666667	1	730	1	1261.9	1	575.7	13	520975	2	520963	27	40	521002	-999999	520978	0	8	TrialsPROC	TO_001_TOOL1_BA.png	1	2	26	SessionSelectionList														nonlure	3	Tools	2-Back	22	80	17	0	0	100	5	39	310900	1	14	99	308861	-1	309328	1	467	3	3	2039	53	310914	-54	0										1						26												
WM080112	101915_fnca	1	1	1	-1664714638	1	75.032	75.031	2.0.10.147	2.0.10.242	2.0.10.242	1.0.0.439	7	234	2	3	Verdana	1	80	0	0	0	WM Stimuli\	0.5	1137.2	0.7	1070.57142857143	0.8	1028.875	1	887.9	0.9	1162.66666666667	1	730	1	1261.9	1	575.7	13	520975	2	520963	27	40	521002	-999999	520978	0	8	TrialsPROC	TO_002_TOOL2_BA.png	1	2	27	SessionSelectionList														nonlure	3	Tools	2-Back	23	80	18	0	0	100	6	40	313486	2	13	85	311446	-1	313076	1	1630	3	3	2040	53	313499	-54	0										2						27												
WM080112	101915_fnca	1	1	1	-1664714638	1	75.032	75.031	2.0.10.147	2.0.10.242	2.0.10.242	1.0.0.439	7	234	2	3	Verdana	1	80	0	0	0	WM Stimuli\	0.5	1137.2	0.7	1070.57142857143	0.8	1028.875	1	887.9	0.9	1162.66666666667	1	730	1	1261.9	1	575.7	13	520975	2	520963	27	40	521002	-999999	520978	0	8	TrialsPROC	TO_004_TOOL4_BA.png	1	2	28	SessionSelectionList														nonlure	3	Tools	2-Back	24	80	19	0	0	100	7	40	316085	2	13	99	314045	-1	315186	1	1141	3	3	2040	53	316098	-54	0										3						28												
WM080112	101915_fnca	1	1	1	-1664714638	1	75.032	75.031	2.0.10.147	2.0.10.242	2.0.10.242	1.0.0.439	7	234	2	3	Verdana	1	80	0	0	0	WM Stimuli\	0.5	1137.2	0.7	1070.57142857143	0.8	1028.875	1	887.9	0.9	1162.66666666667	1	730	1	1261.9	1	575.7	13	520975	2	520963	27	40	521002	-999999	520978	0	8	TrialsPROC	TO_002_TOOL2_BA.png	1	2	29	SessionSelectionList														target	2	Tools	2-Back	25	80	20	0	0	100	1	40	318644	1	13	59	316604	-1	318166	1	1562	2	2	2040	53	318657	-54	0										4						29												
WM080112	101915_fnca	1	1	1	-1664714638	1	75.032	75.031	2.0.10.147	2.0.10.242	2.0.10.242	1.0.0.439	7	234	2	3	Verdana	1	80	0	0	0	WM Stimuli\	0.5	1137.2	0.7	1070.57142857143	0.8	1028.875	1	887.9	0.9	1162.66666666667	1	730	1	1261.9	1	575.7	13	520975	2	520963	27	40	521002	-999999	520978	0	8	TrialsPROC	TO_001_TOOL1_BA.png	1	2	30	SessionSelectionList														lure	3	Tools	2-Back	26	80	21	0	0	100	1	39	321202	2	14	59	319163	-1	320748	1	1585	3	3	2039	53	321216	-54	0										5						30												
WM080112	101915_fnca	1	1	1	-1664714638	1	75.032	75.031	2.0.10.147	2.0.10.242	2.0.10.242	1.0.0.439	7	234	2	3	Verdana	1	80	0	0	0	WM Stimuli\	0.5	1137.2	0.7	1070.57142857143	0.8	1028.875	1	887.9	0.9	1162.66666666667	1	730	1	1261.9	1	575.7	13	520975	2	520963	27	40	521002	-999999	520978	0	8	TrialsPROC	TO_004_TOOL4_BA.png	1	2	31	SessionSelectionList														lure	3	Tools	2-Back	27	80	22	0	0	100	2	39	323761	2	14	59	321722	-1	322973	1	1251	3	3	2039	53	323775	-54	0										6						31												
WM080112	101915_fnca	1	1	1	-1664714638	1	75.032	75.031	2.0.10.147	2.0.10.242	2.0.10.242	1.0.0.439	7	234	2	3	Verdana	1	80	0	0	0	WM Stimuli\	0.5	1137.2	0.7	1070.57142857143	0.8	1028.875	1	887.9	0.9	1162.66666666667	1	730	1	1261.9	1	575.7	13	520975	2	520963	27	40	521002	-999999	520978	0	8	TrialsPROC	TO_006_TOOL6_BA.png	1	2	32	SessionSelectionList														nonlure	3	Tools	2-Back	28	80	23	0	0	100	3	38	326320	2	14	60	324282	-1	325636	1	1354	3	3	2038	52	326334	-53	0										7						32												
WM080112	101915_fnca	1	1	1	-1664714638	1	75.032	75.031	2.0.10.147	2.0.10.242	2.0.10.242	1.0.0.439	7	234	2	3	Verdana	1	80	0	0	0	WM Stimuli\	0.5	1137.2	0.7	1070.57142857143	0.8	1028.875	1	887.9	0.9	1162.66666666667	1	730	1	1261.9	1	575.7	13	520975	2	520963	27	40	521002	-999999	520978	0	8	TrialsPROC	TO_005_TOOL5_BA.png	1	2	33	SessionSelectionList														nonlure	3	Tools	2-Back	29	80	24	0	0	100	4	39	328919	2	14	98	326880	-1	328421	1	1541	3	3	2039	53	328933	-54	0										8						33												
WM080112	101915_fnca	1	1	1	-1664714638	1	75.032	75.031	2.0.10.147	2.0.10.242	2.0.10.242	1.0.0.439	7	234	2	3	Verdana	1	80	0	0	0	WM Stimuli\	0.5	1137.2	0.7	1070.57142857143	0.8	1028.875	1	887.9	0.9	1162.66666666667	1	730	1	1261.9	1	575.7	13	520975	2	520963	27	40	521002	-999999	520978	0	8	TrialsPROC	TO_006_TOOL6_BA.png	1	2	34	SessionSelectionList														target	2	Tools	2-Back	30	80	25	0	0	100	1	39	331478	2	14	59	329439	-1	330594	1	1155	2	2	2039	53	331492	-54	0										9						34												
WM080112	101915_fnca	1	1	1	-1664714638	1	75.032	75.031	2.0.10.147	2.0.10.242	2.0.10.242	1.0.0.439	7	234	2	3	Verdana	1	80	0	0	0	WM Stimuli\	0.5	1137.2	0.7	1070.57142857143	0.8	1028.875	1	887.9	0.9	1162.66666666667	1	730	1	1261.9	1	575.7	13	520975	2	520963	27	40	521002	-999999	520978	0	8	TrialsPROC	TO_003_TOOL3_BA.png	1	2	35	SessionSelectionList														nonlure	3	Tools	2-Back	31	80	26	0	0	100	1	39	334077	2	14	99	332038	-1	332971	1	933	3	3	2039	53	334091	-54	0										10						35												
WM080112	101915_fnca	1	1	1	-1664714638	1	75.032	75.031	2.0.10.147	2.0.10.242	2.0.10.242	1.0.0.439	7	234	2	3	Verdana	1	80	0	0	0	WM Stimuli\	0.5	1137.2	0.7	1070.57142857143	0.8	1028.875	1	887.9	0.9	1162.66666666667	1	730	1	1261.9	1	575.7	13	520975	2	520963	27	40	521002	-999999	520978	0	9	Cue0BackPROC	BP_007_BP20_BA.png	1	2	36	SessionSelectionList																																										32	334570	-33	0												36												
WM080112	101915_fnca	1	1	1	-1664714638	1	75.032	75.031	2.0.10.147	2.0.10.242	2.0.10.242	1.0.0.439	7	234	2	3	Verdana	1	80	0	0	0	WM Stimuli\	0.5	1137.2	0.7	1070.57142857143	0.8	1028.875	1	887.9	0.9	1162.66666666667	1	730	1	1261.9	1	575.7	13	520975	2	520963	27	40	521002	-999999	520978	0	10	TrialsPROC	BP_007_BP20_BA.png	1	2	37	SessionSelectionList														target	2	Body	0-Back	32	80	27	0	0	91	2	40	339129	2	13	51	337089	-1	338995	0	1906	3	2	2040	53	339142	-54	0											1					37												
WM080112	101915_fnca	1	1	1	-1664714638	1	75.032	75.031	2.0.10.147	2.0.10.242	2.0.10.242	1.0.0.439	7	234	2	3	Verdana	1	80	0	0	0	WM Stimuli\	0.5	1137.2	0.7	1070.57142857143	0.8	1028.875	1	887.9	0.9	1162.66666666667	1	730	1	1261.9	1	575.7	13	520975	2	520963	27	40	521002	-999999	520978	0	10	TrialsPROC	BP_011_BP4_BA.png	1	2	38	SessionSelectionList														nonlure	3	Body	0-Back	33	80	28	0	0	92	3	39	341727	2	14	99	339688	-1	340757	1	1069	3	3	2039	53	341741	-54	0											2					38												
WM080112	101915_fnca	1	1	1	-1664714638	1	75.032	75.031	2.0.10.147	2.0.10.242	2.0.10.242	1.0.0.439	7	234	2	3	Verdana	1	80	0	0	0	WM Stimuli\	0.5	1137.2	0.7	1070.57142857143	0.8	1028.875	1	887.9	0.9	1162.66666666667	1	730	1	1261.9	1	575.7	13	520975	2	520963	27	40	521002	-999999	520978	0	10	TrialsPROC	BP_010_BP3_BA.png	1	2	39	SessionSelectionList														nonlure	3	Body	0-Back	34	80	29	0	0	92	4	39	344326	3	14	99	342287	-1	343514	1	1227	3	3	2039	53	344340	-54	0											3					39												
WM080112	101915_fnca	1	1	1	-1664714638	1	75.032	75.031	2.0.10.147	2.0.10.242	2.0.10.242	1.0.0.439	7	234	2	3	Verdana	1	80	0	0	0	WM Stimuli\	0.5	1137.2	0.7	1070.57142857143	0.8	1028.875	1	887.9	0.9	1162.66666666667	1	730	1	1261.9	1	575.7	13	520975	2	520963	27	40	521002	-999999	520978	0	10	TrialsPROC	BP_008_BP21_BA.png	1	2	40	SessionSelectionList														nonlure	3	Body	0-Back	35	80	30	0	0	93	5	39	346912	3	14	86	344873	-1	345986	1	1113	3	3	2039	53	346926	-54	0											4					40												
WM080112	101915_fnca	1	1	1	-1664714638	1	75.032	75.031	2.0.10.147	2.0.10.242	2.0.10.242	1.0.0.439	7	234	2	3	Verdana	1	80	0	0	0	WM Stimuli\	0.5	1137.2	0.7	1070.57142857143	0.8	1028.875	1	887.9	0.9	1162.66666666667	1	730	1	1261.9	1	575.7	13	520975	2	520963	27	40	521002	-999999	520978	0	10	TrialsPROC	BP_011_BP4_BA.png	1	2	41	SessionSelectionList														lure	3	Body	0-Back	36	80	31	0	0	87	1	39	349484	3	14	72	347445	-1	348167	0	722	2	3	2039	53	349498	-54	0											5					41												
WM080112	101915_fnca	1	1	1	-1664714638	1	75.032	75.031	2.0.10.147	2.0.10.242	2.0.10.242	1.0.0.439	7	234	2	3	Verdana	1	80	0	0	0	WM Stimuli\	0.5	1137.2	0.7	1070.57142857143	0.8	1028.875	1	887.9	0.9	1162.66666666667	1	730	1	1261.9	1	575.7	13	520975	2	520963	27	40	521002	-999999	520978	0	10	TrialsPROC	BP_009_BP22_BA.png	1	2	42	SessionSelectionList														nonlure	3	Body	0-Back	37	80	32	0	0	88	1	39	352070	1	14	86	350031	-1	350947	1	916	3	3	2039	53	352084	-54	0											6					42												
WM080112	101915_fnca	1	1	1	-1664714638	1	75.032	75.031	2.0.10.147	2.0.10.242	2.0.10.242	1.0.0.439	7	234	2	3	Verdana	1	80	0	0	0	WM Stimuli\	0.5	1137.2	0.7	1070.57142857143	0.8	1028.875	1	887.9	0.9	1162.66666666667	1	730	1	1261.9	1	575.7	13	520975	2	520963	27	40	521002	-999999	520978	0	10	TrialsPROC	BP_009_BP22_BA.png	1	2	43	SessionSelectionList														lure	3	Body	0-Back	38	80	33	0	0	88	2	39	354629	2	14	59	352590	-1	353819	1	1229	3	3	2039	53	354643	-54	0											7					43												
WM080112	101915_fnca	1	1	1	-1664714638	1	75.032	75.031	2.0.10.147	2.0.10.242	2.0.10.242	1.0.0.439	7	234	2	3	Verdana	1	80	0	0	0	WM Stimuli\	0.5	1137.2	0.7	1070.57142857143	0.8	1028.875	1	887.9	0.9	1162.66666666667	1	730	1	1261.9	1	575.7	13	520975	2	520963	27	40	521002	-999999	520978	0	10	TrialsPROC	BP_008_BP21_BA.png	1	2	44	SessionSelectionList														lure	3	Body	0-Back	39	80	34	0	0	89	3	39	357188	2	14	59	355149	-1	356083	1	934	3	3	2039	53	357202	-54	0											8					44												
WM080112	101915_fnca	1	1	1	-1664714638	1	75.032	75.031	2.0.10.147	2.0.10.242	2.0.10.242	1.0.0.439	7	234	2	3	Verdana	1	80	0	0	0	WM Stimuli\	0.5	1137.2	0.7	1070.57142857143	0.8	1028.875	1	887.9	0.9	1162.66666666667	1	730	1	1261.9	1	575.7	13	520975	2	520963	27	40	521002	-999999	520978	0	10	TrialsPROC	BP_007_BP20_BA.png	1	2	45	SessionSelectionList														target	2	Body	0-Back	40	80	35	0	0	84	4	39	359747	1	14	59	357708	-1	358617	0	909	3	2	2039	53	359761	-54	0											9					45												
WM080112	101915_fnca	1	1	1	-1664714638	1	75.032	75.031	2.0.10.147	2.0.10.242	2.0.10.242	1.0.0.439	7	234	2	3	Verdana	1	80	0	0	0	WM Stimuli\	0.5	1137.2	0.7	1070.57142857143	0.8	1028.875	1	887.9	0.9	1162.66666666667	1	730	1	1261.9	1	575.7	13	520975	2	520963	27	40	521002	-999999	520978	0	10	TrialsPROC	BP_012_BP5_BA.png	1	2	46	SessionSelectionList														nonlure	3	Body	0-Back	41	80	36	0	0	85	5	39	362332	2	14	85	360293	-1	361299	1	1006	3	3	2039	53	362346	-54	0											10					46												
WM080112	101915_fnca	1	1	1	-1664714638	1	75.032	75.031	2.0.10.147	2.0.10.242	2.0.10.242	1.0.0.439	7	234	2	3	Verdana	1	80	0	0	0	WM Stimuli\	0.5	1137.2	0.7	1070.57142857143	0.8	1028.875	1	887.9	0.9	1162.66666666667	1	730	1	1261.9	1	575.7	13	520975	2	520963	27	40	521002	-999999	520978	0	11	Fix15secPROC	""	1	2	47	SessionSelectionList																																															6	362799	-7	0							47												
WM080112	101915_fnca	1	1	1	-1664714638	1	75.032	75.031	2.0.10.147	2.0.10.242	2.0.10.242	1.0.0.439	7	234	2	3	Verdana	1	80	0	0	0	WM Stimuli\	0.5	1137.2	0.7	1070.57142857143	0.8	1028.875	1	887.9	0.9	1162.66666666667	1	730	1	1261.9	1	575.7	13	520975	2	520963	27	40	521002	-999999	520978	0	12	Cue0BackPROC	PL_001_92012.png	1	2	48	SessionSelectionList																																										53	377846	-54	0												48												
WM080112	101915_fnca	1	1	1	-1664714638	1	75.032	75.031	2.0.10.147	2.0.10.242	2.0.10.242	1.0.0.439	7	234	2	3	Verdana	1	80	0	0	0	WM Stimuli\	0.5	1137.2	0.7	1070.57142857143	0.8	1028.875	1	887.9	0.9	1162.66666666667	1	730	1	1261.9	1	575.7	13	520975	2	520963	27	40	521002	-999999	520978	0	13	TrialsPROC	PL_003_92016.png	1	2	49	SessionSelectionList														nonlure	3	Place	0-Back	42	80	37	0	0	86	6	39	382431	1	14	99	380392	-1	381237	1	845	3	3	2039	53	382445	-54	0												1				49												
WM080112	101915_fnca	1	1	1	-1664714638	1	75.032	75.031	2.0.10.147	2.0.10.242	2.0.10.242	1.0.0.439	7	234	2	3	Verdana	1	80	0	0	0	WM Stimuli\	0.5	1137.2	0.7	1070.57142857143	0.8	1028.875	1	887.9	0.9	1162.66666666667	1	730	1	1261.9	1	575.7	13	520975	2	520963	27	40	521002	-999999	520978	0	13	TrialsPROC	PL_003_92016.png	1	2	50	SessionSelectionList														lure	3	Place	0-Back	43	80	38	0	0	86	7	39	385003	2	14	72	382964	-1	383659	1	695	3	3	2039	53	385017	-54	0												2				50												
WM080112	101915_fnca	1	1	1	-1664714638	1	75.032	75.031	2.0.10.147	2.0.10.242	2.0.10.242	1.0.0.439	7	234	2	3	Verdana	1	80	0	0	0	WM Stimuli\	0.5	1137.2	0.7	1070.57142857143	0.8	1028.875	1	887.9	0.9	1162.66666666667	1	730	1	1261.9	1	575.7	13	520975	2	520963	27	40	521002	-999999	520978	0	13	TrialsPROC	PL_006_92025.png	1	2	51	SessionSelectionList														nonlure	3	Place	0-Back	44	80	39	0	0	87	8	39	387589	2	14	86	385550	-1	386285	1	735	3	3	2039	53	387603	-54	0												3				51												
WM080112	101915_fnca	1	1	1	-1664714638	1	75.032	75.031	2.0.10.147	2.0.10.242	2.0.10.242	1.0.0.439	7	234	2	3	Verdana	1	80	0	0	0	WM Stimuli\	0.5	1137.2	0.7	1070.57142857143	0.8	1028.875	1	887.9	0.9	1162.66666666667	1	730	1	1261.9	1	575.7	13	520975	2	520963	27	40	521002	-999999	520978	0	13	TrialsPROC	PL_001_92012.png	1	2	52	SessionSelectionList														target	2	Place	0-Back	45	80	40	0	0	88	1	39	390161	2	14	72	388122	-1	388782	1	660	2	2	2039	53	390175	-54	0												4				52												
WM080112	101915_fnca	1	1	1	-1664714638	1	75.032	75.031	2.0.10.147	2.0.10.242	2.0.10.242	1.0.0.439	7	234	2	3	Verdana	1	80	0	0	0	WM Stimuli\	0.5	1137.2	0.7	1070.57142857143	0.8	1028.875	1	887.9	0.9	1162.66666666667	1	730	1	1261.9	1	575.7	13	520975	2	520963	27	40	521002	-999999	520978	0	13	TrialsPROC	PL_004_92023.png	1	2	53	SessionSelectionList														nonlure	3	Place	0-Back	46	80	41	0	0	88	1	39	392760	3	14	99	390721	-1	391472	1	751	3	3	2039	53	392774	-54	0												5				53												
WM080112	101915_fnca	1	1	1	-1664714638	1	75.032	75.031	2.0.10.147	2.0.10.242	2.0.10.242	1.0.0.439	7	234	2	3	Verdana	1	80	0	0	0	WM Stimuli\	0.5	1137.2	0.7	1070.57142857143	0.8	1028.875	1	887.9	0.9	1162.66666666667	1	730	1	1261.9	1	575.7	13	520975	2	520963	27	40	521002	-999999	520978	0	13	TrialsPROC	PL_005_92024.png	1	2	54	SessionSelectionList														nonlure	3	Place	0-Back	47	80	42	0	0	88	2	39	395346	1	13	86	393307	-1	394054	1	747	3	3	2039	52	395359	-53	0												6				54												
WM080112	101915_fnca	1	1	1	-1664714638	1	75.032	75.031	2.0.10.147	2.0.10.242	2.0.10.242	1.0.0.439	7	234	2	3	Verdana	1	80	0	0	0	WM Stimuli\	0.5	1137.2	0.7	1070.57142857143	0.8	1028.875	1	887.9	0.9	1162.66666666667	1	730	1	1261.9	1	575.7	13	520975	2	520963	27	40	521002	-999999	520978	0	13	TrialsPROC	PL_001_92012.png	1	2	55	SessionSelectionList														target	2	Place	0-Back	48	80	43	0	0	89	1	39	397918	1	14	72	395879	-1	396828	1	949	2	2	2039	53	397932	-54	0												7				55												
WM080112	101915_fnca	1	1	1	-1664714638	1	75.032	75.031	2.0.10.147	2.0.10.242	2.0.10.242	1.0.0.439	7	234	2	3	Verdana	1	80	0	0	0	WM Stimuli\	0.5	1137.2	0.7	1070.57142857143	0.8	1028.875	1	887.9	0.9	1162.66666666667	1	730	1	1261.9	1	575.7	13	520975	2	520963	27	40	521002	-999999	520978	0	13	TrialsPROC	PL_002_92014.png	1	2	56	SessionSelectionList														nonlure	3	Place	0-Back	49	80	44	0	0	89	1	40	400504	2	13	85	398464	-1	399047	1	583	3	3	2040	53	400517	-54	0												8				56												
WM080112	101915_fnca	1	1	1	-1664714638	1	75.032	75.031	2.0.10.147	2.0.10.242	2.0.10.242	1.0.0.439	7	234	2	3	Verdana	1	80	0	0	0	WM Stimuli\	0.5	1137.2	0.7	1070.57142857143	0.8	1028.875	1	887.9	0.9	1162.66666666667	1	730	1	1261.9	1	575.7	13	520975	2	520963	27	40	521002	-999999	520978	0	13	TrialsPROC	PL_004_92023.png	1	2	57	SessionSelectionList														lure	3	Place	0-Back	50	80	45	0	0	90	2	39	403076	1	14	73	401037	-1	401673	1	636	3	3	2039	53	403090	-54	0												9				57												
WM080112	101915_fnca	1	1	1	-1664714638	1	75.032	75.031	2.0.10.147	2.0.10.242	2.0.10.242	1.0.0.439	7	234	2	3	Verdana	1	80	0	0	0	WM Stimuli\	0.5	1137.2	0.7	1070.57142857143	0.8	1028.875	1	887.9	0.9	1162.66666666667	1	730	1	1261.9	1	575.7	13	520975	2	520963	27	40	521002	-999999	520978	0	13	TrialsPROC	PL_006_92025.png	1	2	58	SessionSelectionList														lure	3	Place	0-Back	51	80	46	0	0	90	3	39	405648	2	14	72	403609	-1	404308	1	699	3	3	2039	53	405662	-54	0												10				58												
WM080112	101915_fnca	1	1	1	-1664714638	1	75.032	75.031	2.0.10.147	2.0.10.242	2.0.10.242	1.0.0.439	7	234	2	3	Verdana	1	80	0	0	0	WM Stimuli\	0.5	1137.2	0.7	1070.57142857143	0.8	1028.875	1	887.9	0.9	1162.66666666667	1	730	1	1261.9	1	575.7	13	520975	2	520963	27	40	521002	-999999	520978	0	14	Cue2BackPROC	""	1	2	59	SessionSelectionList									6	406115	-7	0																																													59												
WM080112	101915_fnca	1	1	1	-1664714638	1	75.032	75.031	2.0.10.147	2.0.10.242	2.0.10.242	1.0.0.439	7	234	2	3	Verdana	1	80	0	0	0	WM Stimuli\	0.5	1137.2	0.7	1070.57142857143	0.8	1028.875	1	887.9	0.9	1162.66666666667	1	730	1	1261.9	1	575.7	13	520975	2	520963	27	40	521002	-999999	520978	0	15	TrialsPROC	FC_010_F5.png	1	2	60	SessionSelectionList														nonlure	3	Face	2-Back	52	80	47	0	0	90	4	39	410739	2	14	91	408700	-1	410083	1	1383	3	3	2039	53	410753	-54	0													1			60												
WM080112	101915_fnca	1	1	1	-1664714638	1	75.032	75.031	2.0.10.147	2.0.10.242	2.0.10.242	1.0.0.439	7	234	2	3	Verdana	1	80	0	0	0	WM Stimuli\	0.5	1137.2	0.7	1070.57142857143	0.8	1028.875	1	887.9	0.9	1162.66666666667	1	730	1	1261.9	1	575.7	13	520975	2	520963	27	40	521002	-999999	520978	0	15	TrialsPROC	FC_012_F6.png	1	2	61	SessionSelectionList														nonlure	3	Face	2-Back	53	80	48	0	0	90	5	39	413338	3	14	99	411299	-1	411786	1	487	3	3	2039	53	413352	-54	0													2			61												
WM080112	101915_fnca	1	1	1	-1664714638	1	75.032	75.031	2.0.10.147	2.0.10.242	2.0.10.242	1.0.0.439	7	234	2	3	Verdana	1	80	0	0	0	WM Stimuli\	0.5	1137.2	0.7	1070.57142857143	0.8	1028.875	1	887.9	0.9	1162.66666666667	1	730	1	1261.9	1	575.7	13	520975	2	520963	27	40	521002	-999999	520978	0	15	TrialsPROC	FC_010_F5.png	1	2	62	SessionSelectionList														target	2	Face	2-Back	54	80	49	0	0	90	1	40	415911	1	13	72	413871	-1	415195	1	1324	2	2	2040	53	415924	-54	0													3			62												
WM080112	101915_fnca	1	1	1	-1664714638	1	75.032	75.031	2.0.10.147	2.0.10.242	2.0.10.242	1.0.0.439	7	234	2	3	Verdana	1	80	0	0	0	WM Stimuli\	0.5	1137.2	0.7	1070.57142857143	0.8	1028.875	1	887.9	0.9	1162.66666666667	1	730	1	1261.9	1	575.7	13	520975	2	520963	27	40	521002	-999999	520978	0	15	TrialsPROC	FC_008_F4.png	1	2	63	SessionSelectionList														nonlure	3	Face	2-Back	55	80	50	0	0	90	1	40	418510	2	13	99	416470	-1	417278	1	808	3	3	2040	53	418523	-54	0													4			63												
WM080112	101915_fnca	1	1	1	-1664714638	1	75.032	75.031	2.0.10.147	2.0.10.242	2.0.10.242	1.0.0.439	7	234	2	3	Verdana	1	80	0	0	0	WM Stimuli\	0.5	1137.2	0.7	1070.57142857143	0.8	1028.875	1	887.9	0.9	1162.66666666667	1	730	1	1261.9	1	575.7	13	520975	2	520963	27	40	521002	-999999	520978	0	15	TrialsPROC	FC_012_F6.png	1	2	64	SessionSelectionList														lure	3	Face	2-Back	56	80	51	0	0	90	1	39	421082	1	14	73	419043	-1	420034	0	991	2	3	2039	53	421096	-54	0													5			64												
WM080112	101915_fnca	1	1	1	-1664714638	1	75.032	75.031	2.0.10.147	2.0.10.242	2.0.10.242	1.0.0.439	7	234	2	3	Verdana	1	80	0	0	0	WM Stimuli\	0.5	1137.2	0.7	1070.57142857143	0.8	1028.875	1	887.9	0.9	1162.66666666667	1	730	1	1261.9	1	575.7	13	520975	2	520963	27	40	521002	-999999	520978	0	15	TrialsPROC	FC_008_F4.png	1	2	65	SessionSelectionList														target	2	Face	2-Back	57	80	52	0	0	90	2	39	423654	2	14	72	421615	-1	422788	1	1173	2	2	2039	53	423668	-54	0													6			65												
WM080112	101915_fnca	1	1	1	-1664714638	1	75.032	75.031	2.0.10.147	2.0.10.242	2.0.10.242	1.0.0.439	7	234	2	3	Verdana	1	80	0	0	0	WM Stimuli\	0.5	1137.2	0.7	1070.57142857143	0.8	1028.875	1	887.9	0.9	1162.66666666667	1	730	1	1261.9	1	575.7	13	520975	2	520963	27	40	521002	-999999	520978	0	15	TrialsPROC	FC_007_M4.png	1	2	66	SessionSelectionList														nonlure	3	Face	2-Back	58	80	53	0	0	90	1	39	426253	3	14	99	424214	-1	424777	1	563	3	3	2039	53	426267	-54	0													7			66												
WM080112	101915_fnca	1	1	1	-1664714638	1	75.032	75.031	2.0.10.147	2.0.10.242	2.0.10.242	1.0.0.439	7	234	2	3	Verdana	1	80	0	0	0	WM Stimuli\	0.5	1137.2	0.7	1070.57142857143	0.8	1028.875	1	887.9	0.9	1162.66666666667	1	730	1	1261.9	1	575.7	13	520975	2	520963	27	40	521002	-999999	520978	0	15	TrialsPROC	FC_007_M4.png	1	2	67	SessionSelectionList														lure	3	Face	2-Back	59	80	54	0	0	90	2	39	428825	2	14	72	426786	-1	428224	1	1438	3	3	2039	53	428839	-54	0													8			67												
WM080112	101915_fnca	1	1	1	-1664714638	1	75.032	75.031	2.0.10.147	2.0.10.242	2.0.10.242	1.0.0.439	7	234	2	3	Verdana	1	80	0	0	0	WM Stimuli\	0.5	1137.2	0.7	1070.57142857143	0.8	1028.875	1	887.9	0.9	1162.66666666667	1	730	1	1261.9	1	575.7	13	520975	2	520963	27	40	521002	-999999	520978	0	15	TrialsPROC	FC_009_M5.png	1	2	68	SessionSelectionList														nonlure	3	Face	2-Back	60	80	55	0	0	90	3	39	431411	1	14	86	429372	-1	430427	1	1055	3	3	2039	53	431425	-54	0													9			68												
WM080112	101915_fnca	1	1	1	-1664714638	1	75.032	75.031	2.0.10.147	2.0.10.242	2.0.10.242	1.0.0.439	7	234	2	3	Verdana	1	80	0	0	0	WM Stimuli\	0.5	1137.2	0.7	1070.57142857143	0.8	1028.875	1	887.9	0.9	1162.66666666667	1	730	1	1261.9	1	575.7	13	520975	2	520963	27	40	521002	-999999	520978	0	15	TrialsPROC	FC_011_M6.png	1	2	69	SessionSelectionList														nonlure	3	Face	2-Back	61	80	56	0	0	90	1	39	433997	2	13	86	431958	-1	432595	0	637	2	3	2039	52	434010	-53	0													10			69												
WM080112	101915_fnca	1	1	1	-1664714638	1	75.032	75.031	2.0.10.147	2.0.10.242	2.0.10.242	1.0.0.439	7	234	2	3	Verdana	1	80	0	0	0	WM Stimuli\	0.5	1137.2	0.7	1070.57142857143	0.8	1028.875	1	887.9	0.9	1162.66666666667	1	730	1	1261.9	1	575.7	13	520975	2	520963	27	40	521002	-999999	520978	0	16	Fix15secPROC	""	1	2	70	SessionSelectionList																																															6	434464	-7	0							70												
WM080112	101915_fnca	1	1	1	-1664714638	1	75.032	75.031	2.0.10.147	2.0.10.242	2.0.10.242	1.0.0.439	7	234	2	3	Verdana	1	80	0	0	0	WM Stimuli\	0.5	1137.2	0.7	1070.57142857143	0.8	1028.875	1	887.9	0.9	1162.66666666667	1	730	1	1261.9	1	575.7	13	520975	2	520963	27	40	521002	-999999	520978	0	17	Cue0BackPROC	TO_007_TOOL7_BA.png	1	2	71	SessionSelectionList																																										52	449510	-53	0												71												
WM080112	101915_fnca	1	1	1	-1664714638	1	75.032	75.031	2.0.10.147	2.0.10.242	2.0.10.242	1.0.0.439	7	234	2	3	Verdana	1	80	0	0	0	WM Stimuli\	0.5	1137.2	0.7	1070.57142857143	0.8	1028.875	1	887.9	0.9	1162.66666666667	1	730	1	1261.9	1	575.7	13	520975	2	520963	27	40	521002	-999999	520978	0	18	TrialsPROC	TO_010_TOOL10_BA.png	1	2	72	SessionSelectionList														nonlure	3	Tools	0-Back	62	80	57	0	0	90	1	39	454082	1	14	85	452043	-1	452764	1	721	3	3	2039	53	454096	-54	0														1		72												
WM080112	101915_fnca	1	1	1	-1664714638	1	75.032	75.031	2.0.10.147	2.0.10.242	2.0.10.242	1.0.0.439	7	234	2	3	Verdana	1	80	0	0	0	WM Stimuli\	0.5	1137.2	0.7	1070.57142857143	0.8	1028.875	1	887.9	0.9	1162.66666666667	1	730	1	1261.9	1	575.7	13	520975	2	520963	27	40	521002	-999999	520978	0	18	TrialsPROC	TO_009_TOOL9_BA.png	1	2	73	SessionSelectionList														nonlure	3	Tools	0-Back	63	80	58	0	0	91	2	39	456667	2	14	85	454628	-1	455195	1	567	3	3	2039	53	456681	-54	0														2		73												
WM080112	101915_fnca	1	1	1	-1664714638	1	75.032	75.031	2.0.10.147	2.0.10.242	2.0.10.242	1.0.0.439	7	234	2	3	Verdana	1	80	0	0	0	WM Stimuli\	0.5	1137.2	0.7	1070.57142857143	0.8	1028.875	1	887.9	0.9	1162.66666666667	1	730	1	1261.9	1	575.7	13	520975	2	520963	27	40	521002	-999999	520978	0	18	TrialsPROC	TO_009_TOOL9_BA.png	1	2	74	SessionSelectionList														lure	3	Tools	0-Back	64	80	59	0	0	91	3	39	459226	2	14	59	457187	-1	457747	1	560	3	3	2039	53	459240	-54	0														3		74												
WM080112	101915_fnca	1	1	1	-1664714638	1	75.032	75.031	2.0.10.147	2.0.10.242	2.0.10.242	1.0.0.439	7	234	2	3	Verdana	1	80	0	0	0	WM Stimuli\	0.5	1137.2	0.7	1070.57142857143	0.8	1028.875	1	887.9	0.9	1162.66666666667	1	730	1	1261.9	1	575.7	13	520975	2	520963	27	40	521002	-999999	520978	0	18	TrialsPROC	TO_008_TOOL8_BA.png	1	2	75	SessionSelectionList														nonlure	3	Tools	0-Back	65	80	60	0	0	91	4	39	461825	2	14	99	459786	-1	460334	1	548	3	3	2039	53	461839	-54	0														4		75												
WM080112	101915_fnca	1	1	1	-1664714638	1	75.032	75.031	2.0.10.147	2.0.10.242	2.0.10.242	1.0.0.439	7	234	2	3	Verdana	1	80	0	0	0	WM Stimuli\	0.5	1137.2	0.7	1070.57142857143	0.8	1028.875	1	887.9	0.9	1162.66666666667	1	730	1	1261.9	1	575.7	13	520975	2	520963	27	40	521002	-999999	520978	0	18	TrialsPROC	TO_011_TOOL11_BA.png	1	2	76	SessionSelectionList														nonlure	3	Tools	0-Back	66	80	61	0	0	91	5	39	464411	1	14	86	462372	-1	462943	1	571	3	3	2039	53	464425	-54	0														5		76												
WM080112	101915_fnca	1	1	1	-1664714638	1	75.032	75.031	2.0.10.147	2.0.10.242	2.0.10.242	1.0.0.439	7	234	2	3	Verdana	1	80	0	0	0	WM Stimuli\	0.5	1137.2	0.7	1070.57142857143	0.8	1028.875	1	887.9	0.9	1162.66666666667	1	730	1	1261.9	1	575.7	13	520975	2	520963	27	40	521002	-999999	520978	0	18	TrialsPROC	TO_012_TOOL12_BA.png	1	2	77	SessionSelectionList														nonlure	3	Tools	0-Back	67	80	62	0	0	92	6	40	466997	1	13	85	464957	-1	465504	1	547	3	3	2040	53	467010	-54	0														6		77												
WM080112	101915_fnca	1	1	1	-1664714638	1	75.032	75.031	2.0.10.147	2.0.10.242	2.0.10.242	1.0.0.439	7	234	2	3	Verdana	1	80	0	0	0	WM Stimuli\	0.5	1137.2	0.7	1070.57142857143	0.8	1028.875	1	887.9	0.9	1162.66666666667	1	730	1	1261.9	1	575.7	13	520975	2	520963	27	40	521002	-999999	520978	0	18	TrialsPROC	TO_010_TOOL10_BA.png	1	2	78	SessionSelectionList														lure	3	Tools	0-Back	68	80	63	0	0	92	7	40	469556	2	13	59	467516	-1	468069	1	553	3	3	2040	53	469569	-54	0														7		78												
WM080112	101915_fnca	1	1	1	-1664714638	1	75.032	75.031	2.0.10.147	2.0.10.242	2.0.10.242	1.0.0.439	7	234	2	3	Verdana	1	80	0	0	0	WM Stimuli\	0.5	1137.2	0.7	1070.57142857143	0.8	1028.875	1	887.9	0.9	1162.66666666667	1	730	1	1261.9	1	575.7	13	520975	2	520963	27	40	521002	-999999	520978	0	18	TrialsPROC	TO_007_TOOL7_BA.png	1	2	79	SessionSelectionList														target	2	Tools	0-Back	69	80	64	0	0	92	1	40	472115	1	13	59	470075	-1	470744	1	669	2	2	2040	53	472128	-54	0														8		79												
WM080112	101915_fnca	1	1	1	-1664714638	1	75.032	75.031	2.0.10.147	2.0.10.242	2.0.10.242	1.0.0.439	7	234	2	3	Verdana	1	80	0	0	0	WM Stimuli\	0.5	1137.2	0.7	1070.57142857143	0.8	1028.875	1	887.9	0.9	1162.66666666667	1	730	1	1261.9	1	575.7	13	520975	2	520963	27	40	521002	-999999	520978	0	18	TrialsPROC	TO_008_TOOL8_BA.png	1	2	80	SessionSelectionList														lure	3	Tools	0-Back	70	80	65	0	0	92	1	39	474673	3	14	59	472634	-1	473137	1	503	3	3	2039	53	474687	-54	0														9		80												
WM080112	101915_fnca	1	1	1	-1664714638	1	75.032	75.031	2.0.10.147	2.0.10.242	2.0.10.242	1.0.0.439	7	234	2	3	Verdana	1	80	0	0	0	WM Stimuli\	0.5	1137.2	0.7	1070.57142857143	0.8	1028.875	1	887.9	0.9	1162.66666666667	1	730	1	1261.9	1	575.7	13	520975	2	520963	27	40	521002	-999999	520978	0	18	TrialsPROC	TO_007_TOOL7_BA.png	1	2	81	SessionSelectionList														target	2	Tools	0-Back	71	80	66	0	0	92	1	39	477232	2	14	59	475193	-1	475711	1	518	2	2	2039	53	477246	-54	0														10		81												
WM080112	101915_fnca	1	1	1	-1664714638	1	75.032	75.031	2.0.10.147	2.0.10.242	2.0.10.242	1.0.0.439	7	234	2	3	Verdana	1	80	0	0	0	WM Stimuli\	0.5	1137.2	0.7	1070.57142857143	0.8	1028.875	1	887.9	0.9	1162.66666666667	1	730	1	1261.9	1	575.7	13	520975	2	520963	27	40	521002	-999999	520978	0	19	Cue2BackPROC	""	1	2	82	SessionSelectionList									6	477699	-7	0																																													82												
WM080112	101915_fnca	1	1	1	-1664714638	1	75.032	75.031	2.0.10.147	2.0.10.242	2.0.10.242	1.0.0.439	7	234	2	3	Verdana	1	80	0	0	0	WM Stimuli\	0.5	1137.2	0.7	1070.57142857143	0.8	1028.875	1	887.9	0.9	1162.66666666667	1	730	1	1261.9	1	575.7	13	520975	2	520963	27	40	521002	-999999	520978	0	20	TrialsPROC	PL_007_92026.png	1	2	83	SessionSelectionList														nonlure	3	Place	2-Back	72	80	67	0	0	92	1	38	482310	3	14	79	480272	-1	482024	1	1752	3	3	2038	52	482324	-53	0															1	83												
WM080112	101915_fnca	1	1	1	-1664714638	1	75.032	75.031	2.0.10.147	2.0.10.242	2.0.10.242	1.0.0.439	7	234	2	3	Verdana	1	80	0	0	0	WM Stimuli\	0.5	1137.2	0.7	1070.57142857143	0.8	1028.875	1	887.9	0.9	1162.66666666667	1	730	1	1261.9	1	575.7	13	520975	2	520963	27	40	521002	-999999	520978	0	20	TrialsPROC	PL_007_92026.png	1	2	84	SessionSelectionList														lure	3	Place	2-Back	73	80	68	0	0	92	2	39	484869	2	14	58	482830	-1	484123	1	1293	3	3	2039	53	484883	-54	0															2	84												
WM080112	101915_fnca	1	1	1	-1664714638	1	75.032	75.031	2.0.10.147	2.0.10.242	2.0.10.242	1.0.0.439	7	234	2	3	Verdana	1	80	0	0	0	WM Stimuli\	0.5	1137.2	0.7	1070.57142857143	0.8	1028.875	1	887.9	0.9	1162.66666666667	1	730	1	1261.9	1	575.7	13	520975	2	520963	27	40	521002	-999999	520978	0	20	TrialsPROC	PL_010_92038.png	1	2	85	SessionSelectionList														nonlure	3	Place	2-Back	74	80	69	0	0	92	3	40	487482	1	13	112	485442	-1	486724	1	1282	3	3	2040	53	487495	-54	0															3	85												
WM080112	101915_fnca	1	1	1	-1664714638	1	75.032	75.031	2.0.10.147	2.0.10.242	2.0.10.242	1.0.0.439	7	234	2	3	Verdana	1	80	0	0	0	WM Stimuli\	0.5	1137.2	0.7	1070.57142857143	0.8	1028.875	1	887.9	0.9	1162.66666666667	1	730	1	1261.9	1	575.7	13	520975	2	520963	27	40	521002	-999999	520978	0	20	TrialsPROC	PL_009_92037.png	1	2	86	SessionSelectionList														nonlure	3	Place	2-Back	75	80	70	0	0	92	4	39	490067	3	14	86	488028	-1	489105	1	1077	3	3	2039	53	490081	-54	0															4	86												
WM080112	101915_fnca	1	1	1	-1664714638	1	75.032	75.031	2.0.10.147	2.0.10.242	2.0.10.242	1.0.0.439	7	234	2	3	Verdana	1	80	0	0	0	WM Stimuli\	0.5	1137.2	0.7	1070.57142857143	0.8	1028.875	1	887.9	0.9	1162.66666666667	1	730	1	1261.9	1	575.7	13	520975	2	520963	27	40	521002	-999999	520978	0	20	TrialsPROC	PL_010_92038.png	1	2	87	SessionSelectionList														target	2	Place	2-Back	76	80	71	0	0	92	1	40	492640	1	13	72	490600	-1	491375	1	775	2	2	2040	53	492653	-54	0															5	87												
WM080112	101915_fnca	1	1	1	-1664714638	1	75.032	75.031	2.0.10.147	2.0.10.242	2.0.10.242	1.0.0.439	7	234	2	3	Verdana	1	80	0	0	0	WM Stimuli\	0.5	1137.2	0.7	1070.57142857143	0.8	1028.875	1	887.9	0.9	1162.66666666667	1	730	1	1261.9	1	575.7	13	520975	2	520963	27	40	521002	-999999	520978	0	20	TrialsPROC	PL_009_92037.png	1	2	88	SessionSelectionList														target	2	Place	2-Back	77	80	72	0	0	92	1	38	495198	2	14	60	493160	-1	494218	0	1058	3	2	2038	52	495212	-53	0															6	88												
WM080112	101915_fnca	1	1	1	-1664714638	1	75.032	75.031	2.0.10.147	2.0.10.242	2.0.10.242	1.0.0.439	7	234	2	3	Verdana	1	80	0	0	0	WM Stimuli\	0.5	1137.2	0.7	1070.57142857143	0.8	1028.875	1	887.9	0.9	1162.66666666667	1	730	1	1261.9	1	575.7	13	520975	2	520963	27	40	521002	-999999	520978	0	20	TrialsPROC	PL_008_92033.png	1	2	89	SessionSelectionList														nonlure	3	Place	2-Back	78	80	73	0	0	92	2	39	497784	3	14	85	495745	-1	496592	1	847	3	3	2039	53	497798	-54	0															7	89												
WM080112	101915_fnca	1	1	1	-1664714638	1	75.032	75.031	2.0.10.147	2.0.10.242	2.0.10.242	1.0.0.439	7	234	2	3	Verdana	1	80	0	0	0	WM Stimuli\	0.5	1137.2	0.7	1070.57142857143	0.8	1028.875	1	887.9	0.9	1162.66666666667	1	730	1	1261.9	1	575.7	13	520975	2	520963	27	40	521002	-999999	520978	0	20	TrialsPROC	PL_012_92047.png	1	2	90	SessionSelectionList														nonlure	3	Place	2-Back	79	80	74	0	0	92	3	39	500356	3	14	72	498317	-1	499352	1	1035	3	3	2039	53	500370	-54	0															8	90												
WM080112	101915_fnca	1	1	1	-1664714638	1	75.032	75.031	2.0.10.147	2.0.10.242	2.0.10.242	1.0.0.439	7	234	2	3	Verdana	1	80	0	0	0	WM Stimuli\	0.5	1137.2	0.7	1070.57142857143	0.8	1028.875	1	887.9	0.9	1162.66666666667	1	730	1	1261.9	1	575.7	13	520975	2	520963	27	40	521002	-999999	520978	0	20	TrialsPROC	PL_012_92047.png	1	2	91	SessionSelectionList														lure	3	Place	2-Back	80	80	75	0	0	92	4	40	502929	1	13	72	500889	-1	502209	1	1320	3	3	2040	53	502942	-54	0															9	91												
WM080112	101915_fnca	1	1	1	-1664714638	1	75.032	75.031	2.0.10.147	2.0.10.242	2.0.10.242	1.0.0.439	7	234	2	3	Verdana	1	80	0	0	0	WM Stimuli\	0.5	1137.2	0.7	1070.57142857143	0.8	1028.875	1	887.9	0.9	1162.66666666667	1	730	1	1261.9	1	575.7	13	520975	2	520963	27	40	521002	-999999	520978	0	20	TrialsPROC	PL_011_92044.png	1	2	92	SessionSelectionList														nonlure	3	Place	2-Back	80	80	76	0	0	92	5	39	505501	2	14	73	503462	-1	504545	1	1083	3	3	2039	53	505515	-54	0															10	92												
WM080112	101915_fnca	1	1	1	-1664714638	1	75.032	75.031	2.0.10.147	2.0.10.242	2.0.10.242	1.0.0.439	7	234	2	3	Verdana	1	80	0	0	0	WM Stimuli\	0.5	1137.2	0.7	1070.57142857143	0.8	1028.875	1	887.9	0.9	1162.66666666667	1	730	1	1261.9	1	575.7	13	520975	2	520963	27	40	521002	-999999	520978	0	21	Fix15secPROC	""	1	2	93	SessionSelectionList																																															6	505968	-7	0							93												
