ExperimentName	HCPID	RunNumber	Subject	Session	RandomSeed	Group	Laptop.RefreshRate	ScannerD2.RefreshRate	StudioVersion	RuntimeVersion	RuntimeVersionExpected	ExperimentVersion	triggercode	Allowed	Target	Nontarget	FontStyle	RunTrialNumber[Session]	TrialsPerRun[Session]	TotalRespGreater200[Session]	ConsecRTLess200[Session]	ConsecNonResp[Session]	StimuliDir	ACC_2_Back_Body	Avg_RT_For_Correct_Trials_2_Back_Body	ACC_0_Back_Body	Avg_RT_For_Correct_Trials_0_Back_Body	ACC_2_Back_Face	Avg_RT_For_Correct_Trials_2_Back_Face	ACC_0_Back_Face	Avg_RT_For_Correct_Trials_0_Back_Face	ACC_2_Back_Place	Avg_RT_For_Correct_Trials_2_Back_Place	ACC_0_Back_Place	Avg_RT_For_Correct_Trials_0_Back_Place	ACC_2_Back_Tools	Avg_RT_For_Correct_Trials_2_Back_Tools	ACC_0_Back_Tools	Avg_RT_For_Correct_Trials_0_Back_Tools	ExpInstrucFeelFreeToRest.OnsetDelay	ExpInstrucFeelFreeToRest.OnsetTime	ExpInstrucFeelFreeToRest.DurationError	ExpInstrucFeelFreeToRest.StartTime	ExpInstrucFeelFreeToRest.OnsetToOnsetTime	FeelFreeToRest.OnsetDelay	FeelFreeToRest.OnsetTime	FeelFreeToRest.DurationError	FeelFreeToRest.StartTime	FeelFreeToRest.OnsetToOnsetTime	SessionSelectionList	Procedure[Block]	Stimulus[Block]	RunNumberFilterValue	SessionSelectionList.Cycle	SessionSelectionList.Sample	Running[Block]	IntroButtonMap.OnsetDelay	IntroButtonMap.OnsetTime	IntroButtonMap.DurationError	IntroButtonMap.OnsetToOnsetTime	GetReady.OnsetDelay	GetReady.OnsetTime	GetReady.DurationError	GetReady.OnsetToOnsetTime	Cue2Back.OnsetDelay	Cue2Back.OnsetTime	Cue2Back.DurationError	Cue2Back.OnsetToOnsetTime	Run1Block1	TargetType	CorrectResponse	StimType	BlockType	RunTrialNumber[Block]	TrialsPerRun[Block]	TotalRespGreater200[Block]	ConsecRTLess200[Block]	ConsecNonResp[Block]	ControlAcc	ConsecSameResp	ExperimenterWindow.OnsetDelay	ExperimenterWindow.OnsetTime	ExperimenterWindow.DurationError	ExperimenterWindow.OnsetToOnsetTime	Stim.OnsetDelay	Stim.OnsetTime	Stim.DurationError	Stim.RTTime	Stim.ACC	Stim.RT	Stim.RESP	Stim.CRESP	Stim.OnsetToOnsetTime	Fix.OnsetDelay	Fix.OnsetTime	Fix.DurationError	Fix.OnsetToOnsetTime	CueTarget.OnsetDelay	CueTarget.OnsetTime	CueTarget.DurationError	CueTarget.OnsetToOnsetTime	Run1Block2	Fix15sec.OnsetDelay	Fix15sec.OnsetTime	Fix15sec.DurationError	Fix15sec.OnsetToOnsetTime	Run1Block3	Run1Block4	Run1Block5	Run1Block6	Run1Block7	Run1Block8	Block	Procedure[Trial]	Stimulus[Trial]	ReadyList	Running[Trial]	ReadyList.Cycle	ReadyList.Sample	SyncSlide.OnsetDelay	SyncSlide.OnsetTime	SyncSlide.DurationError	SyncSlide.FinishTime	SyncSlide.OnsetToOnsetTime	Trial
WM080112	149539_fnca	2	1	1	-449807366	1	75.033	75.030	2.0.10.147	2.0.10.242	2.0.10.242	1.0.0.439	7	234	2	3	Verdana	1	80	0	0	0	WM Stimuli\	1	944	1	724.7	1	918.2	1	611.1	1	979.2	1	626.7	0.9	852.444444444444	0.9	799.222222222222	13	319333	2	319321	27	40	319360	-999999	319336	0	22	TRSyncPROC	""	2	2	1	SessionSelectionList	102	11257	-999999	0	41	12817	-999999	0																																																	1	InitialTR	4	1	ReadyList	1	1	17	26091	-18	28073	0	1
WM080112	149539_fnca	2	1	1	-449807366	1	75.033	75.030	2.0.10.147	2.0.10.242	2.0.10.242	1.0.0.439	7	234	2	3	Verdana	1	80	0	0	0	WM Stimuli\	1	944	1	724.7	1	918.2	1	611.1	1	979.2	1	626.7	0.9	852.444444444444	0.9	799.222222222222	13	319333	2	319321	27	40	319360	-999999	319336	0	22	TRSyncPROC	""	2	2	1	SessionSelectionList	102	11257	-999999	0	41	12817	-999999	0																																																	1	InitialTR	3	2	ReadyList	1	2	16	28090	-17	30073	0	2
WM080112	149539_fnca	2	1	1	-449807366	1	75.033	75.030	2.0.10.147	2.0.10.242	2.0.10.242	1.0.0.439	7	234	2	3	Verdana	1	80	0	0	0	WM Stimuli\	1	944	1	724.7	1	918.2	1	611.1	1	979.2	1	626.7	0.9	852.444444444444	0.9	799.222222222222	13	319333	2	319321	27	40	319360	-999999	319336	0	22	TRSyncPROC	""	2	2	1	SessionSelectionList	102	11257	-999999	0	41	12817	-999999	0																																																	1	InitialTR	2	3	ReadyList	1	3	15	30089	-16	32073	0	3
WM080112	149539_fnca	2	1	1	-449807366	1	75.033	75.030	2.0.10.147	2.0.10.242	2.0.10.242	1.0.0.439	7	234	2	3	Verdana	1	80	0	0	0	WM Stimuli\	1	944	1	724.7	1	918.2	1	611.1	1	979.2	1	626.7	0.9	852.444444444444	0.9	799.222222222222	13	319333	2	319321	27	40	319360	-999999	319336	0	22	TRSyncPROC	""	2	2	1	SessionSelectionList	102	11257	-999999	0	41	12817	-999999	0																																																	1	InitialTR	1	4	ReadyList	1	4	14	32088	-15	34073	0	4
WM080112	149539_fnca	2	1	1	-449807366	1	75.033	75.030	2.0.10.147	2.0.10.242	2.0.10.242	1.0.0.439	7	234	2	3	Verdana	1	80	0	0	0	WM Stimuli\	1	944	1	724.7	1	918.2	1	611.1	1	979.2	1	626.7	0.9	852.444444444444	0.9	799.222222222222	13	319333	2	319321	27	40	319360	-999999	319336	0	23	Cue2BackPROC	""	2	2	2	SessionSelectionList									14	34088	-15	0																																													2												
WM080112	149539_fnca	2	1	1	-449807366	1	75.033	75.030	2.0.10.147	2.0.10.242	2.0.10.242	1.0.0.439	7	234	2	3	Verdana	1	80	0	0	0	WM Stimuli\	1	944	1	724.7	1	918.2	1	611.1	1	979.2	1	626.7	0.9	852.444444444444	0.9	799.222222222222	13	319333	2	319321	27	40	319360	-999999	319336	0	24	TrialsPROC	TO_014_TOOL14_BA.png	2	2	3	SessionSelectionList														nonlure	3	Tools	2-Back	2	80	1	0	0	0	1	52	38699	3	14	73	36647	-1	37366	1	719	3	3	2052	66	38713	-67	0																3												
WM080112	149539_fnca	2	1	1	-449807366	1	75.033	75.030	2.0.10.147	2.0.10.242	2.0.10.242	1.0.0.439	7	234	2	3	Verdana	1	80	0	0	0	WM Stimuli\	1	944	1	724.7	1	918.2	1	611.1	1	979.2	1	626.7	0.9	852.444444444444	0.9	799.222222222222	13	319333	2	319321	27	40	319360	-999999	319336	0	24	TrialsPROC	TO_013_TOOL13_BA.png	2	2	4	SessionSelectionList														nonlure	3	Tools	2-Back	3	80	2	0	0	0	2	40	41245	2	13	58	39205	-1	40087	1	882	3	3	2040	53	41258	-54	0																4												
WM080112	149539_fnca	2	1	1	-449807366	1	75.033	75.030	2.0.10.147	2.0.10.242	2.0.10.242	1.0.0.439	7	234	2	3	Verdana	1	80	0	0	0	WM Stimuli\	1	944	1	724.7	1	918.2	1	611.1	1	979.2	1	626.7	0.9	852.444444444444	0.9	799.222222222222	13	319333	2	319321	27	40	319360	-999999	319336	0	24	TrialsPROC	TO_016_TOOL16_BA.png	2	2	5	SessionSelectionList														nonlure	3	Tools	2-Back	4	80	3	0	0	0	3	39	43804	1	13	60	41765	-1	42766	1	1001	3	3	2039	52	43817	-53	0																5												
WM080112	149539_fnca	2	1	1	-449807366	1	75.033	75.030	2.0.10.147	2.0.10.242	2.0.10.242	1.0.0.439	7	234	2	3	Verdana	1	80	0	0	0	WM Stimuli\	1	944	1	724.7	1	918.2	1	611.1	1	979.2	1	626.7	0.9	852.444444444444	0.9	799.222222222222	13	319333	2	319321	27	40	319360	-999999	319336	0	24	TrialsPROC	TO_014_TOOL14_BA.png	2	2	6	SessionSelectionList														lure	3	Tools	2-Back	5	80	4	0	0	0	4	39	46376	1	14	72	44337	-1	45600	1	1263	3	3	2039	53	46390	-54	0																6												
WM080112	149539_fnca	2	1	1	-449807366	1	75.033	75.030	2.0.10.147	2.0.10.242	2.0.10.242	1.0.0.439	7	234	2	3	Verdana	1	80	0	0	0	WM Stimuli\	1	944	1	724.7	1	918.2	1	611.1	1	979.2	1	626.7	0.9	852.444444444444	0.9	799.222222222222	13	319333	2	319321	27	40	319360	-999999	319336	0	24	TrialsPROC	TO_016_TOOL16_BA.png	2	2	7	SessionSelectionList														target	2	Tools	2-Back	6	80	5	0	0	0	1	39	48935	1	14	59	46896	-1	47517	1	621	2	2	2039	53	48949	-54	0																7												
WM080112	149539_fnca	2	1	1	-449807366	1	75.033	75.030	2.0.10.147	2.0.10.242	2.0.10.242	1.0.0.439	7	234	2	3	Verdana	1	80	0	0	0	WM Stimuli\	1	944	1	724.7	1	918.2	1	611.1	1	979.2	1	626.7	0.9	852.444444444444	0.9	799.222222222222	13	319333	2	319321	27	40	319360	-999999	319336	0	24	TrialsPROC	TO_018_TOOL18_BA.png	2	2	8	SessionSelectionList														nonlure	3	Tools	2-Back	7	80	6	0	0	0	1	39	51494	1	14	59	49455	-1	50221	1	766	3	3	2039	53	51508	-54	0																8												
WM080112	149539_fnca	2	1	1	-449807366	1	75.033	75.030	2.0.10.147	2.0.10.242	2.0.10.242	1.0.0.439	7	234	2	3	Verdana	1	80	0	0	0	WM Stimuli\	1	944	1	724.7	1	918.2	1	611.1	1	979.2	1	626.7	0.9	852.444444444444	0.9	799.222222222222	13	319333	2	319321	27	40	319360	-999999	319336	0	24	TrialsPROC	TO_017_TOOL17_BA.png	2	2	9	SessionSelectionList														nonlure	3	Tools	2-Back	8	80	7	0	0	0	2	39	54053	1	14	59	52014	-1	53001	1	987	3	3	2039	53	54067	-54	0																9												
WM080112	149539_fnca	2	1	1	-449807366	1	75.033	75.030	2.0.10.147	2.0.10.242	2.0.10.242	1.0.0.439	7	234	2	3	Verdana	1	80	0	0	0	WM Stimuli\	1	944	1	724.7	1	918.2	1	611.1	1	979.2	1	626.7	0.9	852.444444444444	0.9	799.222222222222	13	319333	2	319321	27	40	319360	-999999	319336	0	24	TrialsPROC	TO_018_TOOL18_BA.png	2	2	10	SessionSelectionList														target	2	Tools	2-Back	9	80	8	0	0	0	1	39	56612	1	14	59	54573	-1	55381	1	808	2	2	2039	53	56626	-54	0																10												
WM080112	149539_fnca	2	1	1	-449807366	1	75.033	75.030	2.0.10.147	2.0.10.242	2.0.10.242	1.0.0.439	7	234	2	3	Verdana	1	80	0	0	0	WM Stimuli\	1	944	1	724.7	1	918.2	1	611.1	1	979.2	1	626.7	0.9	852.444444444444	0.9	799.222222222222	13	319333	2	319321	27	40	319360	-999999	319336	0	24	TrialsPROC	TO_015_TOOL15_BA.png	2	2	11	SessionSelectionList														nonlure	3	Tools	2-Back	10	80	9	0	0	0	1	39	59171	1	14	59	57132	-1	57757	1	625	3	3	2039	53	59185	-54	0																11												
WM080112	149539_fnca	2	1	1	-449807366	1	75.033	75.030	2.0.10.147	2.0.10.242	2.0.10.242	1.0.0.439	7	234	2	3	Verdana	1	80	0	0	0	WM Stimuli\	1	944	1	724.7	1	918.2	1	611.1	1	979.2	1	626.7	0.9	852.444444444444	0.9	799.222222222222	13	319333	2	319321	27	40	319360	-999999	319336	0	24	TrialsPROC	TO_017_TOOL17_BA.png	2	2	12	SessionSelectionList														lure	3	Tools	2-Back	11	80	10	0	0	0	1	39	61730	1	14	59	59691	-1	60535	0	844	2	3	2039	53	61744	-54	0																12												
WM080112	149539_fnca	2	1	1	-449807366	1	75.033	75.030	2.0.10.147	2.0.10.242	2.0.10.242	1.0.0.439	7	234	2	3	Verdana	1	80	0	0	0	WM Stimuli\	1	944	1	724.7	1	918.2	1	611.1	1	979.2	1	626.7	0.9	852.444444444444	0.9	799.222222222222	13	319333	2	319321	27	40	319360	-999999	319336	0	25	Cue0BackPROC	BP_013_BP7_BA.png	2	2	13	SessionSelectionList																																										19	62210	-20	0												13												
WM080112	149539_fnca	2	1	1	-449807366	1	75.033	75.030	2.0.10.147	2.0.10.242	2.0.10.242	1.0.0.439	7	234	2	3	Verdana	1	80	0	0	0	WM Stimuli\	1	944	1	724.7	1	918.2	1	611.1	1	979.2	1	626.7	0.9	852.444444444444	0.9	799.222222222222	13	319333	2	319321	27	40	319360	-999999	319336	0	26	TrialsPROC	BP_015_H10-T_BA.png	2	2	14	SessionSelectionList														nonlure	3	Body	0-Back	12	80	11	0	0	100	1	39	66781	1	14	51	64742	-1	65722	1	980	3	3	2039	53	66795	-54	0																14												
WM080112	149539_fnca	2	1	1	-449807366	1	75.033	75.030	2.0.10.147	2.0.10.242	2.0.10.242	1.0.0.439	7	234	2	3	Verdana	1	80	0	0	0	WM Stimuli\	1	944	1	724.7	1	918.2	1	611.1	1	979.2	1	626.7	0.9	852.444444444444	0.9	799.222222222222	13	319333	2	319321	27	40	319360	-999999	319336	0	26	TrialsPROC	BP_018_H13-T_BA.png	2	2	15	SessionSelectionList														nonlure	3	Body	0-Back	13	80	12	0	0	100	2	39	69340	1	14	59	67301	-1	67982	1	681	3	3	2039	53	69354	-54	0																15												
WM080112	149539_fnca	2	1	1	-449807366	1	75.033	75.030	2.0.10.147	2.0.10.242	2.0.10.242	1.0.0.439	7	234	2	3	Verdana	1	80	0	0	0	WM Stimuli\	1	944	1	724.7	1	918.2	1	611.1	1	979.2	1	626.7	0.9	852.444444444444	0.9	799.222222222222	13	319333	2	319321	27	40	319360	-999999	319336	0	26	TrialsPROC	BP_014_BP9_BA.png	2	2	16	SessionSelectionList														nonlure	3	Body	0-Back	14	80	13	0	0	100	3	39	71899	1	14	59	69860	-1	70646	1	786	3	3	2039	53	71913	-54	0																16												
WM080112	149539_fnca	2	1	1	-449807366	1	75.033	75.030	2.0.10.147	2.0.10.242	2.0.10.242	1.0.0.439	7	234	2	3	Verdana	1	80	0	0	0	WM Stimuli\	1	944	1	724.7	1	918.2	1	611.1	1	979.2	1	626.7	0.9	852.444444444444	0.9	799.222222222222	13	319333	2	319321	27	40	319360	-999999	319336	0	26	TrialsPROC	BP_018_H13-T_BA.png	2	2	17	SessionSelectionList														lure	3	Body	0-Back	15	80	14	0	0	100	4	39	74458	1	14	59	72419	-1	73127	1	708	3	3	2039	53	74472	-54	0																17												
WM080112	149539_fnca	2	1	1	-449807366	1	75.033	75.030	2.0.10.147	2.0.10.242	2.0.10.242	1.0.0.439	7	234	2	3	Verdana	1	80	0	0	0	WM Stimuli\	1	944	1	724.7	1	918.2	1	611.1	1	979.2	1	626.7	0.9	852.444444444444	0.9	799.222222222222	13	319333	2	319321	27	40	319360	-999999	319336	0	26	TrialsPROC	BP_013_BP7_BA.png	2	2	18	SessionSelectionList														target	2	Body	0-Back	16	80	15	0	0	100	1	39	77017	1	14	59	74978	-1	75745	1	767	2	2	2039	53	77031	-54	0																18												
WM080112	149539_fnca	2	1	1	-449807366	1	75.033	75.030	2.0.10.147	2.0.10.242	2.0.10.242	1.0.0.439	7	234	2	3	Verdana	1	80	0	0	0	WM Stimuli\	1	944	1	724.7	1	918.2	1	611.1	1	979.2	1	626.7	0.9	852.444444444444	0.9	799.222222222222	13	319333	2	319321	27	40	319360	-999999	319336	0	26	TrialsPROC	BP_015_H10-T_BA.png	2	2	19	SessionSelectionList														lure	3	Body	0-Back	17	80	16	0	0	100	1	39	79576	1	14	59	77537	-1	78264	1	727	3	3	2039	53	79590	-54	0																19												
WM080112	149539_fnca	2	1	1	-449807366	1	75.033	75.030	2.0.10.147	2.0.10.242	2.0.10.242	1.0.0.439	7	234	2	3	Verdana	1	80	0	0	0	WM Stimuli\	1	944	1	724.7	1	918.2	1	611.1	1	979.2	1	626.7	0.9	852.444444444444	0.9	799.222222222222	13	319333	2	319321	27	40	319360	-999999	319336	0	26	TrialsPROC	BP_016_H11-T_BA.png	2	2	20	SessionSelectionList														nonlure	3	Body	0-Back	18	80	17	0	0	100	2	39	82135	1	14	59	80096	-1	80668	1	572	3	3	2039	53	82149	-54	0																20												
WM080112	149539_fnca	2	1	1	-449807366	1	75.033	75.030	2.0.10.147	2.0.10.242	2.0.10.242	1.0.0.439	7	234	2	3	Verdana	1	80	0	0	0	WM Stimuli\	1	944	1	724.7	1	918.2	1	611.1	1	979.2	1	626.7	0.9	852.444444444444	0.9	799.222222222222	13	319333	2	319321	27	40	319360	-999999	319336	0	26	TrialsPROC	BP_013_BP7_BA.png	2	2	21	SessionSelectionList														target	2	Body	0-Back	19	80	18	0	0	100	1	39	84694	1	14	59	82655	-1	83320	1	665	2	2	2039	53	84708	-54	0																21												
WM080112	149539_fnca	2	1	1	-449807366	1	75.033	75.030	2.0.10.147	2.0.10.242	2.0.10.242	1.0.0.439	7	234	2	3	Verdana	1	80	0	0	0	WM Stimuli\	1	944	1	724.7	1	918.2	1	611.1	1	979.2	1	626.7	0.9	852.444444444444	0.9	799.222222222222	13	319333	2	319321	27	40	319360	-999999	319336	0	26	TrialsPROC	BP_017_H12-T_BA.png	2	2	22	SessionSelectionList														nonlure	3	Body	0-Back	20	80	19	0	0	100	1	39	87253	1	14	59	85214	-1	85901	1	687	3	3	2039	53	87267	-54	0																22												
WM080112	149539_fnca	2	1	1	-449807366	1	75.033	75.030	2.0.10.147	2.0.10.242	2.0.10.242	1.0.0.439	7	234	2	3	Verdana	1	80	0	0	0	WM Stimuli\	1	944	1	724.7	1	918.2	1	611.1	1	979.2	1	626.7	0.9	852.444444444444	0.9	799.222222222222	13	319333	2	319321	27	40	319360	-999999	319336	0	26	TrialsPROC	BP_014_BP9_BA.png	2	2	23	SessionSelectionList														lure	3	Body	0-Back	21	80	20	0	0	100	2	39	89812	1	14	59	87773	-1	88447	1	674	3	3	2039	53	89826	-54	0																23												
WM080112	149539_fnca	2	1	1	-449807366	1	75.033	75.030	2.0.10.147	2.0.10.242	2.0.10.242	1.0.0.439	7	234	2	3	Verdana	1	80	0	0	0	WM Stimuli\	1	944	1	724.7	1	918.2	1	611.1	1	979.2	1	626.7	0.9	852.444444444444	0.9	799.222222222222	13	319333	2	319321	27	40	319360	-999999	319336	0	27	Fix15secPROC	""	2	2	24	SessionSelectionList																																															6	90279	-7	0							24												
WM080112	149539_fnca	2	1	1	-449807366	1	75.033	75.030	2.0.10.147	2.0.10.242	2.0.10.242	1.0.0.439	7	234	2	3	Verdana	1	80	0	0	0	WM Stimuli\	1	944	1	724.7	1	918.2	1	611.1	1	979.2	1	626.7	0.9	852.444444444444	0.9	799.222222222222	13	319333	2	319321	27	40	319360	-999999	319336	0	28	Cue2BackPROC	""	2	2	25	SessionSelectionList									13	105286	-14	0																																													25												
WM080112	149539_fnca	2	1	1	-449807366	1	75.033	75.030	2.0.10.147	2.0.10.242	2.0.10.242	1.0.0.439	7	234	2	3	Verdana	1	80	0	0	0	WM Stimuli\	1	944	1	724.7	1	918.2	1	611.1	1	979.2	1	626.7	0.9	852.444444444444	0.9	799.222222222222	13	319333	2	319321	27	40	319360	-999999	319336	0	29	TrialsPROC	FC_015_M8.png	2	2	26	SessionSelectionList														nonlure	3	Face	2-Back	22	80	21	0	0	100	3	39	109884	1	13	72	107845	-1	108899	1	1054	3	3	2039	52	109897	-53	0																26												
WM080112	149539_fnca	2	1	1	-449807366	1	75.033	75.030	2.0.10.147	2.0.10.242	2.0.10.242	1.0.0.439	7	234	2	3	Verdana	1	80	0	0	0	WM Stimuli\	1	944	1	724.7	1	918.2	1	611.1	1	979.2	1	626.7	0.9	852.444444444444	0.9	799.222222222222	13	319333	2	319321	27	40	319360	-999999	319336	0	29	TrialsPROC	FC_018_F9.png	2	2	27	SessionSelectionList														nonlure	3	Face	2-Back	23	80	22	0	0	100	4	39	112456	1	14	72	110417	-1	110988	1	571	3	3	2039	53	112470	-54	0																27												
WM080112	149539_fnca	2	1	1	-449807366	1	75.033	75.030	2.0.10.147	2.0.10.242	2.0.10.242	1.0.0.439	7	234	2	3	Verdana	1	80	0	0	0	WM Stimuli\	1	944	1	724.7	1	918.2	1	611.1	1	979.2	1	626.7	0.9	852.444444444444	0.9	799.222222222222	13	319333	2	319321	27	40	319360	-999999	319336	0	29	TrialsPROC	FC_018_F9.png	2	2	28	SessionSelectionList														lure	3	Face	2-Back	24	80	23	0	0	100	5	39	115028	2	14	72	112989	-1	113651	1	662	3	3	2039	53	115042	-54	0																28												
WM080112	149539_fnca	2	1	1	-449807366	1	75.033	75.030	2.0.10.147	2.0.10.242	2.0.10.242	1.0.0.439	7	234	2	3	Verdana	1	80	0	0	0	WM Stimuli\	1	944	1	724.7	1	918.2	1	611.1	1	979.2	1	626.7	0.9	852.444444444444	0.9	799.222222222222	13	319333	2	319321	27	40	319360	-999999	319336	0	29	TrialsPROC	FC_017_M9.png	2	2	29	SessionSelectionList														nonlure	3	Face	2-Back	25	80	24	0	0	100	6	40	117601	1	13	72	115561	-1	116319	1	758	3	3	2040	53	117614	-54	0																29												
WM080112	149539_fnca	2	1	1	-449807366	1	75.033	75.030	2.0.10.147	2.0.10.242	2.0.10.242	1.0.0.439	7	234	2	3	Verdana	1	80	0	0	0	WM Stimuli\	1	944	1	724.7	1	918.2	1	611.1	1	979.2	1	626.7	0.9	852.444444444444	0.9	799.222222222222	13	319333	2	319321	27	40	319360	-999999	319336	0	29	TrialsPROC	FC_017_M9.png	2	2	30	SessionSelectionList														lure	3	Face	2-Back	26	80	25	0	0	100	7	39	120173	1	14	73	118134	-1	118883	1	749	3	3	2039	53	120187	-54	0																30												
WM080112	149539_fnca	2	1	1	-449807366	1	75.033	75.030	2.0.10.147	2.0.10.242	2.0.10.242	1.0.0.439	7	234	2	3	Verdana	1	80	0	0	0	WM Stimuli\	1	944	1	724.7	1	918.2	1	611.1	1	979.2	1	626.7	0.9	852.444444444444	0.9	799.222222222222	13	319333	2	319321	27	40	319360	-999999	319336	0	29	TrialsPROC	FC_016_F8.png	2	2	31	SessionSelectionList														nonlure	3	Face	2-Back	27	80	26	0	0	100	8	39	122745	2	14	72	120706	-1	121560	1	854	3	3	2039	53	122759	-54	0																31												
WM080112	149539_fnca	2	1	1	-449807366	1	75.033	75.030	2.0.10.147	2.0.10.242	2.0.10.242	1.0.0.439	7	234	2	3	Verdana	1	80	0	0	0	WM Stimuli\	1	944	1	724.7	1	918.2	1	611.1	1	979.2	1	626.7	0.9	852.444444444444	0.9	799.222222222222	13	319333	2	319321	27	40	319360	-999999	319336	0	29	TrialsPROC	FC_013_M7.png	2	2	32	SessionSelectionList														nonlure	3	Face	2-Back	28	80	27	0	0	100	9	39	125317	2	14	72	123278	-1	124021	1	743	3	3	2039	53	125331	-54	0																32												
WM080112	149539_fnca	2	1	1	-449807366	1	75.033	75.030	2.0.10.147	2.0.10.242	2.0.10.242	1.0.0.439	7	234	2	3	Verdana	1	80	0	0	0	WM Stimuli\	1	944	1	724.7	1	918.2	1	611.1	1	979.2	1	626.7	0.9	852.444444444444	0.9	799.222222222222	13	319333	2	319321	27	40	319360	-999999	319336	0	29	TrialsPROC	FC_014_F7.png	2	2	33	SessionSelectionList														nonlure	3	Face	2-Back	29	80	28	0	0	100	10	39	127890	1	14	73	125851	-1	126968	1	1117	3	3	2039	53	127904	-54	0																33												
WM080112	149539_fnca	2	1	1	-449807366	1	75.033	75.030	2.0.10.147	2.0.10.242	2.0.10.242	1.0.0.439	7	234	2	3	Verdana	1	80	0	0	0	WM Stimuli\	1	944	1	724.7	1	918.2	1	611.1	1	979.2	1	626.7	0.9	852.444444444444	0.9	799.222222222222	13	319333	2	319321	27	40	319360	-999999	319336	0	29	TrialsPROC	FC_013_M7.png	2	2	34	SessionSelectionList														target	2	Face	2-Back	30	80	29	0	0	100	1	39	130462	1	14	72	128423	-1	130084	1	1661	2	2	2039	53	130476	-54	0																34												
WM080112	149539_fnca	2	1	1	-449807366	1	75.033	75.030	2.0.10.147	2.0.10.242	2.0.10.242	1.0.0.439	7	234	2	3	Verdana	1	80	0	0	0	WM Stimuli\	1	944	1	724.7	1	918.2	1	611.1	1	979.2	1	626.7	0.9	852.444444444444	0.9	799.222222222222	13	319333	2	319321	27	40	319360	-999999	319336	0	29	TrialsPROC	FC_014_F7.png	2	2	35	SessionSelectionList														target	2	Face	2-Back	31	80	30	0	0	100	2	39	133034	2	14	72	130995	-1	132008	1	1013	2	2	2039	53	133048	-54	0																35												
WM080112	149539_fnca	2	1	1	-449807366	1	75.033	75.030	2.0.10.147	2.0.10.242	2.0.10.242	1.0.0.439	7	234	2	3	Verdana	1	80	0	0	0	WM Stimuli\	1	944	1	724.7	1	918.2	1	611.1	1	979.2	1	626.7	0.9	852.444444444444	0.9	799.222222222222	13	319333	2	319321	27	40	319360	-999999	319336	0	30	Cue0BackPROC	TO_019_TOOL19_BA.png	2	2	36	SessionSelectionList																																										19	133514	-20	0												36												
WM080112	149539_fnca	2	1	1	-449807366	1	75.033	75.030	2.0.10.147	2.0.10.242	2.0.10.242	1.0.0.439	7	234	2	3	Verdana	1	80	0	0	0	WM Stimuli\	1	944	1	724.7	1	918.2	1	611.1	1	979.2	1	626.7	0.9	852.444444444444	0.9	799.222222222222	13	319333	2	319321	27	40	319360	-999999	319336	0	31	TrialsPROC	TO_019_TOOL19_BA.png	2	2	37	SessionSelectionList														target	2	Tools	0-Back	32	80	31	0	0	91	1	40	138086	1	13	51	136046	-1	136988	0	942	3	2	2040	53	138099	-54	0																37												
WM080112	149539_fnca	2	1	1	-449807366	1	75.033	75.030	2.0.10.147	2.0.10.242	2.0.10.242	1.0.0.439	7	234	2	3	Verdana	1	80	0	0	0	WM Stimuli\	1	944	1	724.7	1	918.2	1	611.1	1	979.2	1	626.7	0.9	852.444444444444	0.9	799.222222222222	13	319333	2	319321	27	40	319360	-999999	319336	0	31	TrialsPROC	TO_024_TOOL24_BA.png	2	2	38	SessionSelectionList														nonlure	3	Tools	0-Back	33	80	32	0	0	92	2	40	140645	1	13	59	138605	-1	139687	1	1082	3	3	2040	53	140658	-54	0																38												
WM080112	149539_fnca	2	1	1	-449807366	1	75.033	75.030	2.0.10.147	2.0.10.242	2.0.10.242	1.0.0.439	7	234	2	3	Verdana	1	80	0	0	0	WM Stimuli\	1	944	1	724.7	1	918.2	1	611.1	1	979.2	1	626.7	0.9	852.444444444444	0.9	799.222222222222	13	319333	2	319321	27	40	319360	-999999	319336	0	31	TrialsPROC	TO_019_TOOL19_BA.png	2	2	39	SessionSelectionList														target	2	Tools	0-Back	34	80	33	0	0	92	1	40	143204	1	13	59	141164	-1	142195	1	1031	2	2	2040	53	143217	-54	0																39												
WM080112	149539_fnca	2	1	1	-449807366	1	75.033	75.030	2.0.10.147	2.0.10.242	2.0.10.242	1.0.0.439	7	234	2	3	Verdana	1	80	0	0	0	WM Stimuli\	1	944	1	724.7	1	918.2	1	611.1	1	979.2	1	626.7	0.9	852.444444444444	0.9	799.222222222222	13	319333	2	319321	27	40	319360	-999999	319336	0	31	TrialsPROC	TO_023_TOOL23_BA.png	2	2	40	SessionSelectionList														nonlure	3	Tools	0-Back	35	80	34	0	0	93	1	39	145763	1	13	60	143724	-1	144579	1	855	3	3	2039	52	145776	-53	0																40												
WM080112	149539_fnca	2	1	1	-449807366	1	75.033	75.030	2.0.10.147	2.0.10.242	2.0.10.242	1.0.0.439	7	234	2	3	Verdana	1	80	0	0	0	WM Stimuli\	1	944	1	724.7	1	918.2	1	611.1	1	979.2	1	626.7	0.9	852.444444444444	0.9	799.222222222222	13	319333	2	319321	27	40	319360	-999999	319336	0	31	TrialsPROC	TO_020_TOOL20_BA.png	2	2	41	SessionSelectionList														nonlure	3	Tools	0-Back	36	80	35	0	0	93	2	40	148322	1	13	58	146282	-1	147060	1	778	3	3	2040	53	148335	-54	0																41												
WM080112	149539_fnca	2	1	1	-449807366	1	75.033	75.030	2.0.10.147	2.0.10.242	2.0.10.242	1.0.0.439	7	234	2	3	Verdana	1	80	0	0	0	WM Stimuli\	1	944	1	724.7	1	918.2	1	611.1	1	979.2	1	626.7	0.9	852.444444444444	0.9	799.222222222222	13	319333	2	319321	27	40	319360	-999999	319336	0	31	TrialsPROC	TO_020_TOOL20_BA.png	2	2	42	SessionSelectionList														lure	3	Tools	0-Back	37	80	36	0	0	94	3	40	150881	1	13	59	148841	-1	149640	1	799	3	3	2040	53	150894	-54	0																42												
WM080112	149539_fnca	2	1	1	-449807366	1	75.033	75.030	2.0.10.147	2.0.10.242	2.0.10.242	1.0.0.439	7	234	2	3	Verdana	1	80	0	0	0	WM Stimuli\	1	944	1	724.7	1	918.2	1	611.1	1	979.2	1	626.7	0.9	852.444444444444	0.9	799.222222222222	13	319333	2	319321	27	40	319360	-999999	319336	0	31	TrialsPROC	TO_022_TOOL22_BA.png	2	2	43	SessionSelectionList														nonlure	3	Tools	0-Back	38	80	37	0	0	94	4	39	153439	2	14	59	151400	-1	152016	1	616	3	3	2039	53	153453	-54	0																43												
WM080112	149539_fnca	2	1	1	-449807366	1	75.033	75.030	2.0.10.147	2.0.10.242	2.0.10.242	1.0.0.439	7	234	2	3	Verdana	1	80	0	0	0	WM Stimuli\	1	944	1	724.7	1	918.2	1	611.1	1	979.2	1	626.7	0.9	852.444444444444	0.9	799.222222222222	13	319333	2	319321	27	40	319360	-999999	319336	0	31	TrialsPROC	TO_022_TOOL22_BA.png	2	2	44	SessionSelectionList														lure	3	Tools	0-Back	39	80	38	0	0	94	5	39	155998	2	14	59	153959	-1	154607	1	648	3	3	2039	53	156012	-54	0																44												
WM080112	149539_fnca	2	1	1	-449807366	1	75.033	75.030	2.0.10.147	2.0.10.242	2.0.10.242	1.0.0.439	7	234	2	3	Verdana	1	80	0	0	0	WM Stimuli\	1	944	1	724.7	1	918.2	1	611.1	1	979.2	1	626.7	0.9	852.444444444444	0.9	799.222222222222	13	319333	2	319321	27	40	319360	-999999	319336	0	31	TrialsPROC	TO_021_TOOL21_BA.png	2	2	45	SessionSelectionList														nonlure	3	Tools	0-Back	40	80	39	0	0	95	6	39	158557	2	14	59	156518	-1	157215	1	697	3	3	2039	53	158571	-54	0																45												
WM080112	149539_fnca	2	1	1	-449807366	1	75.033	75.030	2.0.10.147	2.0.10.242	2.0.10.242	1.0.0.439	7	234	2	3	Verdana	1	80	0	0	0	WM Stimuli\	1	944	1	724.7	1	918.2	1	611.1	1	979.2	1	626.7	0.9	852.444444444444	0.9	799.222222222222	13	319333	2	319321	27	40	319360	-999999	319336	0	31	TrialsPROC	TO_021_TOOL21_BA.png	2	2	46	SessionSelectionList														lure	3	Tools	0-Back	41	80	40	0	0	95	7	39	161116	2	14	59	159077	-1	159764	1	687	3	3	2039	53	161130	-54	0																46												
WM080112	149539_fnca	2	1	1	-449807366	1	75.033	75.030	2.0.10.147	2.0.10.242	2.0.10.242	1.0.0.439	7	234	2	3	Verdana	1	80	0	0	0	WM Stimuli\	1	944	1	724.7	1	918.2	1	611.1	1	979.2	1	626.7	0.9	852.444444444444	0.9	799.222222222222	13	319333	2	319321	27	40	319360	-999999	319336	0	32	Fix15secPROC	""	2	2	47	SessionSelectionList																																															6	161583	-7	0							47												
WM080112	149539_fnca	2	1	1	-449807366	1	75.033	75.030	2.0.10.147	2.0.10.242	2.0.10.242	1.0.0.439	7	234	2	3	Verdana	1	80	0	0	0	WM Stimuli\	1	944	1	724.7	1	918.2	1	611.1	1	979.2	1	626.7	0.9	852.444444444444	0.9	799.222222222222	13	319333	2	319321	27	40	319360	-999999	319336	0	33	Cue2BackPROC	""	2	2	48	SessionSelectionList									13	176590	-14	0																																													48												
WM080112	149539_fnca	2	1	1	-449807366	1	75.033	75.030	2.0.10.147	2.0.10.242	2.0.10.242	1.0.0.439	7	234	2	3	Verdana	1	80	0	0	0	WM Stimuli\	1	944	1	724.7	1	918.2	1	611.1	1	979.2	1	626.7	0.9	852.444444444444	0.9	799.222222222222	13	319333	2	319321	27	40	319360	-999999	319336	0	34	TrialsPROC	BP_020_H17-T_BA.png	2	2	49	SessionSelectionList														nonlure	3	Body	2-Back	42	80	41	0	0	95	8	39	181175	1	14	59	179136	-1	180040	1	904	3	3	2039	53	181189	-54	0																49												
WM080112	149539_fnca	2	1	1	-449807366	1	75.033	75.030	2.0.10.147	2.0.10.242	2.0.10.242	1.0.0.439	7	234	2	3	Verdana	1	80	0	0	0	WM Stimuli\	1	944	1	724.7	1	918.2	1	611.1	1	979.2	1	626.7	0.9	852.444444444444	0.9	799.222222222222	13	319333	2	319321	27	40	319360	-999999	319336	0	34	TrialsPROC	BP_019_H14-T_BA.png	2	2	50	SessionSelectionList														nonlure	3	Body	2-Back	43	80	42	0	0	95	9	39	183734	1	14	59	181695	-1	182928	1	1233	3	3	2039	53	183748	-54	0																50												
WM080112	149539_fnca	2	1	1	-449807366	1	75.033	75.030	2.0.10.147	2.0.10.242	2.0.10.242	1.0.0.439	7	234	2	3	Verdana	1	80	0	0	0	WM Stimuli\	1	944	1	724.7	1	918.2	1	611.1	1	979.2	1	626.7	0.9	852.444444444444	0.9	799.222222222222	13	319333	2	319321	27	40	319360	-999999	319336	0	34	TrialsPROC	BP_020_H17-T_BA.png	2	2	51	SessionSelectionList														target	2	Body	2-Back	44	80	43	0	0	95	1	39	186293	1	14	59	184254	-1	185118	1	864	2	2	2039	53	186307	-54	0																51												
WM080112	149539_fnca	2	1	1	-449807366	1	75.033	75.030	2.0.10.147	2.0.10.242	2.0.10.242	1.0.0.439	7	234	2	3	Verdana	1	80	0	0	0	WM Stimuli\	1	944	1	724.7	1	918.2	1	611.1	1	979.2	1	626.7	0.9	852.444444444444	0.9	799.222222222222	13	319333	2	319321	27	40	319360	-999999	319336	0	34	TrialsPROC	BP_019_H14-T_BA.png	2	2	52	SessionSelectionList														target	2	Body	2-Back	45	80	44	0	0	95	2	39	188852	1	14	59	186813	-1	187637	1	824	2	2	2039	53	188866	-54	0																52												
WM080112	149539_fnca	2	1	1	-449807366	1	75.033	75.030	2.0.10.147	2.0.10.242	2.0.10.242	1.0.0.439	7	234	2	3	Verdana	1	80	0	0	0	WM Stimuli\	1	944	1	724.7	1	918.2	1	611.1	1	979.2	1	626.7	0.9	852.444444444444	0.9	799.222222222222	13	319333	2	319321	27	40	319360	-999999	319336	0	34	TrialsPROC	BP_024_H3-T_BA.png	2	2	53	SessionSelectionList														nonlure	3	Body	2-Back	46	80	45	0	0	95	1	39	191411	2	14	59	189372	-1	190489	1	1117	3	3	2039	53	191425	-54	0																53												
WM080112	149539_fnca	2	1	1	-449807366	1	75.033	75.030	2.0.10.147	2.0.10.242	2.0.10.242	1.0.0.439	7	234	2	3	Verdana	1	80	0	0	0	WM Stimuli\	1	944	1	724.7	1	918.2	1	611.1	1	979.2	1	626.7	0.9	852.444444444444	0.9	799.222222222222	13	319333	2	319321	27	40	319360	-999999	319336	0	34	TrialsPROC	BP_024_H3-T_BA.png	2	2	54	SessionSelectionList														lure	3	Body	2-Back	47	80	46	0	0	95	2	39	193970	1	14	59	191931	-1	192826	1	895	3	3	2039	53	193984	-54	0																54												
WM080112	149539_fnca	2	1	1	-449807366	1	75.033	75.030	2.0.10.147	2.0.10.242	2.0.10.242	1.0.0.439	7	234	2	3	Verdana	1	80	0	0	0	WM Stimuli\	1	944	1	724.7	1	918.2	1	611.1	1	979.2	1	626.7	0.9	852.444444444444	0.9	799.222222222222	13	319333	2	319321	27	40	319360	-999999	319336	0	34	TrialsPROC	BP_025_H5-T_BA.png	2	2	55	SessionSelectionList														nonlure	3	Body	2-Back	48	80	47	0	0	95	3	39	196529	2	14	59	194490	-1	195361	1	871	3	3	2039	53	196543	-54	0																55												
WM080112	149539_fnca	2	1	1	-449807366	1	75.033	75.030	2.0.10.147	2.0.10.242	2.0.10.242	1.0.0.439	7	234	2	3	Verdana	1	80	0	0	0	WM Stimuli\	1	944	1	724.7	1	918.2	1	611.1	1	979.2	1	626.7	0.9	852.444444444444	0.9	799.222222222222	13	319333	2	319321	27	40	319360	-999999	319336	0	34	TrialsPROC	BP_023_H25-T_BA.png	2	2	56	SessionSelectionList														nonlure	3	Body	2-Back	49	80	48	0	0	95	4	39	199088	1	13	59	197049	-1	198021	1	972	3	3	2039	52	199101	-53	0																56												
WM080112	149539_fnca	2	1	1	-449807366	1	75.033	75.030	2.0.10.147	2.0.10.242	2.0.10.242	1.0.0.439	7	234	2	3	Verdana	1	80	0	0	0	WM Stimuli\	1	944	1	724.7	1	918.2	1	611.1	1	979.2	1	626.7	0.9	852.444444444444	0.9	799.222222222222	13	319333	2	319321	27	40	319360	-999999	319336	0	34	TrialsPROC	BP_022_H24-T_BA.png	2	2	57	SessionSelectionList														nonlure	3	Body	2-Back	50	80	49	0	0	95	5	39	201647	1	13	59	199608	-1	200433	1	825	3	3	2039	52	201660	-53	0																57												
WM080112	149539_fnca	2	1	1	-449807366	1	75.033	75.030	2.0.10.147	2.0.10.242	2.0.10.242	1.0.0.439	7	234	2	3	Verdana	1	80	0	0	0	WM Stimuli\	1	944	1	724.7	1	918.2	1	611.1	1	979.2	1	626.7	0.9	852.444444444444	0.9	799.222222222222	13	319333	2	319321	27	40	319360	-999999	319336	0	34	TrialsPROC	BP_022_H24-T_BA.png	2	2	58	SessionSelectionList														lure	3	Body	2-Back	51	80	50	0	0	95	6	39	204206	1	13	59	202167	-1	203102	1	935	3	3	2039	52	204219	-53	0																58												
WM080112	149539_fnca	2	1	1	-449807366	1	75.033	75.030	2.0.10.147	2.0.10.242	2.0.10.242	1.0.0.439	7	234	2	3	Verdana	1	80	0	0	0	WM Stimuli\	1	944	1	724.7	1	918.2	1	611.1	1	979.2	1	626.7	0.9	852.444444444444	0.9	799.222222222222	13	319333	2	319321	27	40	319360	-999999	319336	0	35	Cue2BackPROC	""	2	2	59	SessionSelectionList									5	204672	-6	0																																													59												
WM080112	149539_fnca	2	1	1	-449807366	1	75.033	75.030	2.0.10.147	2.0.10.242	2.0.10.242	1.0.0.439	7	234	2	3	Verdana	1	80	0	0	0	WM Stimuli\	1	944	1	724.7	1	918.2	1	611.1	1	979.2	1	626.7	0.9	852.444444444444	0.9	799.222222222222	13	319333	2	319321	27	40	319360	-999999	319336	0	36	TrialsPROC	PL_019_SCENE_05.png	2	2	60	SessionSelectionList														nonlure	3	Place	2-Back	52	80	51	0	0	95	7	39	209270	2	14	64	207231	-1	208665	1	1434	3	3	2039	53	209284	-54	0																60												
WM080112	149539_fnca	2	1	1	-449807366	1	75.033	75.030	2.0.10.147	2.0.10.242	2.0.10.242	1.0.0.439	7	234	2	3	Verdana	1	80	0	0	0	WM Stimuli\	1	944	1	724.7	1	918.2	1	611.1	1	979.2	1	626.7	0.9	852.444444444444	0.9	799.222222222222	13	319333	2	319321	27	40	319360	-999999	319336	0	36	TrialsPROC	PL_017_SCENE_03.png	2	2	61	SessionSelectionList														nonlure	3	Place	2-Back	53	80	52	0	0	95	8	40	211843	1	13	72	209803	-1	210758	1	955	3	3	2040	53	211856	-54	0																61												
WM080112	149539_fnca	2	1	1	-449807366	1	75.033	75.030	2.0.10.147	2.0.10.242	2.0.10.242	1.0.0.439	7	234	2	3	Verdana	1	80	0	0	0	WM Stimuli\	1	944	1	724.7	1	918.2	1	611.1	1	979.2	1	626.7	0.9	852.444444444444	0.9	799.222222222222	13	319333	2	319321	27	40	319360	-999999	319336	0	36	TrialsPROC	PL_017_SCENE_03.png	2	2	62	SessionSelectionList														lure	3	Place	2-Back	54	80	53	0	0	95	9	39	214415	1	14	73	212376	-1	213168	1	792	3	3	2039	53	214429	-54	0																62												
WM080112	149539_fnca	2	1	1	-449807366	1	75.033	75.030	2.0.10.147	2.0.10.242	2.0.10.242	1.0.0.439	7	234	2	3	Verdana	1	80	0	0	0	WM Stimuli\	1	944	1	724.7	1	918.2	1	611.1	1	979.2	1	626.7	0.9	852.444444444444	0.9	799.222222222222	13	319333	2	319321	27	40	319360	-999999	319336	0	36	TrialsPROC	PL_016_SCENE_02.png	2	2	63	SessionSelectionList														nonlure	3	Place	2-Back	55	80	54	0	0	95	10	39	216987	2	14	72	214948	-1	216062	1	1114	3	3	2039	53	217001	-54	0																63												
WM080112	149539_fnca	2	1	1	-449807366	1	75.033	75.030	2.0.10.147	2.0.10.242	2.0.10.242	1.0.0.439	7	234	2	3	Verdana	1	80	0	0	0	WM Stimuli\	1	944	1	724.7	1	918.2	1	611.1	1	979.2	1	626.7	0.9	852.444444444444	0.9	799.222222222222	13	319333	2	319321	27	40	319360	-999999	319336	0	36	TrialsPROC	PL_015_SCENE_01.png	2	2	64	SessionSelectionList														nonlure	3	Place	2-Back	56	80	55	0	0	95	11	39	219559	2	14	72	217520	-1	218413	1	893	3	3	2039	53	219573	-54	0																64												
WM080112	149539_fnca	2	1	1	-449807366	1	75.033	75.030	2.0.10.147	2.0.10.242	2.0.10.242	1.0.0.439	7	234	2	3	Verdana	1	80	0	0	0	WM Stimuli\	1	944	1	724.7	1	918.2	1	611.1	1	979.2	1	626.7	0.9	852.444444444444	0.9	799.222222222222	13	319333	2	319321	27	40	319360	-999999	319336	0	36	TrialsPROC	PL_016_SCENE_02.png	2	2	65	SessionSelectionList														target	2	Place	2-Back	57	80	56	0	0	95	1	39	222132	1	14	73	220093	-1	221020	1	927	2	2	2039	53	222146	-54	0																65												
WM080112	149539_fnca	2	1	1	-449807366	1	75.033	75.030	2.0.10.147	2.0.10.242	2.0.10.242	1.0.0.439	7	234	2	3	Verdana	1	80	0	0	0	WM Stimuli\	1	944	1	724.7	1	918.2	1	611.1	1	979.2	1	626.7	0.9	852.444444444444	0.9	799.222222222222	13	319333	2	319321	27	40	319360	-999999	319336	0	36	TrialsPROC	PL_015_SCENE_01.png	2	2	66	SessionSelectionList														target	2	Place	2-Back	58	80	57	0	0	95	2	39	224704	1	14	72	222665	-1	223500	1	835	2	2	2039	53	224718	-54	0																66												
WM080112	149539_fnca	2	1	1	-449807366	1	75.033	75.030	2.0.10.147	2.0.10.242	2.0.10.242	1.0.0.439	7	234	2	3	Verdana	1	80	0	0	0	WM Stimuli\	1	944	1	724.7	1	918.2	1	611.1	1	979.2	1	626.7	0.9	852.444444444444	0.9	799.222222222222	13	319333	2	319321	27	40	319360	-999999	319336	0	36	TrialsPROC	PL_020_SCENE_06.png	2	2	67	SessionSelectionList														nonlure	3	Place	2-Back	59	80	58	0	0	95	1	39	227276	2	14	72	225237	-1	226200	1	963	3	3	2039	53	227290	-54	0																67												
WM080112	149539_fnca	2	1	1	-449807366	1	75.033	75.030	2.0.10.147	2.0.10.242	2.0.10.242	1.0.0.439	7	234	2	3	Verdana	1	80	0	0	0	WM Stimuli\	1	944	1	724.7	1	918.2	1	611.1	1	979.2	1	626.7	0.9	852.444444444444	0.9	799.222222222222	13	319333	2	319321	27	40	319360	-999999	319336	0	36	TrialsPROC	PL_020_SCENE_06.png	2	2	68	SessionSelectionList														lure	3	Place	2-Back	60	80	59	0	0	95	2	40	229849	1	13	72	227809	-1	228767	1	958	3	3	2040	53	229862	-54	0																68												
WM080112	149539_fnca	2	1	1	-449807366	1	75.033	75.030	2.0.10.147	2.0.10.242	2.0.10.242	1.0.0.439	7	234	2	3	Verdana	1	80	0	0	0	WM Stimuli\	1	944	1	724.7	1	918.2	1	611.1	1	979.2	1	626.7	0.9	852.444444444444	0.9	799.222222222222	13	319333	2	319321	27	40	319360	-999999	319336	0	36	TrialsPROC	PL_018_SCENE_04.png	2	2	69	SessionSelectionList														nonlure	3	Place	2-Back	61	80	60	0	0	95	3	39	232421	1	14	73	230382	-1	231303	1	921	3	3	2039	53	232435	-54	0																69												
WM080112	149539_fnca	2	1	1	-449807366	1	75.033	75.030	2.0.10.147	2.0.10.242	2.0.10.242	1.0.0.439	7	234	2	3	Verdana	1	80	0	0	0	WM Stimuli\	1	944	1	724.7	1	918.2	1	611.1	1	979.2	1	626.7	0.9	852.444444444444	0.9	799.222222222222	13	319333	2	319321	27	40	319360	-999999	319336	0	37	Fix15secPROC	""	2	2	70	SessionSelectionList																																															6	232888	-7	0							70												
WM080112	149539_fnca	2	1	1	-449807366	1	75.033	75.030	2.0.10.147	2.0.10.242	2.0.10.242	1.0.0.439	7	234	2	3	Verdana	1	80	0	0	0	WM Stimuli\	1	944	1	724.7	1	918.2	1	611.1	1	979.2	1	626.7	0.9	852.444444444444	0.9	799.222222222222	13	319333	2	319321	27	40	319360	-999999	319336	0	38	Cue0BackPROC	FC_020_F10.png	2	2	71	SessionSelectionList																																										26	247908	-27	0												71												
WM080112	149539_fnca	2	1	1	-449807366	1	75.033	75.030	2.0.10.147	2.0.10.242	2.0.10.242	1.0.0.439	7	234	2	3	Verdana	1	80	0	0	0	WM Stimuli\	1	944	1	724.7	1	918.2	1	611.1	1	979.2	1	626.7	0.9	852.444444444444	0.9	799.222222222222	13	319333	2	319321	27	40	319360	-999999	319336	0	39	TrialsPROC	FC_024_F12.png	2	2	72	SessionSelectionList														nonlure	3	Face	0-Back	62	80	61	0	0	95	4	39	252493	1	14	72	250454	-1	251126	1	672	3	3	2039	53	252507	-54	0																72												
WM080112	149539_fnca	2	1	1	-449807366	1	75.033	75.030	2.0.10.147	2.0.10.242	2.0.10.242	1.0.0.439	7	234	2	3	Verdana	1	80	0	0	0	WM Stimuli\	1	944	1	724.7	1	918.2	1	611.1	1	979.2	1	626.7	0.9	852.444444444444	0.9	799.222222222222	13	319333	2	319321	27	40	319360	-999999	319336	0	39	TrialsPROC	FC_023_M12.png	2	2	73	SessionSelectionList														nonlure	3	Face	0-Back	63	80	62	0	0	95	5	39	255065	2	14	72	253026	-1	253609	1	583	3	3	2039	53	255079	-54	0																73												
WM080112	149539_fnca	2	1	1	-449807366	1	75.033	75.030	2.0.10.147	2.0.10.242	2.0.10.242	1.0.0.439	7	234	2	3	Verdana	1	80	0	0	0	WM Stimuli\	1	944	1	724.7	1	918.2	1	611.1	1	979.2	1	626.7	0.9	852.444444444444	0.9	799.222222222222	13	319333	2	319321	27	40	319360	-999999	319336	0	39	TrialsPROC	FC_020_F10.png	2	2	74	SessionSelectionList														target	2	Face	0-Back	64	80	63	0	0	96	1	39	257637	2	14	72	255598	-1	256223	1	625	2	2	2039	53	257651	-54	0																74												
WM080112	149539_fnca	2	1	1	-449807366	1	75.033	75.030	2.0.10.147	2.0.10.242	2.0.10.242	1.0.0.439	7	234	2	3	Verdana	1	80	0	0	0	WM Stimuli\	1	944	1	724.7	1	918.2	1	611.1	1	979.2	1	626.7	0.9	852.444444444444	0.9	799.222222222222	13	319333	2	319321	27	40	319360	-999999	319336	0	39	TrialsPROC	FC_024_F12.png	2	2	75	SessionSelectionList														lure	3	Face	0-Back	65	80	64	0	0	96	1	39	260210	1	13	73	258171	-1	258687	1	516	3	3	2039	52	260223	-53	0																75												
WM080112	149539_fnca	2	1	1	-449807366	1	75.033	75.030	2.0.10.147	2.0.10.242	2.0.10.242	1.0.0.439	7	234	2	3	Verdana	1	80	0	0	0	WM Stimuli\	1	944	1	724.7	1	918.2	1	611.1	1	979.2	1	626.7	0.9	852.444444444444	0.9	799.222222222222	13	319333	2	319321	27	40	319360	-999999	319336	0	39	TrialsPROC	FC_020_F10.png	2	2	76	SessionSelectionList														target	2	Face	0-Back	66	80	65	0	0	96	1	39	262782	1	14	72	260743	-1	261323	1	580	2	2	2039	53	262796	-54	0																76												
WM080112	149539_fnca	2	1	1	-449807366	1	75.033	75.030	2.0.10.147	2.0.10.242	2.0.10.242	1.0.0.439	7	234	2	3	Verdana	1	80	0	0	0	WM Stimuli\	1	944	1	724.7	1	918.2	1	611.1	1	979.2	1	626.7	0.9	852.444444444444	0.9	799.222222222222	13	319333	2	319321	27	40	319360	-999999	319336	0	39	TrialsPROC	FC_022_F11.png	2	2	77	SessionSelectionList														nonlure	3	Face	0-Back	67	80	66	0	0	96	1	39	265354	2	14	72	263315	-1	264014	1	699	3	3	2039	53	265368	-54	0																77												
WM080112	149539_fnca	2	1	1	-449807366	1	75.033	75.030	2.0.10.147	2.0.10.242	2.0.10.242	1.0.0.439	7	234	2	3	Verdana	1	80	0	0	0	WM Stimuli\	1	944	1	724.7	1	918.2	1	611.1	1	979.2	1	626.7	0.9	852.444444444444	0.9	799.222222222222	13	319333	2	319321	27	40	319360	-999999	319336	0	39	TrialsPROC	FC_023_M12.png	2	2	78	SessionSelectionList														lure	3	Face	0-Back	68	80	67	0	0	96	2	40	267927	1	13	72	265887	-1	266337	1	450	3	3	2040	53	267940	-54	0																78												
WM080112	149539_fnca	2	1	1	-449807366	1	75.033	75.030	2.0.10.147	2.0.10.242	2.0.10.242	1.0.0.439	7	234	2	3	Verdana	1	80	0	0	0	WM Stimuli\	1	944	1	724.7	1	918.2	1	611.1	1	979.2	1	626.7	0.9	852.444444444444	0.9	799.222222222222	13	319333	2	319321	27	40	319360	-999999	319336	0	39	TrialsPROC	FC_021_M11.png	2	2	79	SessionSelectionList														nonlure	3	Face	0-Back	69	80	68	0	0	96	3	39	270499	1	14	73	268460	-1	268988	1	528	3	3	2039	53	270513	-54	0																79												
WM080112	149539_fnca	2	1	1	-449807366	1	75.033	75.030	2.0.10.147	2.0.10.242	2.0.10.242	1.0.0.439	7	234	2	3	Verdana	1	80	0	0	0	WM Stimuli\	1	944	1	724.7	1	918.2	1	611.1	1	979.2	1	626.7	0.9	852.444444444444	0.9	799.222222222222	13	319333	2	319321	27	40	319360	-999999	319336	0	39	TrialsPROC	FC_021_M11.png	2	2	80	SessionSelectionList														lure	3	Face	0-Back	70	80	69	0	0	97	4	39	273071	2	14	72	271032	-1	271781	1	749	3	3	2039	53	273085	-54	0																80												
WM080112	149539_fnca	2	1	1	-449807366	1	75.033	75.030	2.0.10.147	2.0.10.242	2.0.10.242	1.0.0.439	7	234	2	3	Verdana	1	80	0	0	0	WM Stimuli\	1	944	1	724.7	1	918.2	1	611.1	1	979.2	1	626.7	0.9	852.444444444444	0.9	799.222222222222	13	319333	2	319321	27	40	319360	-999999	319336	0	39	TrialsPROC	FC_019_M10.png	2	2	81	SessionSelectionList														nonlure	3	Face	0-Back	71	80	70	0	0	97	5	40	275644	1	13	72	273604	-1	274313	1	709	3	3	2040	53	275657	-54	0																81												
WM080112	149539_fnca	2	1	1	-449807366	1	75.033	75.030	2.0.10.147	2.0.10.242	2.0.10.242	1.0.0.439	7	234	2	3	Verdana	1	80	0	0	0	WM Stimuli\	1	944	1	724.7	1	918.2	1	611.1	1	979.2	1	626.7	0.9	852.444444444444	0.9	799.222222222222	13	319333	2	319321	27	40	319360	-999999	319336	0	40	Cue0BackPROC	PL_021_SCENE_07.png	2	2	82	SessionSelectionList																																										19	276123	-20	0												82												
WM080112	149539_fnca	2	1	1	-449807366	1	75.033	75.030	2.0.10.147	2.0.10.242	2.0.10.242	1.0.0.439	7	234	2	3	Verdana	1	80	0	0	0	WM Stimuli\	1	944	1	724.7	1	918.2	1	611.1	1	979.2	1	626.7	0.9	852.444444444444	0.9	799.222222222222	13	319333	2	319321	27	40	319360	-999999	319336	0	41	TrialsPROC	PL_025_SCENE_18.png	2	2	83	SessionSelectionList														nonlure	3	Place	0-Back	72	80	71	0	0	97	6	39	280708	2	14	65	278669	-1	279448	1	779	3	3	2039	53	280722	-54	0																83												
WM080112	149539_fnca	2	1	1	-449807366	1	75.033	75.030	2.0.10.147	2.0.10.242	2.0.10.242	1.0.0.439	7	234	2	3	Verdana	1	80	0	0	0	WM Stimuli\	1	944	1	724.7	1	918.2	1	611.1	1	979.2	1	626.7	0.9	852.444444444444	0.9	799.222222222222	13	319333	2	319321	27	40	319360	-999999	319336	0	41	TrialsPROC	PL_026_SCENE_24.png	2	2	84	SessionSelectionList														nonlure	3	Place	0-Back	73	80	72	0	0	97	7	39	283280	2	14	72	281241	-1	281887	1	646	3	3	2039	53	283294	-54	0																84												
WM080112	149539_fnca	2	1	1	-449807366	1	75.033	75.030	2.0.10.147	2.0.10.242	2.0.10.242	1.0.0.439	7	234	2	3	Verdana	1	80	0	0	0	WM Stimuli\	1	944	1	724.7	1	918.2	1	611.1	1	979.2	1	626.7	0.9	852.444444444444	0.9	799.222222222222	13	319333	2	319321	27	40	319360	-999999	319336	0	41	TrialsPROC	PL_025_SCENE_18.png	2	2	85	SessionSelectionList														lure	3	Place	0-Back	74	80	73	0	0	97	8	39	285853	1	14	73	283814	-1	284517	1	703	3	3	2039	53	285867	-54	0																85												
WM080112	149539_fnca	2	1	1	-449807366	1	75.033	75.030	2.0.10.147	2.0.10.242	2.0.10.242	1.0.0.439	7	234	2	3	Verdana	1	80	0	0	0	WM Stimuli\	1	944	1	724.7	1	918.2	1	611.1	1	979.2	1	626.7	0.9	852.444444444444	0.9	799.222222222222	13	319333	2	319321	27	40	319360	-999999	319336	0	41	TrialsPROC	PL_022_SCENE_08.png	2	2	86	SessionSelectionList														nonlure	3	Place	0-Back	75	80	74	0	0	97	9	39	288425	1	14	72	286386	-1	286927	1	541	3	3	2039	53	288439	-54	0																86												
WM080112	149539_fnca	2	1	1	-449807366	1	75.033	75.030	2.0.10.147	2.0.10.242	2.0.10.242	1.0.0.439	7	234	2	3	Verdana	1	80	0	0	0	WM Stimuli\	1	944	1	724.7	1	918.2	1	611.1	1	979.2	1	626.7	0.9	852.444444444444	0.9	799.222222222222	13	319333	2	319321	27	40	319360	-999999	319336	0	41	TrialsPROC	PL_026_SCENE_24.png	2	2	87	SessionSelectionList														lure	3	Place	0-Back	76	80	75	0	0	97	10	39	290997	2	14	72	288958	-1	289522	1	564	3	3	2039	53	291011	-54	0																87												
WM080112	149539_fnca	2	1	1	-449807366	1	75.033	75.030	2.0.10.147	2.0.10.242	2.0.10.242	1.0.0.439	7	234	2	3	Verdana	1	80	0	0	0	WM Stimuli\	1	944	1	724.7	1	918.2	1	611.1	1	979.2	1	626.7	0.9	852.444444444444	0.9	799.222222222222	13	319333	2	319321	27	40	319360	-999999	319336	0	41	TrialsPROC	PL_021_SCENE_07.png	2	2	88	SessionSelectionList														target	2	Place	0-Back	77	80	76	0	0	97	1	40	293570	1	13	72	291530	-1	292112	1	582	2	2	2040	53	293583	-54	0																88												
WM080112	149539_fnca	2	1	1	-449807366	1	75.033	75.030	2.0.10.147	2.0.10.242	2.0.10.242	1.0.0.439	7	234	2	3	Verdana	1	80	0	0	0	WM Stimuli\	1	944	1	724.7	1	918.2	1	611.1	1	979.2	1	626.7	0.9	852.444444444444	0.9	799.222222222222	13	319333	2	319321	27	40	319360	-999999	319336	0	41	TrialsPROC	PL_021_SCENE_07.png	2	2	89	SessionSelectionList														target	2	Place	0-Back	78	80	77	0	0	97	2	39	296142	1	14	73	294103	-1	294697	1	594	2	2	2039	53	296156	-54	0																89												
WM080112	149539_fnca	2	1	1	-449807366	1	75.033	75.030	2.0.10.147	2.0.10.242	2.0.10.242	1.0.0.439	7	234	2	3	Verdana	1	80	0	0	0	WM Stimuli\	1	944	1	724.7	1	918.2	1	611.1	1	979.2	1	626.7	0.9	852.444444444444	0.9	799.222222222222	13	319333	2	319321	27	40	319360	-999999	319336	0	41	TrialsPROC	PL_023_SCENE_09.png	2	2	90	SessionSelectionList														nonlure	3	Place	0-Back	79	80	78	0	0	97	1	39	298714	2	14	72	296675	-1	297267	1	592	3	3	2039	53	298728	-54	0																90												
WM080112	149539_fnca	2	1	1	-449807366	1	75.033	75.030	2.0.10.147	2.0.10.242	2.0.10.242	1.0.0.439	7	234	2	3	Verdana	1	80	0	0	0	WM Stimuli\	1	944	1	724.7	1	918.2	1	611.1	1	979.2	1	626.7	0.9	852.444444444444	0.9	799.222222222222	13	319333	2	319321	27	40	319360	-999999	319336	0	41	TrialsPROC	PL_024_SCENE_10.png	2	2	91	SessionSelectionList														nonlure	3	Place	0-Back	80	80	79	0	0	97	2	39	301286	2	14	72	299247	-1	299847	1	600	3	3	2039	53	301300	-54	0																91												
WM080112	149539_fnca	2	1	1	-449807366	1	75.033	75.030	2.0.10.147	2.0.10.242	2.0.10.242	1.0.0.439	7	234	2	3	Verdana	1	80	0	0	0	WM Stimuli\	1	944	1	724.7	1	918.2	1	611.1	1	979.2	1	626.7	0.9	852.444444444444	0.9	799.222222222222	13	319333	2	319321	27	40	319360	-999999	319336	0	41	TrialsPROC	PL_022_SCENE_08.png	2	2	92	SessionSelectionList														lure	3	Place	0-Back	80	80	80	0	0	98	3	39	303859	1	14	73	301820	-1	302486	1	666	3	3	2039	53	303873	-54	0																92												
WM080112	149539_fnca	2	1	1	-449807366	1	75.033	75.030	2.0.10.147	2.0.10.242	2.0.10.242	1.0.0.439	7	234	2	3	Verdana	1	80	0	0	0	WM Stimuli\	1	944	1	724.7	1	918.2	1	611.1	1	979.2	1	626.7	0.9	852.444444444444	0.9	799.222222222222	13	319333	2	319321	27	40	319360	-999999	319336	0	42	Fix15secPROC	""	2	2	93	SessionSelectionList																																															6	304326	-7	0							93												
