ExperimentName	HCPID	RunNumber	Subject	Session	RandomSeed	Group	Laptop.RefreshRate	ScannerD2.RefreshRate	StudioVersion	RuntimeVersion	RuntimeVersionExpected	ExperimentVersion	triggercode	Allowed	Target	Nontarget	FontStyle	RunTrialNumber[Session]	TrialsPerRun[Session]	TotalRespGreater200[Session]	ConsecRTLess200[Session]	ConsecNonResp[Session]	StimuliDir	ACC_2_Back_Body	Avg_RT_For_Correct_Trials_2_Back_Body	ACC_0_Back_Body	Avg_RT_For_Correct_Trials_0_Back_Body	ACC_2_Back_Face	Avg_RT_For_Correct_Trials_2_Back_Face	ACC_0_Back_Face	Avg_RT_For_Correct_Trials_0_Back_Face	ACC_2_Back_Place	Avg_RT_For_Correct_Trials_2_Back_Place	ACC_0_Back_Place	Avg_RT_For_Correct_Trials_0_Back_Place	ACC_2_Back_Tools	Avg_RT_For_Correct_Trials_2_Back_Tools	ACC_0_Back_Tools	Avg_RT_For_Correct_Trials_0_Back_Tools	ExpInstrucFeelFreeToRest.OnsetDelay	ExpInstrucFeelFreeToRest.OnsetTime	ExpInstrucFeelFreeToRest.DurationError	ExpInstrucFeelFreeToRest.StartTime	ExpInstrucFeelFreeToRest.OnsetToOnsetTime	FeelFreeToRest.OnsetDelay	FeelFreeToRest.OnsetTime	FeelFreeToRest.DurationError	FeelFreeToRest.StartTime	FeelFreeToRest.OnsetToOnsetTime	SessionSelectionList	Procedure[Block]	Stimulus[Block]	RunNumberFilterValue	SessionSelectionList.Cycle	SessionSelectionList.Sample	Running[Block]	IntroButtonMap.OnsetDelay	IntroButtonMap.OnsetTime	IntroButtonMap.DurationError	IntroButtonMap.OnsetToOnsetTime	GetReady.OnsetDelay	GetReady.OnsetTime	GetReady.DurationError	GetReady.OnsetToOnsetTime	Cue2Back.OnsetDelay	Cue2Back.OnsetTime	Cue2Back.DurationError	Cue2Back.OnsetToOnsetTime	Run1Block1	TargetType	CorrectResponse	StimType	BlockType	RunTrialNumber[Block]	TrialsPerRun[Block]	TotalRespGreater200[Block]	ConsecRTLess200[Block]	ConsecNonResp[Block]	ControlAcc	ConsecSameResp	ExperimenterWindow.OnsetDelay	ExperimenterWindow.OnsetTime	ExperimenterWindow.DurationError	ExperimenterWindow.OnsetToOnsetTime	Stim.OnsetDelay	Stim.OnsetTime	Stim.DurationError	Stim.RTTime	Stim.ACC	Stim.RT	Stim.RESP	Stim.CRESP	Stim.OnsetToOnsetTime	Fix.OnsetDelay	Fix.OnsetTime	Fix.DurationError	Fix.OnsetToOnsetTime	CueTarget.OnsetDelay	CueTarget.OnsetTime	CueTarget.DurationError	CueTarget.OnsetToOnsetTime	Run1Block2	Fix15sec.OnsetDelay	Fix15sec.OnsetTime	Fix15sec.DurationError	Fix15sec.OnsetToOnsetTime	Run1Block3	Run1Block4	Run1Block5	Run1Block6	Run1Block7	Run1Block8	Block	Procedure[Trial]	Stimulus[Trial]	ReadyList	Running[Trial]	ReadyList.Cycle	ReadyList.Sample	SyncSlide.OnsetDelay	SyncSlide.OnsetTime	SyncSlide.DurationError	SyncSlide.FinishTime	SyncSlide.OnsetToOnsetTime	Trial
WM080112	123117_fnca	1	1	1	-579930032	1	75.031	75.031	2.0.10.147	2.0.10.242	2.0.10.242	1.0.0.439	7	234	2	3	Verdana	1	80	0	0	0	WM Stimuli\	0.2	1105	0.9	1108.22222222222	0.8	1185.625	0.8	1180.625	0.9	1098.33333333333	0.9	847.111111111111	0.9	1232.44444444444	1	636.8	13	538866	2	538854	27	40	538893	-999999	538869	0	1	TRSyncPROC	""	1	2	1	SessionSelectionList	99	20932	-999999	0	33	233045	-999999	0																																																	1	InitialTR	4	1	ReadyList	1	1	20	245600	-21	247579	0	1
WM080112	123117_fnca	1	1	1	-579930032	1	75.031	75.031	2.0.10.147	2.0.10.242	2.0.10.242	1.0.0.439	7	234	2	3	Verdana	1	80	0	0	0	WM Stimuli\	0.2	1105	0.9	1108.22222222222	0.8	1185.625	0.8	1180.625	0.9	1098.33333333333	0.9	847.111111111111	0.9	1232.44444444444	1	636.8	13	538866	2	538854	27	40	538893	-999999	538869	0	1	TRSyncPROC	""	1	2	1	SessionSelectionList	99	20932	-999999	0	33	233045	-999999	0																																																	1	InitialTR	3	2	ReadyList	1	2	19	247599	-20	249579	0	2
WM080112	123117_fnca	1	1	1	-579930032	1	75.031	75.031	2.0.10.147	2.0.10.242	2.0.10.242	1.0.0.439	7	234	2	3	Verdana	1	80	0	0	0	WM Stimuli\	0.2	1105	0.9	1108.22222222222	0.8	1185.625	0.8	1180.625	0.9	1098.33333333333	0.9	847.111111111111	0.9	1232.44444444444	1	636.8	13	538866	2	538854	27	40	538893	-999999	538869	0	1	TRSyncPROC	""	1	2	1	SessionSelectionList	99	20932	-999999	0	33	233045	-999999	0																																																	1	InitialTR	2	3	ReadyList	1	3	5	249585	-6	251579	0	3
WM080112	123117_fnca	1	1	1	-579930032	1	75.031	75.031	2.0.10.147	2.0.10.242	2.0.10.242	1.0.0.439	7	234	2	3	Verdana	1	80	0	0	0	WM Stimuli\	0.2	1105	0.9	1108.22222222222	0.8	1185.625	0.8	1180.625	0.9	1098.33333333333	0.9	847.111111111111	0.9	1232.44444444444	1	636.8	13	538866	2	538854	27	40	538893	-999999	538869	0	1	TRSyncPROC	""	1	2	1	SessionSelectionList	99	20932	-999999	0	33	233045	-999999	0																																																	1	InitialTR	1	4	ReadyList	1	4	4	251584	-5	253579	0	4
WM080112	123117_fnca	1	1	1	-579930032	1	75.031	75.031	2.0.10.147	2.0.10.242	2.0.10.242	1.0.0.439	7	234	2	3	Verdana	1	80	0	0	0	WM Stimuli\	0.2	1105	0.9	1108.22222222222	0.8	1185.625	0.8	1180.625	0.9	1098.33333333333	0.9	847.111111111111	0.9	1232.44444444444	1	636.8	13	538866	2	538854	27	40	538893	-999999	538869	0	2	Cue2BackPROC	""	1	2	2	SessionSelectionList									16	253596	-17	0																																													2												
WM080112	123117_fnca	1	1	1	-579930032	1	75.031	75.031	2.0.10.147	2.0.10.242	2.0.10.242	1.0.0.439	7	234	2	3	Verdana	1	80	0	0	0	WM Stimuli\	0.2	1105	0.9	1108.22222222222	0.8	1185.625	0.8	1180.625	0.9	1098.33333333333	0.9	847.111111111111	0.9	1232.44444444444	1	636.8	13	538866	2	538854	27	40	538893	-999999	538869	0	3	TrialsPROC	BP_002_BP10_BA.png	1	2	3	SessionSelectionList													1	nonlure	3	Body	2-Back	2	80	1	0	0	0	1	53	258208	3	14	75	256155	-1	256925	0	770	2	3	2053	67	258222	-68	0																3												
WM080112	123117_fnca	1	1	1	-579930032	1	75.031	75.031	2.0.10.147	2.0.10.242	2.0.10.242	1.0.0.439	7	234	2	3	Verdana	1	80	0	0	0	WM Stimuli\	0.2	1105	0.9	1108.22222222222	0.8	1185.625	0.8	1180.625	0.9	1098.33333333333	0.9	847.111111111111	0.9	1232.44444444444	1	636.8	13	538866	2	538854	27	40	538893	-999999	538869	0	3	TrialsPROC	BP_001_BP1_BA.png	1	2	4	SessionSelectionList													2	nonlure	3	Body	2-Back	3	80	2	0	0	0	2	40	260767	2	13	72	258727	-1	259311	0	584	2	3	2040	53	260780	-54	0																4												
WM080112	123117_fnca	1	1	1	-579930032	1	75.031	75.031	2.0.10.147	2.0.10.242	2.0.10.242	1.0.0.439	7	234	2	3	Verdana	1	80	0	0	0	WM Stimuli\	0.2	1105	0.9	1108.22222222222	0.8	1185.625	0.8	1180.625	0.9	1098.33333333333	0.9	847.111111111111	0.9	1232.44444444444	1	636.8	13	538866	2	538854	27	40	538893	-999999	538869	0	3	TrialsPROC	BP_006_BP2_BA.png	1	2	5	SessionSelectionList													3	nonlure	3	Body	2-Back	4	80	3	0	0	0	1	40	263326	1	13	59	261286	-1	262158	1	872	3	3	2040	53	263339	-54	0																5												
WM080112	123117_fnca	1	1	1	-579930032	1	75.031	75.031	2.0.10.147	2.0.10.242	2.0.10.242	1.0.0.439	7	234	2	3	Verdana	1	80	0	0	0	WM Stimuli\	0.2	1105	0.9	1108.22222222222	0.8	1185.625	0.8	1180.625	0.9	1098.33333333333	0.9	847.111111111111	0.9	1232.44444444444	1	636.8	13	538866	2	538854	27	40	538893	-999999	538869	0	3	TrialsPROC	BP_001_BP1_BA.png	1	2	6	SessionSelectionList													4	target	2	Body	2-Back	5	80	4	0	0	0	2	39	265898	1	14	73	263859	-1	265004	0	1145	3	2	2039	53	265912	-54	0																6												
WM080112	123117_fnca	1	1	1	-579930032	1	75.031	75.031	2.0.10.147	2.0.10.242	2.0.10.242	1.0.0.439	7	234	2	3	Verdana	1	80	0	0	0	WM Stimuli\	0.2	1105	0.9	1108.22222222222	0.8	1185.625	0.8	1180.625	0.9	1098.33333333333	0.9	847.111111111111	0.9	1232.44444444444	1	636.8	13	538866	2	538854	27	40	538893	-999999	538869	0	3	TrialsPROC	BP_005_BP19_BA.png	1	2	7	SessionSelectionList													5	nonlure	3	Body	2-Back	6	80	5	0	0	0	1	39	268470	2	14	72	266431	-1	267810	0	1379	2	3	2039	53	268484	-54	0																7												
WM080112	123117_fnca	1	1	1	-579930032	1	75.031	75.031	2.0.10.147	2.0.10.242	2.0.10.242	1.0.0.439	7	234	2	3	Verdana	1	80	0	0	0	WM Stimuli\	0.2	1105	0.9	1108.22222222222	0.8	1185.625	0.8	1180.625	0.9	1098.33333333333	0.9	847.111111111111	0.9	1232.44444444444	1	636.8	13	538866	2	538854	27	40	538893	-999999	538869	0	3	TrialsPROC	BP_003_BP16_BA.png	1	2	8	SessionSelectionList													6	nonlure	3	Body	2-Back	7	80	6	0	0	0	2	39	271029	1	14	59	268990	-1	270180	0	1190	2	3	2039	53	271043	-54	0																8												
WM080112	123117_fnca	1	1	1	-579930032	1	75.031	75.031	2.0.10.147	2.0.10.242	2.0.10.242	1.0.0.439	7	234	2	3	Verdana	1	80	0	0	0	WM Stimuli\	0.2	1105	0.9	1108.22222222222	0.8	1185.625	0.8	1180.625	0.9	1098.33333333333	0.9	847.111111111111	0.9	1232.44444444444	1	636.8	13	538866	2	538854	27	40	538893	-999999	538869	0	3	TrialsPROC	BP_006_BP2_BA.png	1	2	9	SessionSelectionList													7	lure	3	Body	2-Back	8	80	7	0	0	0	1	39	273588	1	14	59	271549	-1	272887	1	1338	3	3	2039	53	273602	-54	0																9												
WM080112	123117_fnca	1	1	1	-579930032	1	75.031	75.031	2.0.10.147	2.0.10.242	2.0.10.242	1.0.0.439	7	234	2	3	Verdana	1	80	0	0	0	WM Stimuli\	0.2	1105	0.9	1108.22222222222	0.8	1185.625	0.8	1180.625	0.9	1098.33333333333	0.9	847.111111111111	0.9	1232.44444444444	1	636.8	13	538866	2	538854	27	40	538893	-999999	538869	0	3	TrialsPROC	BP_004_BP18_BA.png	1	2	10	SessionSelectionList													8	nonlure	3	Body	2-Back	9	80	8	0	0	0	1	39	276147	1	14	59	274108	-1	275062	0	954	2	3	2039	53	276161	-54	0																10												
WM080112	123117_fnca	1	1	1	-579930032	1	75.031	75.031	2.0.10.147	2.0.10.242	2.0.10.242	1.0.0.439	7	234	2	3	Verdana	1	80	0	0	0	WM Stimuli\	0.2	1105	0.9	1108.22222222222	0.8	1185.625	0.8	1180.625	0.9	1098.33333333333	0.9	847.111111111111	0.9	1232.44444444444	1	636.8	13	538866	2	538854	27	40	538893	-999999	538869	0	3	TrialsPROC	BP_005_BP19_BA.png	1	2	11	SessionSelectionList													9	lure	3	Body	2-Back	10	80	9	0	0	0	2	39	278706	1	14	59	276667	-1	277697	0	1030	2	3	2039	53	278720	-54	0																11												
WM080112	123117_fnca	1	1	1	-579930032	1	75.031	75.031	2.0.10.147	2.0.10.242	2.0.10.242	1.0.0.439	7	234	2	3	Verdana	1	80	0	0	0	WM Stimuli\	0.2	1105	0.9	1108.22222222222	0.8	1185.625	0.8	1180.625	0.9	1098.33333333333	0.9	847.111111111111	0.9	1232.44444444444	1	636.8	13	538866	2	538854	27	40	538893	-999999	538869	0	3	TrialsPROC	BP_004_BP18_BA.png	1	2	12	SessionSelectionList													10	target	2	Body	2-Back	11	80	10	0	0	0	1	39	281265	1	14	59	279226	-1	280672	0	1446	3	2	2039	53	281279	-54	0																12												
WM080112	123117_fnca	1	1	1	-579930032	1	75.031	75.031	2.0.10.147	2.0.10.242	2.0.10.242	1.0.0.439	7	234	2	3	Verdana	1	80	0	0	0	WM Stimuli\	0.2	1105	0.9	1108.22222222222	0.8	1185.625	0.8	1180.625	0.9	1098.33333333333	0.9	847.111111111111	0.9	1232.44444444444	1	636.8	13	538866	2	538854	27	40	538893	-999999	538869	0	4	Cue0BackPROC	FC_001_M1.png	1	2	13	SessionSelectionList																																										19	281745	-20	0												13												
WM080112	123117_fnca	1	1	1	-579930032	1	75.031	75.031	2.0.10.147	2.0.10.242	2.0.10.242	1.0.0.439	7	234	2	3	Verdana	1	80	0	0	0	WM Stimuli\	0.2	1105	0.9	1108.22222222222	0.8	1185.625	0.8	1180.625	0.9	1098.33333333333	0.9	847.111111111111	0.9	1232.44444444444	1	636.8	13	538866	2	538854	27	40	538893	-999999	538869	0	5	TrialsPROC	FC_005_M3.png	1	2	14	SessionSelectionList														nonlure	3	Face	0-Back	12	80	10	0	1	0	1	40	286330	1	13	64	284290	-1	0	0	0	""	3	2040	53	286343	-54	0					1											14												
WM080112	123117_fnca	1	1	1	-579930032	1	75.031	75.031	2.0.10.147	2.0.10.242	2.0.10.242	1.0.0.439	7	234	2	3	Verdana	1	80	0	0	0	WM Stimuli\	0.2	1105	0.9	1108.22222222222	0.8	1185.625	0.8	1180.625	0.9	1098.33333333333	0.9	847.111111111111	0.9	1232.44444444444	1	636.8	13	538866	2	538854	27	40	538893	-999999	538869	0	5	TrialsPROC	FC_001_M1.png	1	2	15	SessionSelectionList														target	2	Face	0-Back	13	80	10	1	0	50	1	39	288902	1	14	73	286863	-1	286889	1	26	2	2	2039	53	288916	-54	0					2											15												
WM080112	123117_fnca	1	1	1	-579930032	1	75.031	75.031	2.0.10.147	2.0.10.242	2.0.10.242	1.0.0.439	7	234	2	3	Verdana	1	80	0	0	0	WM Stimuli\	0.2	1105	0.9	1108.22222222222	0.8	1185.625	0.8	1180.625	0.9	1098.33333333333	0.9	847.111111111111	0.9	1232.44444444444	1	636.8	13	538866	2	538854	27	40	538893	-999999	538869	0	5	TrialsPROC	FC_003_M2.png	1	2	16	SessionSelectionList														nonlure	3	Face	0-Back	14	80	11	0	0	33	2	39	291474	1	14	72	289435	-1	290945	0	1510	2	3	2039	53	291488	-54	0					3											16												
WM080112	123117_fnca	1	1	1	-579930032	1	75.031	75.031	2.0.10.147	2.0.10.242	2.0.10.242	1.0.0.439	7	234	2	3	Verdana	1	80	0	0	0	WM Stimuli\	0.2	1105	0.9	1108.22222222222	0.8	1185.625	0.8	1180.625	0.9	1098.33333333333	0.9	847.111111111111	0.9	1232.44444444444	1	636.8	13	538866	2	538854	27	40	538893	-999999	538869	0	5	TrialsPROC	FC_004_F2.png	1	2	17	SessionSelectionList														nonlure	3	Face	0-Back	15	80	12	0	0	50	1	39	294046	2	14	72	292007	-1	293929	1	1922	3	3	2039	53	294060	-54	0					4											17												
WM080112	123117_fnca	1	1	1	-579930032	1	75.031	75.031	2.0.10.147	2.0.10.242	2.0.10.242	1.0.0.439	7	234	2	3	Verdana	1	80	0	0	0	WM Stimuli\	0.2	1105	0.9	1108.22222222222	0.8	1185.625	0.8	1180.625	0.9	1098.33333333333	0.9	847.111111111111	0.9	1232.44444444444	1	636.8	13	538866	2	538854	27	40	538893	-999999	538869	0	5	TrialsPROC	FC_004_F2.png	1	2	18	SessionSelectionList														lure	3	Face	0-Back	16	80	13	0	0	60	2	40	296619	1	13	72	294579	-1	296217	1	1638	3	3	2040	53	296632	-54	0					5											18												
WM080112	123117_fnca	1	1	1	-579930032	1	75.031	75.031	2.0.10.147	2.0.10.242	2.0.10.242	1.0.0.439	7	234	2	3	Verdana	1	80	0	0	0	WM Stimuli\	0.2	1105	0.9	1108.22222222222	0.8	1185.625	0.8	1180.625	0.9	1098.33333333333	0.9	847.111111111111	0.9	1232.44444444444	1	636.8	13	538866	2	538854	27	40	538893	-999999	538869	0	5	TrialsPROC	FC_001_M1.png	1	2	19	SessionSelectionList														target	2	Face	0-Back	17	80	14	0	0	67	1	39	299191	1	14	73	297152	-1	298493	1	1341	2	2	2039	53	299205	-54	0					6											19												
WM080112	123117_fnca	1	1	1	-579930032	1	75.031	75.031	2.0.10.147	2.0.10.242	2.0.10.242	1.0.0.439	7	234	2	3	Verdana	1	80	0	0	0	WM Stimuli\	0.2	1105	0.9	1108.22222222222	0.8	1185.625	0.8	1180.625	0.9	1098.33333333333	0.9	847.111111111111	0.9	1232.44444444444	1	636.8	13	538866	2	538854	27	40	538893	-999999	538869	0	5	TrialsPROC	FC_006_F3.png	1	2	20	SessionSelectionList														nonlure	3	Face	0-Back	18	80	15	0	0	71	1	39	301763	2	14	72	299724	-1	300860	1	1136	3	3	2039	53	301777	-54	0					7											20												
WM080112	123117_fnca	1	1	1	-579930032	1	75.031	75.031	2.0.10.147	2.0.10.242	2.0.10.242	1.0.0.439	7	234	2	3	Verdana	1	80	0	0	0	WM Stimuli\	0.2	1105	0.9	1108.22222222222	0.8	1185.625	0.8	1180.625	0.9	1098.33333333333	0.9	847.111111111111	0.9	1232.44444444444	1	636.8	13	538866	2	538854	27	40	538893	-999999	538869	0	5	TrialsPROC	FC_006_F3.png	1	2	21	SessionSelectionList														lure	3	Face	0-Back	19	80	16	0	0	75	2	39	304335	2	14	72	302296	-1	303520	1	1224	3	3	2039	53	304349	-54	0					8											21												
WM080112	123117_fnca	1	1	1	-579930032	1	75.031	75.031	2.0.10.147	2.0.10.242	2.0.10.242	1.0.0.439	7	234	2	3	Verdana	1	80	0	0	0	WM Stimuli\	0.2	1105	0.9	1108.22222222222	0.8	1185.625	0.8	1180.625	0.9	1098.33333333333	0.9	847.111111111111	0.9	1232.44444444444	1	636.8	13	538866	2	538854	27	40	538893	-999999	538869	0	5	TrialsPROC	FC_003_M2.png	1	2	22	SessionSelectionList														lure	3	Face	0-Back	20	80	17	0	0	78	3	39	306908	1	14	73	304869	-1	306250	1	1381	3	3	2039	53	306922	-54	0					9											22												
WM080112	123117_fnca	1	1	1	-579930032	1	75.031	75.031	2.0.10.147	2.0.10.242	2.0.10.242	1.0.0.439	7	234	2	3	Verdana	1	80	0	0	0	WM Stimuli\	0.2	1105	0.9	1108.22222222222	0.8	1185.625	0.8	1180.625	0.9	1098.33333333333	0.9	847.111111111111	0.9	1232.44444444444	1	636.8	13	538866	2	538854	27	40	538893	-999999	538869	0	5	TrialsPROC	FC_002_F1.png	1	2	23	SessionSelectionList														nonlure	3	Face	0-Back	21	80	18	0	0	80	4	39	309480	1	14	72	307441	-1	308218	1	777	3	3	2039	53	309494	-54	0					10											23												
WM080112	123117_fnca	1	1	1	-579930032	1	75.031	75.031	2.0.10.147	2.0.10.242	2.0.10.242	1.0.0.439	7	234	2	3	Verdana	1	80	0	0	0	WM Stimuli\	0.2	1105	0.9	1108.22222222222	0.8	1185.625	0.8	1180.625	0.9	1098.33333333333	0.9	847.111111111111	0.9	1232.44444444444	1	636.8	13	538866	2	538854	27	40	538893	-999999	538869	0	6	Fix15secPROC	""	1	2	24	SessionSelectionList																																															6	309947	-7	0							24												
WM080112	123117_fnca	1	1	1	-579930032	1	75.031	75.031	2.0.10.147	2.0.10.242	2.0.10.242	1.0.0.439	7	234	2	3	Verdana	1	80	0	0	0	WM Stimuli\	0.2	1105	0.9	1108.22222222222	0.8	1185.625	0.8	1180.625	0.9	1098.33333333333	0.9	847.111111111111	0.9	1232.44444444444	1	636.8	13	538866	2	538854	27	40	538893	-999999	538869	0	7	Cue2BackPROC	""	1	2	25	SessionSelectionList									13	324954	-14	0																																													25												
WM080112	123117_fnca	1	1	1	-579930032	1	75.031	75.031	2.0.10.147	2.0.10.242	2.0.10.242	1.0.0.439	7	234	2	3	Verdana	1	80	0	0	0	WM Stimuli\	0.2	1105	0.9	1108.22222222222	0.8	1185.625	0.8	1180.625	0.9	1098.33333333333	0.9	847.111111111111	0.9	1232.44444444444	1	636.8	13	538866	2	538854	27	40	538893	-999999	538869	0	8	TrialsPROC	TO_001_TOOL1_BA.png	1	2	26	SessionSelectionList														nonlure	3	Tools	2-Back	22	80	19	0	0	80	5	39	329538	2	14	58	327499	-1	329033	1	1534	3	3	2039	53	329552	-54	0										1						26												
WM080112	123117_fnca	1	1	1	-579930032	1	75.031	75.031	2.0.10.147	2.0.10.242	2.0.10.242	1.0.0.439	7	234	2	3	Verdana	1	80	0	0	0	WM Stimuli\	0.2	1105	0.9	1108.22222222222	0.8	1185.625	0.8	1180.625	0.9	1098.33333333333	0.9	847.111111111111	0.9	1232.44444444444	1	636.8	13	538866	2	538854	27	40	538893	-999999	538869	0	8	TrialsPROC	TO_002_TOOL2_BA.png	1	2	27	SessionSelectionList														nonlure	3	Tools	2-Back	23	80	20	0	0	80	6	39	332097	2	14	59	330058	-1	331249	1	1191	3	3	2039	53	332111	-54	0										2						27												
WM080112	123117_fnca	1	1	1	-579930032	1	75.031	75.031	2.0.10.147	2.0.10.242	2.0.10.242	1.0.0.439	7	234	2	3	Verdana	1	80	0	0	0	WM Stimuli\	0.2	1105	0.9	1108.22222222222	0.8	1185.625	0.8	1180.625	0.9	1098.33333333333	0.9	847.111111111111	0.9	1232.44444444444	1	636.8	13	538866	2	538854	27	40	538893	-999999	538869	0	8	TrialsPROC	TO_004_TOOL4_BA.png	1	2	28	SessionSelectionList														nonlure	3	Tools	2-Back	24	80	21	0	0	80	7	39	334656	2	14	59	332617	-1	333707	1	1090	3	3	2039	53	334670	-54	0										3						28												
WM080112	123117_fnca	1	1	1	-579930032	1	75.031	75.031	2.0.10.147	2.0.10.242	2.0.10.242	1.0.0.439	7	234	2	3	Verdana	1	80	0	0	0	WM Stimuli\	0.2	1105	0.9	1108.22222222222	0.8	1185.625	0.8	1180.625	0.9	1098.33333333333	0.9	847.111111111111	0.9	1232.44444444444	1	636.8	13	538866	2	538854	27	40	538893	-999999	538869	0	8	TrialsPROC	TO_002_TOOL2_BA.png	1	2	29	SessionSelectionList														target	2	Tools	2-Back	25	80	22	0	0	80	1	39	337215	2	14	59	335176	-1	336896	1	1720	2	2	2039	53	337229	-54	0										4						29												
WM080112	123117_fnca	1	1	1	-579930032	1	75.031	75.031	2.0.10.147	2.0.10.242	2.0.10.242	1.0.0.439	7	234	2	3	Verdana	1	80	0	0	0	WM Stimuli\	0.2	1105	0.9	1108.22222222222	0.8	1185.625	0.8	1180.625	0.9	1098.33333333333	0.9	847.111111111111	0.9	1232.44444444444	1	636.8	13	538866	2	538854	27	40	538893	-999999	538869	0	8	TrialsPROC	TO_001_TOOL1_BA.png	1	2	30	SessionSelectionList														lure	3	Tools	2-Back	26	80	23	0	0	80	1	39	339774	2	14	59	337735	-1	338896	1	1161	3	3	2039	53	339788	-54	0										5						30												
WM080112	123117_fnca	1	1	1	-579930032	1	75.031	75.031	2.0.10.147	2.0.10.242	2.0.10.242	1.0.0.439	7	234	2	3	Verdana	1	80	0	0	0	WM Stimuli\	0.2	1105	0.9	1108.22222222222	0.8	1185.625	0.8	1180.625	0.9	1098.33333333333	0.9	847.111111111111	0.9	1232.44444444444	1	636.8	13	538866	2	538854	27	40	538893	-999999	538869	0	8	TrialsPROC	TO_004_TOOL4_BA.png	1	2	31	SessionSelectionList														lure	3	Tools	2-Back	27	80	24	0	0	80	1	39	342333	2	14	59	340294	-1	341654	0	1360	2	3	2039	53	342347	-54	0										6						31												
WM080112	123117_fnca	1	1	1	-579930032	1	75.031	75.031	2.0.10.147	2.0.10.242	2.0.10.242	1.0.0.439	7	234	2	3	Verdana	1	80	0	0	0	WM Stimuli\	0.2	1105	0.9	1108.22222222222	0.8	1185.625	0.8	1180.625	0.9	1098.33333333333	0.9	847.111111111111	0.9	1232.44444444444	1	636.8	13	538866	2	538854	27	40	538893	-999999	538869	0	8	TrialsPROC	TO_006_TOOL6_BA.png	1	2	32	SessionSelectionList														nonlure	3	Tools	2-Back	28	80	25	0	0	80	1	39	344892	2	14	59	342853	-1	344143	1	1290	3	3	2039	53	344906	-54	0										7						32												
WM080112	123117_fnca	1	1	1	-579930032	1	75.031	75.031	2.0.10.147	2.0.10.242	2.0.10.242	1.0.0.439	7	234	2	3	Verdana	1	80	0	0	0	WM Stimuli\	0.2	1105	0.9	1108.22222222222	0.8	1185.625	0.8	1180.625	0.9	1098.33333333333	0.9	847.111111111111	0.9	1232.44444444444	1	636.8	13	538866	2	538854	27	40	538893	-999999	538869	0	8	TrialsPROC	TO_005_TOOL5_BA.png	1	2	33	SessionSelectionList														nonlure	3	Tools	2-Back	29	80	26	0	0	80	2	39	347451	2	14	59	345412	-1	346817	1	1405	3	3	2039	53	347465	-54	0										8						33												
WM080112	123117_fnca	1	1	1	-579930032	1	75.031	75.031	2.0.10.147	2.0.10.242	2.0.10.242	1.0.0.439	7	234	2	3	Verdana	1	80	0	0	0	WM Stimuli\	0.2	1105	0.9	1108.22222222222	0.8	1185.625	0.8	1180.625	0.9	1098.33333333333	0.9	847.111111111111	0.9	1232.44444444444	1	636.8	13	538866	2	538854	27	40	538893	-999999	538869	0	8	TrialsPROC	TO_006_TOOL6_BA.png	1	2	34	SessionSelectionList														target	2	Tools	2-Back	30	80	27	0	0	80	1	39	350010	1	14	59	347971	-1	348760	1	789	2	2	2039	53	350024	-54	0										9						34												
WM080112	123117_fnca	1	1	1	-579930032	1	75.031	75.031	2.0.10.147	2.0.10.242	2.0.10.242	1.0.0.439	7	234	2	3	Verdana	1	80	0	0	0	WM Stimuli\	0.2	1105	0.9	1108.22222222222	0.8	1185.625	0.8	1180.625	0.9	1098.33333333333	0.9	847.111111111111	0.9	1232.44444444444	1	636.8	13	538866	2	538854	27	40	538893	-999999	538869	0	8	TrialsPROC	TO_003_TOOL3_BA.png	1	2	35	SessionSelectionList														nonlure	3	Tools	2-Back	31	80	28	0	0	80	1	39	352569	1	14	59	350530	-1	351442	1	912	3	3	2039	53	352583	-54	0										10						35												
WM080112	123117_fnca	1	1	1	-579930032	1	75.031	75.031	2.0.10.147	2.0.10.242	2.0.10.242	1.0.0.439	7	234	2	3	Verdana	1	80	0	0	0	WM Stimuli\	0.2	1105	0.9	1108.22222222222	0.8	1185.625	0.8	1180.625	0.9	1098.33333333333	0.9	847.111111111111	0.9	1232.44444444444	1	636.8	13	538866	2	538854	27	40	538893	-999999	538869	0	9	Cue0BackPROC	BP_007_BP20_BA.png	1	2	36	SessionSelectionList																																										19	353049	-20	0												36												
WM080112	123117_fnca	1	1	1	-579930032	1	75.031	75.031	2.0.10.147	2.0.10.242	2.0.10.242	1.0.0.439	7	234	2	3	Verdana	1	80	0	0	0	WM Stimuli\	0.2	1105	0.9	1108.22222222222	0.8	1185.625	0.8	1180.625	0.9	1098.33333333333	0.9	847.111111111111	0.9	1232.44444444444	1	636.8	13	538866	2	538854	27	40	538893	-999999	538869	0	10	TrialsPROC	BP_007_BP20_BA.png	1	2	37	SessionSelectionList														target	2	Body	0-Back	32	80	29	0	0	82	1	39	357620	2	14	51	355581	-1	357366	1	1785	2	2	2039	53	357634	-54	0											1					37												
WM080112	123117_fnca	1	1	1	-579930032	1	75.031	75.031	2.0.10.147	2.0.10.242	2.0.10.242	1.0.0.439	7	234	2	3	Verdana	1	80	0	0	0	WM Stimuli\	0.2	1105	0.9	1108.22222222222	0.8	1185.625	0.8	1180.625	0.9	1098.33333333333	0.9	847.111111111111	0.9	1232.44444444444	1	636.8	13	538866	2	538854	27	40	538893	-999999	538869	0	10	TrialsPROC	BP_011_BP4_BA.png	1	2	38	SessionSelectionList														nonlure	3	Body	0-Back	33	80	30	0	0	83	1	40	360193	1	13	72	358153	-1	359511	1	1358	3	3	2040	53	360206	-54	0											2					38												
WM080112	123117_fnca	1	1	1	-579930032	1	75.031	75.031	2.0.10.147	2.0.10.242	2.0.10.242	1.0.0.439	7	234	2	3	Verdana	1	80	0	0	0	WM Stimuli\	0.2	1105	0.9	1108.22222222222	0.8	1185.625	0.8	1180.625	0.9	1098.33333333333	0.9	847.111111111111	0.9	1232.44444444444	1	636.8	13	538866	2	538854	27	40	538893	-999999	538869	0	10	TrialsPROC	BP_010_BP3_BA.png	1	2	39	SessionSelectionList														nonlure	3	Body	0-Back	34	80	31	0	0	85	2	40	362752	1	13	59	360712	-1	361817	1	1105	3	3	2040	53	362765	-54	0											3					39												
WM080112	123117_fnca	1	1	1	-579930032	1	75.031	75.031	2.0.10.147	2.0.10.242	2.0.10.242	1.0.0.439	7	234	2	3	Verdana	1	80	0	0	0	WM Stimuli\	0.2	1105	0.9	1108.22222222222	0.8	1185.625	0.8	1180.625	0.9	1098.33333333333	0.9	847.111111111111	0.9	1232.44444444444	1	636.8	13	538866	2	538854	27	40	538893	-999999	538869	0	10	TrialsPROC	BP_008_BP21_BA.png	1	2	40	SessionSelectionList														nonlure	3	Body	0-Back	35	80	32	0	0	86	3	40	365311	1	13	59	363271	-1	364556	1	1285	3	3	2040	53	365324	-54	0											4					40												
WM080112	123117_fnca	1	1	1	-579930032	1	75.031	75.031	2.0.10.147	2.0.10.242	2.0.10.242	1.0.0.439	7	234	2	3	Verdana	1	80	0	0	0	WM Stimuli\	0.2	1105	0.9	1108.22222222222	0.8	1185.625	0.8	1180.625	0.9	1098.33333333333	0.9	847.111111111111	0.9	1232.44444444444	1	636.8	13	538866	2	538854	27	40	538893	-999999	538869	0	10	TrialsPROC	BP_011_BP4_BA.png	1	2	41	SessionSelectionList														lure	3	Body	0-Back	36	80	33	0	0	87	4	39	367883	1	14	73	365844	-1	366808	1	964	3	3	2039	53	367897	-54	0											5					41												
WM080112	123117_fnca	1	1	1	-579930032	1	75.031	75.031	2.0.10.147	2.0.10.242	2.0.10.242	1.0.0.439	7	234	2	3	Verdana	1	80	0	0	0	WM Stimuli\	0.2	1105	0.9	1108.22222222222	0.8	1185.625	0.8	1180.625	0.9	1098.33333333333	0.9	847.111111111111	0.9	1232.44444444444	1	636.8	13	538866	2	538854	27	40	538893	-999999	538869	0	10	TrialsPROC	BP_009_BP22_BA.png	1	2	42	SessionSelectionList														nonlure	3	Body	0-Back	37	80	34	0	0	88	5	39	370442	1	14	59	368403	-1	369201	1	798	3	3	2039	53	370456	-54	0											6					42												
WM080112	123117_fnca	1	1	1	-579930032	1	75.031	75.031	2.0.10.147	2.0.10.242	2.0.10.242	1.0.0.439	7	234	2	3	Verdana	1	80	0	0	0	WM Stimuli\	0.2	1105	0.9	1108.22222222222	0.8	1185.625	0.8	1180.625	0.9	1098.33333333333	0.9	847.111111111111	0.9	1232.44444444444	1	636.8	13	538866	2	538854	27	40	538893	-999999	538869	0	10	TrialsPROC	BP_009_BP22_BA.png	1	2	43	SessionSelectionList														lure	3	Body	0-Back	38	80	35	0	0	88	6	39	373001	1	14	59	370962	-1	371755	1	793	3	3	2039	53	373015	-54	0											7					43												
WM080112	123117_fnca	1	1	1	-579930032	1	75.031	75.031	2.0.10.147	2.0.10.242	2.0.10.242	1.0.0.439	7	234	2	3	Verdana	1	80	0	0	0	WM Stimuli\	0.2	1105	0.9	1108.22222222222	0.8	1185.625	0.8	1180.625	0.9	1098.33333333333	0.9	847.111111111111	0.9	1232.44444444444	1	636.8	13	538866	2	538854	27	40	538893	-999999	538869	0	10	TrialsPROC	BP_008_BP21_BA.png	1	2	44	SessionSelectionList														lure	3	Body	0-Back	39	80	36	0	0	83	1	40	375560	1	13	58	373520	-1	374744	0	1224	2	3	2040	53	375573	-54	0											8					44												
WM080112	123117_fnca	1	1	1	-579930032	1	75.031	75.031	2.0.10.147	2.0.10.242	2.0.10.242	1.0.0.439	7	234	2	3	Verdana	1	80	0	0	0	WM Stimuli\	0.2	1105	0.9	1108.22222222222	0.8	1185.625	0.8	1180.625	0.9	1098.33333333333	0.9	847.111111111111	0.9	1232.44444444444	1	636.8	13	538866	2	538854	27	40	538893	-999999	538869	0	10	TrialsPROC	BP_007_BP20_BA.png	1	2	45	SessionSelectionList														target	2	Body	0-Back	40	80	37	0	0	84	2	40	378119	1	13	59	376079	-1	377142	1	1063	2	2	2040	53	378132	-54	0											9					45												
WM080112	123117_fnca	1	1	1	-579930032	1	75.031	75.031	2.0.10.147	2.0.10.242	2.0.10.242	1.0.0.439	7	234	2	3	Verdana	1	80	0	0	0	WM Stimuli\	0.2	1105	0.9	1108.22222222222	0.8	1185.625	0.8	1180.625	0.9	1098.33333333333	0.9	847.111111111111	0.9	1232.44444444444	1	636.8	13	538866	2	538854	27	40	538893	-999999	538869	0	10	TrialsPROC	BP_012_BP5_BA.png	1	2	46	SessionSelectionList														nonlure	3	Body	0-Back	41	80	38	0	0	85	1	40	380678	1	13	59	378638	-1	379461	1	823	3	3	2040	53	380691	-54	0											10					46												
WM080112	123117_fnca	1	1	1	-579930032	1	75.031	75.031	2.0.10.147	2.0.10.242	2.0.10.242	1.0.0.439	7	234	2	3	Verdana	1	80	0	0	0	WM Stimuli\	0.2	1105	0.9	1108.22222222222	0.8	1185.625	0.8	1180.625	0.9	1098.33333333333	0.9	847.111111111111	0.9	1232.44444444444	1	636.8	13	538866	2	538854	27	40	538893	-999999	538869	0	11	Fix15secPROC	""	1	2	47	SessionSelectionList																																															7	381145	-8	0							47												
WM080112	123117_fnca	1	1	1	-579930032	1	75.031	75.031	2.0.10.147	2.0.10.242	2.0.10.242	1.0.0.439	7	234	2	3	Verdana	1	80	0	0	0	WM Stimuli\	0.2	1105	0.9	1108.22222222222	0.8	1185.625	0.8	1180.625	0.9	1098.33333333333	0.9	847.111111111111	0.9	1232.44444444444	1	636.8	13	538866	2	538854	27	40	538893	-999999	538869	0	12	Cue0BackPROC	PL_001_92012.png	1	2	48	SessionSelectionList																																										13	396151	-14	0												48												
WM080112	123117_fnca	1	1	1	-579930032	1	75.031	75.031	2.0.10.147	2.0.10.242	2.0.10.242	1.0.0.439	7	234	2	3	Verdana	1	80	0	0	0	WM Stimuli\	0.2	1105	0.9	1108.22222222222	0.8	1185.625	0.8	1180.625	0.9	1098.33333333333	0.9	847.111111111111	0.9	1232.44444444444	1	636.8	13	538866	2	538854	27	40	538893	-999999	538869	0	13	TrialsPROC	PL_003_92016.png	1	2	49	SessionSelectionList														nonlure	3	Place	0-Back	42	80	39	0	0	86	2	39	400736	1	14	59	398697	-1	399772	1	1075	3	3	2039	53	400750	-54	0												1				49												
WM080112	123117_fnca	1	1	1	-579930032	1	75.031	75.031	2.0.10.147	2.0.10.242	2.0.10.242	1.0.0.439	7	234	2	3	Verdana	1	80	0	0	0	WM Stimuli\	0.2	1105	0.9	1108.22222222222	0.8	1185.625	0.8	1180.625	0.9	1098.33333333333	0.9	847.111111111111	0.9	1232.44444444444	1	636.8	13	538866	2	538854	27	40	538893	-999999	538869	0	13	TrialsPROC	PL_003_92016.png	1	2	50	SessionSelectionList														lure	3	Place	0-Back	43	80	40	0	0	86	3	39	403308	2	14	72	401269	-1	402180	1	911	3	3	2039	53	403322	-54	0												2				50												
WM080112	123117_fnca	1	1	1	-579930032	1	75.031	75.031	2.0.10.147	2.0.10.242	2.0.10.242	1.0.0.439	7	234	2	3	Verdana	1	80	0	0	0	WM Stimuli\	0.2	1105	0.9	1108.22222222222	0.8	1185.625	0.8	1180.625	0.9	1098.33333333333	0.9	847.111111111111	0.9	1232.44444444444	1	636.8	13	538866	2	538854	27	40	538893	-999999	538869	0	13	TrialsPROC	PL_006_92025.png	1	2	51	SessionSelectionList														nonlure	3	Place	0-Back	44	80	40	0	1	83	3	40	405881	1	13	72	403841	-1	0	0	0	""	3	2040	53	405894	-54	0												3				51												
WM080112	123117_fnca	1	1	1	-579930032	1	75.031	75.031	2.0.10.147	2.0.10.242	2.0.10.242	1.0.0.439	7	234	2	3	Verdana	1	80	0	0	0	WM Stimuli\	0.2	1105	0.9	1108.22222222222	0.8	1185.625	0.8	1180.625	0.9	1098.33333333333	0.9	847.111111111111	0.9	1232.44444444444	1	636.8	13	538866	2	538854	27	40	538893	-999999	538869	0	13	TrialsPROC	PL_001_92012.png	1	2	52	SessionSelectionList														target	2	Place	0-Back	45	80	41	0	0	83	1	39	408453	1	14	73	406414	-1	407145	1	731	2	2	2039	53	408467	-54	0												4				52												
WM080112	123117_fnca	1	1	1	-579930032	1	75.031	75.031	2.0.10.147	2.0.10.242	2.0.10.242	1.0.0.439	7	234	2	3	Verdana	1	80	0	0	0	WM Stimuli\	0.2	1105	0.9	1108.22222222222	0.8	1185.625	0.8	1180.625	0.9	1098.33333333333	0.9	847.111111111111	0.9	1232.44444444444	1	636.8	13	538866	2	538854	27	40	538893	-999999	538869	0	13	TrialsPROC	PL_004_92023.png	1	2	53	SessionSelectionList														nonlure	3	Place	0-Back	46	80	42	0	0	84	1	39	411025	1	14	72	408986	-1	409616	1	630	3	3	2039	53	411039	-54	0												5				53												
WM080112	123117_fnca	1	1	1	-579930032	1	75.031	75.031	2.0.10.147	2.0.10.242	2.0.10.242	1.0.0.439	7	234	2	3	Verdana	1	80	0	0	0	WM Stimuli\	0.2	1105	0.9	1108.22222222222	0.8	1185.625	0.8	1180.625	0.9	1098.33333333333	0.9	847.111111111111	0.9	1232.44444444444	1	636.8	13	538866	2	538854	27	40	538893	-999999	538869	0	13	TrialsPROC	PL_005_92024.png	1	2	54	SessionSelectionList														nonlure	3	Place	0-Back	47	80	43	0	0	85	2	39	413597	2	14	72	411558	-1	412854	1	1296	3	3	2039	53	413611	-54	0												6				54												
WM080112	123117_fnca	1	1	1	-579930032	1	75.031	75.031	2.0.10.147	2.0.10.242	2.0.10.242	1.0.0.439	7	234	2	3	Verdana	1	80	0	0	0	WM Stimuli\	0.2	1105	0.9	1108.22222222222	0.8	1185.625	0.8	1180.625	0.9	1098.33333333333	0.9	847.111111111111	0.9	1232.44444444444	1	636.8	13	538866	2	538854	27	40	538893	-999999	538869	0	13	TrialsPROC	PL_001_92012.png	1	2	55	SessionSelectionList														target	2	Place	0-Back	48	80	44	0	0	85	1	39	416170	1	13	73	414131	-1	414819	1	688	2	2	2039	52	416183	-53	0												7				55												
WM080112	123117_fnca	1	1	1	-579930032	1	75.031	75.031	2.0.10.147	2.0.10.242	2.0.10.242	1.0.0.439	7	234	2	3	Verdana	1	80	0	0	0	WM Stimuli\	0.2	1105	0.9	1108.22222222222	0.8	1185.625	0.8	1180.625	0.9	1098.33333333333	0.9	847.111111111111	0.9	1232.44444444444	1	636.8	13	538866	2	538854	27	40	538893	-999999	538869	0	13	TrialsPROC	PL_002_92014.png	1	2	56	SessionSelectionList														nonlure	3	Place	0-Back	49	80	45	0	0	86	1	39	418742	1	14	72	416703	-1	417410	1	707	3	3	2039	53	418756	-54	0												8				56												
WM080112	123117_fnca	1	1	1	-579930032	1	75.031	75.031	2.0.10.147	2.0.10.242	2.0.10.242	1.0.0.439	7	234	2	3	Verdana	1	80	0	0	0	WM Stimuli\	0.2	1105	0.9	1108.22222222222	0.8	1185.625	0.8	1180.625	0.9	1098.33333333333	0.9	847.111111111111	0.9	1232.44444444444	1	636.8	13	538866	2	538854	27	40	538893	-999999	538869	0	13	TrialsPROC	PL_004_92023.png	1	2	57	SessionSelectionList														lure	3	Place	0-Back	50	80	46	0	0	86	2	39	421314	2	14	72	419275	-1	419839	1	564	3	3	2039	53	421328	-54	0												9				57												
WM080112	123117_fnca	1	1	1	-579930032	1	75.031	75.031	2.0.10.147	2.0.10.242	2.0.10.242	1.0.0.439	7	234	2	3	Verdana	1	80	0	0	0	WM Stimuli\	0.2	1105	0.9	1108.22222222222	0.8	1185.625	0.8	1180.625	0.9	1098.33333333333	0.9	847.111111111111	0.9	1232.44444444444	1	636.8	13	538866	2	538854	27	40	538893	-999999	538869	0	13	TrialsPROC	PL_006_92025.png	1	2	58	SessionSelectionList														lure	3	Place	0-Back	51	80	47	0	0	87	3	40	423887	1	13	72	421847	-1	422869	1	1022	3	3	2040	53	423900	-54	0												10				58												
WM080112	123117_fnca	1	1	1	-579930032	1	75.031	75.031	2.0.10.147	2.0.10.242	2.0.10.242	1.0.0.439	7	234	2	3	Verdana	1	80	0	0	0	WM Stimuli\	0.2	1105	0.9	1108.22222222222	0.8	1185.625	0.8	1180.625	0.9	1098.33333333333	0.9	847.111111111111	0.9	1232.44444444444	1	636.8	13	538866	2	538854	27	40	538893	-999999	538869	0	14	Cue2BackPROC	""	1	2	59	SessionSelectionList									6	424353	-7	0																																													59												
WM080112	123117_fnca	1	1	1	-579930032	1	75.031	75.031	2.0.10.147	2.0.10.242	2.0.10.242	1.0.0.439	7	234	2	3	Verdana	1	80	0	0	0	WM Stimuli\	0.2	1105	0.9	1108.22222222222	0.8	1185.625	0.8	1180.625	0.9	1098.33333333333	0.9	847.111111111111	0.9	1232.44444444444	1	636.8	13	538866	2	538854	27	40	538893	-999999	538869	0	15	TrialsPROC	FC_010_F5.png	1	2	60	SessionSelectionList														nonlure	3	Face	2-Back	52	80	48	0	0	87	4	39	428951	2	14	65	426912	-1	428298	1	1386	3	3	2039	53	428965	-54	0													1			60												
WM080112	123117_fnca	1	1	1	-579930032	1	75.031	75.031	2.0.10.147	2.0.10.242	2.0.10.242	1.0.0.439	7	234	2	3	Verdana	1	80	0	0	0	WM Stimuli\	0.2	1105	0.9	1108.22222222222	0.8	1185.625	0.8	1180.625	0.9	1098.33333333333	0.9	847.111111111111	0.9	1232.44444444444	1	636.8	13	538866	2	538854	27	40	538893	-999999	538869	0	15	TrialsPROC	FC_012_F6.png	1	2	61	SessionSelectionList														nonlure	3	Face	2-Back	53	80	49	0	0	87	5	39	431523	2	14	72	429484	-1	430851	1	1367	3	3	2039	53	431537	-54	0													2			61												
WM080112	123117_fnca	1	1	1	-579930032	1	75.031	75.031	2.0.10.147	2.0.10.242	2.0.10.242	1.0.0.439	7	234	2	3	Verdana	1	80	0	0	0	WM Stimuli\	0.2	1105	0.9	1108.22222222222	0.8	1185.625	0.8	1180.625	0.9	1098.33333333333	0.9	847.111111111111	0.9	1232.44444444444	1	636.8	13	538866	2	538854	27	40	538893	-999999	538869	0	15	TrialsPROC	FC_010_F5.png	1	2	62	SessionSelectionList														target	2	Face	2-Back	54	80	50	0	0	87	6	40	434096	2	13	72	432056	-1	433519	0	1463	3	2	2040	53	434109	-54	0													3			62												
WM080112	123117_fnca	1	1	1	-579930032	1	75.031	75.031	2.0.10.147	2.0.10.242	2.0.10.242	1.0.0.439	7	234	2	3	Verdana	1	80	0	0	0	WM Stimuli\	0.2	1105	0.9	1108.22222222222	0.8	1185.625	0.8	1180.625	0.9	1098.33333333333	0.9	847.111111111111	0.9	1232.44444444444	1	636.8	13	538866	2	538854	27	40	538893	-999999	538869	0	15	TrialsPROC	FC_008_F4.png	1	2	63	SessionSelectionList														nonlure	3	Face	2-Back	55	80	51	0	0	87	7	39	436668	1	14	73	434629	-1	435452	1	823	3	3	2039	53	436682	-54	0													4			63												
WM080112	123117_fnca	1	1	1	-579930032	1	75.031	75.031	2.0.10.147	2.0.10.242	2.0.10.242	1.0.0.439	7	234	2	3	Verdana	1	80	0	0	0	WM Stimuli\	0.2	1105	0.9	1108.22222222222	0.8	1185.625	0.8	1180.625	0.9	1098.33333333333	0.9	847.111111111111	0.9	1232.44444444444	1	636.8	13	538866	2	538854	27	40	538893	-999999	538869	0	15	TrialsPROC	FC_012_F6.png	1	2	64	SessionSelectionList														lure	3	Face	2-Back	56	80	52	0	0	87	1	39	439240	2	14	72	437201	-1	438626	0	1425	2	3	2039	53	439254	-54	0													5			64												
WM080112	123117_fnca	1	1	1	-579930032	1	75.031	75.031	2.0.10.147	2.0.10.242	2.0.10.242	1.0.0.439	7	234	2	3	Verdana	1	80	0	0	0	WM Stimuli\	0.2	1105	0.9	1108.22222222222	0.8	1185.625	0.8	1180.625	0.9	1098.33333333333	0.9	847.111111111111	0.9	1232.44444444444	1	636.8	13	538866	2	538854	27	40	538893	-999999	538869	0	15	TrialsPROC	FC_008_F4.png	1	2	65	SessionSelectionList														target	2	Face	2-Back	57	80	53	0	0	87	2	39	441812	2	14	72	439773	-1	441226	1	1453	2	2	2039	53	441826	-54	0													6			65												
WM080112	123117_fnca	1	1	1	-579930032	1	75.031	75.031	2.0.10.147	2.0.10.242	2.0.10.242	1.0.0.439	7	234	2	3	Verdana	1	80	0	0	0	WM Stimuli\	0.2	1105	0.9	1108.22222222222	0.8	1185.625	0.8	1180.625	0.9	1098.33333333333	0.9	847.111111111111	0.9	1232.44444444444	1	636.8	13	538866	2	538854	27	40	538893	-999999	538869	0	15	TrialsPROC	FC_007_M4.png	1	2	66	SessionSelectionList														nonlure	3	Face	2-Back	58	80	54	0	0	87	1	39	444385	1	14	73	442346	-1	443310	1	964	3	3	2039	53	444399	-54	0													7			66												
WM080112	123117_fnca	1	1	1	-579930032	1	75.031	75.031	2.0.10.147	2.0.10.242	2.0.10.242	1.0.0.439	7	234	2	3	Verdana	1	80	0	0	0	WM Stimuli\	0.2	1105	0.9	1108.22222222222	0.8	1185.625	0.8	1180.625	0.9	1098.33333333333	0.9	847.111111111111	0.9	1232.44444444444	1	636.8	13	538866	2	538854	27	40	538893	-999999	538869	0	15	TrialsPROC	FC_007_M4.png	1	2	67	SessionSelectionList														lure	3	Face	2-Back	59	80	55	0	0	87	2	39	446957	1	14	72	444918	-1	446057	1	1139	3	3	2039	53	446971	-54	0													8			67												
WM080112	123117_fnca	1	1	1	-579930032	1	75.031	75.031	2.0.10.147	2.0.10.242	2.0.10.242	1.0.0.439	7	234	2	3	Verdana	1	80	0	0	0	WM Stimuli\	0.2	1105	0.9	1108.22222222222	0.8	1185.625	0.8	1180.625	0.9	1098.33333333333	0.9	847.111111111111	0.9	1232.44444444444	1	636.8	13	538866	2	538854	27	40	538893	-999999	538869	0	15	TrialsPROC	FC_009_M5.png	1	2	68	SessionSelectionList														nonlure	3	Face	2-Back	60	80	56	0	0	87	3	39	449529	2	14	72	447490	-1	448676	1	1186	3	3	2039	53	449543	-54	0													9			68												
WM080112	123117_fnca	1	1	1	-579930032	1	75.031	75.031	2.0.10.147	2.0.10.242	2.0.10.242	1.0.0.439	7	234	2	3	Verdana	1	80	0	0	0	WM Stimuli\	0.2	1105	0.9	1108.22222222222	0.8	1185.625	0.8	1180.625	0.9	1098.33333333333	0.9	847.111111111111	0.9	1232.44444444444	1	636.8	13	538866	2	538854	27	40	538893	-999999	538869	0	15	TrialsPROC	FC_011_M6.png	1	2	69	SessionSelectionList														nonlure	3	Face	2-Back	61	80	57	0	0	87	4	40	452102	1	13	72	450062	-1	451229	1	1167	3	3	2040	53	452115	-54	0													10			69												
WM080112	123117_fnca	1	1	1	-579930032	1	75.031	75.031	2.0.10.147	2.0.10.242	2.0.10.242	1.0.0.439	7	234	2	3	Verdana	1	80	0	0	0	WM Stimuli\	0.2	1105	0.9	1108.22222222222	0.8	1185.625	0.8	1180.625	0.9	1098.33333333333	0.9	847.111111111111	0.9	1232.44444444444	1	636.8	13	538866	2	538854	27	40	538893	-999999	538869	0	16	Fix15secPROC	""	1	2	70	SessionSelectionList																																															7	452569	-8	0							70												
WM080112	123117_fnca	1	1	1	-579930032	1	75.031	75.031	2.0.10.147	2.0.10.242	2.0.10.242	1.0.0.439	7	234	2	3	Verdana	1	80	0	0	0	WM Stimuli\	0.2	1105	0.9	1108.22222222222	0.8	1185.625	0.8	1180.625	0.9	1098.33333333333	0.9	847.111111111111	0.9	1232.44444444444	1	636.8	13	538866	2	538854	27	40	538893	-999999	538869	0	17	Cue0BackPROC	TO_007_TOOL7_BA.png	1	2	71	SessionSelectionList																																										13	467575	-14	0												71												
WM080112	123117_fnca	1	1	1	-579930032	1	75.031	75.031	2.0.10.147	2.0.10.242	2.0.10.242	1.0.0.439	7	234	2	3	Verdana	1	80	0	0	0	WM Stimuli\	0.2	1105	0.9	1108.22222222222	0.8	1185.625	0.8	1180.625	0.9	1098.33333333333	0.9	847.111111111111	0.9	1232.44444444444	1	636.8	13	538866	2	538854	27	40	538893	-999999	538869	0	18	TrialsPROC	TO_010_TOOL10_BA.png	1	2	72	SessionSelectionList														nonlure	3	Tools	0-Back	62	80	58	0	0	87	5	39	472160	1	14	59	470121	-1	471505	1	1384	3	3	2039	53	472174	-54	0														1		72												
WM080112	123117_fnca	1	1	1	-579930032	1	75.031	75.031	2.0.10.147	2.0.10.242	2.0.10.242	1.0.0.439	7	234	2	3	Verdana	1	80	0	0	0	WM Stimuli\	0.2	1105	0.9	1108.22222222222	0.8	1185.625	0.8	1180.625	0.9	1098.33333333333	0.9	847.111111111111	0.9	1232.44444444444	1	636.8	13	538866	2	538854	27	40	538893	-999999	538869	0	18	TrialsPROC	TO_009_TOOL9_BA.png	1	2	73	SessionSelectionList														nonlure	3	Tools	0-Back	63	80	59	0	0	88	6	39	474719	1	14	59	472680	-1	473365	1	685	3	3	2039	53	474733	-54	0														2		73												
WM080112	123117_fnca	1	1	1	-579930032	1	75.031	75.031	2.0.10.147	2.0.10.242	2.0.10.242	1.0.0.439	7	234	2	3	Verdana	1	80	0	0	0	WM Stimuli\	0.2	1105	0.9	1108.22222222222	0.8	1185.625	0.8	1180.625	0.9	1098.33333333333	0.9	847.111111111111	0.9	1232.44444444444	1	636.8	13	538866	2	538854	27	40	538893	-999999	538869	0	18	TrialsPROC	TO_009_TOOL9_BA.png	1	2	74	SessionSelectionList														lure	3	Tools	0-Back	64	80	60	0	0	88	7	39	477278	1	14	59	475239	-1	475736	1	497	3	3	2039	53	477292	-54	0														3		74												
WM080112	123117_fnca	1	1	1	-579930032	1	75.031	75.031	2.0.10.147	2.0.10.242	2.0.10.242	1.0.0.439	7	234	2	3	Verdana	1	80	0	0	0	WM Stimuli\	0.2	1105	0.9	1108.22222222222	0.8	1185.625	0.8	1180.625	0.9	1098.33333333333	0.9	847.111111111111	0.9	1232.44444444444	1	636.8	13	538866	2	538854	27	40	538893	-999999	538869	0	18	TrialsPROC	TO_008_TOOL8_BA.png	1	2	75	SessionSelectionList														nonlure	3	Tools	0-Back	65	80	61	0	0	88	8	39	479837	1	14	59	477798	-1	478448	1	650	3	3	2039	53	479851	-54	0														4		75												
WM080112	123117_fnca	1	1	1	-579930032	1	75.031	75.031	2.0.10.147	2.0.10.242	2.0.10.242	1.0.0.439	7	234	2	3	Verdana	1	80	0	0	0	WM Stimuli\	0.2	1105	0.9	1108.22222222222	0.8	1185.625	0.8	1180.625	0.9	1098.33333333333	0.9	847.111111111111	0.9	1232.44444444444	1	636.8	13	538866	2	538854	27	40	538893	-999999	538869	0	18	TrialsPROC	TO_011_TOOL11_BA.png	1	2	76	SessionSelectionList														nonlure	3	Tools	0-Back	66	80	62	0	0	89	9	39	482396	1	14	59	480357	-1	480853	1	496	3	3	2039	53	482410	-54	0														5		76												
WM080112	123117_fnca	1	1	1	-579930032	1	75.031	75.031	2.0.10.147	2.0.10.242	2.0.10.242	1.0.0.439	7	234	2	3	Verdana	1	80	0	0	0	WM Stimuli\	0.2	1105	0.9	1108.22222222222	0.8	1185.625	0.8	1180.625	0.9	1098.33333333333	0.9	847.111111111111	0.9	1232.44444444444	1	636.8	13	538866	2	538854	27	40	538893	-999999	538869	0	18	TrialsPROC	TO_012_TOOL12_BA.png	1	2	77	SessionSelectionList														nonlure	3	Tools	0-Back	67	80	63	0	0	89	10	39	484955	1	14	59	482916	-1	483500	1	584	3	3	2039	53	484969	-54	0														6		77												
WM080112	123117_fnca	1	1	1	-579930032	1	75.031	75.031	2.0.10.147	2.0.10.242	2.0.10.242	1.0.0.439	7	234	2	3	Verdana	1	80	0	0	0	WM Stimuli\	0.2	1105	0.9	1108.22222222222	0.8	1185.625	0.8	1180.625	0.9	1098.33333333333	0.9	847.111111111111	0.9	1232.44444444444	1	636.8	13	538866	2	538854	27	40	538893	-999999	538869	0	18	TrialsPROC	TO_010_TOOL10_BA.png	1	2	78	SessionSelectionList														lure	3	Tools	0-Back	68	80	64	0	0	89	11	39	487514	1	14	59	485475	-1	486047	1	572	3	3	2039	53	487528	-54	0														7		78												
WM080112	123117_fnca	1	1	1	-579930032	1	75.031	75.031	2.0.10.147	2.0.10.242	2.0.10.242	1.0.0.439	7	234	2	3	Verdana	1	80	0	0	0	WM Stimuli\	0.2	1105	0.9	1108.22222222222	0.8	1185.625	0.8	1180.625	0.9	1098.33333333333	0.9	847.111111111111	0.9	1232.44444444444	1	636.8	13	538866	2	538854	27	40	538893	-999999	538869	0	18	TrialsPROC	TO_007_TOOL7_BA.png	1	2	79	SessionSelectionList														target	2	Tools	0-Back	69	80	65	0	0	89	1	39	490073	1	14	59	488034	-1	488559	1	525	2	2	2039	53	490087	-54	0														8		79												
WM080112	123117_fnca	1	1	1	-579930032	1	75.031	75.031	2.0.10.147	2.0.10.242	2.0.10.242	1.0.0.439	7	234	2	3	Verdana	1	80	0	0	0	WM Stimuli\	0.2	1105	0.9	1108.22222222222	0.8	1185.625	0.8	1180.625	0.9	1098.33333333333	0.9	847.111111111111	0.9	1232.44444444444	1	636.8	13	538866	2	538854	27	40	538893	-999999	538869	0	18	TrialsPROC	TO_008_TOOL8_BA.png	1	2	80	SessionSelectionList														lure	3	Tools	0-Back	70	80	66	0	0	90	1	40	492632	1	14	58	490592	-1	491060	1	468	3	3	2040	54	492646	-55	0														9		80												
WM080112	123117_fnca	1	1	1	-579930032	1	75.031	75.031	2.0.10.147	2.0.10.242	2.0.10.242	1.0.0.439	7	234	2	3	Verdana	1	80	0	0	0	WM Stimuli\	0.2	1105	0.9	1108.22222222222	0.8	1185.625	0.8	1180.625	0.9	1098.33333333333	0.9	847.111111111111	0.9	1232.44444444444	1	636.8	13	538866	2	538854	27	40	538893	-999999	538869	0	18	TrialsPROC	TO_007_TOOL7_BA.png	1	2	81	SessionSelectionList														target	2	Tools	0-Back	71	80	67	0	0	90	1	40	495191	1	13	59	493151	-1	493658	1	507	2	2	2040	53	495204	-54	0														10		81												
WM080112	123117_fnca	1	1	1	-579930032	1	75.031	75.031	2.0.10.147	2.0.10.242	2.0.10.242	1.0.0.439	7	234	2	3	Verdana	1	80	0	0	0	WM Stimuli\	0.2	1105	0.9	1108.22222222222	0.8	1185.625	0.8	1180.625	0.9	1098.33333333333	0.9	847.111111111111	0.9	1232.44444444444	1	636.8	13	538866	2	538854	27	40	538893	-999999	538869	0	19	Cue2BackPROC	""	1	2	82	SessionSelectionList									6	495657	-7	0																																													82												
WM080112	123117_fnca	1	1	1	-579930032	1	75.031	75.031	2.0.10.147	2.0.10.242	2.0.10.242	1.0.0.439	7	234	2	3	Verdana	1	80	0	0	0	WM Stimuli\	0.2	1105	0.9	1108.22222222222	0.8	1185.625	0.8	1180.625	0.9	1098.33333333333	0.9	847.111111111111	0.9	1232.44444444444	1	636.8	13	538866	2	538854	27	40	538893	-999999	538869	0	20	TrialsPROC	PL_007_92026.png	1	2	83	SessionSelectionList														nonlure	3	Place	2-Back	72	80	68	0	0	90	1	39	500255	2	14	65	498216	-1	500006	1	1790	3	3	2039	53	500269	-54	0															1	83												
WM080112	123117_fnca	1	1	1	-579930032	1	75.031	75.031	2.0.10.147	2.0.10.242	2.0.10.242	1.0.0.439	7	234	2	3	Verdana	1	80	0	0	0	WM Stimuli\	0.2	1105	0.9	1108.22222222222	0.8	1185.625	0.8	1180.625	0.9	1098.33333333333	0.9	847.111111111111	0.9	1232.44444444444	1	636.8	13	538866	2	538854	27	40	538893	-999999	538869	0	20	TrialsPROC	PL_007_92026.png	1	2	84	SessionSelectionList														lure	3	Place	2-Back	73	80	69	0	0	90	2	40	502828	1	13	72	500788	-1	501971	1	1183	3	3	2040	53	502841	-54	0															2	84												
WM080112	123117_fnca	1	1	1	-579930032	1	75.031	75.031	2.0.10.147	2.0.10.242	2.0.10.242	1.0.0.439	7	234	2	3	Verdana	1	80	0	0	0	WM Stimuli\	0.2	1105	0.9	1108.22222222222	0.8	1185.625	0.8	1180.625	0.9	1098.33333333333	0.9	847.111111111111	0.9	1232.44444444444	1	636.8	13	538866	2	538854	27	40	538893	-999999	538869	0	20	TrialsPROC	PL_010_92038.png	1	2	85	SessionSelectionList														nonlure	3	Place	2-Back	74	80	70	0	0	90	3	39	505400	1	14	73	503361	-1	504528	1	1167	3	3	2039	53	505414	-54	0															3	85												
WM080112	123117_fnca	1	1	1	-579930032	1	75.031	75.031	2.0.10.147	2.0.10.242	2.0.10.242	1.0.0.439	7	234	2	3	Verdana	1	80	0	0	0	WM Stimuli\	0.2	1105	0.9	1108.22222222222	0.8	1185.625	0.8	1180.625	0.9	1098.33333333333	0.9	847.111111111111	0.9	1232.44444444444	1	636.8	13	538866	2	538854	27	40	538893	-999999	538869	0	20	TrialsPROC	PL_009_92037.png	1	2	86	SessionSelectionList														nonlure	3	Place	2-Back	75	80	71	0	0	90	4	39	507972	1	14	72	505933	-1	506834	1	901	3	3	2039	53	507986	-54	0															4	86												
WM080112	123117_fnca	1	1	1	-579930032	1	75.031	75.031	2.0.10.147	2.0.10.242	2.0.10.242	1.0.0.439	7	234	2	3	Verdana	1	80	0	0	0	WM Stimuli\	0.2	1105	0.9	1108.22222222222	0.8	1185.625	0.8	1180.625	0.9	1098.33333333333	0.9	847.111111111111	0.9	1232.44444444444	1	636.8	13	538866	2	538854	27	40	538893	-999999	538869	0	20	TrialsPROC	PL_010_92038.png	1	2	87	SessionSelectionList														target	2	Place	2-Back	76	80	72	0	0	90	1	39	510531	1	14	59	508492	-1	509410	1	918	2	2	2039	53	510545	-54	0															5	87												
WM080112	123117_fnca	1	1	1	-579930032	1	75.031	75.031	2.0.10.147	2.0.10.242	2.0.10.242	1.0.0.439	7	234	2	3	Verdana	1	80	0	0	0	WM Stimuli\	0.2	1105	0.9	1108.22222222222	0.8	1185.625	0.8	1180.625	0.9	1098.33333333333	0.9	847.111111111111	0.9	1232.44444444444	1	636.8	13	538866	2	538854	27	40	538893	-999999	538869	0	20	TrialsPROC	PL_009_92037.png	1	2	88	SessionSelectionList														target	2	Place	2-Back	77	80	73	0	0	90	1	39	513103	2	14	72	511064	-1	511889	0	825	3	2	2039	53	513117	-54	0															6	88												
WM080112	123117_fnca	1	1	1	-579930032	1	75.031	75.031	2.0.10.147	2.0.10.242	2.0.10.242	1.0.0.439	7	234	2	3	Verdana	1	80	0	0	0	WM Stimuli\	0.2	1105	0.9	1108.22222222222	0.8	1185.625	0.8	1180.625	0.9	1098.33333333333	0.9	847.111111111111	0.9	1232.44444444444	1	636.8	13	538866	2	538854	27	40	538893	-999999	538869	0	20	TrialsPROC	PL_008_92033.png	1	2	89	SessionSelectionList														nonlure	3	Place	2-Back	78	80	74	0	0	90	2	40	515676	1	13	72	513636	-1	514628	1	992	3	3	2040	53	515689	-54	0															7	89												
WM080112	123117_fnca	1	1	1	-579930032	1	75.031	75.031	2.0.10.147	2.0.10.242	2.0.10.242	1.0.0.439	7	234	2	3	Verdana	1	80	0	0	0	WM Stimuli\	0.2	1105	0.9	1108.22222222222	0.8	1185.625	0.8	1180.625	0.9	1098.33333333333	0.9	847.111111111111	0.9	1232.44444444444	1	636.8	13	538866	2	538854	27	40	538893	-999999	538869	0	20	TrialsPROC	PL_012_92047.png	1	2	90	SessionSelectionList														nonlure	3	Place	2-Back	79	80	75	0	0	90	3	39	518248	1	14	73	516209	-1	517245	1	1036	3	3	2039	53	518262	-54	0															8	90												
WM080112	123117_fnca	1	1	1	-579930032	1	75.031	75.031	2.0.10.147	2.0.10.242	2.0.10.242	1.0.0.439	7	234	2	3	Verdana	1	80	0	0	0	WM Stimuli\	0.2	1105	0.9	1108.22222222222	0.8	1185.625	0.8	1180.625	0.9	1098.33333333333	0.9	847.111111111111	0.9	1232.44444444444	1	636.8	13	538866	2	538854	27	40	538893	-999999	538869	0	20	TrialsPROC	PL_012_92047.png	1	2	91	SessionSelectionList														lure	3	Place	2-Back	80	80	76	0	0	90	4	39	520820	2	14	72	518781	-1	519600	1	819	3	3	2039	53	520834	-54	0															9	91												
WM080112	123117_fnca	1	1	1	-579930032	1	75.031	75.031	2.0.10.147	2.0.10.242	2.0.10.242	1.0.0.439	7	234	2	3	Verdana	1	80	0	0	0	WM Stimuli\	0.2	1105	0.9	1108.22222222222	0.8	1185.625	0.8	1180.625	0.9	1098.33333333333	0.9	847.111111111111	0.9	1232.44444444444	1	636.8	13	538866	2	538854	27	40	538893	-999999	538869	0	20	TrialsPROC	PL_011_92044.png	1	2	92	SessionSelectionList														nonlure	3	Place	2-Back	80	80	77	0	0	90	5	39	523392	2	14	72	521353	-1	522432	1	1079	3	3	2039	53	523406	-54	0															10	92												
WM080112	123117_fnca	1	1	1	-579930032	1	75.031	75.031	2.0.10.147	2.0.10.242	2.0.10.242	1.0.0.439	7	234	2	3	Verdana	1	80	0	0	0	WM Stimuli\	0.2	1105	0.9	1108.22222222222	0.8	1185.625	0.8	1180.625	0.9	1098.33333333333	0.9	847.111111111111	0.9	1232.44444444444	1	636.8	13	538866	2	538854	27	40	538893	-999999	538869	0	21	Fix15secPROC	""	1	2	93	SessionSelectionList																																															6	523859	-7	0							93												
