ExperimentName	HCPID	RunNumber	Subject	Session	RandomSeed	Group	Laptop.RefreshRate	ScannerD2.RefreshRate	StudioVersion	RuntimeVersion	RuntimeVersionExpected	ExperimentVersion	triggercode	Allowed	Target	Nontarget	FontStyle	RunTrialNumber[Session]	TrialsPerRun[Session]	TotalRespGreater200[Session]	ConsecRTLess200[Session]	ConsecNonResp[Session]	StimuliDir	ACC_2_Back_Body	Avg_RT_For_Correct_Trials_2_Back_Body	ACC_0_Back_Body	Avg_RT_For_Correct_Trials_0_Back_Body	ACC_2_Back_Face	Avg_RT_For_Correct_Trials_2_Back_Face	ACC_0_Back_Face	Avg_RT_For_Correct_Trials_0_Back_Face	ACC_2_Back_Place	Avg_RT_For_Correct_Trials_2_Back_Place	ACC_0_Back_Place	Avg_RT_For_Correct_Trials_0_Back_Place	ACC_2_Back_Tools	Avg_RT_For_Correct_Trials_2_Back_Tools	ACC_0_Back_Tools	Avg_RT_For_Correct_Trials_0_Back_Tools	ExpInstrucFeelFreeToRest.OnsetDelay	ExpInstrucFeelFreeToRest.OnsetTime	ExpInstrucFeelFreeToRest.DurationError	ExpInstrucFeelFreeToRest.StartTime	ExpInstrucFeelFreeToRest.OnsetToOnsetTime	FeelFreeToRest.OnsetDelay	FeelFreeToRest.OnsetTime	FeelFreeToRest.DurationError	FeelFreeToRest.StartTime	FeelFreeToRest.OnsetToOnsetTime	SessionSelectionList	Procedure[Block]	Stimulus[Block]	RunNumberFilterValue	SessionSelectionList.Cycle	SessionSelectionList.Sample	Running[Block]	IntroButtonMap.OnsetDelay	IntroButtonMap.OnsetTime	IntroButtonMap.DurationError	IntroButtonMap.OnsetToOnsetTime	GetReady.OnsetDelay	GetReady.OnsetTime	GetReady.DurationError	GetReady.OnsetToOnsetTime	Cue2Back.OnsetDelay	Cue2Back.OnsetTime	Cue2Back.DurationError	Cue2Back.OnsetToOnsetTime	Run1Block1	TargetType	CorrectResponse	StimType	BlockType	RunTrialNumber[Block]	TrialsPerRun[Block]	TotalRespGreater200[Block]	ConsecRTLess200[Block]	ConsecNonResp[Block]	ControlAcc	ConsecSameResp	ExperimenterWindow.OnsetDelay	ExperimenterWindow.OnsetTime	ExperimenterWindow.DurationError	ExperimenterWindow.OnsetToOnsetTime	Stim.OnsetDelay	Stim.OnsetTime	Stim.DurationError	Stim.RTTime	Stim.ACC	Stim.RT	Stim.RESP	Stim.CRESP	Stim.OnsetToOnsetTime	Fix.OnsetDelay	Fix.OnsetTime	Fix.DurationError	Fix.OnsetToOnsetTime	CueTarget.OnsetDelay	CueTarget.OnsetTime	CueTarget.DurationError	CueTarget.OnsetToOnsetTime	Run1Block2	Fix15sec.OnsetDelay	Fix15sec.OnsetTime	Fix15sec.DurationError	Fix15sec.OnsetToOnsetTime	Run1Block3	Run1Block4	Run1Block5	Run1Block6	Run1Block7	Run1Block8	Block	Procedure[Trial]	Stimulus[Trial]	ReadyList	Running[Trial]	ReadyList.Cycle	ReadyList.Sample	SyncSlide.OnsetDelay	SyncSlide.OnsetTime	SyncSlide.DurationError	SyncSlide.FinishTime	SyncSlide.OnsetToOnsetTime	Trial
WM080112	163129_fnca	2	1	1	-679778306	1	75.031	75.031	2.0.10.147	2.0.10.242	2.0.10.242	1.0.0.439	7	234	2	3	Verdana	1	80	0	0	0	WM Stimuli\	0.8	920.875	1	679.6	0.8	894.625	1	559.9	1	877.1	0.8	805.125	0.6	655.333333333333	1	560.1	13	317774	1	317762	14	27	317788	-999999	317776	0	22	TRSyncPROC	""	2	2	1	SessionSelectionList	99	5182	-999999	0	32	12019	-999999	0																																																	1	InitialTR	4	1	ReadyList	1	1	14	24494	-15	26479	0	1
WM080112	163129_fnca	2	1	1	-679778306	1	75.031	75.031	2.0.10.147	2.0.10.242	2.0.10.242	1.0.0.439	7	234	2	3	Verdana	1	80	0	0	0	WM Stimuli\	0.8	920.875	1	679.6	0.8	894.625	1	559.9	1	877.1	0.8	805.125	0.6	655.333333333333	1	560.1	13	317774	1	317762	14	27	317788	-999999	317776	0	22	TRSyncPROC	""	2	2	1	SessionSelectionList	99	5182	-999999	0	32	12019	-999999	0																																																	1	InitialTR	3	2	ReadyList	1	2	13	26493	-14	28479	0	2
WM080112	163129_fnca	2	1	1	-679778306	1	75.031	75.031	2.0.10.147	2.0.10.242	2.0.10.242	1.0.0.439	7	234	2	3	Verdana	1	80	0	0	0	WM Stimuli\	0.8	920.875	1	679.6	0.8	894.625	1	559.9	1	877.1	0.8	805.125	0.6	655.333333333333	1	560.1	13	317774	1	317762	14	27	317788	-999999	317776	0	22	TRSyncPROC	""	2	2	1	SessionSelectionList	99	5182	-999999	0	32	12019	-999999	0																																																	1	InitialTR	2	3	ReadyList	1	3	12	28492	-13	30479	0	3
WM080112	163129_fnca	2	1	1	-679778306	1	75.031	75.031	2.0.10.147	2.0.10.242	2.0.10.242	1.0.0.439	7	234	2	3	Verdana	1	80	0	0	0	WM Stimuli\	0.8	920.875	1	679.6	0.8	894.625	1	559.9	1	877.1	0.8	805.125	0.6	655.333333333333	1	560.1	13	317774	1	317762	14	27	317788	-999999	317776	0	22	TRSyncPROC	""	2	2	1	SessionSelectionList	99	5182	-999999	0	32	12019	-999999	0																																																	1	InitialTR	1	4	ReadyList	1	4	11	30491	-12	32479	0	4
WM080112	163129_fnca	2	1	1	-679778306	1	75.031	75.031	2.0.10.147	2.0.10.242	2.0.10.242	1.0.0.439	7	234	2	3	Verdana	1	80	0	0	0	WM Stimuli\	0.8	920.875	1	679.6	0.8	894.625	1	559.9	1	877.1	0.8	805.125	0.6	655.333333333333	1	560.1	13	317774	1	317762	14	27	317788	-999999	317776	0	23	Cue2BackPROC	""	2	2	2	SessionSelectionList									10	32490	-11	0																																													2												
WM080112	163129_fnca	2	1	1	-679778306	1	75.031	75.031	2.0.10.147	2.0.10.242	2.0.10.242	1.0.0.439	7	234	2	3	Verdana	1	80	0	0	0	WM Stimuli\	0.8	920.875	1	679.6	0.8	894.625	1	559.9	1	877.1	0.8	805.125	0.6	655.333333333333	1	560.1	13	317774	1	317762	14	27	317788	-999999	317776	0	24	TrialsPROC	TO_014_TOOL14_BA.png	2	2	3	SessionSelectionList														nonlure	3	Tools	2-Back	2	80	1	0	0	0	1	52	37115	3	14	83	35063	-1	35629	1	566	3	3	2052	66	37129	-67	0																3												
WM080112	163129_fnca	2	1	1	-679778306	1	75.031	75.031	2.0.10.147	2.0.10.242	2.0.10.242	1.0.0.439	7	234	2	3	Verdana	1	80	0	0	0	WM Stimuli\	0.8	920.875	1	679.6	0.8	894.625	1	559.9	1	877.1	0.8	805.125	0.6	655.333333333333	1	560.1	13	317774	1	317762	14	27	317788	-999999	317776	0	24	TrialsPROC	TO_013_TOOL13_BA.png	2	2	4	SessionSelectionList														nonlure	3	Tools	2-Back	3	80	2	0	0	0	2	39	39661	2	14	59	37622	-1	38132	1	510	3	3	2039	53	39675	-54	0																4												
WM080112	163129_fnca	2	1	1	-679778306	1	75.031	75.031	2.0.10.147	2.0.10.242	2.0.10.242	1.0.0.439	7	234	2	3	Verdana	1	80	0	0	0	WM Stimuli\	0.8	920.875	1	679.6	0.8	894.625	1	559.9	1	877.1	0.8	805.125	0.6	655.333333333333	1	560.1	13	317774	1	317762	14	27	317788	-999999	317776	0	24	TrialsPROC	TO_016_TOOL16_BA.png	2	2	5	SessionSelectionList														nonlure	3	Tools	2-Back	4	80	3	0	0	0	1	39	42220	1	14	59	40181	-1	40742	0	561	2	3	2039	53	42234	-54	0																5												
WM080112	163129_fnca	2	1	1	-679778306	1	75.031	75.031	2.0.10.147	2.0.10.242	2.0.10.242	1.0.0.439	7	234	2	3	Verdana	1	80	0	0	0	WM Stimuli\	0.8	920.875	1	679.6	0.8	894.625	1	559.9	1	877.1	0.8	805.125	0.6	655.333333333333	1	560.1	13	317774	1	317762	14	27	317788	-999999	317776	0	24	TrialsPROC	TO_014_TOOL14_BA.png	2	2	6	SessionSelectionList														lure	3	Tools	2-Back	5	80	4	0	0	0	2	39	44792	1	14	72	42753	-1	44201	0	1448	2	3	2039	53	44806	-54	0																6												
WM080112	163129_fnca	2	1	1	-679778306	1	75.031	75.031	2.0.10.147	2.0.10.242	2.0.10.242	1.0.0.439	7	234	2	3	Verdana	1	80	0	0	0	WM Stimuli\	0.8	920.875	1	679.6	0.8	894.625	1	559.9	1	877.1	0.8	805.125	0.6	655.333333333333	1	560.1	13	317774	1	317762	14	27	317788	-999999	317776	0	24	TrialsPROC	TO_016_TOOL16_BA.png	2	2	7	SessionSelectionList														target	2	Tools	2-Back	6	80	5	0	0	0	1	39	47351	1	14	59	45312	-1	45961	0	649	3	2	2039	53	47365	-54	0																7												
WM080112	163129_fnca	2	1	1	-679778306	1	75.031	75.031	2.0.10.147	2.0.10.242	2.0.10.242	1.0.0.439	7	234	2	3	Verdana	1	80	0	0	0	WM Stimuli\	0.8	920.875	1	679.6	0.8	894.625	1	559.9	1	877.1	0.8	805.125	0.6	655.333333333333	1	560.1	13	317774	1	317762	14	27	317788	-999999	317776	0	24	TrialsPROC	TO_018_TOOL18_BA.png	2	2	8	SessionSelectionList														nonlure	3	Tools	2-Back	7	80	6	0	0	0	2	39	49910	1	14	59	47871	-1	48830	1	959	3	3	2039	53	49924	-54	0																8												
WM080112	163129_fnca	2	1	1	-679778306	1	75.031	75.031	2.0.10.147	2.0.10.242	2.0.10.242	1.0.0.439	7	234	2	3	Verdana	1	80	0	0	0	WM Stimuli\	0.8	920.875	1	679.6	0.8	894.625	1	559.9	1	877.1	0.8	805.125	0.6	655.333333333333	1	560.1	13	317774	1	317762	14	27	317788	-999999	317776	0	24	TrialsPROC	TO_017_TOOL17_BA.png	2	2	9	SessionSelectionList														nonlure	3	Tools	2-Back	8	80	7	0	0	0	3	39	52469	1	14	59	50430	-1	50960	1	530	3	3	2039	53	52483	-54	0																9												
WM080112	163129_fnca	2	1	1	-679778306	1	75.031	75.031	2.0.10.147	2.0.10.242	2.0.10.242	1.0.0.439	7	234	2	3	Verdana	1	80	0	0	0	WM Stimuli\	0.8	920.875	1	679.6	0.8	894.625	1	559.9	1	877.1	0.8	805.125	0.6	655.333333333333	1	560.1	13	317774	1	317762	14	27	317788	-999999	317776	0	24	TrialsPROC	TO_018_TOOL18_BA.png	2	2	10	SessionSelectionList														target	2	Tools	2-Back	9	80	8	0	0	0	1	39	55028	1	14	59	52989	-1	53439	1	450	2	2	2039	53	55042	-54	0																10												
WM080112	163129_fnca	2	1	1	-679778306	1	75.031	75.031	2.0.10.147	2.0.10.242	2.0.10.242	1.0.0.439	7	234	2	3	Verdana	1	80	0	0	0	WM Stimuli\	0.8	920.875	1	679.6	0.8	894.625	1	559.9	1	877.1	0.8	805.125	0.6	655.333333333333	1	560.1	13	317774	1	317762	14	27	317788	-999999	317776	0	24	TrialsPROC	TO_015_TOOL15_BA.png	2	2	11	SessionSelectionList														nonlure	3	Tools	2-Back	10	80	9	0	0	0	1	39	57587	1	14	59	55548	-1	56465	1	917	3	3	2039	53	57601	-54	0																11												
WM080112	163129_fnca	2	1	1	-679778306	1	75.031	75.031	2.0.10.147	2.0.10.242	2.0.10.242	1.0.0.439	7	234	2	3	Verdana	1	80	0	0	0	WM Stimuli\	0.8	920.875	1	679.6	0.8	894.625	1	559.9	1	877.1	0.8	805.125	0.6	655.333333333333	1	560.1	13	317774	1	317762	14	27	317788	-999999	317776	0	24	TrialsPROC	TO_017_TOOL17_BA.png	2	2	12	SessionSelectionList														lure	3	Tools	2-Back	11	80	10	0	0	0	1	39	60146	1	14	59	58107	-1	58725	0	618	2	3	2039	53	60160	-54	0																12												
WM080112	163129_fnca	2	1	1	-679778306	1	75.031	75.031	2.0.10.147	2.0.10.242	2.0.10.242	1.0.0.439	7	234	2	3	Verdana	1	80	0	0	0	WM Stimuli\	0.8	920.875	1	679.6	0.8	894.625	1	559.9	1	877.1	0.8	805.125	0.6	655.333333333333	1	560.1	13	317774	1	317762	14	27	317788	-999999	317776	0	25	Cue0BackPROC	BP_013_BP7_BA.png	2	2	13	SessionSelectionList																																										19	60626	-20	0												13												
WM080112	163129_fnca	2	1	1	-679778306	1	75.031	75.031	2.0.10.147	2.0.10.242	2.0.10.242	1.0.0.439	7	234	2	3	Verdana	1	80	0	0	0	WM Stimuli\	0.8	920.875	1	679.6	0.8	894.625	1	559.9	1	877.1	0.8	805.125	0.6	655.333333333333	1	560.1	13	317774	1	317762	14	27	317788	-999999	317776	0	26	TrialsPROC	BP_015_H10-T_BA.png	2	2	14	SessionSelectionList														nonlure	3	Body	0-Back	12	80	11	0	0	100	1	39	65197	2	14	51	63158	-1	63960	1	802	3	3	2039	53	65211	-54	0																14												
WM080112	163129_fnca	2	1	1	-679778306	1	75.031	75.031	2.0.10.147	2.0.10.242	2.0.10.242	1.0.0.439	7	234	2	3	Verdana	1	80	0	0	0	WM Stimuli\	0.8	920.875	1	679.6	0.8	894.625	1	559.9	1	877.1	0.8	805.125	0.6	655.333333333333	1	560.1	13	317774	1	317762	14	27	317788	-999999	317776	0	26	TrialsPROC	BP_018_H13-T_BA.png	2	2	15	SessionSelectionList														nonlure	3	Body	0-Back	13	80	12	0	0	100	2	39	67756	1	14	59	65717	-1	66063	1	346	3	3	2039	53	67770	-54	0																15												
WM080112	163129_fnca	2	1	1	-679778306	1	75.031	75.031	2.0.10.147	2.0.10.242	2.0.10.242	1.0.0.439	7	234	2	3	Verdana	1	80	0	0	0	WM Stimuli\	0.8	920.875	1	679.6	0.8	894.625	1	559.9	1	877.1	0.8	805.125	0.6	655.333333333333	1	560.1	13	317774	1	317762	14	27	317788	-999999	317776	0	26	TrialsPROC	BP_014_BP9_BA.png	2	2	16	SessionSelectionList														nonlure	3	Body	0-Back	14	80	13	0	0	100	3	39	70315	1	14	59	68276	-1	69482	1	1206	3	3	2039	53	70329	-54	0																16												
WM080112	163129_fnca	2	1	1	-679778306	1	75.031	75.031	2.0.10.147	2.0.10.242	2.0.10.242	1.0.0.439	7	234	2	3	Verdana	1	80	0	0	0	WM Stimuli\	0.8	920.875	1	679.6	0.8	894.625	1	559.9	1	877.1	0.8	805.125	0.6	655.333333333333	1	560.1	13	317774	1	317762	14	27	317788	-999999	317776	0	26	TrialsPROC	BP_018_H13-T_BA.png	2	2	17	SessionSelectionList														lure	3	Body	0-Back	15	80	14	0	0	100	4	39	72874	1	14	59	70835	-1	71568	1	733	3	3	2039	53	72888	-54	0																17												
WM080112	163129_fnca	2	1	1	-679778306	1	75.031	75.031	2.0.10.147	2.0.10.242	2.0.10.242	1.0.0.439	7	234	2	3	Verdana	1	80	0	0	0	WM Stimuli\	0.8	920.875	1	679.6	0.8	894.625	1	559.9	1	877.1	0.8	805.125	0.6	655.333333333333	1	560.1	13	317774	1	317762	14	27	317788	-999999	317776	0	26	TrialsPROC	BP_013_BP7_BA.png	2	2	18	SessionSelectionList														target	2	Body	0-Back	16	80	15	0	0	100	1	39	75433	1	14	59	73394	-1	74060	1	666	2	2	2039	53	75447	-54	0																18												
WM080112	163129_fnca	2	1	1	-679778306	1	75.031	75.031	2.0.10.147	2.0.10.242	2.0.10.242	1.0.0.439	7	234	2	3	Verdana	1	80	0	0	0	WM Stimuli\	0.8	920.875	1	679.6	0.8	894.625	1	559.9	1	877.1	0.8	805.125	0.6	655.333333333333	1	560.1	13	317774	1	317762	14	27	317788	-999999	317776	0	26	TrialsPROC	BP_015_H10-T_BA.png	2	2	19	SessionSelectionList														lure	3	Body	0-Back	17	80	16	0	0	100	1	39	77992	1	14	59	75953	-1	76451	1	498	3	3	2039	53	78006	-54	0																19												
WM080112	163129_fnca	2	1	1	-679778306	1	75.031	75.031	2.0.10.147	2.0.10.242	2.0.10.242	1.0.0.439	7	234	2	3	Verdana	1	80	0	0	0	WM Stimuli\	0.8	920.875	1	679.6	0.8	894.625	1	559.9	1	877.1	0.8	805.125	0.6	655.333333333333	1	560.1	13	317774	1	317762	14	27	317788	-999999	317776	0	26	TrialsPROC	BP_016_H11-T_BA.png	2	2	20	SessionSelectionList														nonlure	3	Body	0-Back	18	80	17	0	0	100	2	39	80564	2	14	72	78525	-1	79280	1	755	3	3	2039	53	80578	-54	0																20												
WM080112	163129_fnca	2	1	1	-679778306	1	75.031	75.031	2.0.10.147	2.0.10.242	2.0.10.242	1.0.0.439	7	234	2	3	Verdana	1	80	0	0	0	WM Stimuli\	0.8	920.875	1	679.6	0.8	894.625	1	559.9	1	877.1	0.8	805.125	0.6	655.333333333333	1	560.1	13	317774	1	317762	14	27	317788	-999999	317776	0	26	TrialsPROC	BP_013_BP7_BA.png	2	2	21	SessionSelectionList														target	2	Body	0-Back	19	80	18	0	0	100	1	39	83123	2	14	59	81084	-1	81846	1	762	2	2	2039	53	83137	-54	0																21												
WM080112	163129_fnca	2	1	1	-679778306	1	75.031	75.031	2.0.10.147	2.0.10.242	2.0.10.242	1.0.0.439	7	234	2	3	Verdana	1	80	0	0	0	WM Stimuli\	0.8	920.875	1	679.6	0.8	894.625	1	559.9	1	877.1	0.8	805.125	0.6	655.333333333333	1	560.1	13	317774	1	317762	14	27	317788	-999999	317776	0	26	TrialsPROC	BP_017_H12-T_BA.png	2	2	22	SessionSelectionList														nonlure	3	Body	0-Back	20	80	19	0	0	100	1	39	85682	1	14	59	83643	-1	84089	1	446	3	3	2039	53	85696	-54	0																22												
WM080112	163129_fnca	2	1	1	-679778306	1	75.031	75.031	2.0.10.147	2.0.10.242	2.0.10.242	1.0.0.439	7	234	2	3	Verdana	1	80	0	0	0	WM Stimuli\	0.8	920.875	1	679.6	0.8	894.625	1	559.9	1	877.1	0.8	805.125	0.6	655.333333333333	1	560.1	13	317774	1	317762	14	27	317788	-999999	317776	0	26	TrialsPROC	BP_014_BP9_BA.png	2	2	23	SessionSelectionList														lure	3	Body	0-Back	21	80	20	0	0	100	2	39	88241	1	14	59	86202	-1	86784	1	582	3	3	2039	53	88255	-54	0																23												
WM080112	163129_fnca	2	1	1	-679778306	1	75.031	75.031	2.0.10.147	2.0.10.242	2.0.10.242	1.0.0.439	7	234	2	3	Verdana	1	80	0	0	0	WM Stimuli\	0.8	920.875	1	679.6	0.8	894.625	1	559.9	1	877.1	0.8	805.125	0.6	655.333333333333	1	560.1	13	317774	1	317762	14	27	317788	-999999	317776	0	27	Fix15secPROC	""	2	2	24	SessionSelectionList																																															6	88708	-7	0							24												
WM080112	163129_fnca	2	1	1	-679778306	1	75.031	75.031	2.0.10.147	2.0.10.242	2.0.10.242	1.0.0.439	7	234	2	3	Verdana	1	80	0	0	0	WM Stimuli\	0.8	920.875	1	679.6	0.8	894.625	1	559.9	1	877.1	0.8	805.125	0.6	655.333333333333	1	560.1	13	317774	1	317762	14	27	317788	-999999	317776	0	28	Cue2BackPROC	""	2	2	25	SessionSelectionList									13	103715	-14	0																																													25												
WM080112	163129_fnca	2	1	1	-679778306	1	75.031	75.031	2.0.10.147	2.0.10.242	2.0.10.242	1.0.0.439	7	234	2	3	Verdana	1	80	0	0	0	WM Stimuli\	0.8	920.875	1	679.6	0.8	894.625	1	559.9	1	877.1	0.8	805.125	0.6	655.333333333333	1	560.1	13	317774	1	317762	14	27	317788	-999999	317776	0	29	TrialsPROC	FC_015_M8.png	2	2	26	SessionSelectionList														nonlure	3	Face	2-Back	22	80	21	0	0	100	3	39	108313	1	14	72	106274	-1	107864	1	1590	3	3	2039	53	108327	-54	0																26												
WM080112	163129_fnca	2	1	1	-679778306	1	75.031	75.031	2.0.10.147	2.0.10.242	2.0.10.242	1.0.0.439	7	234	2	3	Verdana	1	80	0	0	0	WM Stimuli\	0.8	920.875	1	679.6	0.8	894.625	1	559.9	1	877.1	0.8	805.125	0.6	655.333333333333	1	560.1	13	317774	1	317762	14	27	317788	-999999	317776	0	29	TrialsPROC	FC_018_F9.png	2	2	27	SessionSelectionList														nonlure	3	Face	2-Back	23	80	22	0	0	100	4	39	110885	2	14	72	108846	-1	109820	1	974	3	3	2039	53	110899	-54	0																27												
WM080112	163129_fnca	2	1	1	-679778306	1	75.031	75.031	2.0.10.147	2.0.10.242	2.0.10.242	1.0.0.439	7	234	2	3	Verdana	1	80	0	0	0	WM Stimuli\	0.8	920.875	1	679.6	0.8	894.625	1	559.9	1	877.1	0.8	805.125	0.6	655.333333333333	1	560.1	13	317774	1	317762	14	27	317788	-999999	317776	0	29	TrialsPROC	FC_018_F9.png	2	2	28	SessionSelectionList														lure	3	Face	2-Back	24	80	23	0	0	100	1	39	113457	2	14	72	111418	-1	112167	0	749	2	3	2039	53	113471	-54	0																28												
WM080112	163129_fnca	2	1	1	-679778306	1	75.031	75.031	2.0.10.147	2.0.10.242	2.0.10.242	1.0.0.439	7	234	2	3	Verdana	1	80	0	0	0	WM Stimuli\	0.8	920.875	1	679.6	0.8	894.625	1	559.9	1	877.1	0.8	805.125	0.6	655.333333333333	1	560.1	13	317774	1	317762	14	27	317788	-999999	317776	0	29	TrialsPROC	FC_017_M9.png	2	2	29	SessionSelectionList														nonlure	3	Face	2-Back	25	80	24	0	0	100	1	40	116030	1	13	72	113990	-1	114978	1	988	3	3	2040	53	116043	-54	0																29												
WM080112	163129_fnca	2	1	1	-679778306	1	75.031	75.031	2.0.10.147	2.0.10.242	2.0.10.242	1.0.0.439	7	234	2	3	Verdana	1	80	0	0	0	WM Stimuli\	0.8	920.875	1	679.6	0.8	894.625	1	559.9	1	877.1	0.8	805.125	0.6	655.333333333333	1	560.1	13	317774	1	317762	14	27	317788	-999999	317776	0	29	TrialsPROC	FC_017_M9.png	2	2	30	SessionSelectionList														lure	3	Face	2-Back	26	80	25	0	0	100	2	39	118602	1	14	73	116563	-1	117091	1	528	3	3	2039	53	118616	-54	0																30												
WM080112	163129_fnca	2	1	1	-679778306	1	75.031	75.031	2.0.10.147	2.0.10.242	2.0.10.242	1.0.0.439	7	234	2	3	Verdana	1	80	0	0	0	WM Stimuli\	0.8	920.875	1	679.6	0.8	894.625	1	559.9	1	877.1	0.8	805.125	0.6	655.333333333333	1	560.1	13	317774	1	317762	14	27	317788	-999999	317776	0	29	TrialsPROC	FC_016_F8.png	2	2	31	SessionSelectionList														nonlure	3	Face	2-Back	27	80	26	0	0	100	3	39	121174	2	14	72	119135	-1	119876	1	741	3	3	2039	53	121188	-54	0																31												
WM080112	163129_fnca	2	1	1	-679778306	1	75.031	75.031	2.0.10.147	2.0.10.242	2.0.10.242	1.0.0.439	7	234	2	3	Verdana	1	80	0	0	0	WM Stimuli\	0.8	920.875	1	679.6	0.8	894.625	1	559.9	1	877.1	0.8	805.125	0.6	655.333333333333	1	560.1	13	317774	1	317762	14	27	317788	-999999	317776	0	29	TrialsPROC	FC_013_M7.png	2	2	32	SessionSelectionList														nonlure	3	Face	2-Back	28	80	27	0	0	100	4	40	123747	1	13	72	121707	-1	122346	1	639	3	3	2040	53	123760	-54	0																32												
WM080112	163129_fnca	2	1	1	-679778306	1	75.031	75.031	2.0.10.147	2.0.10.242	2.0.10.242	1.0.0.439	7	234	2	3	Verdana	1	80	0	0	0	WM Stimuli\	0.8	920.875	1	679.6	0.8	894.625	1	559.9	1	877.1	0.8	805.125	0.6	655.333333333333	1	560.1	13	317774	1	317762	14	27	317788	-999999	317776	0	29	TrialsPROC	FC_014_F7.png	2	2	33	SessionSelectionList														nonlure	3	Face	2-Back	29	80	28	0	0	100	5	39	126319	1	14	73	124280	-1	125057	1	777	3	3	2039	53	126333	-54	0																33												
WM080112	163129_fnca	2	1	1	-679778306	1	75.031	75.031	2.0.10.147	2.0.10.242	2.0.10.242	1.0.0.439	7	234	2	3	Verdana	1	80	0	0	0	WM Stimuli\	0.8	920.875	1	679.6	0.8	894.625	1	559.9	1	877.1	0.8	805.125	0.6	655.333333333333	1	560.1	13	317774	1	317762	14	27	317788	-999999	317776	0	29	TrialsPROC	FC_013_M7.png	2	2	34	SessionSelectionList														target	2	Face	2-Back	30	80	29	0	0	100	6	39	128891	1	14	72	126852	-1	127951	0	1099	3	2	2039	53	128905	-54	0																34												
WM080112	163129_fnca	2	1	1	-679778306	1	75.031	75.031	2.0.10.147	2.0.10.242	2.0.10.242	1.0.0.439	7	234	2	3	Verdana	1	80	0	0	0	WM Stimuli\	0.8	920.875	1	679.6	0.8	894.625	1	559.9	1	877.1	0.8	805.125	0.6	655.333333333333	1	560.1	13	317774	1	317762	14	27	317788	-999999	317776	0	29	TrialsPROC	FC_014_F7.png	2	2	35	SessionSelectionList														target	2	Face	2-Back	31	80	30	0	0	100	1	39	131463	2	14	72	129424	-1	130344	1	920	2	2	2039	53	131477	-54	0																35												
WM080112	163129_fnca	2	1	1	-679778306	1	75.031	75.031	2.0.10.147	2.0.10.242	2.0.10.242	1.0.0.439	7	234	2	3	Verdana	1	80	0	0	0	WM Stimuli\	0.8	920.875	1	679.6	0.8	894.625	1	559.9	1	877.1	0.8	805.125	0.6	655.333333333333	1	560.1	13	317774	1	317762	14	27	317788	-999999	317776	0	30	Cue0BackPROC	TO_019_TOOL19_BA.png	2	2	36	SessionSelectionList																																										19	131943	-20	0												36												
WM080112	163129_fnca	2	1	1	-679778306	1	75.031	75.031	2.0.10.147	2.0.10.242	2.0.10.242	1.0.0.439	7	234	2	3	Verdana	1	80	0	0	0	WM Stimuli\	0.8	920.875	1	679.6	0.8	894.625	1	559.9	1	877.1	0.8	805.125	0.6	655.333333333333	1	560.1	13	317774	1	317762	14	27	317788	-999999	317776	0	31	TrialsPROC	TO_019_TOOL19_BA.png	2	2	37	SessionSelectionList														target	2	Tools	0-Back	32	80	31	0	0	100	2	40	136515	1	13	51	134475	-1	135673	1	1198	2	2	2040	53	136528	-54	0																37												
WM080112	163129_fnca	2	1	1	-679778306	1	75.031	75.031	2.0.10.147	2.0.10.242	2.0.10.242	1.0.0.439	7	234	2	3	Verdana	1	80	0	0	0	WM Stimuli\	0.8	920.875	1	679.6	0.8	894.625	1	559.9	1	877.1	0.8	805.125	0.6	655.333333333333	1	560.1	13	317774	1	317762	14	27	317788	-999999	317776	0	31	TrialsPROC	TO_024_TOOL24_BA.png	2	2	38	SessionSelectionList														nonlure	3	Tools	0-Back	33	80	32	0	0	100	1	40	139074	1	13	59	137034	-1	137606	1	572	3	3	2040	53	139087	-54	0																38												
WM080112	163129_fnca	2	1	1	-679778306	1	75.031	75.031	2.0.10.147	2.0.10.242	2.0.10.242	1.0.0.439	7	234	2	3	Verdana	1	80	0	0	0	WM Stimuli\	0.8	920.875	1	679.6	0.8	894.625	1	559.9	1	877.1	0.8	805.125	0.6	655.333333333333	1	560.1	13	317774	1	317762	14	27	317788	-999999	317776	0	31	TrialsPROC	TO_019_TOOL19_BA.png	2	2	39	SessionSelectionList														target	2	Tools	0-Back	34	80	33	0	0	100	1	40	141633	1	13	59	139593	-1	140175	1	582	2	2	2040	53	141646	-54	0																39												
WM080112	163129_fnca	2	1	1	-679778306	1	75.031	75.031	2.0.10.147	2.0.10.242	2.0.10.242	1.0.0.439	7	234	2	3	Verdana	1	80	0	0	0	WM Stimuli\	0.8	920.875	1	679.6	0.8	894.625	1	559.9	1	877.1	0.8	805.125	0.6	655.333333333333	1	560.1	13	317774	1	317762	14	27	317788	-999999	317776	0	31	TrialsPROC	TO_023_TOOL23_BA.png	2	2	40	SessionSelectionList														nonlure	3	Tools	0-Back	35	80	34	0	0	100	1	40	144192	1	13	59	142152	-1	142674	1	522	3	3	2040	53	144205	-54	0																40												
WM080112	163129_fnca	2	1	1	-679778306	1	75.031	75.031	2.0.10.147	2.0.10.242	2.0.10.242	1.0.0.439	7	234	2	3	Verdana	1	80	0	0	0	WM Stimuli\	0.8	920.875	1	679.6	0.8	894.625	1	559.9	1	877.1	0.8	805.125	0.6	655.333333333333	1	560.1	13	317774	1	317762	14	27	317788	-999999	317776	0	31	TrialsPROC	TO_020_TOOL20_BA.png	2	2	41	SessionSelectionList														nonlure	3	Tools	0-Back	36	80	35	0	0	100	2	39	146750	2	14	59	144711	-1	145240	1	529	3	3	2039	53	146764	-54	0																41												
WM080112	163129_fnca	2	1	1	-679778306	1	75.031	75.031	2.0.10.147	2.0.10.242	2.0.10.242	1.0.0.439	7	234	2	3	Verdana	1	80	0	0	0	WM Stimuli\	0.8	920.875	1	679.6	0.8	894.625	1	559.9	1	877.1	0.8	805.125	0.6	655.333333333333	1	560.1	13	317774	1	317762	14	27	317788	-999999	317776	0	31	TrialsPROC	TO_020_TOOL20_BA.png	2	2	42	SessionSelectionList														lure	3	Tools	0-Back	37	80	36	0	0	100	3	39	149309	2	14	59	147270	-1	147760	1	490	3	3	2039	53	149323	-54	0																42												
WM080112	163129_fnca	2	1	1	-679778306	1	75.031	75.031	2.0.10.147	2.0.10.242	2.0.10.242	1.0.0.439	7	234	2	3	Verdana	1	80	0	0	0	WM Stimuli\	0.8	920.875	1	679.6	0.8	894.625	1	559.9	1	877.1	0.8	805.125	0.6	655.333333333333	1	560.1	13	317774	1	317762	14	27	317788	-999999	317776	0	31	TrialsPROC	TO_022_TOOL22_BA.png	2	2	43	SessionSelectionList														nonlure	3	Tools	0-Back	38	80	37	0	0	100	4	39	151868	2	14	59	149829	-1	150441	1	612	3	3	2039	53	151882	-54	0																43												
WM080112	163129_fnca	2	1	1	-679778306	1	75.031	75.031	2.0.10.147	2.0.10.242	2.0.10.242	1.0.0.439	7	234	2	3	Verdana	1	80	0	0	0	WM Stimuli\	0.8	920.875	1	679.6	0.8	894.625	1	559.9	1	877.1	0.8	805.125	0.6	655.333333333333	1	560.1	13	317774	1	317762	14	27	317788	-999999	317776	0	31	TrialsPROC	TO_022_TOOL22_BA.png	2	2	44	SessionSelectionList														lure	3	Tools	0-Back	39	80	38	0	0	100	5	39	154427	2	14	59	152388	-1	152788	1	400	3	3	2039	53	154441	-54	0																44												
WM080112	163129_fnca	2	1	1	-679778306	1	75.031	75.031	2.0.10.147	2.0.10.242	2.0.10.242	1.0.0.439	7	234	2	3	Verdana	1	80	0	0	0	WM Stimuli\	0.8	920.875	1	679.6	0.8	894.625	1	559.9	1	877.1	0.8	805.125	0.6	655.333333333333	1	560.1	13	317774	1	317762	14	27	317788	-999999	317776	0	31	TrialsPROC	TO_021_TOOL21_BA.png	2	2	45	SessionSelectionList														nonlure	3	Tools	0-Back	40	80	39	0	0	100	6	39	156986	2	14	59	154947	-1	155288	1	341	3	3	2039	53	157000	-54	0																45												
WM080112	163129_fnca	2	1	1	-679778306	1	75.031	75.031	2.0.10.147	2.0.10.242	2.0.10.242	1.0.0.439	7	234	2	3	Verdana	1	80	0	0	0	WM Stimuli\	0.8	920.875	1	679.6	0.8	894.625	1	559.9	1	877.1	0.8	805.125	0.6	655.333333333333	1	560.1	13	317774	1	317762	14	27	317788	-999999	317776	0	31	TrialsPROC	TO_021_TOOL21_BA.png	2	2	46	SessionSelectionList														lure	3	Tools	0-Back	41	80	40	0	0	100	7	39	159545	2	14	59	157506	-1	157861	1	355	3	3	2039	53	159559	-54	0																46												
WM080112	163129_fnca	2	1	1	-679778306	1	75.031	75.031	2.0.10.147	2.0.10.242	2.0.10.242	1.0.0.439	7	234	2	3	Verdana	1	80	0	0	0	WM Stimuli\	0.8	920.875	1	679.6	0.8	894.625	1	559.9	1	877.1	0.8	805.125	0.6	655.333333333333	1	560.1	13	317774	1	317762	14	27	317788	-999999	317776	0	32	Fix15secPROC	""	2	2	47	SessionSelectionList																																															6	160012	-7	0							47												
WM080112	163129_fnca	2	1	1	-679778306	1	75.031	75.031	2.0.10.147	2.0.10.242	2.0.10.242	1.0.0.439	7	234	2	3	Verdana	1	80	0	0	0	WM Stimuli\	0.8	920.875	1	679.6	0.8	894.625	1	559.9	1	877.1	0.8	805.125	0.6	655.333333333333	1	560.1	13	317774	1	317762	14	27	317788	-999999	317776	0	33	Cue2BackPROC	""	2	2	48	SessionSelectionList									13	175019	-14	0																																													48												
WM080112	163129_fnca	2	1	1	-679778306	1	75.031	75.031	2.0.10.147	2.0.10.242	2.0.10.242	1.0.0.439	7	234	2	3	Verdana	1	80	0	0	0	WM Stimuli\	0.8	920.875	1	679.6	0.8	894.625	1	559.9	1	877.1	0.8	805.125	0.6	655.333333333333	1	560.1	13	317774	1	317762	14	27	317788	-999999	317776	0	34	TrialsPROC	BP_020_H17-T_BA.png	2	2	49	SessionSelectionList														nonlure	3	Body	2-Back	42	80	41	0	0	100	8	40	179604	1	13	58	177564	-1	179321	1	1757	3	3	2040	53	179617	-54	0																49												
WM080112	163129_fnca	2	1	1	-679778306	1	75.031	75.031	2.0.10.147	2.0.10.242	2.0.10.242	1.0.0.439	7	234	2	3	Verdana	1	80	0	0	0	WM Stimuli\	0.8	920.875	1	679.6	0.8	894.625	1	559.9	1	877.1	0.8	805.125	0.6	655.333333333333	1	560.1	13	317774	1	317762	14	27	317788	-999999	317776	0	34	TrialsPROC	BP_019_H14-T_BA.png	2	2	50	SessionSelectionList														nonlure	3	Body	2-Back	43	80	42	0	0	100	9	39	182163	1	13	60	180124	-1	180858	1	734	3	3	2039	52	182176	-53	0																50												
WM080112	163129_fnca	2	1	1	-679778306	1	75.031	75.031	2.0.10.147	2.0.10.242	2.0.10.242	1.0.0.439	7	234	2	3	Verdana	1	80	0	0	0	WM Stimuli\	0.8	920.875	1	679.6	0.8	894.625	1	559.9	1	877.1	0.8	805.125	0.6	655.333333333333	1	560.1	13	317774	1	317762	14	27	317788	-999999	317776	0	34	TrialsPROC	BP_020_H17-T_BA.png	2	2	51	SessionSelectionList														target	2	Body	2-Back	44	80	43	0	0	100	1	39	184722	1	13	59	182683	-1	183404	1	721	2	2	2039	52	184735	-53	0																51												
WM080112	163129_fnca	2	1	1	-679778306	1	75.031	75.031	2.0.10.147	2.0.10.242	2.0.10.242	1.0.0.439	7	234	2	3	Verdana	1	80	0	0	0	WM Stimuli\	0.8	920.875	1	679.6	0.8	894.625	1	559.9	1	877.1	0.8	805.125	0.6	655.333333333333	1	560.1	13	317774	1	317762	14	27	317788	-999999	317776	0	34	TrialsPROC	BP_019_H14-T_BA.png	2	2	52	SessionSelectionList														target	2	Body	2-Back	45	80	44	0	0	100	1	39	187294	1	14	72	185255	-1	185698	0	443	3	2	2039	53	187308	-54	0																52												
WM080112	163129_fnca	2	1	1	-679778306	1	75.031	75.031	2.0.10.147	2.0.10.242	2.0.10.242	1.0.0.439	7	234	2	3	Verdana	1	80	0	0	0	WM Stimuli\	0.8	920.875	1	679.6	0.8	894.625	1	559.9	1	877.1	0.8	805.125	0.6	655.333333333333	1	560.1	13	317774	1	317762	14	27	317788	-999999	317776	0	34	TrialsPROC	BP_024_H3-T_BA.png	2	2	53	SessionSelectionList														nonlure	3	Body	2-Back	46	80	45	0	0	100	2	39	189853	2	14	59	187814	-1	188718	1	904	3	3	2039	53	189867	-54	0																53												
WM080112	163129_fnca	2	1	1	-679778306	1	75.031	75.031	2.0.10.147	2.0.10.242	2.0.10.242	1.0.0.439	7	234	2	3	Verdana	1	80	0	0	0	WM Stimuli\	0.8	920.875	1	679.6	0.8	894.625	1	559.9	1	877.1	0.8	805.125	0.6	655.333333333333	1	560.1	13	317774	1	317762	14	27	317788	-999999	317776	0	34	TrialsPROC	BP_024_H3-T_BA.png	2	2	54	SessionSelectionList														lure	3	Body	2-Back	47	80	46	0	0	100	3	39	192412	1	14	59	190373	-1	191110	1	737	3	3	2039	53	192426	-54	0																54												
WM080112	163129_fnca	2	1	1	-679778306	1	75.031	75.031	2.0.10.147	2.0.10.242	2.0.10.242	1.0.0.439	7	234	2	3	Verdana	1	80	0	0	0	WM Stimuli\	0.8	920.875	1	679.6	0.8	894.625	1	559.9	1	877.1	0.8	805.125	0.6	655.333333333333	1	560.1	13	317774	1	317762	14	27	317788	-999999	317776	0	34	TrialsPROC	BP_025_H5-T_BA.png	2	2	55	SessionSelectionList														nonlure	3	Body	2-Back	48	80	47	0	0	100	4	39	194971	1	13	59	192932	-1	193580	1	648	3	3	2039	52	194984	-53	0																55												
WM080112	163129_fnca	2	1	1	-679778306	1	75.031	75.031	2.0.10.147	2.0.10.242	2.0.10.242	1.0.0.439	7	234	2	3	Verdana	1	80	0	0	0	WM Stimuli\	0.8	920.875	1	679.6	0.8	894.625	1	559.9	1	877.1	0.8	805.125	0.6	655.333333333333	1	560.1	13	317774	1	317762	14	27	317788	-999999	317776	0	34	TrialsPROC	BP_023_H25-T_BA.png	2	2	56	SessionSelectionList														nonlure	3	Body	2-Back	49	80	48	0	0	100	1	39	197530	1	13	59	195491	-1	196649	0	1158	2	3	2039	52	197543	-53	0																56												
WM080112	163129_fnca	2	1	1	-679778306	1	75.031	75.031	2.0.10.147	2.0.10.242	2.0.10.242	1.0.0.439	7	234	2	3	Verdana	1	80	0	0	0	WM Stimuli\	0.8	920.875	1	679.6	0.8	894.625	1	559.9	1	877.1	0.8	805.125	0.6	655.333333333333	1	560.1	13	317774	1	317762	14	27	317788	-999999	317776	0	34	TrialsPROC	BP_022_H24-T_BA.png	2	2	57	SessionSelectionList														nonlure	3	Body	2-Back	50	80	49	0	0	100	1	39	200089	1	13	59	198050	-1	198817	1	767	3	3	2039	52	200102	-53	0																57												
WM080112	163129_fnca	2	1	1	-679778306	1	75.031	75.031	2.0.10.147	2.0.10.242	2.0.10.242	1.0.0.439	7	234	2	3	Verdana	1	80	0	0	0	WM Stimuli\	0.8	920.875	1	679.6	0.8	894.625	1	559.9	1	877.1	0.8	805.125	0.6	655.333333333333	1	560.1	13	317774	1	317762	14	27	317788	-999999	317776	0	34	TrialsPROC	BP_022_H24-T_BA.png	2	2	58	SessionSelectionList														lure	3	Body	2-Back	51	80	50	0	0	100	2	39	202648	1	13	59	200609	-1	201708	1	1099	3	3	2039	52	202661	-53	0																58												
WM080112	163129_fnca	2	1	1	-679778306	1	75.031	75.031	2.0.10.147	2.0.10.242	2.0.10.242	1.0.0.439	7	234	2	3	Verdana	1	80	0	0	0	WM Stimuli\	0.8	920.875	1	679.6	0.8	894.625	1	559.9	1	877.1	0.8	805.125	0.6	655.333333333333	1	560.1	13	317774	1	317762	14	27	317788	-999999	317776	0	35	Cue2BackPROC	""	2	2	59	SessionSelectionList									5	203114	-6	0																																													59												
WM080112	163129_fnca	2	1	1	-679778306	1	75.031	75.031	2.0.10.147	2.0.10.242	2.0.10.242	1.0.0.439	7	234	2	3	Verdana	1	80	0	0	0	WM Stimuli\	0.8	920.875	1	679.6	0.8	894.625	1	559.9	1	877.1	0.8	805.125	0.6	655.333333333333	1	560.1	13	317774	1	317762	14	27	317788	-999999	317776	0	36	TrialsPROC	PL_019_SCENE_05.png	2	2	60	SessionSelectionList														nonlure	3	Place	2-Back	52	80	51	0	0	100	3	39	207712	2	14	64	205673	-1	206939	1	1266	3	3	2039	53	207726	-54	0																60												
WM080112	163129_fnca	2	1	1	-679778306	1	75.031	75.031	2.0.10.147	2.0.10.242	2.0.10.242	1.0.0.439	7	234	2	3	Verdana	1	80	0	0	0	WM Stimuli\	0.8	920.875	1	679.6	0.8	894.625	1	559.9	1	877.1	0.8	805.125	0.6	655.333333333333	1	560.1	13	317774	1	317762	14	27	317788	-999999	317776	0	36	TrialsPROC	PL_017_SCENE_03.png	2	2	61	SessionSelectionList														nonlure	3	Place	2-Back	53	80	52	0	0	100	4	39	210284	2	14	72	208245	-1	209039	1	794	3	3	2039	53	210298	-54	0																61												
WM080112	163129_fnca	2	1	1	-679778306	1	75.031	75.031	2.0.10.147	2.0.10.242	2.0.10.242	1.0.0.439	7	234	2	3	Verdana	1	80	0	0	0	WM Stimuli\	0.8	920.875	1	679.6	0.8	894.625	1	559.9	1	877.1	0.8	805.125	0.6	655.333333333333	1	560.1	13	317774	1	317762	14	27	317788	-999999	317776	0	36	TrialsPROC	PL_017_SCENE_03.png	2	2	62	SessionSelectionList														lure	3	Place	2-Back	54	80	53	0	0	100	5	39	212857	1	13	73	210818	-1	211391	1	573	3	3	2039	52	212870	-53	0																62												
WM080112	163129_fnca	2	1	1	-679778306	1	75.031	75.031	2.0.10.147	2.0.10.242	2.0.10.242	1.0.0.439	7	234	2	3	Verdana	1	80	0	0	0	WM Stimuli\	0.8	920.875	1	679.6	0.8	894.625	1	559.9	1	877.1	0.8	805.125	0.6	655.333333333333	1	560.1	13	317774	1	317762	14	27	317788	-999999	317776	0	36	TrialsPROC	PL_016_SCENE_02.png	2	2	63	SessionSelectionList														nonlure	3	Place	2-Back	55	80	54	0	0	100	6	39	215429	1	14	72	213390	-1	214317	1	927	3	3	2039	53	215443	-54	0																63												
WM080112	163129_fnca	2	1	1	-679778306	1	75.031	75.031	2.0.10.147	2.0.10.242	2.0.10.242	1.0.0.439	7	234	2	3	Verdana	1	80	0	0	0	WM Stimuli\	0.8	920.875	1	679.6	0.8	894.625	1	559.9	1	877.1	0.8	805.125	0.6	655.333333333333	1	560.1	13	317774	1	317762	14	27	317788	-999999	317776	0	36	TrialsPROC	PL_015_SCENE_01.png	2	2	64	SessionSelectionList														nonlure	3	Place	2-Back	56	80	55	0	0	100	7	39	218001	2	14	72	215962	-1	216953	1	991	3	3	2039	53	218015	-54	0																64												
WM080112	163129_fnca	2	1	1	-679778306	1	75.031	75.031	2.0.10.147	2.0.10.242	2.0.10.242	1.0.0.439	7	234	2	3	Verdana	1	80	0	0	0	WM Stimuli\	0.8	920.875	1	679.6	0.8	894.625	1	559.9	1	877.1	0.8	805.125	0.6	655.333333333333	1	560.1	13	317774	1	317762	14	27	317788	-999999	317776	0	36	TrialsPROC	PL_016_SCENE_02.png	2	2	65	SessionSelectionList														target	2	Place	2-Back	57	80	56	0	0	100	1	40	220574	1	13	72	218534	-1	219238	1	704	2	2	2040	53	220587	-54	0																65												
WM080112	163129_fnca	2	1	1	-679778306	1	75.031	75.031	2.0.10.147	2.0.10.242	2.0.10.242	1.0.0.439	7	234	2	3	Verdana	1	80	0	0	0	WM Stimuli\	0.8	920.875	1	679.6	0.8	894.625	1	559.9	1	877.1	0.8	805.125	0.6	655.333333333333	1	560.1	13	317774	1	317762	14	27	317788	-999999	317776	0	36	TrialsPROC	PL_015_SCENE_01.png	2	2	66	SessionSelectionList														target	2	Place	2-Back	58	80	57	0	0	100	2	39	223146	1	14	73	221107	-1	221925	1	818	2	2	2039	53	223160	-54	0																66												
WM080112	163129_fnca	2	1	1	-679778306	1	75.031	75.031	2.0.10.147	2.0.10.242	2.0.10.242	1.0.0.439	7	234	2	3	Verdana	1	80	0	0	0	WM Stimuli\	0.8	920.875	1	679.6	0.8	894.625	1	559.9	1	877.1	0.8	805.125	0.6	655.333333333333	1	560.1	13	317774	1	317762	14	27	317788	-999999	317776	0	36	TrialsPROC	PL_020_SCENE_06.png	2	2	67	SessionSelectionList														nonlure	3	Place	2-Back	59	80	58	0	0	100	1	39	225718	2	14	72	223679	-1	224476	1	797	3	3	2039	53	225732	-54	0																67												
WM080112	163129_fnca	2	1	1	-679778306	1	75.031	75.031	2.0.10.147	2.0.10.242	2.0.10.242	1.0.0.439	7	234	2	3	Verdana	1	80	0	0	0	WM Stimuli\	0.8	920.875	1	679.6	0.8	894.625	1	559.9	1	877.1	0.8	805.125	0.6	655.333333333333	1	560.1	13	317774	1	317762	14	27	317788	-999999	317776	0	36	TrialsPROC	PL_020_SCENE_06.png	2	2	68	SessionSelectionList														lure	3	Place	2-Back	60	80	59	0	0	100	2	39	228290	2	14	72	226251	-1	227164	1	913	3	3	2039	53	228304	-54	0																68												
WM080112	163129_fnca	2	1	1	-679778306	1	75.031	75.031	2.0.10.147	2.0.10.242	2.0.10.242	1.0.0.439	7	234	2	3	Verdana	1	80	0	0	0	WM Stimuli\	0.8	920.875	1	679.6	0.8	894.625	1	559.9	1	877.1	0.8	805.125	0.6	655.333333333333	1	560.1	13	317774	1	317762	14	27	317788	-999999	317776	0	36	TrialsPROC	PL_018_SCENE_04.png	2	2	69	SessionSelectionList														nonlure	3	Place	2-Back	61	80	60	0	0	100	3	39	230863	1	13	73	228824	-1	229812	1	988	3	3	2039	52	230876	-53	0																69												
WM080112	163129_fnca	2	1	1	-679778306	1	75.031	75.031	2.0.10.147	2.0.10.242	2.0.10.242	1.0.0.439	7	234	2	3	Verdana	1	80	0	0	0	WM Stimuli\	0.8	920.875	1	679.6	0.8	894.625	1	559.9	1	877.1	0.8	805.125	0.6	655.333333333333	1	560.1	13	317774	1	317762	14	27	317788	-999999	317776	0	37	Fix15secPROC	""	2	2	70	SessionSelectionList																																															6	231330	-7	0							70												
WM080112	163129_fnca	2	1	1	-679778306	1	75.031	75.031	2.0.10.147	2.0.10.242	2.0.10.242	1.0.0.439	7	234	2	3	Verdana	1	80	0	0	0	WM Stimuli\	0.8	920.875	1	679.6	0.8	894.625	1	559.9	1	877.1	0.8	805.125	0.6	655.333333333333	1	560.1	13	317774	1	317762	14	27	317788	-999999	317776	0	38	Cue0BackPROC	FC_020_F10.png	2	2	71	SessionSelectionList																																										26	246350	-27	0												71												
WM080112	163129_fnca	2	1	1	-679778306	1	75.031	75.031	2.0.10.147	2.0.10.242	2.0.10.242	1.0.0.439	7	234	2	3	Verdana	1	80	0	0	0	WM Stimuli\	0.8	920.875	1	679.6	0.8	894.625	1	559.9	1	877.1	0.8	805.125	0.6	655.333333333333	1	560.1	13	317774	1	317762	14	27	317788	-999999	317776	0	39	TrialsPROC	FC_024_F12.png	2	2	72	SessionSelectionList														nonlure	3	Face	0-Back	62	80	61	0	0	100	4	40	250935	1	13	71	248895	-1	249629	1	734	3	3	2040	53	250948	-54	0																72												
WM080112	163129_fnca	2	1	1	-679778306	1	75.031	75.031	2.0.10.147	2.0.10.242	2.0.10.242	1.0.0.439	7	234	2	3	Verdana	1	80	0	0	0	WM Stimuli\	0.8	920.875	1	679.6	0.8	894.625	1	559.9	1	877.1	0.8	805.125	0.6	655.333333333333	1	560.1	13	317774	1	317762	14	27	317788	-999999	317776	0	39	TrialsPROC	FC_023_M12.png	2	2	73	SessionSelectionList														nonlure	3	Face	0-Back	63	80	62	0	0	100	5	39	253507	1	14	73	251468	-1	251903	1	435	3	3	2039	53	253521	-54	0																73												
WM080112	163129_fnca	2	1	1	-679778306	1	75.031	75.031	2.0.10.147	2.0.10.242	2.0.10.242	1.0.0.439	7	234	2	3	Verdana	1	80	0	0	0	WM Stimuli\	0.8	920.875	1	679.6	0.8	894.625	1	559.9	1	877.1	0.8	805.125	0.6	655.333333333333	1	560.1	13	317774	1	317762	14	27	317788	-999999	317776	0	39	TrialsPROC	FC_020_F10.png	2	2	74	SessionSelectionList														target	2	Face	0-Back	64	80	63	0	0	100	1	39	256079	2	14	72	254040	-1	254665	1	625	2	2	2039	53	256093	-54	0																74												
WM080112	163129_fnca	2	1	1	-679778306	1	75.031	75.031	2.0.10.147	2.0.10.242	2.0.10.242	1.0.0.439	7	234	2	3	Verdana	1	80	0	0	0	WM Stimuli\	0.8	920.875	1	679.6	0.8	894.625	1	559.9	1	877.1	0.8	805.125	0.6	655.333333333333	1	560.1	13	317774	1	317762	14	27	317788	-999999	317776	0	39	TrialsPROC	FC_024_F12.png	2	2	75	SessionSelectionList														lure	3	Face	0-Back	65	80	64	0	0	100	1	39	258651	2	14	72	256612	-1	257363	1	751	3	3	2039	53	258665	-54	0																75												
WM080112	163129_fnca	2	1	1	-679778306	1	75.031	75.031	2.0.10.147	2.0.10.242	2.0.10.242	1.0.0.439	7	234	2	3	Verdana	1	80	0	0	0	WM Stimuli\	0.8	920.875	1	679.6	0.8	894.625	1	559.9	1	877.1	0.8	805.125	0.6	655.333333333333	1	560.1	13	317774	1	317762	14	27	317788	-999999	317776	0	39	TrialsPROC	FC_020_F10.png	2	2	76	SessionSelectionList														target	2	Face	0-Back	66	80	65	0	0	100	1	40	261224	1	13	72	259184	-1	259725	1	541	2	2	2040	53	261237	-54	0																76												
WM080112	163129_fnca	2	1	1	-679778306	1	75.031	75.031	2.0.10.147	2.0.10.242	2.0.10.242	1.0.0.439	7	234	2	3	Verdana	1	80	0	0	0	WM Stimuli\	0.8	920.875	1	679.6	0.8	894.625	1	559.9	1	877.1	0.8	805.125	0.6	655.333333333333	1	560.1	13	317774	1	317762	14	27	317788	-999999	317776	0	39	TrialsPROC	FC_022_F11.png	2	2	77	SessionSelectionList														nonlure	3	Face	0-Back	67	80	66	0	0	100	1	39	263796	1	14	73	261757	-1	262267	1	510	3	3	2039	53	263810	-54	0																77												
WM080112	163129_fnca	2	1	1	-679778306	1	75.031	75.031	2.0.10.147	2.0.10.242	2.0.10.242	1.0.0.439	7	234	2	3	Verdana	1	80	0	0	0	WM Stimuli\	0.8	920.875	1	679.6	0.8	894.625	1	559.9	1	877.1	0.8	805.125	0.6	655.333333333333	1	560.1	13	317774	1	317762	14	27	317788	-999999	317776	0	39	TrialsPROC	FC_023_M12.png	2	2	78	SessionSelectionList														lure	3	Face	0-Back	68	80	67	0	0	100	2	39	266368	2	14	72	264329	-1	264900	1	571	3	3	2039	53	266382	-54	0																78												
WM080112	163129_fnca	2	1	1	-679778306	1	75.031	75.031	2.0.10.147	2.0.10.242	2.0.10.242	1.0.0.439	7	234	2	3	Verdana	1	80	0	0	0	WM Stimuli\	0.8	920.875	1	679.6	0.8	894.625	1	559.9	1	877.1	0.8	805.125	0.6	655.333333333333	1	560.1	13	317774	1	317762	14	27	317788	-999999	317776	0	39	TrialsPROC	FC_021_M11.png	2	2	79	SessionSelectionList														nonlure	3	Face	0-Back	69	80	68	0	0	100	3	39	268940	2	14	72	266901	-1	267450	1	549	3	3	2039	53	268954	-54	0																79												
WM080112	163129_fnca	2	1	1	-679778306	1	75.031	75.031	2.0.10.147	2.0.10.242	2.0.10.242	1.0.0.439	7	234	2	3	Verdana	1	80	0	0	0	WM Stimuli\	0.8	920.875	1	679.6	0.8	894.625	1	559.9	1	877.1	0.8	805.125	0.6	655.333333333333	1	560.1	13	317774	1	317762	14	27	317788	-999999	317776	0	39	TrialsPROC	FC_021_M11.png	2	2	80	SessionSelectionList														lure	3	Face	0-Back	70	80	69	0	0	100	4	39	271513	1	13	73	269474	-1	269884	1	410	3	3	2039	52	271526	-53	0																80												
WM080112	163129_fnca	2	1	1	-679778306	1	75.031	75.031	2.0.10.147	2.0.10.242	2.0.10.242	1.0.0.439	7	234	2	3	Verdana	1	80	0	0	0	WM Stimuli\	0.8	920.875	1	679.6	0.8	894.625	1	559.9	1	877.1	0.8	805.125	0.6	655.333333333333	1	560.1	13	317774	1	317762	14	27	317788	-999999	317776	0	39	TrialsPROC	FC_019_M10.png	2	2	81	SessionSelectionList														nonlure	3	Face	0-Back	71	80	70	0	0	100	5	39	274085	1	14	72	272046	-1	272519	1	473	3	3	2039	53	274099	-54	0																81												
WM080112	163129_fnca	2	1	1	-679778306	1	75.031	75.031	2.0.10.147	2.0.10.242	2.0.10.242	1.0.0.439	7	234	2	3	Verdana	1	80	0	0	0	WM Stimuli\	0.8	920.875	1	679.6	0.8	894.625	1	559.9	1	877.1	0.8	805.125	0.6	655.333333333333	1	560.1	13	317774	1	317762	14	27	317788	-999999	317776	0	40	Cue0BackPROC	PL_021_SCENE_07.png	2	2	82	SessionSelectionList																																										19	274565	-20	0												82												
WM080112	163129_fnca	2	1	1	-679778306	1	75.031	75.031	2.0.10.147	2.0.10.242	2.0.10.242	1.0.0.439	7	234	2	3	Verdana	1	80	0	0	0	WM Stimuli\	0.8	920.875	1	679.6	0.8	894.625	1	559.9	1	877.1	0.8	805.125	0.6	655.333333333333	1	560.1	13	317774	1	317762	14	27	317788	-999999	317776	0	41	TrialsPROC	PL_025_SCENE_18.png	2	2	83	SessionSelectionList														nonlure	3	Place	0-Back	72	80	71	0	0	100	6	40	279150	1	13	64	277110	-1	278457	1	1347	3	3	2040	53	279163	-54	0																83												
WM080112	163129_fnca	2	1	1	-679778306	1	75.031	75.031	2.0.10.147	2.0.10.242	2.0.10.242	1.0.0.439	7	234	2	3	Verdana	1	80	0	0	0	WM Stimuli\	0.8	920.875	1	679.6	0.8	894.625	1	559.9	1	877.1	0.8	805.125	0.6	655.333333333333	1	560.1	13	317774	1	317762	14	27	317788	-999999	317776	0	41	TrialsPROC	PL_026_SCENE_24.png	2	2	84	SessionSelectionList														nonlure	3	Place	0-Back	73	80	72	0	0	100	7	39	281722	1	14	73	279683	-1	280583	1	900	3	3	2039	53	281736	-54	0																84												
WM080112	163129_fnca	2	1	1	-679778306	1	75.031	75.031	2.0.10.147	2.0.10.242	2.0.10.242	1.0.0.439	7	234	2	3	Verdana	1	80	0	0	0	WM Stimuli\	0.8	920.875	1	679.6	0.8	894.625	1	559.9	1	877.1	0.8	805.125	0.6	655.333333333333	1	560.1	13	317774	1	317762	14	27	317788	-999999	317776	0	41	TrialsPROC	PL_025_SCENE_18.png	2	2	85	SessionSelectionList														lure	3	Place	0-Back	74	80	73	0	0	100	8	39	284294	2	14	72	282255	-1	282812	1	557	3	3	2039	53	284308	-54	0																85												
WM080112	163129_fnca	2	1	1	-679778306	1	75.031	75.031	2.0.10.147	2.0.10.242	2.0.10.242	1.0.0.439	7	234	2	3	Verdana	1	80	0	0	0	WM Stimuli\	0.8	920.875	1	679.6	0.8	894.625	1	559.9	1	877.1	0.8	805.125	0.6	655.333333333333	1	560.1	13	317774	1	317762	14	27	317788	-999999	317776	0	41	TrialsPROC	PL_022_SCENE_08.png	2	2	86	SessionSelectionList														nonlure	3	Place	0-Back	75	80	74	0	0	100	9	39	286866	2	14	72	284827	-1	285609	1	782	3	3	2039	53	286880	-54	0																86												
WM080112	163129_fnca	2	1	1	-679778306	1	75.031	75.031	2.0.10.147	2.0.10.242	2.0.10.242	1.0.0.439	7	234	2	3	Verdana	1	80	0	0	0	WM Stimuli\	0.8	920.875	1	679.6	0.8	894.625	1	559.9	1	877.1	0.8	805.125	0.6	655.333333333333	1	560.1	13	317774	1	317762	14	27	317788	-999999	317776	0	41	TrialsPROC	PL_026_SCENE_24.png	2	2	87	SessionSelectionList														lure	3	Place	0-Back	76	80	75	0	0	100	10	39	289439	1	14	73	287400	-1	288411	1	1011	3	3	2039	53	289453	-54	0																87												
WM080112	163129_fnca	2	1	1	-679778306	1	75.031	75.031	2.0.10.147	2.0.10.242	2.0.10.242	1.0.0.439	7	234	2	3	Verdana	1	80	0	0	0	WM Stimuli\	0.8	920.875	1	679.6	0.8	894.625	1	559.9	1	877.1	0.8	805.125	0.6	655.333333333333	1	560.1	13	317774	1	317762	14	27	317788	-999999	317776	0	41	TrialsPROC	PL_021_SCENE_07.png	2	2	88	SessionSelectionList														target	2	Place	0-Back	77	80	76	0	0	97	11	39	292011	1	14	72	289972	-1	291016	0	1044	3	2	2039	53	292025	-54	0																88												
WM080112	163129_fnca	2	1	1	-679778306	1	75.031	75.031	2.0.10.147	2.0.10.242	2.0.10.242	1.0.0.439	7	234	2	3	Verdana	1	80	0	0	0	WM Stimuli\	0.8	920.875	1	679.6	0.8	894.625	1	559.9	1	877.1	0.8	805.125	0.6	655.333333333333	1	560.1	13	317774	1	317762	14	27	317788	-999999	317776	0	41	TrialsPROC	PL_021_SCENE_07.png	2	2	89	SessionSelectionList														target	2	Place	0-Back	78	80	77	0	0	95	12	39	294583	2	14	72	292544	-1	293219	0	675	3	2	2039	53	294597	-54	0																89												
WM080112	163129_fnca	2	1	1	-679778306	1	75.031	75.031	2.0.10.147	2.0.10.242	2.0.10.242	1.0.0.439	7	234	2	3	Verdana	1	80	0	0	0	WM Stimuli\	0.8	920.875	1	679.6	0.8	894.625	1	559.9	1	877.1	0.8	805.125	0.6	655.333333333333	1	560.1	13	317774	1	317762	14	27	317788	-999999	317776	0	41	TrialsPROC	PL_023_SCENE_09.png	2	2	90	SessionSelectionList														nonlure	3	Place	0-Back	79	80	78	0	0	95	13	40	297156	1	13	72	295116	-1	295665	1	549	3	3	2040	53	297169	-54	0																90												
WM080112	163129_fnca	2	1	1	-679778306	1	75.031	75.031	2.0.10.147	2.0.10.242	2.0.10.242	1.0.0.439	7	234	2	3	Verdana	1	80	0	0	0	WM Stimuli\	0.8	920.875	1	679.6	0.8	894.625	1	559.9	1	877.1	0.8	805.125	0.6	655.333333333333	1	560.1	13	317774	1	317762	14	27	317788	-999999	317776	0	41	TrialsPROC	PL_024_SCENE_10.png	2	2	91	SessionSelectionList														nonlure	3	Place	0-Back	80	80	79	0	0	95	14	39	299728	1	14	73	297689	-1	298277	1	588	3	3	2039	53	299742	-54	0																91												
WM080112	163129_fnca	2	1	1	-679778306	1	75.031	75.031	2.0.10.147	2.0.10.242	2.0.10.242	1.0.0.439	7	234	2	3	Verdana	1	80	0	0	0	WM Stimuli\	0.8	920.875	1	679.6	0.8	894.625	1	559.9	1	877.1	0.8	805.125	0.6	655.333333333333	1	560.1	13	317774	1	317762	14	27	317788	-999999	317776	0	41	TrialsPROC	PL_022_SCENE_08.png	2	2	92	SessionSelectionList														lure	3	Place	0-Back	80	80	80	0	0	95	15	39	302300	2	14	72	300261	-1	300968	1	707	3	3	2039	53	302314	-54	0																92												
WM080112	163129_fnca	2	1	1	-679778306	1	75.031	75.031	2.0.10.147	2.0.10.242	2.0.10.242	1.0.0.439	7	234	2	3	Verdana	1	80	0	0	0	WM Stimuli\	0.8	920.875	1	679.6	0.8	894.625	1	559.9	1	877.1	0.8	805.125	0.6	655.333333333333	1	560.1	13	317774	1	317762	14	27	317788	-999999	317776	0	42	Fix15secPROC	""	2	2	93	SessionSelectionList																																															6	302767	-7	0							93												
