ExperimentName	HCPID	RunNumber	Subject	Session	RandomSeed	Group	Laptop.RefreshRate	ScannerD2.RefreshRate	StudioVersion	RuntimeVersion	RuntimeVersionExpected	ExperimentVersion	triggercode	Allowed	Target	Nontarget	FontStyle	RunTrialNumber[Session]	TrialsPerRun[Session]	TotalRespGreater200[Session]	ConsecRTLess200[Session]	ConsecNonResp[Session]	StimuliDir	ACC_2_Back_Body	Avg_RT_For_Correct_Trials_2_Back_Body	ACC_0_Back_Body	Avg_RT_For_Correct_Trials_0_Back_Body	ACC_2_Back_Face	Avg_RT_For_Correct_Trials_2_Back_Face	ACC_0_Back_Face	Avg_RT_For_Correct_Trials_0_Back_Face	ACC_2_Back_Place	Avg_RT_For_Correct_Trials_2_Back_Place	ACC_0_Back_Place	Avg_RT_For_Correct_Trials_0_Back_Place	ACC_2_Back_Tools	Avg_RT_For_Correct_Trials_2_Back_Tools	ACC_0_Back_Tools	Avg_RT_For_Correct_Trials_0_Back_Tools	ExpInstrucFeelFreeToRest.OnsetDelay	ExpInstrucFeelFreeToRest.OnsetTime	ExpInstrucFeelFreeToRest.DurationError	ExpInstrucFeelFreeToRest.StartTime	ExpInstrucFeelFreeToRest.OnsetToOnsetTime	FeelFreeToRest.OnsetDelay	FeelFreeToRest.OnsetTime	FeelFreeToRest.DurationError	FeelFreeToRest.StartTime	FeelFreeToRest.OnsetToOnsetTime	SessionSelectionList	Procedure[Block]	Stimulus[Block]	RunNumberFilterValue	SessionSelectionList.Cycle	SessionSelectionList.Sample	Running[Block]	IntroButtonMap.OnsetDelay	IntroButtonMap.OnsetTime	IntroButtonMap.DurationError	IntroButtonMap.OnsetToOnsetTime	GetReady.OnsetDelay	GetReady.OnsetTime	GetReady.DurationError	GetReady.OnsetToOnsetTime	Cue2Back.OnsetDelay	Cue2Back.OnsetTime	Cue2Back.DurationError	Cue2Back.OnsetToOnsetTime	Run1Block1	TargetType	CorrectResponse	StimType	BlockType	RunTrialNumber[Block]	TrialsPerRun[Block]	TotalRespGreater200[Block]	ConsecRTLess200[Block]	ConsecNonResp[Block]	ControlAcc	ConsecSameResp	ExperimenterWindow.OnsetDelay	ExperimenterWindow.OnsetTime	ExperimenterWindow.DurationError	ExperimenterWindow.OnsetToOnsetTime	Stim.OnsetDelay	Stim.OnsetTime	Stim.DurationError	Stim.RTTime	Stim.ACC	Stim.RT	Stim.RESP	Stim.CRESP	Stim.OnsetToOnsetTime	Fix.OnsetDelay	Fix.OnsetTime	Fix.DurationError	Fix.OnsetToOnsetTime	CueTarget.OnsetDelay	CueTarget.OnsetTime	CueTarget.DurationError	CueTarget.OnsetToOnsetTime	Run1Block2	Fix15sec.OnsetDelay	Fix15sec.OnsetTime	Fix15sec.DurationError	Fix15sec.OnsetToOnsetTime	Run1Block3	Run1Block4	Run1Block5	Run1Block6	Run1Block7	Run1Block8	Block	Procedure[Trial]	Stimulus[Trial]	ReadyList	Running[Trial]	ReadyList.Cycle	ReadyList.Sample	SyncSlide.OnsetDelay	SyncSlide.OnsetTime	SyncSlide.DurationError	SyncSlide.FinishTime	SyncSlide.OnsetToOnsetTime	Trial
WM080112	128632_fnca	2	1	1	-1751064318	1	75.031	75.005	2.0.10.147	2.0.10.242	2.0.10.242	1.0.0.439	7	234	2	3	Verdana	1	80	0	0	0	WM Stimuli\	0.8	1362.875	0.9	934.333333333333	1	1201.6	0.9	738.111111111111	0.9	1145.88888888889	1	771.9	0.7	1162.14285714286	0.9	817	13	319317	3	319305	27	40	319344	-999999	319320	0	22	TRSyncPROC	""	2	2	1	SessionSelectionList	101	8710	-999999	0	41	9777	-999999	0																																																	1	InitialTR	4	1	ReadyList	1	1	17	25783	-18	27765	0	1
WM080112	128632_fnca	2	1	1	-1751064318	1	75.031	75.005	2.0.10.147	2.0.10.242	2.0.10.242	1.0.0.439	7	234	2	3	Verdana	1	80	0	0	0	WM Stimuli\	0.8	1362.875	0.9	934.333333333333	1	1201.6	0.9	738.111111111111	0.9	1145.88888888889	1	771.9	0.7	1162.14285714286	0.9	817	13	319317	3	319305	27	40	319344	-999999	319320	0	22	TRSyncPROC	""	2	2	1	SessionSelectionList	101	8710	-999999	0	41	9777	-999999	0																																																	1	InitialTR	3	2	ReadyList	1	2	17	27783	-18	29765	0	2
WM080112	128632_fnca	2	1	1	-1751064318	1	75.031	75.005	2.0.10.147	2.0.10.242	2.0.10.242	1.0.0.439	7	234	2	3	Verdana	1	80	0	0	0	WM Stimuli\	0.8	1362.875	0.9	934.333333333333	1	1201.6	0.9	738.111111111111	0.9	1145.88888888889	1	771.9	0.7	1162.14285714286	0.9	817	13	319317	3	319305	27	40	319344	-999999	319320	0	22	TRSyncPROC	""	2	2	1	SessionSelectionList	101	8710	-999999	0	41	9777	-999999	0																																																	1	InitialTR	2	3	ReadyList	1	3	16	29782	-17	31765	0	3
WM080112	128632_fnca	2	1	1	-1751064318	1	75.031	75.005	2.0.10.147	2.0.10.242	2.0.10.242	1.0.0.439	7	234	2	3	Verdana	1	80	0	0	0	WM Stimuli\	0.8	1362.875	0.9	934.333333333333	1	1201.6	0.9	738.111111111111	0.9	1145.88888888889	1	771.9	0.7	1162.14285714286	0.9	817	13	319317	3	319305	27	40	319344	-999999	319320	0	22	TRSyncPROC	""	2	2	1	SessionSelectionList	101	8710	-999999	0	41	9777	-999999	0																																																	1	InitialTR	1	4	ReadyList	1	4	15	31781	-16	33765	0	4
WM080112	128632_fnca	2	1	1	-1751064318	1	75.031	75.005	2.0.10.147	2.0.10.242	2.0.10.242	1.0.0.439	7	234	2	3	Verdana	1	80	0	0	0	WM Stimuli\	0.8	1362.875	0.9	934.333333333333	1	1201.6	0.9	738.111111111111	0.9	1145.88888888889	1	771.9	0.7	1162.14285714286	0.9	817	13	319317	3	319305	27	40	319344	-999999	319320	0	23	Cue2BackPROC	""	2	2	2	SessionSelectionList									14	33780	-15	0																																													2												
WM080112	128632_fnca	2	1	1	-1751064318	1	75.031	75.005	2.0.10.147	2.0.10.242	2.0.10.242	1.0.0.439	7	234	2	3	Verdana	1	80	0	0	0	WM Stimuli\	0.8	1362.875	0.9	934.333333333333	1	1201.6	0.9	738.111111111111	0.9	1145.88888888889	1	771.9	0.7	1162.14285714286	0.9	817	13	319317	3	319305	27	40	319344	-999999	319320	0	24	TrialsPROC	TO_014_TOOL14_BA.png	2	2	3	SessionSelectionList														nonlure	3	Tools	2-Back	2	80	1	0	0	0	1	53	38392	3	13	73	36339	-1	37318	0	979	2	3	2053	66	38405	-67	0																3												
WM080112	128632_fnca	2	1	1	-1751064318	1	75.031	75.005	2.0.10.147	2.0.10.242	2.0.10.242	1.0.0.439	7	234	2	3	Verdana	1	80	0	0	0	WM Stimuli\	0.8	1362.875	0.9	934.333333333333	1	1201.6	0.9	738.111111111111	0.9	1145.88888888889	1	771.9	0.7	1162.14285714286	0.9	817	13	319317	3	319305	27	40	319344	-999999	319320	0	24	TrialsPROC	TO_013_TOOL13_BA.png	2	2	4	SessionSelectionList														nonlure	3	Tools	2-Back	3	80	2	0	0	0	2	39	40937	3	14	59	38898	-1	39794	0	896	2	3	2039	53	40951	-54	0																4												
WM080112	128632_fnca	2	1	1	-1751064318	1	75.031	75.005	2.0.10.147	2.0.10.242	2.0.10.242	1.0.0.439	7	234	2	3	Verdana	1	80	0	0	0	WM Stimuli\	0.8	1362.875	0.9	934.333333333333	1	1201.6	0.9	738.111111111111	0.9	1145.88888888889	1	771.9	0.7	1162.14285714286	0.9	817	13	319317	3	319305	27	40	319344	-999999	319320	0	24	TrialsPROC	TO_016_TOOL16_BA.png	2	2	5	SessionSelectionList														nonlure	3	Tools	2-Back	4	80	3	0	0	0	1	40	43510	1	13	72	41470	-1	42805	1	1335	3	3	2040	53	43523	-54	0																5												
WM080112	128632_fnca	2	1	1	-1751064318	1	75.031	75.005	2.0.10.147	2.0.10.242	2.0.10.242	1.0.0.439	7	234	2	3	Verdana	1	80	0	0	0	WM Stimuli\	0.8	1362.875	0.9	934.333333333333	1	1201.6	0.9	738.111111111111	0.9	1145.88888888889	1	771.9	0.7	1162.14285714286	0.9	817	13	319317	3	319305	27	40	319344	-999999	319320	0	24	TrialsPROC	TO_014_TOOL14_BA.png	2	2	6	SessionSelectionList														lure	3	Tools	2-Back	5	80	4	0	0	0	2	39	46082	1	13	73	44043	-1	45780	1	1737	3	3	2039	52	46095	-53	0																6												
WM080112	128632_fnca	2	1	1	-1751064318	1	75.031	75.005	2.0.10.147	2.0.10.242	2.0.10.242	1.0.0.439	7	234	2	3	Verdana	1	80	0	0	0	WM Stimuli\	0.8	1362.875	0.9	934.333333333333	1	1201.6	0.9	738.111111111111	0.9	1145.88888888889	1	771.9	0.7	1162.14285714286	0.9	817	13	319317	3	319305	27	40	319344	-999999	319320	0	24	TrialsPROC	TO_016_TOOL16_BA.png	2	2	7	SessionSelectionList														target	2	Tools	2-Back	6	80	5	0	0	0	1	39	48641	1	13	59	46602	-1	47734	1	1132	2	2	2039	52	48654	-53	0																7												
WM080112	128632_fnca	2	1	1	-1751064318	1	75.031	75.005	2.0.10.147	2.0.10.242	2.0.10.242	1.0.0.439	7	234	2	3	Verdana	1	80	0	0	0	WM Stimuli\	0.8	1362.875	0.9	934.333333333333	1	1201.6	0.9	738.111111111111	0.9	1145.88888888889	1	771.9	0.7	1162.14285714286	0.9	817	13	319317	3	319305	27	40	319344	-999999	319320	0	24	TrialsPROC	TO_018_TOOL18_BA.png	2	2	8	SessionSelectionList														nonlure	3	Tools	2-Back	7	80	6	0	0	0	1	39	51213	1	13	72	49174	-1	50497	1	1323	3	3	2039	52	51226	-53	0																8												
WM080112	128632_fnca	2	1	1	-1751064318	1	75.031	75.005	2.0.10.147	2.0.10.242	2.0.10.242	1.0.0.439	7	234	2	3	Verdana	1	80	0	0	0	WM Stimuli\	0.8	1362.875	0.9	934.333333333333	1	1201.6	0.9	738.111111111111	0.9	1145.88888888889	1	771.9	0.7	1162.14285714286	0.9	817	13	319317	3	319305	27	40	319344	-999999	319320	0	24	TrialsPROC	TO_017_TOOL17_BA.png	2	2	9	SessionSelectionList														nonlure	3	Tools	2-Back	8	80	7	0	0	0	2	39	53785	2	14	72	51746	-1	52532	1	786	3	3	2039	53	53799	-54	0																9												
WM080112	128632_fnca	2	1	1	-1751064318	1	75.031	75.005	2.0.10.147	2.0.10.242	2.0.10.242	1.0.0.439	7	234	2	3	Verdana	1	80	0	0	0	WM Stimuli\	0.8	1362.875	0.9	934.333333333333	1	1201.6	0.9	738.111111111111	0.9	1145.88888888889	1	771.9	0.7	1162.14285714286	0.9	817	13	319317	3	319305	27	40	319344	-999999	319320	0	24	TrialsPROC	TO_018_TOOL18_BA.png	2	2	10	SessionSelectionList														target	2	Tools	2-Back	9	80	8	0	0	0	1	39	56344	2	14	59	54305	-1	55193	1	888	2	2	2039	53	56358	-54	0																10												
WM080112	128632_fnca	2	1	1	-1751064318	1	75.031	75.005	2.0.10.147	2.0.10.242	2.0.10.242	1.0.0.439	7	234	2	3	Verdana	1	80	0	0	0	WM Stimuli\	0.8	1362.875	0.9	934.333333333333	1	1201.6	0.9	738.111111111111	0.9	1145.88888888889	1	771.9	0.7	1162.14285714286	0.9	817	13	319317	3	319305	27	40	319344	-999999	319320	0	24	TrialsPROC	TO_015_TOOL15_BA.png	2	2	11	SessionSelectionList														nonlure	3	Tools	2-Back	10	80	9	0	0	0	1	39	58903	2	14	59	56864	-1	57798	1	934	3	3	2039	53	58917	-54	0																11												
WM080112	128632_fnca	2	1	1	-1751064318	1	75.031	75.005	2.0.10.147	2.0.10.242	2.0.10.242	1.0.0.439	7	234	2	3	Verdana	1	80	0	0	0	WM Stimuli\	0.8	1362.875	0.9	934.333333333333	1	1201.6	0.9	738.111111111111	0.9	1145.88888888889	1	771.9	0.7	1162.14285714286	0.9	817	13	319317	3	319305	27	40	319344	-999999	319320	0	24	TrialsPROC	TO_017_TOOL17_BA.png	2	2	12	SessionSelectionList														lure	3	Tools	2-Back	11	80	9	0	1	0	1	39	61462	2	14	59	59423	-1	0	0	0	""	3	2039	53	61476	-54	0																12												
WM080112	128632_fnca	2	1	1	-1751064318	1	75.031	75.005	2.0.10.147	2.0.10.242	2.0.10.242	1.0.0.439	7	234	2	3	Verdana	1	80	0	0	0	WM Stimuli\	0.8	1362.875	0.9	934.333333333333	1	1201.6	0.9	738.111111111111	0.9	1145.88888888889	1	771.9	0.7	1162.14285714286	0.9	817	13	319317	3	319305	27	40	319344	-999999	319320	0	25	Cue0BackPROC	BP_013_BP7_BA.png	2	2	13	SessionSelectionList																																										19	61942	-20	0												13												
WM080112	128632_fnca	2	1	1	-1751064318	1	75.031	75.005	2.0.10.147	2.0.10.242	2.0.10.242	1.0.0.439	7	234	2	3	Verdana	1	80	0	0	0	WM Stimuli\	0.8	1362.875	0.9	934.333333333333	1	1201.6	0.9	738.111111111111	0.9	1145.88888888889	1	771.9	0.7	1162.14285714286	0.9	817	13	319317	3	319305	27	40	319344	-999999	319320	0	26	TrialsPROC	BP_015_H10-T_BA.png	2	2	14	SessionSelectionList														nonlure	3	Body	0-Back	12	80	10	0	0	100	1	39	66527	1	13	65	64488	-1	65683	1	1195	3	3	2039	52	66540	-53	0																14												
WM080112	128632_fnca	2	1	1	-1751064318	1	75.031	75.005	2.0.10.147	2.0.10.242	2.0.10.242	1.0.0.439	7	234	2	3	Verdana	1	80	0	0	0	WM Stimuli\	0.8	1362.875	0.9	934.333333333333	1	1201.6	0.9	738.111111111111	0.9	1145.88888888889	1	771.9	0.7	1162.14285714286	0.9	817	13	319317	3	319305	27	40	319344	-999999	319320	0	26	TrialsPROC	BP_018_H13-T_BA.png	2	2	15	SessionSelectionList														nonlure	3	Body	0-Back	13	80	11	0	0	100	2	39	69099	1	14	72	67060	-1	67724	1	664	3	3	2039	53	69113	-54	0																15												
WM080112	128632_fnca	2	1	1	-1751064318	1	75.031	75.005	2.0.10.147	2.0.10.242	2.0.10.242	1.0.0.439	7	234	2	3	Verdana	1	80	0	0	0	WM Stimuli\	0.8	1362.875	0.9	934.333333333333	1	1201.6	0.9	738.111111111111	0.9	1145.88888888889	1	771.9	0.7	1162.14285714286	0.9	817	13	319317	3	319305	27	40	319344	-999999	319320	0	26	TrialsPROC	BP_014_BP9_BA.png	2	2	16	SessionSelectionList														nonlure	3	Body	0-Back	14	80	12	0	0	67	1	39	71658	1	13	59	69619	-1	71100	0	1481	2	3	2039	52	71671	-53	0																16												
WM080112	128632_fnca	2	1	1	-1751064318	1	75.031	75.005	2.0.10.147	2.0.10.242	2.0.10.242	1.0.0.439	7	234	2	3	Verdana	1	80	0	0	0	WM Stimuli\	0.8	1362.875	0.9	934.333333333333	1	1201.6	0.9	738.111111111111	0.9	1145.88888888889	1	771.9	0.7	1162.14285714286	0.9	817	13	319317	3	319305	27	40	319344	-999999	319320	0	26	TrialsPROC	BP_018_H13-T_BA.png	2	2	17	SessionSelectionList														lure	3	Body	0-Back	15	80	13	0	0	75	1	39	74217	1	13	59	72178	-1	72802	1	624	3	3	2039	52	74230	-53	0																17												
WM080112	128632_fnca	2	1	1	-1751064318	1	75.031	75.005	2.0.10.147	2.0.10.242	2.0.10.242	1.0.0.439	7	234	2	3	Verdana	1	80	0	0	0	WM Stimuli\	0.8	1362.875	0.9	934.333333333333	1	1201.6	0.9	738.111111111111	0.9	1145.88888888889	1	771.9	0.7	1162.14285714286	0.9	817	13	319317	3	319305	27	40	319344	-999999	319320	0	26	TrialsPROC	BP_013_BP7_BA.png	2	2	18	SessionSelectionList														target	2	Body	0-Back	16	80	14	0	0	80	1	39	76776	1	13	59	74737	-1	75590	1	853	2	2	2039	52	76789	-53	0																18												
WM080112	128632_fnca	2	1	1	-1751064318	1	75.031	75.005	2.0.10.147	2.0.10.242	2.0.10.242	1.0.0.439	7	234	2	3	Verdana	1	80	0	0	0	WM Stimuli\	0.8	1362.875	0.9	934.333333333333	1	1201.6	0.9	738.111111111111	0.9	1145.88888888889	1	771.9	0.7	1162.14285714286	0.9	817	13	319317	3	319305	27	40	319344	-999999	319320	0	26	TrialsPROC	BP_015_H10-T_BA.png	2	2	19	SessionSelectionList														lure	3	Body	0-Back	17	80	15	0	0	83	1	39	79335	1	13	59	77296	-1	78028	1	732	3	3	2039	52	79348	-53	0																19												
WM080112	128632_fnca	2	1	1	-1751064318	1	75.031	75.005	2.0.10.147	2.0.10.242	2.0.10.242	1.0.0.439	7	234	2	3	Verdana	1	80	0	0	0	WM Stimuli\	0.8	1362.875	0.9	934.333333333333	1	1201.6	0.9	738.111111111111	0.9	1145.88888888889	1	771.9	0.7	1162.14285714286	0.9	817	13	319317	3	319305	27	40	319344	-999999	319320	0	26	TrialsPROC	BP_016_H11-T_BA.png	2	2	20	SessionSelectionList														nonlure	3	Body	0-Back	18	80	16	0	0	86	2	39	81907	2	14	72	79868	-1	81024	1	1156	3	3	2039	53	81921	-54	0																20												
WM080112	128632_fnca	2	1	1	-1751064318	1	75.031	75.005	2.0.10.147	2.0.10.242	2.0.10.242	1.0.0.439	7	234	2	3	Verdana	1	80	0	0	0	WM Stimuli\	0.8	1362.875	0.9	934.333333333333	1	1201.6	0.9	738.111111111111	0.9	1145.88888888889	1	771.9	0.7	1162.14285714286	0.9	817	13	319317	3	319305	27	40	319344	-999999	319320	0	26	TrialsPROC	BP_013_BP7_BA.png	2	2	21	SessionSelectionList														target	2	Body	0-Back	19	80	17	0	0	88	1	39	84466	2	14	59	82427	-1	83711	1	1284	2	2	2039	53	84480	-54	0																21												
WM080112	128632_fnca	2	1	1	-1751064318	1	75.031	75.005	2.0.10.147	2.0.10.242	2.0.10.242	1.0.0.439	7	234	2	3	Verdana	1	80	0	0	0	WM Stimuli\	0.8	1362.875	0.9	934.333333333333	1	1201.6	0.9	738.111111111111	0.9	1145.88888888889	1	771.9	0.7	1162.14285714286	0.9	817	13	319317	3	319305	27	40	319344	-999999	319320	0	26	TrialsPROC	BP_017_H12-T_BA.png	2	2	22	SessionSelectionList														nonlure	3	Body	0-Back	20	80	18	0	0	89	1	39	87025	2	14	59	84986	-1	85758	1	772	3	3	2039	53	87039	-54	0																22												
WM080112	128632_fnca	2	1	1	-1751064318	1	75.031	75.005	2.0.10.147	2.0.10.242	2.0.10.242	1.0.0.439	7	234	2	3	Verdana	1	80	0	0	0	WM Stimuli\	0.8	1362.875	0.9	934.333333333333	1	1201.6	0.9	738.111111111111	0.9	1145.88888888889	1	771.9	0.7	1162.14285714286	0.9	817	13	319317	3	319305	27	40	319344	-999999	319320	0	26	TrialsPROC	BP_014_BP9_BA.png	2	2	23	SessionSelectionList														lure	3	Body	0-Back	21	80	19	0	0	90	2	39	89584	1	14	59	87545	-1	88674	1	1129	3	3	2039	53	89598	-54	0																23												
WM080112	128632_fnca	2	1	1	-1751064318	1	75.031	75.005	2.0.10.147	2.0.10.242	2.0.10.242	1.0.0.439	7	234	2	3	Verdana	1	80	0	0	0	WM Stimuli\	0.8	1362.875	0.9	934.333333333333	1	1201.6	0.9	738.111111111111	0.9	1145.88888888889	1	771.9	0.7	1162.14285714286	0.9	817	13	319317	3	319305	27	40	319344	-999999	319320	0	27	Fix15secPROC	""	2	2	24	SessionSelectionList																																															6	90051	-7	0							24												
WM080112	128632_fnca	2	1	1	-1751064318	1	75.031	75.005	2.0.10.147	2.0.10.242	2.0.10.242	1.0.0.439	7	234	2	3	Verdana	1	80	0	0	0	WM Stimuli\	0.8	1362.875	0.9	934.333333333333	1	1201.6	0.9	738.111111111111	0.9	1145.88888888889	1	771.9	0.7	1162.14285714286	0.9	817	13	319317	3	319305	27	40	319344	-999999	319320	0	28	Cue2BackPROC	""	2	2	25	SessionSelectionList									13	105058	-14	0																																													25												
WM080112	128632_fnca	2	1	1	-1751064318	1	75.031	75.005	2.0.10.147	2.0.10.242	2.0.10.242	1.0.0.439	7	234	2	3	Verdana	1	80	0	0	0	WM Stimuli\	0.8	1362.875	0.9	934.333333333333	1	1201.6	0.9	738.111111111111	0.9	1145.88888888889	1	771.9	0.7	1162.14285714286	0.9	817	13	319317	3	319305	27	40	319344	-999999	319320	0	29	TrialsPROC	FC_015_M8.png	2	2	26	SessionSelectionList														nonlure	3	Face	2-Back	22	80	20	0	0	90	3	39	109656	1	13	72	107617	-1	108190	1	573	3	3	2039	52	109669	-53	0																26												
WM080112	128632_fnca	2	1	1	-1751064318	1	75.031	75.005	2.0.10.147	2.0.10.242	2.0.10.242	1.0.0.439	7	234	2	3	Verdana	1	80	0	0	0	WM Stimuli\	0.8	1362.875	0.9	934.333333333333	1	1201.6	0.9	738.111111111111	0.9	1145.88888888889	1	771.9	0.7	1162.14285714286	0.9	817	13	319317	3	319305	27	40	319344	-999999	319320	0	29	TrialsPROC	FC_018_F9.png	2	2	27	SessionSelectionList														nonlure	3	Face	2-Back	23	80	21	0	0	90	4	39	112228	2	14	72	110189	-1	111215	1	1026	3	3	2039	53	112242	-54	0																27												
WM080112	128632_fnca	2	1	1	-1751064318	1	75.031	75.005	2.0.10.147	2.0.10.242	2.0.10.242	1.0.0.439	7	234	2	3	Verdana	1	80	0	0	0	WM Stimuli\	0.8	1362.875	0.9	934.333333333333	1	1201.6	0.9	738.111111111111	0.9	1145.88888888889	1	771.9	0.7	1162.14285714286	0.9	817	13	319317	3	319305	27	40	319344	-999999	319320	0	29	TrialsPROC	FC_018_F9.png	2	2	28	SessionSelectionList														lure	3	Face	2-Back	24	80	22	0	0	90	5	39	114800	2	14	72	112761	-1	113829	1	1068	3	3	2039	53	114814	-54	0																28												
WM080112	128632_fnca	2	1	1	-1751064318	1	75.031	75.005	2.0.10.147	2.0.10.242	2.0.10.242	1.0.0.439	7	234	2	3	Verdana	1	80	0	0	0	WM Stimuli\	0.8	1362.875	0.9	934.333333333333	1	1201.6	0.9	738.111111111111	0.9	1145.88888888889	1	771.9	0.7	1162.14285714286	0.9	817	13	319317	3	319305	27	40	319344	-999999	319320	0	29	TrialsPROC	FC_017_M9.png	2	2	29	SessionSelectionList														nonlure	3	Face	2-Back	25	80	23	0	0	90	6	39	117373	1	13	73	115334	-1	116837	1	1503	3	3	2039	52	117386	-53	0																29												
WM080112	128632_fnca	2	1	1	-1751064318	1	75.031	75.005	2.0.10.147	2.0.10.242	2.0.10.242	1.0.0.439	7	234	2	3	Verdana	1	80	0	0	0	WM Stimuli\	0.8	1362.875	0.9	934.333333333333	1	1201.6	0.9	738.111111111111	0.9	1145.88888888889	1	771.9	0.7	1162.14285714286	0.9	817	13	319317	3	319305	27	40	319344	-999999	319320	0	29	TrialsPROC	FC_017_M9.png	2	2	30	SessionSelectionList														lure	3	Face	2-Back	26	80	24	0	0	90	7	39	119945	1	13	72	117906	-1	119582	1	1676	3	3	2039	52	119958	-53	0																30												
WM080112	128632_fnca	2	1	1	-1751064318	1	75.031	75.005	2.0.10.147	2.0.10.242	2.0.10.242	1.0.0.439	7	234	2	3	Verdana	1	80	0	0	0	WM Stimuli\	0.8	1362.875	0.9	934.333333333333	1	1201.6	0.9	738.111111111111	0.9	1145.88888888889	1	771.9	0.7	1162.14285714286	0.9	817	13	319317	3	319305	27	40	319344	-999999	319320	0	29	TrialsPROC	FC_016_F8.png	2	2	31	SessionSelectionList														nonlure	3	Face	2-Back	27	80	25	0	0	90	8	39	122517	2	14	72	120478	-1	121928	1	1450	3	3	2039	53	122531	-54	0																31												
WM080112	128632_fnca	2	1	1	-1751064318	1	75.031	75.005	2.0.10.147	2.0.10.242	2.0.10.242	1.0.0.439	7	234	2	3	Verdana	1	80	0	0	0	WM Stimuli\	0.8	1362.875	0.9	934.333333333333	1	1201.6	0.9	738.111111111111	0.9	1145.88888888889	1	771.9	0.7	1162.14285714286	0.9	817	13	319317	3	319305	27	40	319344	-999999	319320	0	29	TrialsPROC	FC_013_M7.png	2	2	32	SessionSelectionList														nonlure	3	Face	2-Back	28	80	26	0	0	90	9	40	125090	1	13	72	123050	-1	124173	1	1123	3	3	2040	53	125103	-54	0																32												
WM080112	128632_fnca	2	1	1	-1751064318	1	75.031	75.005	2.0.10.147	2.0.10.242	2.0.10.242	1.0.0.439	7	234	2	3	Verdana	1	80	0	0	0	WM Stimuli\	0.8	1362.875	0.9	934.333333333333	1	1201.6	0.9	738.111111111111	0.9	1145.88888888889	1	771.9	0.7	1162.14285714286	0.9	817	13	319317	3	319305	27	40	319344	-999999	319320	0	29	TrialsPROC	FC_014_F7.png	2	2	33	SessionSelectionList														nonlure	3	Face	2-Back	29	80	27	0	0	90	10	39	127662	1	13	73	125623	-1	126893	1	1270	3	3	2039	52	127675	-53	0																33												
WM080112	128632_fnca	2	1	1	-1751064318	1	75.031	75.005	2.0.10.147	2.0.10.242	2.0.10.242	1.0.0.439	7	234	2	3	Verdana	1	80	0	0	0	WM Stimuli\	0.8	1362.875	0.9	934.333333333333	1	1201.6	0.9	738.111111111111	0.9	1145.88888888889	1	771.9	0.7	1162.14285714286	0.9	817	13	319317	3	319305	27	40	319344	-999999	319320	0	29	TrialsPROC	FC_013_M7.png	2	2	34	SessionSelectionList														target	2	Face	2-Back	30	80	28	0	0	90	1	39	130234	2	14	72	128195	-1	129409	1	1214	2	2	2039	53	130248	-54	0																34												
WM080112	128632_fnca	2	1	1	-1751064318	1	75.031	75.005	2.0.10.147	2.0.10.242	2.0.10.242	1.0.0.439	7	234	2	3	Verdana	1	80	0	0	0	WM Stimuli\	0.8	1362.875	0.9	934.333333333333	1	1201.6	0.9	738.111111111111	0.9	1145.88888888889	1	771.9	0.7	1162.14285714286	0.9	817	13	319317	3	319305	27	40	319344	-999999	319320	0	29	TrialsPROC	FC_014_F7.png	2	2	35	SessionSelectionList														target	2	Face	2-Back	31	80	29	0	0	90	2	39	132806	2	14	72	130767	-1	131880	1	1113	2	2	2039	53	132820	-54	0																35												
WM080112	128632_fnca	2	1	1	-1751064318	1	75.031	75.005	2.0.10.147	2.0.10.242	2.0.10.242	1.0.0.439	7	234	2	3	Verdana	1	80	0	0	0	WM Stimuli\	0.8	1362.875	0.9	934.333333333333	1	1201.6	0.9	738.111111111111	0.9	1145.88888888889	1	771.9	0.7	1162.14285714286	0.9	817	13	319317	3	319305	27	40	319344	-999999	319320	0	30	Cue0BackPROC	TO_019_TOOL19_BA.png	2	2	36	SessionSelectionList																																										19	133286	-20	0												36												
WM080112	128632_fnca	2	1	1	-1751064318	1	75.031	75.005	2.0.10.147	2.0.10.242	2.0.10.242	1.0.0.439	7	234	2	3	Verdana	1	80	0	0	0	WM Stimuli\	0.8	1362.875	0.9	934.333333333333	1	1201.6	0.9	738.111111111111	0.9	1145.88888888889	1	771.9	0.7	1162.14285714286	0.9	817	13	319317	3	319305	27	40	319344	-999999	319320	0	31	TrialsPROC	TO_019_TOOL19_BA.png	2	2	37	SessionSelectionList														target	2	Tools	0-Back	32	80	29	0	1	82	2	39	137858	1	13	52	135819	-1	0	0	0	""	2	2039	52	137871	-53	0																37												
WM080112	128632_fnca	2	1	1	-1751064318	1	75.031	75.005	2.0.10.147	2.0.10.242	2.0.10.242	1.0.0.439	7	234	2	3	Verdana	1	80	0	0	0	WM Stimuli\	0.8	1362.875	0.9	934.333333333333	1	1201.6	0.9	738.111111111111	0.9	1145.88888888889	1	771.9	0.7	1162.14285714286	0.9	817	13	319317	3	319305	27	40	319344	-999999	319320	0	31	TrialsPROC	TO_024_TOOL24_BA.png	2	2	38	SessionSelectionList														nonlure	3	Tools	0-Back	33	80	30	0	0	83	1	39	140417	1	13	59	138378	-1	139176	1	798	3	3	2039	52	140430	-53	0																38												
WM080112	128632_fnca	2	1	1	-1751064318	1	75.031	75.005	2.0.10.147	2.0.10.242	2.0.10.242	1.0.0.439	7	234	2	3	Verdana	1	80	0	0	0	WM Stimuli\	0.8	1362.875	0.9	934.333333333333	1	1201.6	0.9	738.111111111111	0.9	1145.88888888889	1	771.9	0.7	1162.14285714286	0.9	817	13	319317	3	319305	27	40	319344	-999999	319320	0	31	TrialsPROC	TO_019_TOOL19_BA.png	2	2	39	SessionSelectionList														target	2	Tools	0-Back	34	80	31	0	0	85	1	40	142976	1	13	58	140936	-1	141640	1	704	2	2	2040	53	142989	-54	0																39												
WM080112	128632_fnca	2	1	1	-1751064318	1	75.031	75.005	2.0.10.147	2.0.10.242	2.0.10.242	1.0.0.439	7	234	2	3	Verdana	1	80	0	0	0	WM Stimuli\	0.8	1362.875	0.9	934.333333333333	1	1201.6	0.9	738.111111111111	0.9	1145.88888888889	1	771.9	0.7	1162.14285714286	0.9	817	13	319317	3	319305	27	40	319344	-999999	319320	0	31	TrialsPROC	TO_023_TOOL23_BA.png	2	2	40	SessionSelectionList														nonlure	3	Tools	0-Back	35	80	32	0	0	86	1	39	145535	1	13	60	143496	-1	144278	1	782	3	3	2039	52	145548	-53	0																40												
WM080112	128632_fnca	2	1	1	-1751064318	1	75.031	75.005	2.0.10.147	2.0.10.242	2.0.10.242	1.0.0.439	7	234	2	3	Verdana	1	80	0	0	0	WM Stimuli\	0.8	1362.875	0.9	934.333333333333	1	1201.6	0.9	738.111111111111	0.9	1145.88888888889	1	771.9	0.7	1162.14285714286	0.9	817	13	319317	3	319305	27	40	319344	-999999	319320	0	31	TrialsPROC	TO_020_TOOL20_BA.png	2	2	41	SessionSelectionList														nonlure	3	Tools	0-Back	36	80	33	0	0	87	2	40	148094	1	13	58	146054	-1	146833	1	779	3	3	2040	53	148107	-54	0																41												
WM080112	128632_fnca	2	1	1	-1751064318	1	75.031	75.005	2.0.10.147	2.0.10.242	2.0.10.242	1.0.0.439	7	234	2	3	Verdana	1	80	0	0	0	WM Stimuli\	0.8	1362.875	0.9	934.333333333333	1	1201.6	0.9	738.111111111111	0.9	1145.88888888889	1	771.9	0.7	1162.14285714286	0.9	817	13	319317	3	319305	27	40	319344	-999999	319320	0	31	TrialsPROC	TO_020_TOOL20_BA.png	2	2	42	SessionSelectionList														lure	3	Tools	0-Back	37	80	34	0	0	88	3	40	150653	1	13	59	148613	-1	149340	1	727	3	3	2040	53	150666	-54	0																42												
WM080112	128632_fnca	2	1	1	-1751064318	1	75.031	75.005	2.0.10.147	2.0.10.242	2.0.10.242	1.0.0.439	7	234	2	3	Verdana	1	80	0	0	0	WM Stimuli\	0.8	1362.875	0.9	934.333333333333	1	1201.6	0.9	738.111111111111	0.9	1145.88888888889	1	771.9	0.7	1162.14285714286	0.9	817	13	319317	3	319305	27	40	319344	-999999	319320	0	31	TrialsPROC	TO_022_TOOL22_BA.png	2	2	43	SessionSelectionList														nonlure	3	Tools	0-Back	38	80	35	0	0	88	4	40	153212	1	13	59	151172	-1	152378	1	1206	3	3	2040	53	153225	-54	0																43												
WM080112	128632_fnca	2	1	1	-1751064318	1	75.031	75.005	2.0.10.147	2.0.10.242	2.0.10.242	1.0.0.439	7	234	2	3	Verdana	1	80	0	0	0	WM Stimuli\	0.8	1362.875	0.9	934.333333333333	1	1201.6	0.9	738.111111111111	0.9	1145.88888888889	1	771.9	0.7	1162.14285714286	0.9	817	13	319317	3	319305	27	40	319344	-999999	319320	0	31	TrialsPROC	TO_022_TOOL22_BA.png	2	2	44	SessionSelectionList														lure	3	Tools	0-Back	39	80	36	0	0	89	5	39	155770	2	14	59	153731	-1	154496	1	765	3	3	2039	53	155784	-54	0																44												
WM080112	128632_fnca	2	1	1	-1751064318	1	75.031	75.005	2.0.10.147	2.0.10.242	2.0.10.242	1.0.0.439	7	234	2	3	Verdana	1	80	0	0	0	WM Stimuli\	0.8	1362.875	0.9	934.333333333333	1	1201.6	0.9	738.111111111111	0.9	1145.88888888889	1	771.9	0.7	1162.14285714286	0.9	817	13	319317	3	319305	27	40	319344	-999999	319320	0	31	TrialsPROC	TO_021_TOOL21_BA.png	2	2	45	SessionSelectionList														nonlure	3	Tools	0-Back	40	80	37	0	0	89	6	39	158329	2	14	59	156290	-1	157022	1	732	3	3	2039	53	158343	-54	0																45												
WM080112	128632_fnca	2	1	1	-1751064318	1	75.031	75.005	2.0.10.147	2.0.10.242	2.0.10.242	1.0.0.439	7	234	2	3	Verdana	1	80	0	0	0	WM Stimuli\	0.8	1362.875	0.9	934.333333333333	1	1201.6	0.9	738.111111111111	0.9	1145.88888888889	1	771.9	0.7	1162.14285714286	0.9	817	13	319317	3	319305	27	40	319344	-999999	319320	0	31	TrialsPROC	TO_021_TOOL21_BA.png	2	2	46	SessionSelectionList														lure	3	Tools	0-Back	41	80	38	0	0	90	7	39	160888	2	14	59	158849	-1	159709	1	860	3	3	2039	53	160902	-54	0																46												
WM080112	128632_fnca	2	1	1	-1751064318	1	75.031	75.005	2.0.10.147	2.0.10.242	2.0.10.242	1.0.0.439	7	234	2	3	Verdana	1	80	0	0	0	WM Stimuli\	0.8	1362.875	0.9	934.333333333333	1	1201.6	0.9	738.111111111111	0.9	1145.88888888889	1	771.9	0.7	1162.14285714286	0.9	817	13	319317	3	319305	27	40	319344	-999999	319320	0	32	Fix15secPROC	""	2	2	47	SessionSelectionList																																															6	161355	-7	0							47												
WM080112	128632_fnca	2	1	1	-1751064318	1	75.031	75.005	2.0.10.147	2.0.10.242	2.0.10.242	1.0.0.439	7	234	2	3	Verdana	1	80	0	0	0	WM Stimuli\	0.8	1362.875	0.9	934.333333333333	1	1201.6	0.9	738.111111111111	0.9	1145.88888888889	1	771.9	0.7	1162.14285714286	0.9	817	13	319317	3	319305	27	40	319344	-999999	319320	0	33	Cue2BackPROC	""	2	2	48	SessionSelectionList									13	176362	-14	0																																													48												
WM080112	128632_fnca	2	1	1	-1751064318	1	75.031	75.005	2.0.10.147	2.0.10.242	2.0.10.242	1.0.0.439	7	234	2	3	Verdana	1	80	0	0	0	WM Stimuli\	0.8	1362.875	0.9	934.333333333333	1	1201.6	0.9	738.111111111111	0.9	1145.88888888889	1	771.9	0.7	1162.14285714286	0.9	817	13	319317	3	319305	27	40	319344	-999999	319320	0	34	TrialsPROC	BP_020_H17-T_BA.png	2	2	49	SessionSelectionList														nonlure	3	Body	2-Back	42	80	39	0	0	90	8	39	180960	2	14	72	178921	-1	180041	1	1120	3	3	2039	53	180974	-54	0																49												
WM080112	128632_fnca	2	1	1	-1751064318	1	75.031	75.005	2.0.10.147	2.0.10.242	2.0.10.242	1.0.0.439	7	234	2	3	Verdana	1	80	0	0	0	WM Stimuli\	0.8	1362.875	0.9	934.333333333333	1	1201.6	0.9	738.111111111111	0.9	1145.88888888889	1	771.9	0.7	1162.14285714286	0.9	817	13	319317	3	319305	27	40	319344	-999999	319320	0	34	TrialsPROC	BP_019_H14-T_BA.png	2	2	50	SessionSelectionList														nonlure	3	Body	2-Back	43	80	40	0	0	90	9	39	183532	2	14	72	181493	-1	182976	1	1483	3	3	2039	53	183546	-54	0																50												
WM080112	128632_fnca	2	1	1	-1751064318	1	75.031	75.005	2.0.10.147	2.0.10.242	2.0.10.242	1.0.0.439	7	234	2	3	Verdana	1	80	0	0	0	WM Stimuli\	0.8	1362.875	0.9	934.333333333333	1	1201.6	0.9	738.111111111111	0.9	1145.88888888889	1	771.9	0.7	1162.14285714286	0.9	817	13	319317	3	319305	27	40	319344	-999999	319320	0	34	TrialsPROC	BP_020_H17-T_BA.png	2	2	51	SessionSelectionList														target	2	Body	2-Back	44	80	41	0	0	90	10	52	186105	1	13	60	184053	-1	185793	0	1740	3	2	2052	65	186118	-66	0																51												
WM080112	128632_fnca	2	1	1	-1751064318	1	75.031	75.005	2.0.10.147	2.0.10.242	2.0.10.242	1.0.0.439	7	234	2	3	Verdana	1	80	0	0	0	WM Stimuli\	0.8	1362.875	0.9	934.333333333333	1	1201.6	0.9	738.111111111111	0.9	1145.88888888889	1	771.9	0.7	1162.14285714286	0.9	817	13	319317	3	319305	27	40	319344	-999999	319320	0	34	TrialsPROC	BP_019_H14-T_BA.png	2	2	52	SessionSelectionList														target	2	Body	2-Back	45	80	42	0	0	90	1	39	188650	2	14	58	186611	-1	187753	1	1142	2	2	2039	53	188664	-54	0																52												
WM080112	128632_fnca	2	1	1	-1751064318	1	75.031	75.005	2.0.10.147	2.0.10.242	2.0.10.242	1.0.0.439	7	234	2	3	Verdana	1	80	0	0	0	WM Stimuli\	0.8	1362.875	0.9	934.333333333333	1	1201.6	0.9	738.111111111111	0.9	1145.88888888889	1	771.9	0.7	1162.14285714286	0.9	817	13	319317	3	319305	27	40	319344	-999999	319320	0	34	TrialsPROC	BP_024_H3-T_BA.png	2	2	53	SessionSelectionList														nonlure	3	Body	2-Back	46	80	43	0	0	90	1	39	191223	1	13	73	189184	-1	190225	1	1041	3	3	2039	52	191236	-53	0																53												
WM080112	128632_fnca	2	1	1	-1751064318	1	75.031	75.005	2.0.10.147	2.0.10.242	2.0.10.242	1.0.0.439	7	234	2	3	Verdana	1	80	0	0	0	WM Stimuli\	0.8	1362.875	0.9	934.333333333333	1	1201.6	0.9	738.111111111111	0.9	1145.88888888889	1	771.9	0.7	1162.14285714286	0.9	817	13	319317	3	319305	27	40	319344	-999999	319320	0	34	TrialsPROC	BP_024_H3-T_BA.png	2	2	54	SessionSelectionList														lure	3	Body	2-Back	47	80	44	0	0	90	1	39	193782	1	13	59	191743	-1	192811	0	1068	2	3	2039	52	193795	-53	0																54												
WM080112	128632_fnca	2	1	1	-1751064318	1	75.031	75.005	2.0.10.147	2.0.10.242	2.0.10.242	1.0.0.439	7	234	2	3	Verdana	1	80	0	0	0	WM Stimuli\	0.8	1362.875	0.9	934.333333333333	1	1201.6	0.9	738.111111111111	0.9	1145.88888888889	1	771.9	0.7	1162.14285714286	0.9	817	13	319317	3	319305	27	40	319344	-999999	319320	0	34	TrialsPROC	BP_025_H5-T_BA.png	2	2	55	SessionSelectionList														nonlure	3	Body	2-Back	48	80	45	0	0	90	1	39	196341	1	13	59	194302	-1	195745	1	1443	3	3	2039	52	196354	-53	0																55												
WM080112	128632_fnca	2	1	1	-1751064318	1	75.031	75.005	2.0.10.147	2.0.10.242	2.0.10.242	1.0.0.439	7	234	2	3	Verdana	1	80	0	0	0	WM Stimuli\	0.8	1362.875	0.9	934.333333333333	1	1201.6	0.9	738.111111111111	0.9	1145.88888888889	1	771.9	0.7	1162.14285714286	0.9	817	13	319317	3	319305	27	40	319344	-999999	319320	0	34	TrialsPROC	BP_023_H25-T_BA.png	2	2	56	SessionSelectionList														nonlure	3	Body	2-Back	49	80	46	0	0	90	2	40	198900	1	13	58	196860	-1	198354	1	1494	3	3	2040	53	198913	-54	0																56												
WM080112	128632_fnca	2	1	1	-1751064318	1	75.031	75.005	2.0.10.147	2.0.10.242	2.0.10.242	1.0.0.439	7	234	2	3	Verdana	1	80	0	0	0	WM Stimuli\	0.8	1362.875	0.9	934.333333333333	1	1201.6	0.9	738.111111111111	0.9	1145.88888888889	1	771.9	0.7	1162.14285714286	0.9	817	13	319317	3	319305	27	40	319344	-999999	319320	0	34	TrialsPROC	BP_022_H24-T_BA.png	2	2	57	SessionSelectionList														nonlure	3	Body	2-Back	50	80	47	0	0	90	3	39	201472	1	13	73	199433	-1	201160	1	1727	3	3	2039	52	201485	-53	0																57												
WM080112	128632_fnca	2	1	1	-1751064318	1	75.031	75.005	2.0.10.147	2.0.10.242	2.0.10.242	1.0.0.439	7	234	2	3	Verdana	1	80	0	0	0	WM Stimuli\	0.8	1362.875	0.9	934.333333333333	1	1201.6	0.9	738.111111111111	0.9	1145.88888888889	1	771.9	0.7	1162.14285714286	0.9	817	13	319317	3	319305	27	40	319344	-999999	319320	0	34	TrialsPROC	BP_022_H24-T_BA.png	2	2	58	SessionSelectionList														lure	3	Body	2-Back	51	80	48	0	0	90	4	39	204031	1	13	59	201992	-1	203445	1	1453	3	3	2039	52	204044	-53	0																58												
WM080112	128632_fnca	2	1	1	-1751064318	1	75.031	75.005	2.0.10.147	2.0.10.242	2.0.10.242	1.0.0.439	7	234	2	3	Verdana	1	80	0	0	0	WM Stimuli\	0.8	1362.875	0.9	934.333333333333	1	1201.6	0.9	738.111111111111	0.9	1145.88888888889	1	771.9	0.7	1162.14285714286	0.9	817	13	319317	3	319305	27	40	319344	-999999	319320	0	35	Cue2BackPROC	""	2	2	59	SessionSelectionList									5	204497	-6	0																																													59												
WM080112	128632_fnca	2	1	1	-1751064318	1	75.031	75.005	2.0.10.147	2.0.10.242	2.0.10.242	1.0.0.439	7	234	2	3	Verdana	1	80	0	0	0	WM Stimuli\	0.8	1362.875	0.9	934.333333333333	1	1201.6	0.9	738.111111111111	0.9	1145.88888888889	1	771.9	0.7	1162.14285714286	0.9	817	13	319317	3	319305	27	40	319344	-999999	319320	0	36	TrialsPROC	PL_019_SCENE_05.png	2	2	60	SessionSelectionList														nonlure	3	Place	2-Back	52	80	48	0	1	90	4	39	209095	2	14	64	207056	-1	0	0	0	""	3	2039	53	209109	-54	0																60												
WM080112	128632_fnca	2	1	1	-1751064318	1	75.031	75.005	2.0.10.147	2.0.10.242	2.0.10.242	1.0.0.439	7	234	2	3	Verdana	1	80	0	0	0	WM Stimuli\	0.8	1362.875	0.9	934.333333333333	1	1201.6	0.9	738.111111111111	0.9	1145.88888888889	1	771.9	0.7	1162.14285714286	0.9	817	13	319317	3	319305	27	40	319344	-999999	319320	0	36	TrialsPROC	PL_017_SCENE_03.png	2	2	61	SessionSelectionList														nonlure	3	Place	2-Back	53	80	49	0	0	90	1	39	211668	1	13	73	209629	-1	210860	1	1231	3	3	2039	52	211681	-53	0																61												
WM080112	128632_fnca	2	1	1	-1751064318	1	75.031	75.005	2.0.10.147	2.0.10.242	2.0.10.242	1.0.0.439	7	234	2	3	Verdana	1	80	0	0	0	WM Stimuli\	0.8	1362.875	0.9	934.333333333333	1	1201.6	0.9	738.111111111111	0.9	1145.88888888889	1	771.9	0.7	1162.14285714286	0.9	817	13	319317	3	319305	27	40	319344	-999999	319320	0	36	TrialsPROC	PL_017_SCENE_03.png	2	2	62	SessionSelectionList														lure	3	Place	2-Back	54	80	50	0	0	90	2	39	214240	1	13	72	212201	-1	213439	1	1238	3	3	2039	52	214253	-53	0																62												
WM080112	128632_fnca	2	1	1	-1751064318	1	75.031	75.005	2.0.10.147	2.0.10.242	2.0.10.242	1.0.0.439	7	234	2	3	Verdana	1	80	0	0	0	WM Stimuli\	0.8	1362.875	0.9	934.333333333333	1	1201.6	0.9	738.111111111111	0.9	1145.88888888889	1	771.9	0.7	1162.14285714286	0.9	817	13	319317	3	319305	27	40	319344	-999999	319320	0	36	TrialsPROC	PL_016_SCENE_02.png	2	2	63	SessionSelectionList														nonlure	3	Place	2-Back	55	80	51	0	0	90	3	39	216812	2	14	72	214773	-1	216259	1	1486	3	3	2039	53	216826	-54	0																63												
WM080112	128632_fnca	2	1	1	-1751064318	1	75.031	75.005	2.0.10.147	2.0.10.242	2.0.10.242	1.0.0.439	7	234	2	3	Verdana	1	80	0	0	0	WM Stimuli\	0.8	1362.875	0.9	934.333333333333	1	1201.6	0.9	738.111111111111	0.9	1145.88888888889	1	771.9	0.7	1162.14285714286	0.9	817	13	319317	3	319305	27	40	319344	-999999	319320	0	36	TrialsPROC	PL_015_SCENE_01.png	2	2	64	SessionSelectionList														nonlure	3	Place	2-Back	56	80	52	0	0	90	4	40	219385	1	13	72	217345	-1	218296	1	951	3	3	2040	53	219398	-54	0																64												
WM080112	128632_fnca	2	1	1	-1751064318	1	75.031	75.005	2.0.10.147	2.0.10.242	2.0.10.242	1.0.0.439	7	234	2	3	Verdana	1	80	0	0	0	WM Stimuli\	0.8	1362.875	0.9	934.333333333333	1	1201.6	0.9	738.111111111111	0.9	1145.88888888889	1	771.9	0.7	1162.14285714286	0.9	817	13	319317	3	319305	27	40	319344	-999999	319320	0	36	TrialsPROC	PL_016_SCENE_02.png	2	2	65	SessionSelectionList														target	2	Place	2-Back	57	80	53	0	0	90	1	39	221957	1	13	73	219918	-1	220756	1	838	2	2	2039	52	221970	-53	0																65												
WM080112	128632_fnca	2	1	1	-1751064318	1	75.031	75.005	2.0.10.147	2.0.10.242	2.0.10.242	1.0.0.439	7	234	2	3	Verdana	1	80	0	0	0	WM Stimuli\	0.8	1362.875	0.9	934.333333333333	1	1201.6	0.9	738.111111111111	0.9	1145.88888888889	1	771.9	0.7	1162.14285714286	0.9	817	13	319317	3	319305	27	40	319344	-999999	319320	0	36	TrialsPROC	PL_015_SCENE_01.png	2	2	66	SessionSelectionList														target	2	Place	2-Back	58	80	54	0	0	90	2	39	224529	2	14	72	222490	-1	223627	1	1137	2	2	2039	53	224543	-54	0																66												
WM080112	128632_fnca	2	1	1	-1751064318	1	75.031	75.005	2.0.10.147	2.0.10.242	2.0.10.242	1.0.0.439	7	234	2	3	Verdana	1	80	0	0	0	WM Stimuli\	0.8	1362.875	0.9	934.333333333333	1	1201.6	0.9	738.111111111111	0.9	1145.88888888889	1	771.9	0.7	1162.14285714286	0.9	817	13	319317	3	319305	27	40	319344	-999999	319320	0	36	TrialsPROC	PL_020_SCENE_06.png	2	2	67	SessionSelectionList														nonlure	3	Place	2-Back	59	80	55	0	0	90	1	39	227115	1	13	86	225076	-1	226129	1	1053	3	3	2039	52	227128	-53	0																67												
WM080112	128632_fnca	2	1	1	-1751064318	1	75.031	75.005	2.0.10.147	2.0.10.242	2.0.10.242	1.0.0.439	7	234	2	3	Verdana	1	80	0	0	0	WM Stimuli\	0.8	1362.875	0.9	934.333333333333	1	1201.6	0.9	738.111111111111	0.9	1145.88888888889	1	771.9	0.7	1162.14285714286	0.9	817	13	319317	3	319305	27	40	319344	-999999	319320	0	36	TrialsPROC	PL_020_SCENE_06.png	2	2	68	SessionSelectionList														lure	3	Place	2-Back	60	80	56	0	0	90	2	39	229687	1	13	72	227648	-1	228911	1	1263	3	3	2039	52	229700	-53	0																68												
WM080112	128632_fnca	2	1	1	-1751064318	1	75.031	75.005	2.0.10.147	2.0.10.242	2.0.10.242	1.0.0.439	7	234	2	3	Verdana	1	80	0	0	0	WM Stimuli\	0.8	1362.875	0.9	934.333333333333	1	1201.6	0.9	738.111111111111	0.9	1145.88888888889	1	771.9	0.7	1162.14285714286	0.9	817	13	319317	3	319305	27	40	319344	-999999	319320	0	36	TrialsPROC	PL_018_SCENE_04.png	2	2	69	SessionSelectionList														nonlure	3	Place	2-Back	61	80	57	0	0	90	3	40	232273	1	13	85	230233	-1	231349	1	1116	3	3	2040	53	232286	-54	0																69												
WM080112	128632_fnca	2	1	1	-1751064318	1	75.031	75.005	2.0.10.147	2.0.10.242	2.0.10.242	1.0.0.439	7	234	2	3	Verdana	1	80	0	0	0	WM Stimuli\	0.8	1362.875	0.9	934.333333333333	1	1201.6	0.9	738.111111111111	0.9	1145.88888888889	1	771.9	0.7	1162.14285714286	0.9	817	13	319317	3	319305	27	40	319344	-999999	319320	0	37	Fix15secPROC	""	2	2	70	SessionSelectionList																																															6	232739	-7	0							70												
WM080112	128632_fnca	2	1	1	-1751064318	1	75.031	75.005	2.0.10.147	2.0.10.242	2.0.10.242	1.0.0.439	7	234	2	3	Verdana	1	80	0	0	0	WM Stimuli\	0.8	1362.875	0.9	934.333333333333	1	1201.6	0.9	738.111111111111	0.9	1145.88888888889	1	771.9	0.7	1162.14285714286	0.9	817	13	319317	3	319305	27	40	319344	-999999	319320	0	38	Cue0BackPROC	FC_020_F10.png	2	2	71	SessionSelectionList																																										40	247773	-41	0												71												
WM080112	128632_fnca	2	1	1	-1751064318	1	75.031	75.005	2.0.10.147	2.0.10.242	2.0.10.242	1.0.0.439	7	234	2	3	Verdana	1	80	0	0	0	WM Stimuli\	0.8	1362.875	0.9	934.333333333333	1	1201.6	0.9	738.111111111111	0.9	1145.88888888889	1	771.9	0.7	1162.14285714286	0.9	817	13	319317	3	319305	27	40	319344	-999999	319320	0	39	TrialsPROC	FC_024_F12.png	2	2	72	SessionSelectionList														nonlure	3	Face	0-Back	62	80	58	0	0	90	4	39	252358	1	13	86	250319	-1	251085	1	766	3	3	2039	52	252371	-53	0																72												
WM080112	128632_fnca	2	1	1	-1751064318	1	75.031	75.005	2.0.10.147	2.0.10.242	2.0.10.242	1.0.0.439	7	234	2	3	Verdana	1	80	0	0	0	WM Stimuli\	0.8	1362.875	0.9	934.333333333333	1	1201.6	0.9	738.111111111111	0.9	1145.88888888889	1	771.9	0.7	1162.14285714286	0.9	817	13	319317	3	319305	27	40	319344	-999999	319320	0	39	TrialsPROC	FC_023_M12.png	2	2	73	SessionSelectionList														nonlure	3	Face	0-Back	63	80	59	0	0	91	5	39	254943	2	14	85	252904	-1	253539	1	635	3	3	2039	53	254957	-54	0																73												
WM080112	128632_fnca	2	1	1	-1751064318	1	75.031	75.005	2.0.10.147	2.0.10.242	2.0.10.242	1.0.0.439	7	234	2	3	Verdana	1	80	0	0	0	WM Stimuli\	0.8	1362.875	0.9	934.333333333333	1	1201.6	0.9	738.111111111111	0.9	1145.88888888889	1	771.9	0.7	1162.14285714286	0.9	817	13	319317	3	319305	27	40	319344	-999999	319320	0	39	TrialsPROC	FC_020_F10.png	2	2	74	SessionSelectionList														target	2	Face	0-Back	64	80	60	0	0	91	1	39	257516	1	13	73	255477	-1	256207	1	730	2	2	2039	52	257529	-53	0																74												
WM080112	128632_fnca	2	1	1	-1751064318	1	75.031	75.005	2.0.10.147	2.0.10.242	2.0.10.242	1.0.0.439	7	234	2	3	Verdana	1	80	0	0	0	WM Stimuli\	0.8	1362.875	0.9	934.333333333333	1	1201.6	0.9	738.111111111111	0.9	1145.88888888889	1	771.9	0.7	1162.14285714286	0.9	817	13	319317	3	319305	27	40	319344	-999999	319320	0	39	TrialsPROC	FC_024_F12.png	2	2	75	SessionSelectionList														lure	3	Face	0-Back	65	80	61	0	0	92	1	39	260088	1	13	72	258049	-1	258614	1	565	3	3	2039	52	260101	-53	0																75												
WM080112	128632_fnca	2	1	1	-1751064318	1	75.031	75.005	2.0.10.147	2.0.10.242	2.0.10.242	1.0.0.439	7	234	2	3	Verdana	1	80	0	0	0	WM Stimuli\	0.8	1362.875	0.9	934.333333333333	1	1201.6	0.9	738.111111111111	0.9	1145.88888888889	1	771.9	0.7	1162.14285714286	0.9	817	13	319317	3	319305	27	40	319344	-999999	319320	0	39	TrialsPROC	FC_020_F10.png	2	2	76	SessionSelectionList														target	2	Face	0-Back	66	80	62	0	0	92	1	39	262660	2	14	72	260621	-1	261664	1	1043	2	2	2039	53	262674	-54	0																76												
WM080112	128632_fnca	2	1	1	-1751064318	1	75.031	75.005	2.0.10.147	2.0.10.242	2.0.10.242	1.0.0.439	7	234	2	3	Verdana	1	80	0	0	0	WM Stimuli\	0.8	1362.875	0.9	934.333333333333	1	1201.6	0.9	738.111111111111	0.9	1145.88888888889	1	771.9	0.7	1162.14285714286	0.9	817	13	319317	3	319305	27	40	319344	-999999	319320	0	39	TrialsPROC	FC_022_F11.png	2	2	77	SessionSelectionList														nonlure	3	Face	0-Back	67	80	63	0	0	92	1	39	265246	1	13	86	263207	-1	264090	1	883	3	3	2039	52	265259	-53	0																77												
WM080112	128632_fnca	2	1	1	-1751064318	1	75.031	75.005	2.0.10.147	2.0.10.242	2.0.10.242	1.0.0.439	7	234	2	3	Verdana	1	80	0	0	0	WM Stimuli\	0.8	1362.875	0.9	934.333333333333	1	1201.6	0.9	738.111111111111	0.9	1145.88888888889	1	771.9	0.7	1162.14285714286	0.9	817	13	319317	3	319305	27	40	319344	-999999	319320	0	39	TrialsPROC	FC_023_M12.png	2	2	78	SessionSelectionList														lure	3	Face	0-Back	68	80	64	0	0	89	1	39	267818	2	14	72	265779	-1	266466	0	687	2	3	2039	53	267832	-54	0																78												
WM080112	128632_fnca	2	1	1	-1751064318	1	75.031	75.005	2.0.10.147	2.0.10.242	2.0.10.242	1.0.0.439	7	234	2	3	Verdana	1	80	0	0	0	WM Stimuli\	0.8	1362.875	0.9	934.333333333333	1	1201.6	0.9	738.111111111111	0.9	1145.88888888889	1	771.9	0.7	1162.14285714286	0.9	817	13	319317	3	319305	27	40	319344	-999999	319320	0	39	TrialsPROC	FC_021_M11.png	2	2	79	SessionSelectionList														nonlure	3	Face	0-Back	69	80	65	0	0	89	1	39	270404	1	13	86	268365	-1	269293	1	928	3	3	2039	52	270417	-53	0																79												
WM080112	128632_fnca	2	1	1	-1751064318	1	75.031	75.005	2.0.10.147	2.0.10.242	2.0.10.242	1.0.0.439	7	234	2	3	Verdana	1	80	0	0	0	WM Stimuli\	0.8	1362.875	0.9	934.333333333333	1	1201.6	0.9	738.111111111111	0.9	1145.88888888889	1	771.9	0.7	1162.14285714286	0.9	817	13	319317	3	319305	27	40	319344	-999999	319320	0	39	TrialsPROC	FC_021_M11.png	2	2	80	SessionSelectionList														lure	3	Face	0-Back	70	80	66	0	0	90	2	39	272976	1	13	72	270937	-1	271430	1	493	3	3	2039	52	272989	-53	0																80												
WM080112	128632_fnca	2	1	1	-1751064318	1	75.031	75.005	2.0.10.147	2.0.10.242	2.0.10.242	1.0.0.439	7	234	2	3	Verdana	1	80	0	0	0	WM Stimuli\	0.8	1362.875	0.9	934.333333333333	1	1201.6	0.9	738.111111111111	0.9	1145.88888888889	1	771.9	0.7	1162.14285714286	0.9	817	13	319317	3	319305	27	40	319344	-999999	319320	0	39	TrialsPROC	FC_019_M10.png	2	2	81	SessionSelectionList														nonlure	3	Face	0-Back	71	80	67	0	0	90	3	39	275562	1	13	86	273523	-1	274123	1	600	3	3	2039	52	275575	-53	0																81												
WM080112	128632_fnca	2	1	1	-1751064318	1	75.031	75.005	2.0.10.147	2.0.10.242	2.0.10.242	1.0.0.439	7	234	2	3	Verdana	1	80	0	0	0	WM Stimuli\	0.8	1362.875	0.9	934.333333333333	1	1201.6	0.9	738.111111111111	0.9	1145.88888888889	1	771.9	0.7	1162.14285714286	0.9	817	13	319317	3	319305	27	40	319344	-999999	319320	0	40	Cue0BackPROC	PL_021_SCENE_07.png	2	2	82	SessionSelectionList																																										45	276068	-46	0												82												
WM080112	128632_fnca	2	1	1	-1751064318	1	75.031	75.005	2.0.10.147	2.0.10.242	2.0.10.242	1.0.0.439	7	234	2	3	Verdana	1	80	0	0	0	WM Stimuli\	0.8	1362.875	0.9	934.333333333333	1	1201.6	0.9	738.111111111111	0.9	1145.88888888889	1	771.9	0.7	1162.14285714286	0.9	817	13	319317	3	319305	27	40	319344	-999999	319320	0	41	TrialsPROC	PL_025_SCENE_18.png	2	2	83	SessionSelectionList														nonlure	3	Place	0-Back	72	80	68	0	0	90	4	40	280640	1	13	77	278600	-1	279720	1	1120	3	3	2040	53	280653	-54	0																83												
WM080112	128632_fnca	2	1	1	-1751064318	1	75.031	75.005	2.0.10.147	2.0.10.242	2.0.10.242	1.0.0.439	7	234	2	3	Verdana	1	80	0	0	0	WM Stimuli\	0.8	1362.875	0.9	934.333333333333	1	1201.6	0.9	738.111111111111	0.9	1145.88888888889	1	771.9	0.7	1162.14285714286	0.9	817	13	319317	3	319305	27	40	319344	-999999	319320	0	41	TrialsPROC	PL_026_SCENE_24.png	2	2	84	SessionSelectionList														nonlure	3	Place	0-Back	73	80	69	0	0	91	5	39	283225	2	14	86	281186	-1	281735	1	549	3	3	2039	53	283239	-54	0																84												
WM080112	128632_fnca	2	1	1	-1751064318	1	75.031	75.005	2.0.10.147	2.0.10.242	2.0.10.242	1.0.0.439	7	234	2	3	Verdana	1	80	0	0	0	WM Stimuli\	0.8	1362.875	0.9	934.333333333333	1	1201.6	0.9	738.111111111111	0.9	1145.88888888889	1	771.9	0.7	1162.14285714286	0.9	817	13	319317	3	319305	27	40	319344	-999999	319320	0	41	TrialsPROC	PL_025_SCENE_18.png	2	2	85	SessionSelectionList														lure	3	Place	0-Back	74	80	70	0	0	91	6	40	285798	1	13	72	283758	-1	284488	1	730	3	3	2040	53	285811	-54	0																85												
WM080112	128632_fnca	2	1	1	-1751064318	1	75.031	75.005	2.0.10.147	2.0.10.242	2.0.10.242	1.0.0.439	7	234	2	3	Verdana	1	80	0	0	0	WM Stimuli\	0.8	1362.875	0.9	934.333333333333	1	1201.6	0.9	738.111111111111	0.9	1145.88888888889	1	771.9	0.7	1162.14285714286	0.9	817	13	319317	3	319305	27	40	319344	-999999	319320	0	41	TrialsPROC	PL_022_SCENE_08.png	2	2	86	SessionSelectionList														nonlure	3	Place	0-Back	75	80	71	0	0	91	7	39	288383	2	14	86	286344	-1	287148	1	804	3	3	2039	53	288397	-54	0																86												
WM080112	128632_fnca	2	1	1	-1751064318	1	75.031	75.005	2.0.10.147	2.0.10.242	2.0.10.242	1.0.0.439	7	234	2	3	Verdana	1	80	0	0	0	WM Stimuli\	0.8	1362.875	0.9	934.333333333333	1	1201.6	0.9	738.111111111111	0.9	1145.88888888889	1	771.9	0.7	1162.14285714286	0.9	817	13	319317	3	319305	27	40	319344	-999999	319320	0	41	TrialsPROC	PL_026_SCENE_24.png	2	2	87	SessionSelectionList														lure	3	Place	0-Back	76	80	72	0	0	91	8	39	290955	2	14	72	288916	-1	289639	1	723	3	3	2039	53	290969	-54	0																87												
WM080112	128632_fnca	2	1	1	-1751064318	1	75.031	75.005	2.0.10.147	2.0.10.242	2.0.10.242	1.0.0.439	7	234	2	3	Verdana	1	80	0	0	0	WM Stimuli\	0.8	1362.875	0.9	934.333333333333	1	1201.6	0.9	738.111111111111	0.9	1145.88888888889	1	771.9	0.7	1162.14285714286	0.9	817	13	319317	3	319305	27	40	319344	-999999	319320	0	41	TrialsPROC	PL_021_SCENE_07.png	2	2	88	SessionSelectionList														target	2	Place	0-Back	77	80	73	0	0	92	1	39	293528	1	13	73	291489	-1	292323	1	834	2	2	2039	52	293541	-53	0																88												
WM080112	128632_fnca	2	1	1	-1751064318	1	75.031	75.005	2.0.10.147	2.0.10.242	2.0.10.242	1.0.0.439	7	234	2	3	Verdana	1	80	0	0	0	WM Stimuli\	0.8	1362.875	0.9	934.333333333333	1	1201.6	0.9	738.111111111111	0.9	1145.88888888889	1	771.9	0.7	1162.14285714286	0.9	817	13	319317	3	319305	27	40	319344	-999999	319320	0	41	TrialsPROC	PL_021_SCENE_07.png	2	2	89	SessionSelectionList														target	2	Place	0-Back	78	80	74	0	0	92	2	39	296100	1	13	72	294061	-1	294801	1	740	2	2	2039	52	296113	-53	0																89												
WM080112	128632_fnca	2	1	1	-1751064318	1	75.031	75.005	2.0.10.147	2.0.10.242	2.0.10.242	1.0.0.439	7	234	2	3	Verdana	1	80	0	0	0	WM Stimuli\	0.8	1362.875	0.9	934.333333333333	1	1201.6	0.9	738.111111111111	0.9	1145.88888888889	1	771.9	0.7	1162.14285714286	0.9	817	13	319317	3	319305	27	40	319344	-999999	319320	0	41	TrialsPROC	PL_023_SCENE_09.png	2	2	90	SessionSelectionList														nonlure	3	Place	0-Back	79	80	75	0	0	92	1	40	298686	1	13	85	296646	-1	297314	1	668	3	3	2040	53	298699	-54	0																90												
WM080112	128632_fnca	2	1	1	-1751064318	1	75.031	75.005	2.0.10.147	2.0.10.242	2.0.10.242	1.0.0.439	7	234	2	3	Verdana	1	80	0	0	0	WM Stimuli\	0.8	1362.875	0.9	934.333333333333	1	1201.6	0.9	738.111111111111	0.9	1145.88888888889	1	771.9	0.7	1162.14285714286	0.9	817	13	319317	3	319305	27	40	319344	-999999	319320	0	41	TrialsPROC	PL_024_SCENE_10.png	2	2	91	SessionSelectionList														nonlure	3	Place	0-Back	80	80	76	0	0	92	2	39	301271	2	14	86	299232	-1	300164	1	932	3	3	2039	53	301285	-54	0																91												
WM080112	128632_fnca	2	1	1	-1751064318	1	75.031	75.005	2.0.10.147	2.0.10.242	2.0.10.242	1.0.0.439	7	234	2	3	Verdana	1	80	0	0	0	WM Stimuli\	0.8	1362.875	0.9	934.333333333333	1	1201.6	0.9	738.111111111111	0.9	1145.88888888889	1	771.9	0.7	1162.14285714286	0.9	817	13	319317	3	319305	27	40	319344	-999999	319320	0	41	TrialsPROC	PL_022_SCENE_08.png	2	2	92	SessionSelectionList														lure	3	Place	0-Back	80	80	77	0	0	92	3	39	303843	2	14	72	301804	-1	302423	1	619	3	3	2039	53	303857	-54	0																92												
WM080112	128632_fnca	2	1	1	-1751064318	1	75.031	75.005	2.0.10.147	2.0.10.242	2.0.10.242	1.0.0.439	7	234	2	3	Verdana	1	80	0	0	0	WM Stimuli\	0.8	1362.875	0.9	934.333333333333	1	1201.6	0.9	738.111111111111	0.9	1145.88888888889	1	771.9	0.7	1162.14285714286	0.9	817	13	319317	3	319305	27	40	319344	-999999	319320	0	42	Fix15secPROC	""	2	2	93	SessionSelectionList																																															6	304310	-7	0							93												
