ExperimentName	HCPID	RunNumber	Subject	Session	RandomSeed	Group	Laptop.RefreshRate	ScannerD2.RefreshRate	StudioVersion	RuntimeVersion	RuntimeVersionExpected	ExperimentVersion	triggercode	Allowed	Target	Nontarget	FontStyle	RunTrialNumber[Session]	TrialsPerRun[Session]	TotalRespGreater200[Session]	ConsecRTLess200[Session]	ConsecNonResp[Session]	StimuliDir	ACC_2_Back_Body	Avg_RT_For_Correct_Trials_2_Back_Body	ACC_0_Back_Body	Avg_RT_For_Correct_Trials_0_Back_Body	ACC_2_Back_Face	Avg_RT_For_Correct_Trials_2_Back_Face	ACC_0_Back_Face	Avg_RT_For_Correct_Trials_0_Back_Face	ACC_2_Back_Place	Avg_RT_For_Correct_Trials_2_Back_Place	ACC_0_Back_Place	Avg_RT_For_Correct_Trials_0_Back_Place	ACC_2_Back_Tools	Avg_RT_For_Correct_Trials_2_Back_Tools	ACC_0_Back_Tools	Avg_RT_For_Correct_Trials_0_Back_Tools	ExpInstrucFeelFreeToRest.OnsetDelay	ExpInstrucFeelFreeToRest.OnsetTime	ExpInstrucFeelFreeToRest.DurationError	ExpInstrucFeelFreeToRest.StartTime	ExpInstrucFeelFreeToRest.OnsetToOnsetTime	FeelFreeToRest.OnsetDelay	FeelFreeToRest.OnsetTime	FeelFreeToRest.DurationError	FeelFreeToRest.StartTime	FeelFreeToRest.OnsetToOnsetTime	SessionSelectionList	Procedure[Block]	Stimulus[Block]	RunNumberFilterValue	SessionSelectionList.Cycle	SessionSelectionList.Sample	Running[Block]	IntroButtonMap.OnsetDelay	IntroButtonMap.OnsetTime	IntroButtonMap.DurationError	IntroButtonMap.OnsetToOnsetTime	GetReady.OnsetDelay	GetReady.OnsetTime	GetReady.DurationError	GetReady.OnsetToOnsetTime	Cue2Back.OnsetDelay	Cue2Back.OnsetTime	Cue2Back.DurationError	Cue2Back.OnsetToOnsetTime	Run1Block1	TargetType	CorrectResponse	StimType	BlockType	RunTrialNumber[Block]	TrialsPerRun[Block]	TotalRespGreater200[Block]	ConsecRTLess200[Block]	ConsecNonResp[Block]	ControlAcc	ConsecSameResp	ExperimenterWindow.OnsetDelay	ExperimenterWindow.OnsetTime	ExperimenterWindow.DurationError	ExperimenterWindow.OnsetToOnsetTime	Stim.OnsetDelay	Stim.OnsetTime	Stim.DurationError	Stim.RTTime	Stim.ACC	Stim.RT	Stim.RESP	Stim.CRESP	Stim.OnsetToOnsetTime	Fix.OnsetDelay	Fix.OnsetTime	Fix.DurationError	Fix.OnsetToOnsetTime	CueTarget.OnsetDelay	CueTarget.OnsetTime	CueTarget.DurationError	CueTarget.OnsetToOnsetTime	Run1Block2	Fix15sec.OnsetDelay	Fix15sec.OnsetTime	Fix15sec.DurationError	Fix15sec.OnsetToOnsetTime	Run1Block3	Run1Block4	Run1Block5	Run1Block6	Run1Block7	Run1Block8	Block	Procedure[Trial]	Stimulus[Trial]	ReadyList	Running[Trial]	ReadyList.Cycle	ReadyList.Sample	SyncSlide.OnsetDelay	SyncSlide.OnsetTime	SyncSlide.DurationError	SyncSlide.FinishTime	SyncSlide.OnsetToOnsetTime	Trial
WM080112	135932_fnca	1	1	1	-1533937560	1	75.032	75.031	2.0.10.147	2.0.10.242	2.0.10.242	1.0.0.439	7	234	2	3	Verdana	1	80	0	0	0	WM Stimuli\	0.7	1264.42857142857	0.8	834.125	1	824	1	685.9	0.8	943.5	1	669.7	0.8	1135.25	1	596.9	13	432792	2	432780	26	39	432818	-999999	432795	0	1	TRSyncPROC	""	1	2	1	SessionSelectionList	112	15339	-999999	0	34	123467	-999999	0																																																	1	InitialTR	4	1	ReadyList	1	1	10	139340	-11	141329	0	1
WM080112	135932_fnca	1	1	1	-1533937560	1	75.032	75.031	2.0.10.147	2.0.10.242	2.0.10.242	1.0.0.439	7	234	2	3	Verdana	1	80	0	0	0	WM Stimuli\	0.7	1264.42857142857	0.8	834.125	1	824	1	685.9	0.8	943.5	1	669.7	0.8	1135.25	1	596.9	13	432792	2	432780	26	39	432818	-999999	432795	0	1	TRSyncPROC	""	1	2	1	SessionSelectionList	112	15339	-999999	0	34	123467	-999999	0																																																	1	InitialTR	3	2	ReadyList	1	2	10	141340	-11	143329	0	2
WM080112	135932_fnca	1	1	1	-1533937560	1	75.032	75.031	2.0.10.147	2.0.10.242	2.0.10.242	1.0.0.439	7	234	2	3	Verdana	1	80	0	0	0	WM Stimuli\	0.7	1264.42857142857	0.8	834.125	1	824	1	685.9	0.8	943.5	1	669.7	0.8	1135.25	1	596.9	13	432792	2	432780	26	39	432818	-999999	432795	0	1	TRSyncPROC	""	1	2	1	SessionSelectionList	112	15339	-999999	0	34	123467	-999999	0																																																	1	InitialTR	2	3	ReadyList	1	3	9	143339	-10	145329	0	3
WM080112	135932_fnca	1	1	1	-1533937560	1	75.032	75.031	2.0.10.147	2.0.10.242	2.0.10.242	1.0.0.439	7	234	2	3	Verdana	1	80	0	0	0	WM Stimuli\	0.7	1264.42857142857	0.8	834.125	1	824	1	685.9	0.8	943.5	1	669.7	0.8	1135.25	1	596.9	13	432792	2	432780	26	39	432818	-999999	432795	0	1	TRSyncPROC	""	1	2	1	SessionSelectionList	112	15339	-999999	0	34	123467	-999999	0																																																	1	InitialTR	1	4	ReadyList	1	4	8	145338	-9	147329	0	4
WM080112	135932_fnca	1	1	1	-1533937560	1	75.032	75.031	2.0.10.147	2.0.10.242	2.0.10.242	1.0.0.439	7	234	2	3	Verdana	1	80	0	0	0	WM Stimuli\	0.7	1264.42857142857	0.8	834.125	1	824	1	685.9	0.8	943.5	1	669.7	0.8	1135.25	1	596.9	13	432792	2	432780	26	39	432818	-999999	432795	0	2	Cue2BackPROC	""	1	2	2	SessionSelectionList									7	147337	-8	0																																													2												
WM080112	135932_fnca	1	1	1	-1533937560	1	75.032	75.031	2.0.10.147	2.0.10.242	2.0.10.242	1.0.0.439	7	234	2	3	Verdana	1	80	0	0	0	WM Stimuli\	0.7	1264.42857142857	0.8	834.125	1	824	1	685.9	0.8	943.5	1	669.7	0.8	1135.25	1	596.9	13	432792	2	432780	26	39	432818	-999999	432795	0	3	TrialsPROC	BP_002_BP10_BA.png	1	2	3	SessionSelectionList													1	nonlure	3	Body	2-Back	2	80	1	0	0	0	1	53	151962	3	13	79	149909	-1	151332	1	1423	3	3	2053	66	151975	-67	0																3												
WM080112	135932_fnca	1	1	1	-1533937560	1	75.032	75.031	2.0.10.147	2.0.10.242	2.0.10.242	1.0.0.439	7	234	2	3	Verdana	1	80	0	0	0	WM Stimuli\	0.7	1264.42857142857	0.8	834.125	1	824	1	685.9	0.8	943.5	1	669.7	0.8	1135.25	1	596.9	13	432792	2	432780	26	39	432818	-999999	432795	0	3	TrialsPROC	BP_001_BP1_BA.png	1	2	4	SessionSelectionList													2	nonlure	3	Body	2-Back	3	80	2	0	0	0	2	39	154521	2	13	73	152482	-1	153563	1	1081	3	3	2039	52	154534	-53	0																4												
WM080112	135932_fnca	1	1	1	-1533937560	1	75.032	75.031	2.0.10.147	2.0.10.242	2.0.10.242	1.0.0.439	7	234	2	3	Verdana	1	80	0	0	0	WM Stimuli\	0.7	1264.42857142857	0.8	834.125	1	824	1	685.9	0.8	943.5	1	669.7	0.8	1135.25	1	596.9	13	432792	2	432780	26	39	432818	-999999	432795	0	3	TrialsPROC	BP_006_BP2_BA.png	1	2	5	SessionSelectionList													3	nonlure	3	Body	2-Back	4	80	3	0	0	0	3	39	157080	1	13	59	155041	-1	156787	1	1746	3	3	2039	52	157093	-53	0																5												
WM080112	135932_fnca	1	1	1	-1533937560	1	75.032	75.031	2.0.10.147	2.0.10.242	2.0.10.242	1.0.0.439	7	234	2	3	Verdana	1	80	0	0	0	WM Stimuli\	0.7	1264.42857142857	0.8	834.125	1	824	1	685.9	0.8	943.5	1	669.7	0.8	1135.25	1	596.9	13	432792	2	432780	26	39	432818	-999999	432795	0	3	TrialsPROC	BP_001_BP1_BA.png	1	2	6	SessionSelectionList													4	target	2	Body	2-Back	5	80	4	0	0	0	4	39	159652	1	13	72	157613	-1	159278	0	1665	3	2	2039	52	159665	-53	0																6												
WM080112	135932_fnca	1	1	1	-1533937560	1	75.032	75.031	2.0.10.147	2.0.10.242	2.0.10.242	1.0.0.439	7	234	2	3	Verdana	1	80	0	0	0	WM Stimuli\	0.7	1264.42857142857	0.8	834.125	1	824	1	685.9	0.8	943.5	1	669.7	0.8	1135.25	1	596.9	13	432792	2	432780	26	39	432818	-999999	432795	0	3	TrialsPROC	BP_005_BP19_BA.png	1	2	7	SessionSelectionList													5	nonlure	3	Body	2-Back	6	80	5	0	0	0	5	39	162224	2	14	72	160185	-1	161314	1	1129	3	3	2039	53	162238	-54	0																7												
WM080112	135932_fnca	1	1	1	-1533937560	1	75.032	75.031	2.0.10.147	2.0.10.242	2.0.10.242	1.0.0.439	7	234	2	3	Verdana	1	80	0	0	0	WM Stimuli\	0.7	1264.42857142857	0.8	834.125	1	824	1	685.9	0.8	943.5	1	669.7	0.8	1135.25	1	596.9	13	432792	2	432780	26	39	432818	-999999	432795	0	3	TrialsPROC	BP_003_BP16_BA.png	1	2	8	SessionSelectionList													6	nonlure	3	Body	2-Back	7	80	6	0	0	0	6	39	164783	3	14	59	162744	-1	163760	1	1016	3	3	2039	53	164797	-54	0																8												
WM080112	135932_fnca	1	1	1	-1533937560	1	75.032	75.031	2.0.10.147	2.0.10.242	2.0.10.242	1.0.0.439	7	234	2	3	Verdana	1	80	0	0	0	WM Stimuli\	0.7	1264.42857142857	0.8	834.125	1	824	1	685.9	0.8	943.5	1	669.7	0.8	1135.25	1	596.9	13	432792	2	432780	26	39	432818	-999999	432795	0	3	TrialsPROC	BP_006_BP2_BA.png	1	2	9	SessionSelectionList													7	lure	3	Body	2-Back	8	80	6	0	1	0	6	39	167342	2	14	59	165303	-1	0	0	0	""	3	2039	53	167356	-54	0																9												
WM080112	135932_fnca	1	1	1	-1533937560	1	75.032	75.031	2.0.10.147	2.0.10.242	2.0.10.242	1.0.0.439	7	234	2	3	Verdana	1	80	0	0	0	WM Stimuli\	0.7	1264.42857142857	0.8	834.125	1	824	1	685.9	0.8	943.5	1	669.7	0.8	1135.25	1	596.9	13	432792	2	432780	26	39	432818	-999999	432795	0	3	TrialsPROC	BP_004_BP18_BA.png	1	2	10	SessionSelectionList													8	nonlure	3	Body	2-Back	9	80	7	0	0	0	1	39	169901	1	13	59	167862	-1	168889	1	1027	3	3	2039	52	169914	-53	0																10												
WM080112	135932_fnca	1	1	1	-1533937560	1	75.032	75.031	2.0.10.147	2.0.10.242	2.0.10.242	1.0.0.439	7	234	2	3	Verdana	1	80	0	0	0	WM Stimuli\	0.7	1264.42857142857	0.8	834.125	1	824	1	685.9	0.8	943.5	1	669.7	0.8	1135.25	1	596.9	13	432792	2	432780	26	39	432818	-999999	432795	0	3	TrialsPROC	BP_005_BP19_BA.png	1	2	11	SessionSelectionList													9	lure	3	Body	2-Back	10	80	8	0	0	0	1	39	172460	1	13	59	170421	-1	171272	0	851	2	3	2039	52	172473	-53	0																11												
WM080112	135932_fnca	1	1	1	-1533937560	1	75.032	75.031	2.0.10.147	2.0.10.242	2.0.10.242	1.0.0.439	7	234	2	3	Verdana	1	80	0	0	0	WM Stimuli\	0.7	1264.42857142857	0.8	834.125	1	824	1	685.9	0.8	943.5	1	669.7	0.8	1135.25	1	596.9	13	432792	2	432780	26	39	432818	-999999	432795	0	3	TrialsPROC	BP_004_BP18_BA.png	1	2	12	SessionSelectionList													10	target	2	Body	2-Back	11	80	9	0	0	0	2	39	175019	1	13	59	172980	-1	174409	1	1429	2	2	2039	52	175032	-53	0																12												
WM080112	135932_fnca	1	1	1	-1533937560	1	75.032	75.031	2.0.10.147	2.0.10.242	2.0.10.242	1.0.0.439	7	234	2	3	Verdana	1	80	0	0	0	WM Stimuli\	0.7	1264.42857142857	0.8	834.125	1	824	1	685.9	0.8	943.5	1	669.7	0.8	1135.25	1	596.9	13	432792	2	432780	26	39	432818	-999999	432795	0	4	Cue0BackPROC	FC_001_M1.png	1	2	13	SessionSelectionList																																										19	175499	-20	0												13												
WM080112	135932_fnca	1	1	1	-1533937560	1	75.032	75.031	2.0.10.147	2.0.10.242	2.0.10.242	1.0.0.439	7	234	2	3	Verdana	1	80	0	0	0	WM Stimuli\	0.7	1264.42857142857	0.8	834.125	1	824	1	685.9	0.8	943.5	1	669.7	0.8	1135.25	1	596.9	13	432792	2	432780	26	39	432818	-999999	432795	0	5	TrialsPROC	FC_005_M3.png	1	2	14	SessionSelectionList														nonlure	3	Face	0-Back	12	80	10	0	0	100	1	39	180083	2	14	64	178044	-1	179062	1	1018	3	3	2039	53	180097	-54	0					1											14												
WM080112	135932_fnca	1	1	1	-1533937560	1	75.032	75.031	2.0.10.147	2.0.10.242	2.0.10.242	1.0.0.439	7	234	2	3	Verdana	1	80	0	0	0	WM Stimuli\	0.7	1264.42857142857	0.8	834.125	1	824	1	685.9	0.8	943.5	1	669.7	0.8	1135.25	1	596.9	13	432792	2	432780	26	39	432818	-999999	432795	0	5	TrialsPROC	FC_001_M1.png	1	2	15	SessionSelectionList														target	2	Face	0-Back	13	80	11	0	0	100	1	39	182656	1	13	73	180617	-1	181462	1	845	2	2	2039	52	182669	-53	0					2											15												
WM080112	135932_fnca	1	1	1	-1533937560	1	75.032	75.031	2.0.10.147	2.0.10.242	2.0.10.242	1.0.0.439	7	234	2	3	Verdana	1	80	0	0	0	WM Stimuli\	0.7	1264.42857142857	0.8	834.125	1	824	1	685.9	0.8	943.5	1	669.7	0.8	1135.25	1	596.9	13	432792	2	432780	26	39	432818	-999999	432795	0	5	TrialsPROC	FC_003_M2.png	1	2	16	SessionSelectionList														nonlure	3	Face	0-Back	14	80	12	0	0	100	1	39	185228	1	13	72	183189	-1	183788	1	599	3	3	2039	52	185241	-53	0					3											16												
WM080112	135932_fnca	1	1	1	-1533937560	1	75.032	75.031	2.0.10.147	2.0.10.242	2.0.10.242	1.0.0.439	7	234	2	3	Verdana	1	80	0	0	0	WM Stimuli\	0.7	1264.42857142857	0.8	834.125	1	824	1	685.9	0.8	943.5	1	669.7	0.8	1135.25	1	596.9	13	432792	2	432780	26	39	432818	-999999	432795	0	5	TrialsPROC	FC_004_F2.png	1	2	17	SessionSelectionList														nonlure	3	Face	0-Back	15	80	13	0	0	100	2	39	187800	2	14	72	185761	-1	186366	1	605	3	3	2039	53	187814	-54	0					4											17												
WM080112	135932_fnca	1	1	1	-1533937560	1	75.032	75.031	2.0.10.147	2.0.10.242	2.0.10.242	1.0.0.439	7	234	2	3	Verdana	1	80	0	0	0	WM Stimuli\	0.7	1264.42857142857	0.8	834.125	1	824	1	685.9	0.8	943.5	1	669.7	0.8	1135.25	1	596.9	13	432792	2	432780	26	39	432818	-999999	432795	0	5	TrialsPROC	FC_004_F2.png	1	2	18	SessionSelectionList														lure	3	Face	0-Back	16	80	14	0	0	100	3	39	190372	2	14	72	188333	-1	189072	1	739	3	3	2039	53	190386	-54	0					5											18												
WM080112	135932_fnca	1	1	1	-1533937560	1	75.032	75.031	2.0.10.147	2.0.10.242	2.0.10.242	1.0.0.439	7	234	2	3	Verdana	1	80	0	0	0	WM Stimuli\	0.7	1264.42857142857	0.8	834.125	1	824	1	685.9	0.8	943.5	1	669.7	0.8	1135.25	1	596.9	13	432792	2	432780	26	39	432818	-999999	432795	0	5	TrialsPROC	FC_001_M1.png	1	2	19	SessionSelectionList														target	2	Face	0-Back	17	80	15	0	0	100	1	39	192945	1	13	73	190906	-1	191582	1	676	2	2	2039	52	192958	-53	0					6											19												
WM080112	135932_fnca	1	1	1	-1533937560	1	75.032	75.031	2.0.10.147	2.0.10.242	2.0.10.242	1.0.0.439	7	234	2	3	Verdana	1	80	0	0	0	WM Stimuli\	0.7	1264.42857142857	0.8	834.125	1	824	1	685.9	0.8	943.5	1	669.7	0.8	1135.25	1	596.9	13	432792	2	432780	26	39	432818	-999999	432795	0	5	TrialsPROC	FC_006_F3.png	1	2	20	SessionSelectionList														nonlure	3	Face	0-Back	18	80	16	0	0	100	1	39	195517	1	13	72	193478	-1	194033	1	555	3	3	2039	52	195530	-53	0					7											20												
WM080112	135932_fnca	1	1	1	-1533937560	1	75.032	75.031	2.0.10.147	2.0.10.242	2.0.10.242	1.0.0.439	7	234	2	3	Verdana	1	80	0	0	0	WM Stimuli\	0.7	1264.42857142857	0.8	834.125	1	824	1	685.9	0.8	943.5	1	669.7	0.8	1135.25	1	596.9	13	432792	2	432780	26	39	432818	-999999	432795	0	5	TrialsPROC	FC_006_F3.png	1	2	21	SessionSelectionList														lure	3	Face	0-Back	19	80	17	0	0	100	2	39	198089	2	14	72	196050	-1	196497	1	447	3	3	2039	53	198103	-54	0					8											21												
WM080112	135932_fnca	1	1	1	-1533937560	1	75.032	75.031	2.0.10.147	2.0.10.242	2.0.10.242	1.0.0.439	7	234	2	3	Verdana	1	80	0	0	0	WM Stimuli\	0.7	1264.42857142857	0.8	834.125	1	824	1	685.9	0.8	943.5	1	669.7	0.8	1135.25	1	596.9	13	432792	2	432780	26	39	432818	-999999	432795	0	5	TrialsPROC	FC_003_M2.png	1	2	22	SessionSelectionList														lure	3	Face	0-Back	20	80	18	0	0	100	3	40	200662	1	13	72	198622	-1	199388	1	766	3	3	2040	53	200675	-54	0					9											22												
WM080112	135932_fnca	1	1	1	-1533937560	1	75.032	75.031	2.0.10.147	2.0.10.242	2.0.10.242	1.0.0.439	7	234	2	3	Verdana	1	80	0	0	0	WM Stimuli\	0.7	1264.42857142857	0.8	834.125	1	824	1	685.9	0.8	943.5	1	669.7	0.8	1135.25	1	596.9	13	432792	2	432780	26	39	432818	-999999	432795	0	5	TrialsPROC	FC_002_F1.png	1	2	23	SessionSelectionList														nonlure	3	Face	0-Back	21	80	19	0	0	100	4	39	203234	1	13	73	201195	-1	201804	1	609	3	3	2039	52	203247	-53	0					10											23												
WM080112	135932_fnca	1	1	1	-1533937560	1	75.032	75.031	2.0.10.147	2.0.10.242	2.0.10.242	1.0.0.439	7	234	2	3	Verdana	1	80	0	0	0	WM Stimuli\	0.7	1264.42857142857	0.8	834.125	1	824	1	685.9	0.8	943.5	1	669.7	0.8	1135.25	1	596.9	13	432792	2	432780	26	39	432818	-999999	432795	0	6	Fix15secPROC	""	1	2	24	SessionSelectionList																																															5	203700	-6	0							24												
WM080112	135932_fnca	1	1	1	-1533937560	1	75.032	75.031	2.0.10.147	2.0.10.242	2.0.10.242	1.0.0.439	7	234	2	3	Verdana	1	80	0	0	0	WM Stimuli\	0.7	1264.42857142857	0.8	834.125	1	824	1	685.9	0.8	943.5	1	669.7	0.8	1135.25	1	596.9	13	432792	2	432780	26	39	432818	-999999	432795	0	7	Cue2BackPROC	""	1	2	25	SessionSelectionList									12	218707	-13	0																																													25												
WM080112	135932_fnca	1	1	1	-1533937560	1	75.032	75.031	2.0.10.147	2.0.10.242	2.0.10.242	1.0.0.439	7	234	2	3	Verdana	1	80	0	0	0	WM Stimuli\	0.7	1264.42857142857	0.8	834.125	1	824	1	685.9	0.8	943.5	1	669.7	0.8	1135.25	1	596.9	13	432792	2	432780	26	39	432818	-999999	432795	0	8	TrialsPROC	TO_001_TOOL1_BA.png	1	2	26	SessionSelectionList														nonlure	3	Tools	2-Back	22	80	20	0	0	100	5	39	223292	2	14	58	221253	-1	222372	1	1119	3	3	2039	53	223306	-54	0										1						26												
WM080112	135932_fnca	1	1	1	-1533937560	1	75.032	75.031	2.0.10.147	2.0.10.242	2.0.10.242	1.0.0.439	7	234	2	3	Verdana	1	80	0	0	0	WM Stimuli\	0.7	1264.42857142857	0.8	834.125	1	824	1	685.9	0.8	943.5	1	669.7	0.8	1135.25	1	596.9	13	432792	2	432780	26	39	432818	-999999	432795	0	8	TrialsPROC	TO_002_TOOL2_BA.png	1	2	27	SessionSelectionList														nonlure	3	Tools	2-Back	23	80	21	0	0	100	6	39	225851	1	14	59	223812	-1	224841	1	1029	3	3	2039	53	225865	-54	0										2						27												
WM080112	135932_fnca	1	1	1	-1533937560	1	75.032	75.031	2.0.10.147	2.0.10.242	2.0.10.242	1.0.0.439	7	234	2	3	Verdana	1	80	0	0	0	WM Stimuli\	0.7	1264.42857142857	0.8	834.125	1	824	1	685.9	0.8	943.5	1	669.7	0.8	1135.25	1	596.9	13	432792	2	432780	26	39	432818	-999999	432795	0	8	TrialsPROC	TO_004_TOOL4_BA.png	1	2	28	SessionSelectionList														nonlure	3	Tools	2-Back	24	80	22	0	0	100	7	39	228410	1	13	59	226371	-1	227710	1	1339	3	3	2039	52	228423	-53	0										3						28												
WM080112	135932_fnca	1	1	1	-1533937560	1	75.032	75.031	2.0.10.147	2.0.10.242	2.0.10.242	1.0.0.439	7	234	2	3	Verdana	1	80	0	0	0	WM Stimuli\	0.7	1264.42857142857	0.8	834.125	1	824	1	685.9	0.8	943.5	1	669.7	0.8	1135.25	1	596.9	13	432792	2	432780	26	39	432818	-999999	432795	0	8	TrialsPROC	TO_002_TOOL2_BA.png	1	2	29	SessionSelectionList														target	2	Tools	2-Back	25	80	22	0	1	100	7	39	230969	1	13	59	228930	-1	0	0	0	""	2	2039	52	230982	-53	0										4						29												
WM080112	135932_fnca	1	1	1	-1533937560	1	75.032	75.031	2.0.10.147	2.0.10.242	2.0.10.242	1.0.0.439	7	234	2	3	Verdana	1	80	0	0	0	WM Stimuli\	0.7	1264.42857142857	0.8	834.125	1	824	1	685.9	0.8	943.5	1	669.7	0.8	1135.25	1	596.9	13	432792	2	432780	26	39	432818	-999999	432795	0	8	TrialsPROC	TO_001_TOOL1_BA.png	1	2	30	SessionSelectionList														lure	3	Tools	2-Back	26	80	23	0	0	100	1	39	233528	1	13	59	231489	-1	232648	1	1159	3	3	2039	52	233541	-53	0										5						30												
WM080112	135932_fnca	1	1	1	-1533937560	1	75.032	75.031	2.0.10.147	2.0.10.242	2.0.10.242	1.0.0.439	7	234	2	3	Verdana	1	80	0	0	0	WM Stimuli\	0.7	1264.42857142857	0.8	834.125	1	824	1	685.9	0.8	943.5	1	669.7	0.8	1135.25	1	596.9	13	432792	2	432780	26	39	432818	-999999	432795	0	8	TrialsPROC	TO_004_TOOL4_BA.png	1	2	31	SessionSelectionList														lure	3	Tools	2-Back	27	80	24	0	0	100	1	39	236087	1	13	59	234048	-1	235350	0	1302	2	3	2039	52	236100	-53	0										6						31												
WM080112	135932_fnca	1	1	1	-1533937560	1	75.032	75.031	2.0.10.147	2.0.10.242	2.0.10.242	1.0.0.439	7	234	2	3	Verdana	1	80	0	0	0	WM Stimuli\	0.7	1264.42857142857	0.8	834.125	1	824	1	685.9	0.8	943.5	1	669.7	0.8	1135.25	1	596.9	13	432792	2	432780	26	39	432818	-999999	432795	0	8	TrialsPROC	TO_006_TOOL6_BA.png	1	2	32	SessionSelectionList														nonlure	3	Tools	2-Back	28	80	25	0	0	100	1	39	238646	1	13	59	236607	-1	237815	1	1208	3	3	2039	52	238659	-53	0										7						32												
WM080112	135932_fnca	1	1	1	-1533937560	1	75.032	75.031	2.0.10.147	2.0.10.242	2.0.10.242	1.0.0.439	7	234	2	3	Verdana	1	80	0	0	0	WM Stimuli\	0.7	1264.42857142857	0.8	834.125	1	824	1	685.9	0.8	943.5	1	669.7	0.8	1135.25	1	596.9	13	432792	2	432780	26	39	432818	-999999	432795	0	8	TrialsPROC	TO_005_TOOL5_BA.png	1	2	33	SessionSelectionList														nonlure	3	Tools	2-Back	29	80	26	0	0	100	2	39	241205	1	13	59	239166	-1	240062	1	896	3	3	2039	52	241218	-53	0										8						33												
WM080112	135932_fnca	1	1	1	-1533937560	1	75.032	75.031	2.0.10.147	2.0.10.242	2.0.10.242	1.0.0.439	7	234	2	3	Verdana	1	80	0	0	0	WM Stimuli\	0.7	1264.42857142857	0.8	834.125	1	824	1	685.9	0.8	943.5	1	669.7	0.8	1135.25	1	596.9	13	432792	2	432780	26	39	432818	-999999	432795	0	8	TrialsPROC	TO_006_TOOL6_BA.png	1	2	34	SessionSelectionList														target	2	Tools	2-Back	30	80	27	0	0	100	1	40	243764	1	13	58	241724	-1	243217	1	1493	2	2	2040	53	243777	-54	0										9						34												
WM080112	135932_fnca	1	1	1	-1533937560	1	75.032	75.031	2.0.10.147	2.0.10.242	2.0.10.242	1.0.0.439	7	234	2	3	Verdana	1	80	0	0	0	WM Stimuli\	0.7	1264.42857142857	0.8	834.125	1	824	1	685.9	0.8	943.5	1	669.7	0.8	1135.25	1	596.9	13	432792	2	432780	26	39	432818	-999999	432795	0	8	TrialsPROC	TO_003_TOOL3_BA.png	1	2	35	SessionSelectionList														nonlure	3	Tools	2-Back	31	80	28	0	0	100	1	40	246323	1	13	59	244283	-1	245122	1	839	3	3	2040	53	246336	-54	0										10						35												
WM080112	135932_fnca	1	1	1	-1533937560	1	75.032	75.031	2.0.10.147	2.0.10.242	2.0.10.242	1.0.0.439	7	234	2	3	Verdana	1	80	0	0	0	WM Stimuli\	0.7	1264.42857142857	0.8	834.125	1	824	1	685.9	0.8	943.5	1	669.7	0.8	1135.25	1	596.9	13	432792	2	432780	26	39	432818	-999999	432795	0	9	Cue0BackPROC	BP_007_BP20_BA.png	1	2	36	SessionSelectionList																																										19	246802	-20	0												36												
WM080112	135932_fnca	1	1	1	-1533937560	1	75.032	75.031	2.0.10.147	2.0.10.242	2.0.10.242	1.0.0.439	7	234	2	3	Verdana	1	80	0	0	0	WM Stimuli\	0.7	1264.42857142857	0.8	834.125	1	824	1	685.9	0.8	943.5	1	669.7	0.8	1135.25	1	596.9	13	432792	2	432780	26	39	432818	-999999	432795	0	10	TrialsPROC	BP_007_BP20_BA.png	1	2	37	SessionSelectionList														target	2	Body	0-Back	32	80	28	0	1	91	1	39	251374	1	13	52	249335	-1	0	0	0	""	2	2039	52	251387	-53	0											1					37												
WM080112	135932_fnca	1	1	1	-1533937560	1	75.032	75.031	2.0.10.147	2.0.10.242	2.0.10.242	1.0.0.439	7	234	2	3	Verdana	1	80	0	0	0	WM Stimuli\	0.7	1264.42857142857	0.8	834.125	1	824	1	685.9	0.8	943.5	1	669.7	0.8	1135.25	1	596.9	13	432792	2	432780	26	39	432818	-999999	432795	0	10	TrialsPROC	BP_011_BP4_BA.png	1	2	38	SessionSelectionList														nonlure	3	Body	0-Back	33	80	29	0	0	92	1	39	253933	1	13	59	251894	-1	252613	1	719	3	3	2039	52	253946	-53	0											2					38												
WM080112	135932_fnca	1	1	1	-1533937560	1	75.032	75.031	2.0.10.147	2.0.10.242	2.0.10.242	1.0.0.439	7	234	2	3	Verdana	1	80	0	0	0	WM Stimuli\	0.7	1264.42857142857	0.8	834.125	1	824	1	685.9	0.8	943.5	1	669.7	0.8	1135.25	1	596.9	13	432792	2	432780	26	39	432818	-999999	432795	0	10	TrialsPROC	BP_010_BP3_BA.png	1	2	39	SessionSelectionList														nonlure	3	Body	0-Back	34	80	30	0	0	92	2	40	256492	1	13	58	254452	-1	255281	1	829	3	3	2040	53	256505	-54	0											3					39												
WM080112	135932_fnca	1	1	1	-1533937560	1	75.032	75.031	2.0.10.147	2.0.10.242	2.0.10.242	1.0.0.439	7	234	2	3	Verdana	1	80	0	0	0	WM Stimuli\	0.7	1264.42857142857	0.8	834.125	1	824	1	685.9	0.8	943.5	1	669.7	0.8	1135.25	1	596.9	13	432792	2	432780	26	39	432818	-999999	432795	0	10	TrialsPROC	BP_008_BP21_BA.png	1	2	40	SessionSelectionList														nonlure	3	Body	0-Back	35	80	31	0	0	93	3	40	259051	1	13	59	257011	-1	257799	1	788	3	3	2040	53	259064	-54	0											4					40												
WM080112	135932_fnca	1	1	1	-1533937560	1	75.032	75.031	2.0.10.147	2.0.10.242	2.0.10.242	1.0.0.439	7	234	2	3	Verdana	1	80	0	0	0	WM Stimuli\	0.7	1264.42857142857	0.8	834.125	1	824	1	685.9	0.8	943.5	1	669.7	0.8	1135.25	1	596.9	13	432792	2	432780	26	39	432818	-999999	432795	0	10	TrialsPROC	BP_011_BP4_BA.png	1	2	41	SessionSelectionList														lure	3	Body	0-Back	36	80	32	0	0	93	4	39	261610	1	13	60	259571	-1	260662	1	1091	3	3	2039	52	261623	-53	0											5					41												
WM080112	135932_fnca	1	1	1	-1533937560	1	75.032	75.031	2.0.10.147	2.0.10.242	2.0.10.242	1.0.0.439	7	234	2	3	Verdana	1	80	0	0	0	WM Stimuli\	0.7	1264.42857142857	0.8	834.125	1	824	1	685.9	0.8	943.5	1	669.7	0.8	1135.25	1	596.9	13	432792	2	432780	26	39	432818	-999999	432795	0	10	TrialsPROC	BP_009_BP22_BA.png	1	2	42	SessionSelectionList														nonlure	3	Body	0-Back	37	80	33	0	0	94	5	39	264168	2	14	58	262129	-1	262968	1	839	3	3	2039	53	264182	-54	0											6					42												
WM080112	135932_fnca	1	1	1	-1533937560	1	75.032	75.031	2.0.10.147	2.0.10.242	2.0.10.242	1.0.0.439	7	234	2	3	Verdana	1	80	0	0	0	WM Stimuli\	0.7	1264.42857142857	0.8	834.125	1	824	1	685.9	0.8	943.5	1	669.7	0.8	1135.25	1	596.9	13	432792	2	432780	26	39	432818	-999999	432795	0	10	TrialsPROC	BP_009_BP22_BA.png	1	2	43	SessionSelectionList														lure	3	Body	0-Back	38	80	34	0	0	94	6	39	266727	2	14	59	264688	-1	265233	1	545	3	3	2039	53	266741	-54	0											7					43												
WM080112	135932_fnca	1	1	1	-1533937560	1	75.032	75.031	2.0.10.147	2.0.10.242	2.0.10.242	1.0.0.439	7	234	2	3	Verdana	1	80	0	0	0	WM Stimuli\	0.7	1264.42857142857	0.8	834.125	1	824	1	685.9	0.8	943.5	1	669.7	0.8	1135.25	1	596.9	13	432792	2	432780	26	39	432818	-999999	432795	0	10	TrialsPROC	BP_008_BP21_BA.png	1	2	44	SessionSelectionList														lure	3	Body	0-Back	39	80	35	0	0	94	7	39	269286	2	14	59	267247	-1	268348	1	1101	3	3	2039	53	269300	-54	0											8					44												
WM080112	135932_fnca	1	1	1	-1533937560	1	75.032	75.031	2.0.10.147	2.0.10.242	2.0.10.242	1.0.0.439	7	234	2	3	Verdana	1	80	0	0	0	WM Stimuli\	0.7	1264.42857142857	0.8	834.125	1	824	1	685.9	0.8	943.5	1	669.7	0.8	1135.25	1	596.9	13	432792	2	432780	26	39	432818	-999999	432795	0	10	TrialsPROC	BP_007_BP20_BA.png	1	2	45	SessionSelectionList														target	2	Body	0-Back	40	80	36	0	0	89	8	39	271845	2	14	59	269806	-1	270906	0	1100	3	2	2039	53	271859	-54	0											9					45												
WM080112	135932_fnca	1	1	1	-1533937560	1	75.032	75.031	2.0.10.147	2.0.10.242	2.0.10.242	1.0.0.439	7	234	2	3	Verdana	1	80	0	0	0	WM Stimuli\	0.7	1264.42857142857	0.8	834.125	1	824	1	685.9	0.8	943.5	1	669.7	0.8	1135.25	1	596.9	13	432792	2	432780	26	39	432818	-999999	432795	0	10	TrialsPROC	BP_012_BP5_BA.png	1	2	46	SessionSelectionList														nonlure	3	Body	0-Back	41	80	37	0	0	90	9	39	274417	2	14	72	272378	-1	273139	1	761	3	3	2039	53	274431	-54	0											10					46												
WM080112	135932_fnca	1	1	1	-1533937560	1	75.032	75.031	2.0.10.147	2.0.10.242	2.0.10.242	1.0.0.439	7	234	2	3	Verdana	1	80	0	0	0	WM Stimuli\	0.7	1264.42857142857	0.8	834.125	1	824	1	685.9	0.8	943.5	1	669.7	0.8	1135.25	1	596.9	13	432792	2	432780	26	39	432818	-999999	432795	0	11	Fix15secPROC	""	1	2	47	SessionSelectionList																																															6	274884	-7	0							47												
WM080112	135932_fnca	1	1	1	-1533937560	1	75.032	75.031	2.0.10.147	2.0.10.242	2.0.10.242	1.0.0.439	7	234	2	3	Verdana	1	80	0	0	0	WM Stimuli\	0.7	1264.42857142857	0.8	834.125	1	824	1	685.9	0.8	943.5	1	669.7	0.8	1135.25	1	596.9	13	432792	2	432780	26	39	432818	-999999	432795	0	12	Cue0BackPROC	PL_001_92012.png	1	2	48	SessionSelectionList																																										13	289891	-14	0												48												
WM080112	135932_fnca	1	1	1	-1533937560	1	75.032	75.031	2.0.10.147	2.0.10.242	2.0.10.242	1.0.0.439	7	234	2	3	Verdana	1	80	0	0	0	WM Stimuli\	0.7	1264.42857142857	0.8	834.125	1	824	1	685.9	0.8	943.5	1	669.7	0.8	1135.25	1	596.9	13	432792	2	432780	26	39	432818	-999999	432795	0	13	TrialsPROC	PL_003_92016.png	1	2	49	SessionSelectionList														nonlure	3	Place	0-Back	42	80	38	0	0	90	10	39	294489	2	14	72	292450	-1	293146	1	696	3	3	2039	53	294503	-54	0												1				49												
WM080112	135932_fnca	1	1	1	-1533937560	1	75.032	75.031	2.0.10.147	2.0.10.242	2.0.10.242	1.0.0.439	7	234	2	3	Verdana	1	80	0	0	0	WM Stimuli\	0.7	1264.42857142857	0.8	834.125	1	824	1	685.9	0.8	943.5	1	669.7	0.8	1135.25	1	596.9	13	432792	2	432780	26	39	432818	-999999	432795	0	13	TrialsPROC	PL_003_92016.png	1	2	50	SessionSelectionList														lure	3	Place	0-Back	43	80	39	0	0	91	11	39	297061	2	14	72	295022	-1	295691	1	669	3	3	2039	53	297075	-54	0												2				50												
WM080112	135932_fnca	1	1	1	-1533937560	1	75.032	75.031	2.0.10.147	2.0.10.242	2.0.10.242	1.0.0.439	7	234	2	3	Verdana	1	80	0	0	0	WM Stimuli\	0.7	1264.42857142857	0.8	834.125	1	824	1	685.9	0.8	943.5	1	669.7	0.8	1135.25	1	596.9	13	432792	2	432780	26	39	432818	-999999	432795	0	13	TrialsPROC	PL_006_92025.png	1	2	51	SessionSelectionList														nonlure	3	Place	0-Back	44	80	40	0	0	91	12	39	299634	1	13	73	297595	-1	298263	1	668	3	3	2039	52	299647	-53	0												3				51												
WM080112	135932_fnca	1	1	1	-1533937560	1	75.032	75.031	2.0.10.147	2.0.10.242	2.0.10.242	1.0.0.439	7	234	2	3	Verdana	1	80	0	0	0	WM Stimuli\	0.7	1264.42857142857	0.8	834.125	1	824	1	685.9	0.8	943.5	1	669.7	0.8	1135.25	1	596.9	13	432792	2	432780	26	39	432818	-999999	432795	0	13	TrialsPROC	PL_001_92012.png	1	2	52	SessionSelectionList														target	2	Place	0-Back	45	80	41	0	0	92	1	39	302206	1	13	72	300167	-1	300879	1	712	2	2	2039	52	302219	-53	0												4				52												
WM080112	135932_fnca	1	1	1	-1533937560	1	75.032	75.031	2.0.10.147	2.0.10.242	2.0.10.242	1.0.0.439	7	234	2	3	Verdana	1	80	0	0	0	WM Stimuli\	0.7	1264.42857142857	0.8	834.125	1	824	1	685.9	0.8	943.5	1	669.7	0.8	1135.25	1	596.9	13	432792	2	432780	26	39	432818	-999999	432795	0	13	TrialsPROC	PL_004_92023.png	1	2	53	SessionSelectionList														nonlure	3	Place	0-Back	46	80	42	0	0	92	1	39	304778	2	14	72	302739	-1	303484	1	745	3	3	2039	53	304792	-54	0												5				53												
WM080112	135932_fnca	1	1	1	-1533937560	1	75.032	75.031	2.0.10.147	2.0.10.242	2.0.10.242	1.0.0.439	7	234	2	3	Verdana	1	80	0	0	0	WM Stimuli\	0.7	1264.42857142857	0.8	834.125	1	824	1	685.9	0.8	943.5	1	669.7	0.8	1135.25	1	596.9	13	432792	2	432780	26	39	432818	-999999	432795	0	13	TrialsPROC	PL_005_92024.png	1	2	54	SessionSelectionList														nonlure	3	Place	0-Back	47	80	43	0	0	92	2	39	307350	2	14	72	305311	-1	305967	1	656	3	3	2039	53	307364	-54	0												6				54												
WM080112	135932_fnca	1	1	1	-1533937560	1	75.032	75.031	2.0.10.147	2.0.10.242	2.0.10.242	1.0.0.439	7	234	2	3	Verdana	1	80	0	0	0	WM Stimuli\	0.7	1264.42857142857	0.8	834.125	1	824	1	685.9	0.8	943.5	1	669.7	0.8	1135.25	1	596.9	13	432792	2	432780	26	39	432818	-999999	432795	0	13	TrialsPROC	PL_001_92012.png	1	2	55	SessionSelectionList														target	2	Place	0-Back	48	80	44	0	0	93	1	39	309923	2	13	73	307884	-1	308572	1	688	2	2	2039	52	309936	-53	0												7				55												
WM080112	135932_fnca	1	1	1	-1533937560	1	75.032	75.031	2.0.10.147	2.0.10.242	2.0.10.242	1.0.0.439	7	234	2	3	Verdana	1	80	0	0	0	WM Stimuli\	0.7	1264.42857142857	0.8	834.125	1	824	1	685.9	0.8	943.5	1	669.7	0.8	1135.25	1	596.9	13	432792	2	432780	26	39	432818	-999999	432795	0	13	TrialsPROC	PL_002_92014.png	1	2	56	SessionSelectionList														nonlure	3	Place	0-Back	49	80	45	0	0	93	1	39	312495	1	13	72	310456	-1	311009	1	553	3	3	2039	52	312508	-53	0												8				56												
WM080112	135932_fnca	1	1	1	-1533937560	1	75.032	75.031	2.0.10.147	2.0.10.242	2.0.10.242	1.0.0.439	7	234	2	3	Verdana	1	80	0	0	0	WM Stimuli\	0.7	1264.42857142857	0.8	834.125	1	824	1	685.9	0.8	943.5	1	669.7	0.8	1135.25	1	596.9	13	432792	2	432780	26	39	432818	-999999	432795	0	13	TrialsPROC	PL_004_92023.png	1	2	57	SessionSelectionList														lure	3	Place	0-Back	50	80	46	0	0	93	2	39	315067	2	14	72	313028	-1	313583	1	555	3	3	2039	53	315081	-54	0												9				57												
WM080112	135932_fnca	1	1	1	-1533937560	1	75.032	75.031	2.0.10.147	2.0.10.242	2.0.10.242	1.0.0.439	7	234	2	3	Verdana	1	80	0	0	0	WM Stimuli\	0.7	1264.42857142857	0.8	834.125	1	824	1	685.9	0.8	943.5	1	669.7	0.8	1135.25	1	596.9	13	432792	2	432780	26	39	432818	-999999	432795	0	13	TrialsPROC	PL_006_92025.png	1	2	58	SessionSelectionList														lure	3	Place	0-Back	51	80	47	0	0	93	3	40	317640	1	13	72	315600	-1	316355	1	755	3	3	2040	53	317653	-54	0												10				58												
WM080112	135932_fnca	1	1	1	-1533937560	1	75.032	75.031	2.0.10.147	2.0.10.242	2.0.10.242	1.0.0.439	7	234	2	3	Verdana	1	80	0	0	0	WM Stimuli\	0.7	1264.42857142857	0.8	834.125	1	824	1	685.9	0.8	943.5	1	669.7	0.8	1135.25	1	596.9	13	432792	2	432780	26	39	432818	-999999	432795	0	14	Cue2BackPROC	""	1	2	59	SessionSelectionList									6	318106	-7	0																																													59												
WM080112	135932_fnca	1	1	1	-1533937560	1	75.032	75.031	2.0.10.147	2.0.10.242	2.0.10.242	1.0.0.439	7	234	2	3	Verdana	1	80	0	0	0	WM Stimuli\	0.7	1264.42857142857	0.8	834.125	1	824	1	685.9	0.8	943.5	1	669.7	0.8	1135.25	1	596.9	13	432792	2	432780	26	39	432818	-999999	432795	0	15	TrialsPROC	FC_010_F5.png	1	2	60	SessionSelectionList														nonlure	3	Face	2-Back	52	80	48	0	0	93	4	39	322704	2	14	65	320665	-1	321961	1	1296	3	3	2039	53	322718	-54	0													1			60												
WM080112	135932_fnca	1	1	1	-1533937560	1	75.032	75.031	2.0.10.147	2.0.10.242	2.0.10.242	1.0.0.439	7	234	2	3	Verdana	1	80	0	0	0	WM Stimuli\	0.7	1264.42857142857	0.8	834.125	1	824	1	685.9	0.8	943.5	1	669.7	0.8	1135.25	1	596.9	13	432792	2	432780	26	39	432818	-999999	432795	0	15	TrialsPROC	FC_012_F6.png	1	2	61	SessionSelectionList														nonlure	3	Face	2-Back	53	80	49	0	0	93	5	39	325276	2	14	72	323237	-1	323991	1	754	3	3	2039	53	325290	-54	0													2			61												
WM080112	135932_fnca	1	1	1	-1533937560	1	75.032	75.031	2.0.10.147	2.0.10.242	2.0.10.242	1.0.0.439	7	234	2	3	Verdana	1	80	0	0	0	WM Stimuli\	0.7	1264.42857142857	0.8	834.125	1	824	1	685.9	0.8	943.5	1	669.7	0.8	1135.25	1	596.9	13	432792	2	432780	26	39	432818	-999999	432795	0	15	TrialsPROC	FC_010_F5.png	1	2	62	SessionSelectionList														target	2	Face	2-Back	54	80	50	0	0	93	1	40	327849	1	13	72	325809	-1	326392	1	583	2	2	2040	53	327862	-54	0													3			62												
WM080112	135932_fnca	1	1	1	-1533937560	1	75.032	75.031	2.0.10.147	2.0.10.242	2.0.10.242	1.0.0.439	7	234	2	3	Verdana	1	80	0	0	0	WM Stimuli\	0.7	1264.42857142857	0.8	834.125	1	824	1	685.9	0.8	943.5	1	669.7	0.8	1135.25	1	596.9	13	432792	2	432780	26	39	432818	-999999	432795	0	15	TrialsPROC	FC_008_F4.png	1	2	63	SessionSelectionList														nonlure	3	Face	2-Back	55	80	51	0	0	93	1	39	330421	1	13	73	328382	-1	329077	1	695	3	3	2039	52	330434	-53	0													4			63												
WM080112	135932_fnca	1	1	1	-1533937560	1	75.032	75.031	2.0.10.147	2.0.10.242	2.0.10.242	1.0.0.439	7	234	2	3	Verdana	1	80	0	0	0	WM Stimuli\	0.7	1264.42857142857	0.8	834.125	1	824	1	685.9	0.8	943.5	1	669.7	0.8	1135.25	1	596.9	13	432792	2	432780	26	39	432818	-999999	432795	0	15	TrialsPROC	FC_012_F6.png	1	2	64	SessionSelectionList														lure	3	Face	2-Back	56	80	52	0	0	93	2	39	332993	2	14	72	330954	-1	332022	1	1068	3	3	2039	53	333007	-54	0													5			64												
WM080112	135932_fnca	1	1	1	-1533937560	1	75.032	75.031	2.0.10.147	2.0.10.242	2.0.10.242	1.0.0.439	7	234	2	3	Verdana	1	80	0	0	0	WM Stimuli\	0.7	1264.42857142857	0.8	834.125	1	824	1	685.9	0.8	943.5	1	669.7	0.8	1135.25	1	596.9	13	432792	2	432780	26	39	432818	-999999	432795	0	15	TrialsPROC	FC_008_F4.png	1	2	65	SessionSelectionList														target	2	Face	2-Back	57	80	53	0	0	93	1	39	335565	2	14	72	333526	-1	334050	1	524	2	2	2039	53	335579	-54	0													6			65												
WM080112	135932_fnca	1	1	1	-1533937560	1	75.032	75.031	2.0.10.147	2.0.10.242	2.0.10.242	1.0.0.439	7	234	2	3	Verdana	1	80	0	0	0	WM Stimuli\	0.7	1264.42857142857	0.8	834.125	1	824	1	685.9	0.8	943.5	1	669.7	0.8	1135.25	1	596.9	13	432792	2	432780	26	39	432818	-999999	432795	0	15	TrialsPROC	FC_007_M4.png	1	2	66	SessionSelectionList														nonlure	3	Face	2-Back	58	80	54	0	0	93	1	39	338151	1	13	86	336112	-1	336766	1	654	3	3	2039	52	338164	-53	0													7			66												
WM080112	135932_fnca	1	1	1	-1533937560	1	75.032	75.031	2.0.10.147	2.0.10.242	2.0.10.242	1.0.0.439	7	234	2	3	Verdana	1	80	0	0	0	WM Stimuli\	0.7	1264.42857142857	0.8	834.125	1	824	1	685.9	0.8	943.5	1	669.7	0.8	1135.25	1	596.9	13	432792	2	432780	26	39	432818	-999999	432795	0	15	TrialsPROC	FC_007_M4.png	1	2	67	SessionSelectionList														lure	3	Face	2-Back	59	80	55	0	0	93	2	39	340723	3	14	72	338684	-1	339444	1	760	3	3	2039	53	340737	-54	0													8			67												
WM080112	135932_fnca	1	1	1	-1533937560	1	75.032	75.031	2.0.10.147	2.0.10.242	2.0.10.242	1.0.0.439	7	234	2	3	Verdana	1	80	0	0	0	WM Stimuli\	0.7	1264.42857142857	0.8	834.125	1	824	1	685.9	0.8	943.5	1	669.7	0.8	1135.25	1	596.9	13	432792	2	432780	26	39	432818	-999999	432795	0	15	TrialsPROC	FC_009_M5.png	1	2	68	SessionSelectionList														nonlure	3	Face	2-Back	60	80	56	0	0	93	3	39	343309	1	13	86	341270	-1	342224	1	954	3	3	2039	52	343322	-53	0													9			68												
WM080112	135932_fnca	1	1	1	-1533937560	1	75.032	75.031	2.0.10.147	2.0.10.242	2.0.10.242	1.0.0.439	7	234	2	3	Verdana	1	80	0	0	0	WM Stimuli\	0.7	1264.42857142857	0.8	834.125	1	824	1	685.9	0.8	943.5	1	669.7	0.8	1135.25	1	596.9	13	432792	2	432780	26	39	432818	-999999	432795	0	15	TrialsPROC	FC_011_M6.png	1	2	69	SessionSelectionList														nonlure	3	Face	2-Back	61	80	57	0	0	93	4	39	345894	2	14	85	343855	-1	344807	1	952	3	3	2039	53	345908	-54	0													10			69												
WM080112	135932_fnca	1	1	1	-1533937560	1	75.032	75.031	2.0.10.147	2.0.10.242	2.0.10.242	1.0.0.439	7	234	2	3	Verdana	1	80	0	0	0	WM Stimuli\	0.7	1264.42857142857	0.8	834.125	1	824	1	685.9	0.8	943.5	1	669.7	0.8	1135.25	1	596.9	13	432792	2	432780	26	39	432818	-999999	432795	0	16	Fix15secPROC	""	1	2	70	SessionSelectionList																																															6	346361	-7	0							70												
WM080112	135932_fnca	1	1	1	-1533937560	1	75.032	75.031	2.0.10.147	2.0.10.242	2.0.10.242	1.0.0.439	7	234	2	3	Verdana	1	80	0	0	0	WM Stimuli\	0.7	1264.42857142857	0.8	834.125	1	824	1	685.9	0.8	943.5	1	669.7	0.8	1135.25	1	596.9	13	432792	2	432780	26	39	432818	-999999	432795	0	17	Cue0BackPROC	TO_007_TOOL7_BA.png	1	2	71	SessionSelectionList																																										26	361381	-27	0												71												
WM080112	135932_fnca	1	1	1	-1533937560	1	75.032	75.031	2.0.10.147	2.0.10.242	2.0.10.242	1.0.0.439	7	234	2	3	Verdana	1	80	0	0	0	WM Stimuli\	0.7	1264.42857142857	0.8	834.125	1	824	1	685.9	0.8	943.5	1	669.7	0.8	1135.25	1	596.9	13	432792	2	432780	26	39	432818	-999999	432795	0	18	TrialsPROC	TO_010_TOOL10_BA.png	1	2	72	SessionSelectionList														nonlure	3	Tools	0-Back	62	80	58	0	0	94	5	39	365966	2	13	72	363927	-1	364744	1	817	3	3	2039	52	365979	-53	0														1		72												
WM080112	135932_fnca	1	1	1	-1533937560	1	75.032	75.031	2.0.10.147	2.0.10.242	2.0.10.242	1.0.0.439	7	234	2	3	Verdana	1	80	0	0	0	WM Stimuli\	0.7	1264.42857142857	0.8	834.125	1	824	1	685.9	0.8	943.5	1	669.7	0.8	1135.25	1	596.9	13	432792	2	432780	26	39	432818	-999999	432795	0	18	TrialsPROC	TO_009_TOOL9_BA.png	1	2	73	SessionSelectionList														nonlure	3	Tools	0-Back	63	80	59	0	0	94	6	39	368538	2	14	72	366499	-1	367158	1	659	3	3	2039	53	368552	-54	0														2		73												
WM080112	135932_fnca	1	1	1	-1533937560	1	75.032	75.031	2.0.10.147	2.0.10.242	2.0.10.242	1.0.0.439	7	234	2	3	Verdana	1	80	0	0	0	WM Stimuli\	0.7	1264.42857142857	0.8	834.125	1	824	1	685.9	0.8	943.5	1	669.7	0.8	1135.25	1	596.9	13	432792	2	432780	26	39	432818	-999999	432795	0	18	TrialsPROC	TO_009_TOOL9_BA.png	1	2	74	SessionSelectionList														lure	3	Tools	0-Back	64	80	60	0	0	94	7	39	371097	2	14	59	369058	-1	369576	1	518	3	3	2039	53	371111	-54	0														3		74												
WM080112	135932_fnca	1	1	1	-1533937560	1	75.032	75.031	2.0.10.147	2.0.10.242	2.0.10.242	1.0.0.439	7	234	2	3	Verdana	1	80	0	0	0	WM Stimuli\	0.7	1264.42857142857	0.8	834.125	1	824	1	685.9	0.8	943.5	1	669.7	0.8	1135.25	1	596.9	13	432792	2	432780	26	39	432818	-999999	432795	0	18	TrialsPROC	TO_008_TOOL8_BA.png	1	2	75	SessionSelectionList														nonlure	3	Tools	0-Back	65	80	61	0	0	94	8	40	373670	1	13	72	371630	-1	372208	1	578	3	3	2040	53	373683	-54	0														4		75												
WM080112	135932_fnca	1	1	1	-1533937560	1	75.032	75.031	2.0.10.147	2.0.10.242	2.0.10.242	1.0.0.439	7	234	2	3	Verdana	1	80	0	0	0	WM Stimuli\	0.7	1264.42857142857	0.8	834.125	1	824	1	685.9	0.8	943.5	1	669.7	0.8	1135.25	1	596.9	13	432792	2	432780	26	39	432818	-999999	432795	0	18	TrialsPROC	TO_011_TOOL11_BA.png	1	2	76	SessionSelectionList														nonlure	3	Tools	0-Back	66	80	62	0	0	94	9	39	376255	2	14	86	374216	-1	374775	1	559	3	3	2039	53	376269	-54	0														5		76												
WM080112	135932_fnca	1	1	1	-1533937560	1	75.032	75.031	2.0.10.147	2.0.10.242	2.0.10.242	1.0.0.439	7	234	2	3	Verdana	1	80	0	0	0	WM Stimuli\	0.7	1264.42857142857	0.8	834.125	1	824	1	685.9	0.8	943.5	1	669.7	0.8	1135.25	1	596.9	13	432792	2	432780	26	39	432818	-999999	432795	0	18	TrialsPROC	TO_012_TOOL12_BA.png	1	2	77	SessionSelectionList														nonlure	3	Tools	0-Back	67	80	63	0	0	94	10	39	378827	2	14	72	376788	-1	377250	1	462	3	3	2039	53	378841	-54	0														6		77												
WM080112	135932_fnca	1	1	1	-1533937560	1	75.032	75.031	2.0.10.147	2.0.10.242	2.0.10.242	1.0.0.439	7	234	2	3	Verdana	1	80	0	0	0	WM Stimuli\	0.7	1264.42857142857	0.8	834.125	1	824	1	685.9	0.8	943.5	1	669.7	0.8	1135.25	1	596.9	13	432792	2	432780	26	39	432818	-999999	432795	0	18	TrialsPROC	TO_010_TOOL10_BA.png	1	2	78	SessionSelectionList														lure	3	Tools	0-Back	68	80	64	0	0	95	11	39	381386	2	14	59	379347	-1	379882	1	535	3	3	2039	53	381400	-54	0														7		78												
WM080112	135932_fnca	1	1	1	-1533937560	1	75.032	75.031	2.0.10.147	2.0.10.242	2.0.10.242	1.0.0.439	7	234	2	3	Verdana	1	80	0	0	0	WM Stimuli\	0.7	1264.42857142857	0.8	834.125	1	824	1	685.9	0.8	943.5	1	669.7	0.8	1135.25	1	596.9	13	432792	2	432780	26	39	432818	-999999	432795	0	18	TrialsPROC	TO_007_TOOL7_BA.png	1	2	79	SessionSelectionList														target	2	Tools	0-Back	69	80	65	0	0	95	1	39	383945	2	14	59	381906	-1	382584	1	678	2	2	2039	53	383959	-54	0														8		79												
WM080112	135932_fnca	1	1	1	-1533937560	1	75.032	75.031	2.0.10.147	2.0.10.242	2.0.10.242	1.0.0.439	7	234	2	3	Verdana	1	80	0	0	0	WM Stimuli\	0.7	1264.42857142857	0.8	834.125	1	824	1	685.9	0.8	943.5	1	669.7	0.8	1135.25	1	596.9	13	432792	2	432780	26	39	432818	-999999	432795	0	18	TrialsPROC	TO_008_TOOL8_BA.png	1	2	80	SessionSelectionList														lure	3	Tools	0-Back	70	80	66	0	0	95	1	39	386504	2	14	59	384465	-1	384922	1	457	3	3	2039	53	386518	-54	0														9		80												
WM080112	135932_fnca	1	1	1	-1533937560	1	75.032	75.031	2.0.10.147	2.0.10.242	2.0.10.242	1.0.0.439	7	234	2	3	Verdana	1	80	0	0	0	WM Stimuli\	0.7	1264.42857142857	0.8	834.125	1	824	1	685.9	0.8	943.5	1	669.7	0.8	1135.25	1	596.9	13	432792	2	432780	26	39	432818	-999999	432795	0	18	TrialsPROC	TO_007_TOOL7_BA.png	1	2	81	SessionSelectionList														target	2	Tools	0-Back	71	80	67	0	0	95	1	39	389063	2	14	59	387024	-1	387730	1	706	2	2	2039	53	389077	-54	0														10		81												
WM080112	135932_fnca	1	1	1	-1533937560	1	75.032	75.031	2.0.10.147	2.0.10.242	2.0.10.242	1.0.0.439	7	234	2	3	Verdana	1	80	0	0	0	WM Stimuli\	0.7	1264.42857142857	0.8	834.125	1	824	1	685.9	0.8	943.5	1	669.7	0.8	1135.25	1	596.9	13	432792	2	432780	26	39	432818	-999999	432795	0	19	Cue2BackPROC	""	1	2	82	SessionSelectionList									6	389530	-7	0																																													82												
WM080112	135932_fnca	1	1	1	-1533937560	1	75.032	75.031	2.0.10.147	2.0.10.242	2.0.10.242	1.0.0.439	7	234	2	3	Verdana	1	80	0	0	0	WM Stimuli\	0.7	1264.42857142857	0.8	834.125	1	824	1	685.9	0.8	943.5	1	669.7	0.8	1135.25	1	596.9	13	432792	2	432780	26	39	432818	-999999	432795	0	20	TrialsPROC	PL_007_92026.png	1	2	83	SessionSelectionList														nonlure	3	Place	2-Back	72	80	68	0	0	95	1	39	394141	1	13	78	392102	-1	393516	1	1414	3	3	2039	52	394154	-53	0															1	83												
WM080112	135932_fnca	1	1	1	-1533937560	1	75.032	75.031	2.0.10.147	2.0.10.242	2.0.10.242	1.0.0.439	7	234	2	3	Verdana	1	80	0	0	0	WM Stimuli\	0.7	1264.42857142857	0.8	834.125	1	824	1	685.9	0.8	943.5	1	669.7	0.8	1135.25	1	596.9	13	432792	2	432780	26	39	432818	-999999	432795	0	20	TrialsPROC	PL_007_92026.png	1	2	84	SessionSelectionList														lure	3	Place	2-Back	73	80	69	0	0	95	2	39	396713	2	14	72	394674	-1	395688	1	1014	3	3	2039	53	396727	-54	0															2	84												
WM080112	135932_fnca	1	1	1	-1533937560	1	75.032	75.031	2.0.10.147	2.0.10.242	2.0.10.242	1.0.0.439	7	234	2	3	Verdana	1	80	0	0	0	WM Stimuli\	0.7	1264.42857142857	0.8	834.125	1	824	1	685.9	0.8	943.5	1	669.7	0.8	1135.25	1	596.9	13	432792	2	432780	26	39	432818	-999999	432795	0	20	TrialsPROC	PL_010_92038.png	1	2	85	SessionSelectionList														nonlure	3	Place	2-Back	74	80	70	0	0	95	3	39	399299	1	13	86	397260	-1	397999	1	739	3	3	2039	52	399312	-53	0															3	85												
WM080112	135932_fnca	1	1	1	-1533937560	1	75.032	75.031	2.0.10.147	2.0.10.242	2.0.10.242	1.0.0.439	7	234	2	3	Verdana	1	80	0	0	0	WM Stimuli\	0.7	1264.42857142857	0.8	834.125	1	824	1	685.9	0.8	943.5	1	669.7	0.8	1135.25	1	596.9	13	432792	2	432780	26	39	432818	-999999	432795	0	20	TrialsPROC	PL_009_92037.png	1	2	86	SessionSelectionList														nonlure	3	Place	2-Back	75	80	71	0	0	95	4	39	401884	2	14	85	399845	-1	400644	1	799	3	3	2039	53	401898	-54	0															4	86												
WM080112	135932_fnca	1	1	1	-1533937560	1	75.032	75.031	2.0.10.147	2.0.10.242	2.0.10.242	1.0.0.439	7	234	2	3	Verdana	1	80	0	0	0	WM Stimuli\	0.7	1264.42857142857	0.8	834.125	1	824	1	685.9	0.8	943.5	1	669.7	0.8	1135.25	1	596.9	13	432792	2	432780	26	39	432818	-999999	432795	0	20	TrialsPROC	PL_010_92038.png	1	2	87	SessionSelectionList														target	2	Place	2-Back	76	80	72	0	0	95	1	38	404443	2	14	60	402405	-1	403626	1	1221	2	2	2038	52	404457	-53	0															5	87												
WM080112	135932_fnca	1	1	1	-1533937560	1	75.032	75.031	2.0.10.147	2.0.10.242	2.0.10.242	1.0.0.439	7	234	2	3	Verdana	1	80	0	0	0	WM Stimuli\	0.7	1264.42857142857	0.8	834.125	1	824	1	685.9	0.8	943.5	1	669.7	0.8	1135.25	1	596.9	13	432792	2	432780	26	39	432818	-999999	432795	0	20	TrialsPROC	PL_009_92037.png	1	2	88	SessionSelectionList														target	2	Place	2-Back	77	80	73	0	0	95	1	38	407002	2	14	59	404964	-1	405954	0	990	3	2	2038	52	407016	-53	0															6	88												
WM080112	135932_fnca	1	1	1	-1533937560	1	75.032	75.031	2.0.10.147	2.0.10.242	2.0.10.242	1.0.0.439	7	234	2	3	Verdana	1	80	0	0	0	WM Stimuli\	0.7	1264.42857142857	0.8	834.125	1	824	1	685.9	0.8	943.5	1	669.7	0.8	1135.25	1	596.9	13	432792	2	432780	26	39	432818	-999999	432795	0	20	TrialsPROC	PL_008_92033.png	1	2	89	SessionSelectionList														nonlure	3	Place	2-Back	78	80	74	0	0	95	2	40	409575	1	13	71	407535	-1	408391	1	856	3	3	2040	53	409588	-54	0															7	89												
WM080112	135932_fnca	1	1	1	-1533937560	1	75.032	75.031	2.0.10.147	2.0.10.242	2.0.10.242	1.0.0.439	7	234	2	3	Verdana	1	80	0	0	0	WM Stimuli\	0.7	1264.42857142857	0.8	834.125	1	824	1	685.9	0.8	943.5	1	669.7	0.8	1135.25	1	596.9	13	432792	2	432780	26	39	432818	-999999	432795	0	20	TrialsPROC	PL_012_92047.png	1	2	90	SessionSelectionList														nonlure	3	Place	2-Back	79	80	75	0	0	95	3	39	412160	2	14	86	410121	-1	410803	1	682	3	3	2039	53	412174	-54	0															8	90												
WM080112	135932_fnca	1	1	1	-1533937560	1	75.032	75.031	2.0.10.147	2.0.10.242	2.0.10.242	1.0.0.439	7	234	2	3	Verdana	1	80	0	0	0	WM Stimuli\	0.7	1264.42857142857	0.8	834.125	1	824	1	685.9	0.8	943.5	1	669.7	0.8	1135.25	1	596.9	13	432792	2	432780	26	39	432818	-999999	432795	0	20	TrialsPROC	PL_012_92047.png	1	2	91	SessionSelectionList														lure	3	Place	2-Back	80	80	76	0	0	95	4	39	414732	2	14	72	412693	-1	413516	1	823	3	3	2039	53	414746	-54	0															9	91												
WM080112	135932_fnca	1	1	1	-1533937560	1	75.032	75.031	2.0.10.147	2.0.10.242	2.0.10.242	1.0.0.439	7	234	2	3	Verdana	1	80	0	0	0	WM Stimuli\	0.7	1264.42857142857	0.8	834.125	1	824	1	685.9	0.8	943.5	1	669.7	0.8	1135.25	1	596.9	13	432792	2	432780	26	39	432818	-999999	432795	0	20	TrialsPROC	PL_011_92044.png	1	2	92	SessionSelectionList														nonlure	3	Place	2-Back	80	80	77	0	0	95	1	39	417318	1	13	86	415279	-1	416000	0	721	2	3	2039	52	417331	-53	0															10	92												
WM080112	135932_fnca	1	1	1	-1533937560	1	75.032	75.031	2.0.10.147	2.0.10.242	2.0.10.242	1.0.0.439	7	234	2	3	Verdana	1	80	0	0	0	WM Stimuli\	0.7	1264.42857142857	0.8	834.125	1	824	1	685.9	0.8	943.5	1	669.7	0.8	1135.25	1	596.9	13	432792	2	432780	26	39	432818	-999999	432795	0	21	Fix15secPROC	""	1	2	93	SessionSelectionList																																															6	417785	-7	0							93												
