ExperimentName	HCPID	RunNumber	Subject	Session	RandomSeed	Group	Laptop.RefreshRate	ScannerD2.RefreshRate	StudioVersion	RuntimeVersion	RuntimeVersionExpected	ExperimentVersion	triggercode	Allowed	Target	Nontarget	FontStyle	RunTrialNumber[Session]	TrialsPerRun[Session]	TotalRespGreater200[Session]	ConsecRTLess200[Session]	ConsecNonResp[Session]	StimuliDir	ACC_2_Back_Body	Avg_RT_For_Correct_Trials_2_Back_Body	ACC_0_Back_Body	Avg_RT_For_Correct_Trials_0_Back_Body	ACC_2_Back_Face	Avg_RT_For_Correct_Trials_2_Back_Face	ACC_0_Back_Face	Avg_RT_For_Correct_Trials_0_Back_Face	ACC_2_Back_Place	Avg_RT_For_Correct_Trials_2_Back_Place	ACC_0_Back_Place	Avg_RT_For_Correct_Trials_0_Back_Place	ACC_2_Back_Tools	Avg_RT_For_Correct_Trials_2_Back_Tools	ACC_0_Back_Tools	Avg_RT_For_Correct_Trials_0_Back_Tools	ExpInstrucFeelFreeToRest.OnsetDelay	ExpInstrucFeelFreeToRest.OnsetTime	ExpInstrucFeelFreeToRest.DurationError	ExpInstrucFeelFreeToRest.StartTime	ExpInstrucFeelFreeToRest.OnsetToOnsetTime	FeelFreeToRest.OnsetDelay	FeelFreeToRest.OnsetTime	FeelFreeToRest.DurationError	FeelFreeToRest.StartTime	FeelFreeToRest.OnsetToOnsetTime	SessionSelectionList	Procedure[Block]	Stimulus[Block]	RunNumberFilterValue	SessionSelectionList.Cycle	SessionSelectionList.Sample	Running[Block]	IntroButtonMap.OnsetDelay	IntroButtonMap.OnsetTime	IntroButtonMap.DurationError	IntroButtonMap.OnsetToOnsetTime	GetReady.OnsetDelay	GetReady.OnsetTime	GetReady.DurationError	GetReady.OnsetToOnsetTime	Cue2Back.OnsetDelay	Cue2Back.OnsetTime	Cue2Back.DurationError	Cue2Back.OnsetToOnsetTime	Run1Block1	TargetType	CorrectResponse	StimType	BlockType	RunTrialNumber[Block]	TrialsPerRun[Block]	TotalRespGreater200[Block]	ConsecRTLess200[Block]	ConsecNonResp[Block]	ControlAcc	ConsecSameResp	ExperimenterWindow.OnsetDelay	ExperimenterWindow.OnsetTime	ExperimenterWindow.DurationError	ExperimenterWindow.OnsetToOnsetTime	Stim.OnsetDelay	Stim.OnsetTime	Stim.DurationError	Stim.RTTime	Stim.ACC	Stim.RT	Stim.RESP	Stim.CRESP	Stim.OnsetToOnsetTime	Fix.OnsetDelay	Fix.OnsetTime	Fix.DurationError	Fix.OnsetToOnsetTime	CueTarget.OnsetDelay	CueTarget.OnsetTime	CueTarget.DurationError	CueTarget.OnsetToOnsetTime	Run1Block2	Fix15sec.OnsetDelay	Fix15sec.OnsetTime	Fix15sec.DurationError	Fix15sec.OnsetToOnsetTime	Run1Block3	Run1Block4	Run1Block5	Run1Block6	Run1Block7	Run1Block8	Block	Procedure[Trial]	Stimulus[Trial]	ReadyList	Running[Trial]	ReadyList.Cycle	ReadyList.Sample	SyncSlide.OnsetDelay	SyncSlide.OnsetTime	SyncSlide.DurationError	SyncSlide.FinishTime	SyncSlide.OnsetToOnsetTime	Trial
WM080112	151223_fnca	1	1	1	-947852435	1	75.031	75.030	2.0.10.147	2.0.10.242	2.0.10.242	1.0.0.439	7	234	2	3	Verdana	1	80	0	0	0	WM Stimuli\	0.4	1081.25	0.7	889.428571428571	0.8	1270.875	1	816.4	0.7	641.714285714286	0.9	995.555555555556	0.7	1147.14285714286	1	876.6	13	388361	2	388349	14	27	388375	-999999	388364	0	1	TRSyncPROC	""	1	2	1	SessionSelectionList	100	23855	-999999	0	34	80965	-999999	0																																																	1	InitialTR	4	1	ReadyList	1	1	19	95119	-20	97099	0	1
WM080112	151223_fnca	1	1	1	-947852435	1	75.031	75.030	2.0.10.147	2.0.10.242	2.0.10.242	1.0.0.439	7	234	2	3	Verdana	1	80	0	0	0	WM Stimuli\	0.4	1081.25	0.7	889.428571428571	0.8	1270.875	1	816.4	0.7	641.714285714286	0.9	995.555555555556	0.7	1147.14285714286	1	876.6	13	388361	2	388349	14	27	388375	-999999	388364	0	1	TRSyncPROC	""	1	2	1	SessionSelectionList	100	23855	-999999	0	34	80965	-999999	0																																																	1	InitialTR	3	2	ReadyList	1	2	18	97118	-19	99099	0	2
WM080112	151223_fnca	1	1	1	-947852435	1	75.031	75.030	2.0.10.147	2.0.10.242	2.0.10.242	1.0.0.439	7	234	2	3	Verdana	1	80	0	0	0	WM Stimuli\	0.4	1081.25	0.7	889.428571428571	0.8	1270.875	1	816.4	0.7	641.714285714286	0.9	995.555555555556	0.7	1147.14285714286	1	876.6	13	388361	2	388349	14	27	388375	-999999	388364	0	1	TRSyncPROC	""	1	2	1	SessionSelectionList	100	23855	-999999	0	34	80965	-999999	0																																																	1	InitialTR	2	3	ReadyList	1	3	4	99104	-5	101099	0	3
WM080112	151223_fnca	1	1	1	-947852435	1	75.031	75.030	2.0.10.147	2.0.10.242	2.0.10.242	1.0.0.439	7	234	2	3	Verdana	1	80	0	0	0	WM Stimuli\	0.4	1081.25	0.7	889.428571428571	0.8	1270.875	1	816.4	0.7	641.714285714286	0.9	995.555555555556	0.7	1147.14285714286	1	876.6	13	388361	2	388349	14	27	388375	-999999	388364	0	1	TRSyncPROC	""	1	2	1	SessionSelectionList	100	23855	-999999	0	34	80965	-999999	0																																																	1	InitialTR	1	4	ReadyList	1	4	3	101103	-4	103099	0	4
WM080112	151223_fnca	1	1	1	-947852435	1	75.031	75.030	2.0.10.147	2.0.10.242	2.0.10.242	1.0.0.439	7	234	2	3	Verdana	1	80	0	0	0	WM Stimuli\	0.4	1081.25	0.7	889.428571428571	0.8	1270.875	1	816.4	0.7	641.714285714286	0.9	995.555555555556	0.7	1147.14285714286	1	876.6	13	388361	2	388349	14	27	388375	-999999	388364	0	2	Cue2BackPROC	""	1	2	2	SessionSelectionList									16	103116	-17	0																																													2												
WM080112	151223_fnca	1	1	1	-947852435	1	75.031	75.030	2.0.10.147	2.0.10.242	2.0.10.242	1.0.0.439	7	234	2	3	Verdana	1	80	0	0	0	WM Stimuli\	0.4	1081.25	0.7	889.428571428571	0.8	1270.875	1	816.4	0.7	641.714285714286	0.9	995.555555555556	0.7	1147.14285714286	1	876.6	13	388361	2	388349	14	27	388375	-999999	388364	0	3	TrialsPROC	BP_002_BP10_BA.png	1	2	3	SessionSelectionList													1	nonlure	3	Body	2-Back	2	80	1	0	0	0	1	52	107727	3	14	75	105675	-1	106380	1	705	3	3	2052	66	107741	-67	0																3												
WM080112	151223_fnca	1	1	1	-947852435	1	75.031	75.030	2.0.10.147	2.0.10.242	2.0.10.242	1.0.0.439	7	234	2	3	Verdana	1	80	0	0	0	WM Stimuli\	0.4	1081.25	0.7	889.428571428571	0.8	1270.875	1	816.4	0.7	641.714285714286	0.9	995.555555555556	0.7	1147.14285714286	1	876.6	13	388361	2	388349	14	27	388375	-999999	388364	0	3	TrialsPROC	BP_001_BP1_BA.png	1	2	4	SessionSelectionList													2	nonlure	3	Body	2-Back	3	80	2	0	0	0	2	39	110286	3	14	72	108247	-1	108982	1	735	3	3	2039	53	110300	-54	0																4												
WM080112	151223_fnca	1	1	1	-947852435	1	75.031	75.030	2.0.10.147	2.0.10.242	2.0.10.242	1.0.0.439	7	234	2	3	Verdana	1	80	0	0	0	WM Stimuli\	0.4	1081.25	0.7	889.428571428571	0.8	1270.875	1	816.4	0.7	641.714285714286	0.9	995.555555555556	0.7	1147.14285714286	1	876.6	13	388361	2	388349	14	27	388375	-999999	388364	0	3	TrialsPROC	BP_006_BP2_BA.png	1	2	5	SessionSelectionList													3	nonlure	3	Body	2-Back	4	80	3	0	0	0	1	39	112845	2	14	59	110806	-1	111489	0	683	2	3	2039	53	112859	-54	0																5												
WM080112	151223_fnca	1	1	1	-947852435	1	75.031	75.030	2.0.10.147	2.0.10.242	2.0.10.242	1.0.0.439	7	234	2	3	Verdana	1	80	0	0	0	WM Stimuli\	0.4	1081.25	0.7	889.428571428571	0.8	1270.875	1	816.4	0.7	641.714285714286	0.9	995.555555555556	0.7	1147.14285714286	1	876.6	13	388361	2	388349	14	27	388375	-999999	388364	0	3	TrialsPROC	BP_001_BP1_BA.png	1	2	6	SessionSelectionList													4	target	2	Body	2-Back	5	80	4	0	0	0	1	40	115418	1	13	72	113378	-1	114239	0	861	3	2	2040	53	115431	-54	0																6												
WM080112	151223_fnca	1	1	1	-947852435	1	75.031	75.030	2.0.10.147	2.0.10.242	2.0.10.242	1.0.0.439	7	234	2	3	Verdana	1	80	0	0	0	WM Stimuli\	0.4	1081.25	0.7	889.428571428571	0.8	1270.875	1	816.4	0.7	641.714285714286	0.9	995.555555555556	0.7	1147.14285714286	1	876.6	13	388361	2	388349	14	27	388375	-999999	388364	0	3	TrialsPROC	BP_005_BP19_BA.png	1	2	7	SessionSelectionList													5	nonlure	3	Body	2-Back	6	80	5	0	0	0	2	39	117990	1	14	73	115951	-1	117266	1	1315	3	3	2039	53	118004	-54	0																7												
WM080112	151223_fnca	1	1	1	-947852435	1	75.031	75.030	2.0.10.147	2.0.10.242	2.0.10.242	1.0.0.439	7	234	2	3	Verdana	1	80	0	0	0	WM Stimuli\	0.4	1081.25	0.7	889.428571428571	0.8	1270.875	1	816.4	0.7	641.714285714286	0.9	995.555555555556	0.7	1147.14285714286	1	876.6	13	388361	2	388349	14	27	388375	-999999	388364	0	3	TrialsPROC	BP_003_BP16_BA.png	1	2	8	SessionSelectionList													6	nonlure	3	Body	2-Back	7	80	6	0	0	0	3	39	120549	1	14	59	118510	-1	120080	1	1570	3	3	2039	53	120563	-54	0																8												
WM080112	151223_fnca	1	1	1	-947852435	1	75.031	75.030	2.0.10.147	2.0.10.242	2.0.10.242	1.0.0.439	7	234	2	3	Verdana	1	80	0	0	0	WM Stimuli\	0.4	1081.25	0.7	889.428571428571	0.8	1270.875	1	816.4	0.7	641.714285714286	0.9	995.555555555556	0.7	1147.14285714286	1	876.6	13	388361	2	388349	14	27	388375	-999999	388364	0	3	TrialsPROC	BP_006_BP2_BA.png	1	2	9	SessionSelectionList													7	lure	3	Body	2-Back	8	80	7	0	0	0	1	39	123108	1	14	59	121069	-1	122364	0	1295	2	3	2039	53	123122	-54	0																9												
WM080112	151223_fnca	1	1	1	-947852435	1	75.031	75.030	2.0.10.147	2.0.10.242	2.0.10.242	1.0.0.439	7	234	2	3	Verdana	1	80	0	0	0	WM Stimuli\	0.4	1081.25	0.7	889.428571428571	0.8	1270.875	1	816.4	0.7	641.714285714286	0.9	995.555555555556	0.7	1147.14285714286	1	876.6	13	388361	2	388349	14	27	388375	-999999	388364	0	3	TrialsPROC	BP_004_BP18_BA.png	1	2	10	SessionSelectionList													8	nonlure	3	Body	2-Back	9	80	8	0	0	0	2	39	125667	1	14	59	123628	-1	124605	0	977	2	3	2039	53	125681	-54	0																10												
WM080112	151223_fnca	1	1	1	-947852435	1	75.031	75.030	2.0.10.147	2.0.10.242	2.0.10.242	1.0.0.439	7	234	2	3	Verdana	1	80	0	0	0	WM Stimuli\	0.4	1081.25	0.7	889.428571428571	0.8	1270.875	1	816.4	0.7	641.714285714286	0.9	995.555555555556	0.7	1147.14285714286	1	876.6	13	388361	2	388349	14	27	388375	-999999	388364	0	3	TrialsPROC	BP_005_BP19_BA.png	1	2	11	SessionSelectionList													9	lure	3	Body	2-Back	10	80	8	0	1	0	2	39	128226	1	14	59	126187	-1	0	0	0	""	3	2039	53	128240	-54	0																11												
WM080112	151223_fnca	1	1	1	-947852435	1	75.031	75.030	2.0.10.147	2.0.10.242	2.0.10.242	1.0.0.439	7	234	2	3	Verdana	1	80	0	0	0	WM Stimuli\	0.4	1081.25	0.7	889.428571428571	0.8	1270.875	1	816.4	0.7	641.714285714286	0.9	995.555555555556	0.7	1147.14285714286	1	876.6	13	388361	2	388349	14	27	388375	-999999	388364	0	3	TrialsPROC	BP_004_BP18_BA.png	1	2	12	SessionSelectionList													10	target	2	Body	2-Back	11	80	9	0	0	0	1	39	130785	1	14	59	128746	-1	129804	0	1058	3	2	2039	53	130799	-54	0																12												
WM080112	151223_fnca	1	1	1	-947852435	1	75.031	75.030	2.0.10.147	2.0.10.242	2.0.10.242	1.0.0.439	7	234	2	3	Verdana	1	80	0	0	0	WM Stimuli\	0.4	1081.25	0.7	889.428571428571	0.8	1270.875	1	816.4	0.7	641.714285714286	0.9	995.555555555556	0.7	1147.14285714286	1	876.6	13	388361	2	388349	14	27	388375	-999999	388364	0	4	Cue0BackPROC	FC_001_M1.png	1	2	13	SessionSelectionList																																										19	131265	-20	0												13												
WM080112	151223_fnca	1	1	1	-947852435	1	75.031	75.030	2.0.10.147	2.0.10.242	2.0.10.242	1.0.0.439	7	234	2	3	Verdana	1	80	0	0	0	WM Stimuli\	0.4	1081.25	0.7	889.428571428571	0.8	1270.875	1	816.4	0.7	641.714285714286	0.9	995.555555555556	0.7	1147.14285714286	1	876.6	13	388361	2	388349	14	27	388375	-999999	388364	0	5	TrialsPROC	FC_005_M3.png	1	2	14	SessionSelectionList														nonlure	3	Face	0-Back	12	80	10	0	0	100	2	39	135849	2	14	64	133810	-1	134756	1	946	3	3	2039	53	135863	-54	0					1											14												
WM080112	151223_fnca	1	1	1	-947852435	1	75.031	75.030	2.0.10.147	2.0.10.242	2.0.10.242	1.0.0.439	7	234	2	3	Verdana	1	80	0	0	0	WM Stimuli\	0.4	1081.25	0.7	889.428571428571	0.8	1270.875	1	816.4	0.7	641.714285714286	0.9	995.555555555556	0.7	1147.14285714286	1	876.6	13	388361	2	388349	14	27	388375	-999999	388364	0	5	TrialsPROC	FC_001_M1.png	1	2	15	SessionSelectionList														target	2	Face	0-Back	13	80	11	0	0	100	1	40	138422	1	13	72	136382	-1	137287	1	905	2	2	2040	53	138435	-54	0					2											15												
WM080112	151223_fnca	1	1	1	-947852435	1	75.031	75.030	2.0.10.147	2.0.10.242	2.0.10.242	1.0.0.439	7	234	2	3	Verdana	1	80	0	0	0	WM Stimuli\	0.4	1081.25	0.7	889.428571428571	0.8	1270.875	1	816.4	0.7	641.714285714286	0.9	995.555555555556	0.7	1147.14285714286	1	876.6	13	388361	2	388349	14	27	388375	-999999	388364	0	5	TrialsPROC	FC_003_M2.png	1	2	16	SessionSelectionList														nonlure	3	Face	0-Back	14	80	12	0	0	100	1	39	140994	1	14	73	138955	-1	140010	1	1055	3	3	2039	53	141008	-54	0					3											16												
WM080112	151223_fnca	1	1	1	-947852435	1	75.031	75.030	2.0.10.147	2.0.10.242	2.0.10.242	1.0.0.439	7	234	2	3	Verdana	1	80	0	0	0	WM Stimuli\	0.4	1081.25	0.7	889.428571428571	0.8	1270.875	1	816.4	0.7	641.714285714286	0.9	995.555555555556	0.7	1147.14285714286	1	876.6	13	388361	2	388349	14	27	388375	-999999	388364	0	5	TrialsPROC	FC_004_F2.png	1	2	17	SessionSelectionList														nonlure	3	Face	0-Back	15	80	13	0	0	100	2	39	143566	2	14	72	141527	-1	142285	1	758	3	3	2039	53	143580	-54	0					4											17												
WM080112	151223_fnca	1	1	1	-947852435	1	75.031	75.030	2.0.10.147	2.0.10.242	2.0.10.242	1.0.0.439	7	234	2	3	Verdana	1	80	0	0	0	WM Stimuli\	0.4	1081.25	0.7	889.428571428571	0.8	1270.875	1	816.4	0.7	641.714285714286	0.9	995.555555555556	0.7	1147.14285714286	1	876.6	13	388361	2	388349	14	27	388375	-999999	388364	0	5	TrialsPROC	FC_004_F2.png	1	2	18	SessionSelectionList														lure	3	Face	0-Back	16	80	14	0	0	100	3	40	146139	1	13	72	144099	-1	144623	1	524	3	3	2040	53	146152	-54	0					5											18												
WM080112	151223_fnca	1	1	1	-947852435	1	75.031	75.030	2.0.10.147	2.0.10.242	2.0.10.242	1.0.0.439	7	234	2	3	Verdana	1	80	0	0	0	WM Stimuli\	0.4	1081.25	0.7	889.428571428571	0.8	1270.875	1	816.4	0.7	641.714285714286	0.9	995.555555555556	0.7	1147.14285714286	1	876.6	13	388361	2	388349	14	27	388375	-999999	388364	0	5	TrialsPROC	FC_001_M1.png	1	2	19	SessionSelectionList														target	2	Face	0-Back	17	80	15	0	0	100	1	39	148711	1	14	73	146672	-1	147437	1	765	2	2	2039	53	148725	-54	0					6											19												
WM080112	151223_fnca	1	1	1	-947852435	1	75.031	75.030	2.0.10.147	2.0.10.242	2.0.10.242	1.0.0.439	7	234	2	3	Verdana	1	80	0	0	0	WM Stimuli\	0.4	1081.25	0.7	889.428571428571	0.8	1270.875	1	816.4	0.7	641.714285714286	0.9	995.555555555556	0.7	1147.14285714286	1	876.6	13	388361	2	388349	14	27	388375	-999999	388364	0	5	TrialsPROC	FC_006_F3.png	1	2	20	SessionSelectionList														nonlure	3	Face	0-Back	18	80	16	0	0	100	1	39	151283	2	14	72	149244	-1	149898	1	654	3	3	2039	53	151297	-54	0					7											20												
WM080112	151223_fnca	1	1	1	-947852435	1	75.031	75.030	2.0.10.147	2.0.10.242	2.0.10.242	1.0.0.439	7	234	2	3	Verdana	1	80	0	0	0	WM Stimuli\	0.4	1081.25	0.7	889.428571428571	0.8	1270.875	1	816.4	0.7	641.714285714286	0.9	995.555555555556	0.7	1147.14285714286	1	876.6	13	388361	2	388349	14	27	388375	-999999	388364	0	5	TrialsPROC	FC_006_F3.png	1	2	21	SessionSelectionList														lure	3	Face	0-Back	19	80	17	0	0	100	2	39	153855	2	14	72	151816	-1	152295	1	479	3	3	2039	53	153869	-54	0					8											21												
WM080112	151223_fnca	1	1	1	-947852435	1	75.031	75.030	2.0.10.147	2.0.10.242	2.0.10.242	1.0.0.439	7	234	2	3	Verdana	1	80	0	0	0	WM Stimuli\	0.4	1081.25	0.7	889.428571428571	0.8	1270.875	1	816.4	0.7	641.714285714286	0.9	995.555555555556	0.7	1147.14285714286	1	876.6	13	388361	2	388349	14	27	388375	-999999	388364	0	5	TrialsPROC	FC_003_M2.png	1	2	22	SessionSelectionList														lure	3	Face	0-Back	20	80	18	0	0	100	3	39	156428	1	13	73	154389	-1	155838	1	1449	3	3	2039	52	156441	-53	0					9											22												
WM080112	151223_fnca	1	1	1	-947852435	1	75.031	75.030	2.0.10.147	2.0.10.242	2.0.10.242	1.0.0.439	7	234	2	3	Verdana	1	80	0	0	0	WM Stimuli\	0.4	1081.25	0.7	889.428571428571	0.8	1270.875	1	816.4	0.7	641.714285714286	0.9	995.555555555556	0.7	1147.14285714286	1	876.6	13	388361	2	388349	14	27	388375	-999999	388364	0	5	TrialsPROC	FC_002_F1.png	1	2	23	SessionSelectionList														nonlure	3	Face	0-Back	21	80	19	0	0	100	4	39	159000	1	14	72	156961	-1	157590	1	629	3	3	2039	53	159014	-54	0					10											23												
WM080112	151223_fnca	1	1	1	-947852435	1	75.031	75.030	2.0.10.147	2.0.10.242	2.0.10.242	1.0.0.439	7	234	2	3	Verdana	1	80	0	0	0	WM Stimuli\	0.4	1081.25	0.7	889.428571428571	0.8	1270.875	1	816.4	0.7	641.714285714286	0.9	995.555555555556	0.7	1147.14285714286	1	876.6	13	388361	2	388349	14	27	388375	-999999	388364	0	6	Fix15secPROC	""	1	2	24	SessionSelectionList																																															6	159467	-7	0							24												
WM080112	151223_fnca	1	1	1	-947852435	1	75.031	75.030	2.0.10.147	2.0.10.242	2.0.10.242	1.0.0.439	7	234	2	3	Verdana	1	80	0	0	0	WM Stimuli\	0.4	1081.25	0.7	889.428571428571	0.8	1270.875	1	816.4	0.7	641.714285714286	0.9	995.555555555556	0.7	1147.14285714286	1	876.6	13	388361	2	388349	14	27	388375	-999999	388364	0	7	Cue2BackPROC	""	1	2	25	SessionSelectionList									13	174474	-14	0																																													25												
WM080112	151223_fnca	1	1	1	-947852435	1	75.031	75.030	2.0.10.147	2.0.10.242	2.0.10.242	1.0.0.439	7	234	2	3	Verdana	1	80	0	0	0	WM Stimuli\	0.4	1081.25	0.7	889.428571428571	0.8	1270.875	1	816.4	0.7	641.714285714286	0.9	995.555555555556	0.7	1147.14285714286	1	876.6	13	388361	2	388349	14	27	388375	-999999	388364	0	8	TrialsPROC	TO_001_TOOL1_BA.png	1	2	26	SessionSelectionList														nonlure	3	Tools	2-Back	22	80	20	0	0	100	5	40	179059	1	13	58	177019	-1	178728	1	1709	3	3	2040	53	179072	-54	0										1						26												
WM080112	151223_fnca	1	1	1	-947852435	1	75.031	75.030	2.0.10.147	2.0.10.242	2.0.10.242	1.0.0.439	7	234	2	3	Verdana	1	80	0	0	0	WM Stimuli\	0.4	1081.25	0.7	889.428571428571	0.8	1270.875	1	816.4	0.7	641.714285714286	0.9	995.555555555556	0.7	1147.14285714286	1	876.6	13	388361	2	388349	14	27	388375	-999999	388364	0	8	TrialsPROC	TO_002_TOOL2_BA.png	1	2	27	SessionSelectionList														nonlure	3	Tools	2-Back	23	80	21	0	0	100	6	40	181618	1	13	59	179578	-1	180666	1	1088	3	3	2040	53	181631	-54	0										2						27												
WM080112	151223_fnca	1	1	1	-947852435	1	75.031	75.030	2.0.10.147	2.0.10.242	2.0.10.242	1.0.0.439	7	234	2	3	Verdana	1	80	0	0	0	WM Stimuli\	0.4	1081.25	0.7	889.428571428571	0.8	1270.875	1	816.4	0.7	641.714285714286	0.9	995.555555555556	0.7	1147.14285714286	1	876.6	13	388361	2	388349	14	27	388375	-999999	388364	0	8	TrialsPROC	TO_004_TOOL4_BA.png	1	2	28	SessionSelectionList														nonlure	3	Tools	2-Back	24	80	21	0	1	100	6	40	184177	1	13	59	182137	-1	0	0	0	""	3	2040	53	184190	-54	0										3						28												
WM080112	151223_fnca	1	1	1	-947852435	1	75.031	75.030	2.0.10.147	2.0.10.242	2.0.10.242	1.0.0.439	7	234	2	3	Verdana	1	80	0	0	0	WM Stimuli\	0.4	1081.25	0.7	889.428571428571	0.8	1270.875	1	816.4	0.7	641.714285714286	0.9	995.555555555556	0.7	1147.14285714286	1	876.6	13	388361	2	388349	14	27	388375	-999999	388364	0	8	TrialsPROC	TO_002_TOOL2_BA.png	1	2	29	SessionSelectionList														target	2	Tools	2-Back	25	80	22	0	0	100	1	40	186736	1	13	59	184696	-1	185746	1	1050	2	2	2040	53	186749	-54	0										4						29												
WM080112	151223_fnca	1	1	1	-947852435	1	75.031	75.030	2.0.10.147	2.0.10.242	2.0.10.242	1.0.0.439	7	234	2	3	Verdana	1	80	0	0	0	WM Stimuli\	0.4	1081.25	0.7	889.428571428571	0.8	1270.875	1	816.4	0.7	641.714285714286	0.9	995.555555555556	0.7	1147.14285714286	1	876.6	13	388361	2	388349	14	27	388375	-999999	388364	0	8	TrialsPROC	TO_001_TOOL1_BA.png	1	2	30	SessionSelectionList														lure	3	Tools	2-Back	26	80	23	0	0	100	2	39	189294	2	14	59	187255	-1	188052	0	797	2	3	2039	53	189308	-54	0										5						30												
WM080112	151223_fnca	1	1	1	-947852435	1	75.031	75.030	2.0.10.147	2.0.10.242	2.0.10.242	1.0.0.439	7	234	2	3	Verdana	1	80	0	0	0	WM Stimuli\	0.4	1081.25	0.7	889.428571428571	0.8	1270.875	1	816.4	0.7	641.714285714286	0.9	995.555555555556	0.7	1147.14285714286	1	876.6	13	388361	2	388349	14	27	388375	-999999	388364	0	8	TrialsPROC	TO_004_TOOL4_BA.png	1	2	31	SessionSelectionList														lure	3	Tools	2-Back	27	80	24	0	0	100	3	39	191853	2	14	59	189814	-1	191022	0	1208	2	3	2039	53	191867	-54	0										6						31												
WM080112	151223_fnca	1	1	1	-947852435	1	75.031	75.030	2.0.10.147	2.0.10.242	2.0.10.242	1.0.0.439	7	234	2	3	Verdana	1	80	0	0	0	WM Stimuli\	0.4	1081.25	0.7	889.428571428571	0.8	1270.875	1	816.4	0.7	641.714285714286	0.9	995.555555555556	0.7	1147.14285714286	1	876.6	13	388361	2	388349	14	27	388375	-999999	388364	0	8	TrialsPROC	TO_006_TOOL6_BA.png	1	2	32	SessionSelectionList														nonlure	3	Tools	2-Back	28	80	25	0	0	100	1	39	194412	2	14	59	192373	-1	193520	1	1147	3	3	2039	53	194426	-54	0										7						32												
WM080112	151223_fnca	1	1	1	-947852435	1	75.031	75.030	2.0.10.147	2.0.10.242	2.0.10.242	1.0.0.439	7	234	2	3	Verdana	1	80	0	0	0	WM Stimuli\	0.4	1081.25	0.7	889.428571428571	0.8	1270.875	1	816.4	0.7	641.714285714286	0.9	995.555555555556	0.7	1147.14285714286	1	876.6	13	388361	2	388349	14	27	388375	-999999	388364	0	8	TrialsPROC	TO_005_TOOL5_BA.png	1	2	33	SessionSelectionList														nonlure	3	Tools	2-Back	29	80	26	0	0	100	2	39	196971	2	14	59	194932	-1	196268	1	1336	3	3	2039	53	196985	-54	0										8						33												
WM080112	151223_fnca	1	1	1	-947852435	1	75.031	75.030	2.0.10.147	2.0.10.242	2.0.10.242	1.0.0.439	7	234	2	3	Verdana	1	80	0	0	0	WM Stimuli\	0.4	1081.25	0.7	889.428571428571	0.8	1270.875	1	816.4	0.7	641.714285714286	0.9	995.555555555556	0.7	1147.14285714286	1	876.6	13	388361	2	388349	14	27	388375	-999999	388364	0	8	TrialsPROC	TO_006_TOOL6_BA.png	1	2	34	SessionSelectionList														target	2	Tools	2-Back	30	80	27	0	0	100	1	39	199530	2	14	59	197491	-1	198368	1	877	2	2	2039	53	199544	-54	0										9						34												
WM080112	151223_fnca	1	1	1	-947852435	1	75.031	75.030	2.0.10.147	2.0.10.242	2.0.10.242	1.0.0.439	7	234	2	3	Verdana	1	80	0	0	0	WM Stimuli\	0.4	1081.25	0.7	889.428571428571	0.8	1270.875	1	816.4	0.7	641.714285714286	0.9	995.555555555556	0.7	1147.14285714286	1	876.6	13	388361	2	388349	14	27	388375	-999999	388364	0	8	TrialsPROC	TO_003_TOOL3_BA.png	1	2	35	SessionSelectionList														nonlure	3	Tools	2-Back	31	80	28	0	0	100	1	39	202089	2	14	59	200050	-1	200873	1	823	3	3	2039	53	202103	-54	0										10						35												
WM080112	151223_fnca	1	1	1	-947852435	1	75.031	75.030	2.0.10.147	2.0.10.242	2.0.10.242	1.0.0.439	7	234	2	3	Verdana	1	80	0	0	0	WM Stimuli\	0.4	1081.25	0.7	889.428571428571	0.8	1270.875	1	816.4	0.7	641.714285714286	0.9	995.555555555556	0.7	1147.14285714286	1	876.6	13	388361	2	388349	14	27	388375	-999999	388364	0	9	Cue0BackPROC	BP_007_BP20_BA.png	1	2	36	SessionSelectionList																																										19	202569	-20	0												36												
WM080112	151223_fnca	1	1	1	-947852435	1	75.031	75.030	2.0.10.147	2.0.10.242	2.0.10.242	1.0.0.439	7	234	2	3	Verdana	1	80	0	0	0	WM Stimuli\	0.4	1081.25	0.7	889.428571428571	0.8	1270.875	1	816.4	0.7	641.714285714286	0.9	995.555555555556	0.7	1147.14285714286	1	876.6	13	388361	2	388349	14	27	388375	-999999	388364	0	10	TrialsPROC	BP_007_BP20_BA.png	1	2	37	SessionSelectionList														target	2	Body	0-Back	32	80	28	0	1	91	1	40	207141	1	13	51	205101	-1	0	0	0	""	2	2040	53	207154	-54	0											1					37												
WM080112	151223_fnca	1	1	1	-947852435	1	75.031	75.030	2.0.10.147	2.0.10.242	2.0.10.242	1.0.0.439	7	234	2	3	Verdana	1	80	0	0	0	WM Stimuli\	0.4	1081.25	0.7	889.428571428571	0.8	1270.875	1	816.4	0.7	641.714285714286	0.9	995.555555555556	0.7	1147.14285714286	1	876.6	13	388361	2	388349	14	27	388375	-999999	388364	0	10	TrialsPROC	BP_011_BP4_BA.png	1	2	38	SessionSelectionList														nonlure	3	Body	0-Back	33	80	29	0	0	92	1	39	209713	1	14	73	207674	-1	208647	1	973	3	3	2039	53	209727	-54	0											2					38												
WM080112	151223_fnca	1	1	1	-947852435	1	75.031	75.030	2.0.10.147	2.0.10.242	2.0.10.242	1.0.0.439	7	234	2	3	Verdana	1	80	0	0	0	WM Stimuli\	0.4	1081.25	0.7	889.428571428571	0.8	1270.875	1	816.4	0.7	641.714285714286	0.9	995.555555555556	0.7	1147.14285714286	1	876.6	13	388361	2	388349	14	27	388375	-999999	388364	0	10	TrialsPROC	BP_010_BP3_BA.png	1	2	39	SessionSelectionList														nonlure	3	Body	0-Back	34	80	29	0	1	85	1	39	212272	1	14	59	210233	-1	0	0	0	""	3	2039	53	212286	-54	0											3					39												
WM080112	151223_fnca	1	1	1	-947852435	1	75.031	75.030	2.0.10.147	2.0.10.242	2.0.10.242	1.0.0.439	7	234	2	3	Verdana	1	80	0	0	0	WM Stimuli\	0.4	1081.25	0.7	889.428571428571	0.8	1270.875	1	816.4	0.7	641.714285714286	0.9	995.555555555556	0.7	1147.14285714286	1	876.6	13	388361	2	388349	14	27	388375	-999999	388364	0	10	TrialsPROC	BP_008_BP21_BA.png	1	2	40	SessionSelectionList														nonlure	3	Body	0-Back	35	80	30	0	0	86	1	39	214831	1	14	59	212792	-1	213443	1	651	3	3	2039	53	214845	-54	0											4					40												
WM080112	151223_fnca	1	1	1	-947852435	1	75.031	75.030	2.0.10.147	2.0.10.242	2.0.10.242	1.0.0.439	7	234	2	3	Verdana	1	80	0	0	0	WM Stimuli\	0.4	1081.25	0.7	889.428571428571	0.8	1270.875	1	816.4	0.7	641.714285714286	0.9	995.555555555556	0.7	1147.14285714286	1	876.6	13	388361	2	388349	14	27	388375	-999999	388364	0	10	TrialsPROC	BP_011_BP4_BA.png	1	2	41	SessionSelectionList														lure	3	Body	0-Back	36	80	30	0	1	80	1	39	217403	2	14	72	215364	-1	0	0	0	""	3	2039	53	217417	-54	0											5					41												
WM080112	151223_fnca	1	1	1	-947852435	1	75.031	75.030	2.0.10.147	2.0.10.242	2.0.10.242	1.0.0.439	7	234	2	3	Verdana	1	80	0	0	0	WM Stimuli\	0.4	1081.25	0.7	889.428571428571	0.8	1270.875	1	816.4	0.7	641.714285714286	0.9	995.555555555556	0.7	1147.14285714286	1	876.6	13	388361	2	388349	14	27	388375	-999999	388364	0	10	TrialsPROC	BP_009_BP22_BA.png	1	2	42	SessionSelectionList														nonlure	3	Body	0-Back	37	80	31	0	0	81	1	39	219962	2	14	59	217923	-1	218952	1	1029	3	3	2039	53	219976	-54	0											6					42												
WM080112	151223_fnca	1	1	1	-947852435	1	75.031	75.030	2.0.10.147	2.0.10.242	2.0.10.242	1.0.0.439	7	234	2	3	Verdana	1	80	0	0	0	WM Stimuli\	0.4	1081.25	0.7	889.428571428571	0.8	1270.875	1	816.4	0.7	641.714285714286	0.9	995.555555555556	0.7	1147.14285714286	1	876.6	13	388361	2	388349	14	27	388375	-999999	388364	0	10	TrialsPROC	BP_009_BP22_BA.png	1	2	43	SessionSelectionList														lure	3	Body	0-Back	38	80	32	0	0	82	2	39	222521	1	14	59	220482	-1	221624	1	1142	3	3	2039	53	222535	-54	0											7					43												
WM080112	151223_fnca	1	1	1	-947852435	1	75.031	75.030	2.0.10.147	2.0.10.242	2.0.10.242	1.0.0.439	7	234	2	3	Verdana	1	80	0	0	0	WM Stimuli\	0.4	1081.25	0.7	889.428571428571	0.8	1270.875	1	816.4	0.7	641.714285714286	0.9	995.555555555556	0.7	1147.14285714286	1	876.6	13	388361	2	388349	14	27	388375	-999999	388364	0	10	TrialsPROC	BP_008_BP21_BA.png	1	2	44	SessionSelectionList														lure	3	Body	0-Back	39	80	33	0	0	83	3	39	225080	1	14	59	223041	-1	223817	1	776	3	3	2039	53	225094	-54	0											8					44												
WM080112	151223_fnca	1	1	1	-947852435	1	75.031	75.030	2.0.10.147	2.0.10.242	2.0.10.242	1.0.0.439	7	234	2	3	Verdana	1	80	0	0	0	WM Stimuli\	0.4	1081.25	0.7	889.428571428571	0.8	1270.875	1	816.4	0.7	641.714285714286	0.9	995.555555555556	0.7	1147.14285714286	1	876.6	13	388361	2	388349	14	27	388375	-999999	388364	0	10	TrialsPROC	BP_007_BP20_BA.png	1	2	45	SessionSelectionList														target	2	Body	0-Back	40	80	34	0	0	84	1	39	227639	1	14	59	225600	-1	226257	1	657	2	2	2039	53	227653	-54	0											9					45												
WM080112	151223_fnca	1	1	1	-947852435	1	75.031	75.030	2.0.10.147	2.0.10.242	2.0.10.242	1.0.0.439	7	234	2	3	Verdana	1	80	0	0	0	WM Stimuli\	0.4	1081.25	0.7	889.428571428571	0.8	1270.875	1	816.4	0.7	641.714285714286	0.9	995.555555555556	0.7	1147.14285714286	1	876.6	13	388361	2	388349	14	27	388375	-999999	388364	0	10	TrialsPROC	BP_012_BP5_BA.png	1	2	46	SessionSelectionList														nonlure	3	Body	0-Back	41	80	35	0	0	85	1	39	230198	1	14	59	228159	-1	229157	1	998	3	3	2039	53	230212	-54	0											10					46												
WM080112	151223_fnca	1	1	1	-947852435	1	75.031	75.030	2.0.10.147	2.0.10.242	2.0.10.242	1.0.0.439	7	234	2	3	Verdana	1	80	0	0	0	WM Stimuli\	0.4	1081.25	0.7	889.428571428571	0.8	1270.875	1	816.4	0.7	641.714285714286	0.9	995.555555555556	0.7	1147.14285714286	1	876.6	13	388361	2	388349	14	27	388375	-999999	388364	0	11	Fix15secPROC	""	1	2	47	SessionSelectionList																																															6	230665	-7	0							47												
WM080112	151223_fnca	1	1	1	-947852435	1	75.031	75.030	2.0.10.147	2.0.10.242	2.0.10.242	1.0.0.439	7	234	2	3	Verdana	1	80	0	0	0	WM Stimuli\	0.4	1081.25	0.7	889.428571428571	0.8	1270.875	1	816.4	0.7	641.714285714286	0.9	995.555555555556	0.7	1147.14285714286	1	876.6	13	388361	2	388349	14	27	388375	-999999	388364	0	12	Cue0BackPROC	PL_001_92012.png	1	2	48	SessionSelectionList																																										13	245672	-14	0												48												
WM080112	151223_fnca	1	1	1	-947852435	1	75.031	75.030	2.0.10.147	2.0.10.242	2.0.10.242	1.0.0.439	7	234	2	3	Verdana	1	80	0	0	0	WM Stimuli\	0.4	1081.25	0.7	889.428571428571	0.8	1270.875	1	816.4	0.7	641.714285714286	0.9	995.555555555556	0.7	1147.14285714286	1	876.6	13	388361	2	388349	14	27	388375	-999999	388364	0	13	TrialsPROC	PL_003_92016.png	1	2	49	SessionSelectionList														nonlure	3	Place	0-Back	42	80	36	0	0	86	2	39	250270	1	14	72	248231	-1	249276	1	1045	3	3	2039	53	250284	-54	0												1				49												
WM080112	151223_fnca	1	1	1	-947852435	1	75.031	75.030	2.0.10.147	2.0.10.242	2.0.10.242	1.0.0.439	7	234	2	3	Verdana	1	80	0	0	0	WM Stimuli\	0.4	1081.25	0.7	889.428571428571	0.8	1270.875	1	816.4	0.7	641.714285714286	0.9	995.555555555556	0.7	1147.14285714286	1	876.6	13	388361	2	388349	14	27	388375	-999999	388364	0	13	TrialsPROC	PL_003_92016.png	1	2	50	SessionSelectionList														lure	3	Place	0-Back	43	80	37	0	0	86	3	39	252842	3	14	72	250803	-1	252007	1	1204	3	3	2039	53	252856	-54	0												2				50												
WM080112	151223_fnca	1	1	1	-947852435	1	75.031	75.030	2.0.10.147	2.0.10.242	2.0.10.242	1.0.0.439	7	234	2	3	Verdana	1	80	0	0	0	WM Stimuli\	0.4	1081.25	0.7	889.428571428571	0.8	1270.875	1	816.4	0.7	641.714285714286	0.9	995.555555555556	0.7	1147.14285714286	1	876.6	13	388361	2	388349	14	27	388375	-999999	388364	0	13	TrialsPROC	PL_006_92025.png	1	2	51	SessionSelectionList														nonlure	3	Place	0-Back	44	80	38	0	0	87	4	39	255414	2	14	72	253375	-1	254472	1	1097	3	3	2039	53	255428	-54	0												3				51												
WM080112	151223_fnca	1	1	1	-947852435	1	75.031	75.030	2.0.10.147	2.0.10.242	2.0.10.242	1.0.0.439	7	234	2	3	Verdana	1	80	0	0	0	WM Stimuli\	0.4	1081.25	0.7	889.428571428571	0.8	1270.875	1	816.4	0.7	641.714285714286	0.9	995.555555555556	0.7	1147.14285714286	1	876.6	13	388361	2	388349	14	27	388375	-999999	388364	0	13	TrialsPROC	PL_001_92012.png	1	2	52	SessionSelectionList														target	2	Place	0-Back	45	80	38	0	1	83	4	39	257987	1	13	73	255948	-1	0	0	0	""	2	2039	52	258000	-53	0												4				52												
WM080112	151223_fnca	1	1	1	-947852435	1	75.031	75.030	2.0.10.147	2.0.10.242	2.0.10.242	1.0.0.439	7	234	2	3	Verdana	1	80	0	0	0	WM Stimuli\	0.4	1081.25	0.7	889.428571428571	0.8	1270.875	1	816.4	0.7	641.714285714286	0.9	995.555555555556	0.7	1147.14285714286	1	876.6	13	388361	2	388349	14	27	388375	-999999	388364	0	13	TrialsPROC	PL_004_92023.png	1	2	53	SessionSelectionList														nonlure	3	Place	0-Back	46	80	39	0	0	84	1	39	260559	1	14	72	258520	-1	259256	1	736	3	3	2039	53	260573	-54	0												5				53												
WM080112	151223_fnca	1	1	1	-947852435	1	75.031	75.030	2.0.10.147	2.0.10.242	2.0.10.242	1.0.0.439	7	234	2	3	Verdana	1	80	0	0	0	WM Stimuli\	0.4	1081.25	0.7	889.428571428571	0.8	1270.875	1	816.4	0.7	641.714285714286	0.9	995.555555555556	0.7	1147.14285714286	1	876.6	13	388361	2	388349	14	27	388375	-999999	388364	0	13	TrialsPROC	PL_005_92024.png	1	2	54	SessionSelectionList														nonlure	3	Place	0-Back	47	80	40	0	0	85	2	39	263131	2	14	72	261092	-1	262002	1	910	3	3	2039	53	263145	-54	0												6				54												
WM080112	151223_fnca	1	1	1	-947852435	1	75.031	75.030	2.0.10.147	2.0.10.242	2.0.10.242	1.0.0.439	7	234	2	3	Verdana	1	80	0	0	0	WM Stimuli\	0.4	1081.25	0.7	889.428571428571	0.8	1270.875	1	816.4	0.7	641.714285714286	0.9	995.555555555556	0.7	1147.14285714286	1	876.6	13	388361	2	388349	14	27	388375	-999999	388364	0	13	TrialsPROC	PL_001_92012.png	1	2	55	SessionSelectionList														target	2	Place	0-Back	48	80	41	0	0	85	1	40	265704	1	13	72	263664	-1	264666	1	1002	2	2	2040	53	265717	-54	0												7				55												
WM080112	151223_fnca	1	1	1	-947852435	1	75.031	75.030	2.0.10.147	2.0.10.242	2.0.10.242	1.0.0.439	7	234	2	3	Verdana	1	80	0	0	0	WM Stimuli\	0.4	1081.25	0.7	889.428571428571	0.8	1270.875	1	816.4	0.7	641.714285714286	0.9	995.555555555556	0.7	1147.14285714286	1	876.6	13	388361	2	388349	14	27	388375	-999999	388364	0	13	TrialsPROC	PL_002_92014.png	1	2	56	SessionSelectionList														nonlure	3	Place	0-Back	49	80	42	0	0	86	1	39	268276	1	14	73	266237	-1	267046	1	809	3	3	2039	53	268290	-54	0												8				56												
WM080112	151223_fnca	1	1	1	-947852435	1	75.031	75.030	2.0.10.147	2.0.10.242	2.0.10.242	1.0.0.439	7	234	2	3	Verdana	1	80	0	0	0	WM Stimuli\	0.4	1081.25	0.7	889.428571428571	0.8	1270.875	1	816.4	0.7	641.714285714286	0.9	995.555555555556	0.7	1147.14285714286	1	876.6	13	388361	2	388349	14	27	388375	-999999	388364	0	13	TrialsPROC	PL_004_92023.png	1	2	57	SessionSelectionList														lure	3	Place	0-Back	50	80	43	0	0	86	2	39	270848	2	14	72	268809	-1	269470	1	661	3	3	2039	53	270862	-54	0												9				57												
WM080112	151223_fnca	1	1	1	-947852435	1	75.031	75.030	2.0.10.147	2.0.10.242	2.0.10.242	1.0.0.439	7	234	2	3	Verdana	1	80	0	0	0	WM Stimuli\	0.4	1081.25	0.7	889.428571428571	0.8	1270.875	1	816.4	0.7	641.714285714286	0.9	995.555555555556	0.7	1147.14285714286	1	876.6	13	388361	2	388349	14	27	388375	-999999	388364	0	13	TrialsPROC	PL_006_92025.png	1	2	58	SessionSelectionList														lure	3	Place	0-Back	51	80	44	0	0	87	3	39	273420	2	14	72	271381	-1	272877	1	1496	3	3	2039	53	273434	-54	0												10				58												
WM080112	151223_fnca	1	1	1	-947852435	1	75.031	75.030	2.0.10.147	2.0.10.242	2.0.10.242	1.0.0.439	7	234	2	3	Verdana	1	80	0	0	0	WM Stimuli\	0.4	1081.25	0.7	889.428571428571	0.8	1270.875	1	816.4	0.7	641.714285714286	0.9	995.555555555556	0.7	1147.14285714286	1	876.6	13	388361	2	388349	14	27	388375	-999999	388364	0	14	Cue2BackPROC	""	1	2	59	SessionSelectionList									6	273887	-7	0																																													59												
WM080112	151223_fnca	1	1	1	-947852435	1	75.031	75.030	2.0.10.147	2.0.10.242	2.0.10.242	1.0.0.439	7	234	2	3	Verdana	1	80	0	0	0	WM Stimuli\	0.4	1081.25	0.7	889.428571428571	0.8	1270.875	1	816.4	0.7	641.714285714286	0.9	995.555555555556	0.7	1147.14285714286	1	876.6	13	388361	2	388349	14	27	388375	-999999	388364	0	15	TrialsPROC	FC_010_F5.png	1	2	60	SessionSelectionList														nonlure	3	Face	2-Back	52	80	44	0	1	87	3	39	278485	2	14	65	276446	-1	0	0	0	""	3	2039	53	278499	-54	0													1			60												
WM080112	151223_fnca	1	1	1	-947852435	1	75.031	75.030	2.0.10.147	2.0.10.242	2.0.10.242	1.0.0.439	7	234	2	3	Verdana	1	80	0	0	0	WM Stimuli\	0.4	1081.25	0.7	889.428571428571	0.8	1270.875	1	816.4	0.7	641.714285714286	0.9	995.555555555556	0.7	1147.14285714286	1	876.6	13	388361	2	388349	14	27	388375	-999999	388364	0	15	TrialsPROC	FC_012_F6.png	1	2	61	SessionSelectionList														nonlure	3	Face	2-Back	53	80	45	0	0	87	1	39	281057	2	14	72	279018	-1	279487	1	469	3	3	2039	53	281071	-54	0													2			61												
WM080112	151223_fnca	1	1	1	-947852435	1	75.031	75.030	2.0.10.147	2.0.10.242	2.0.10.242	1.0.0.439	7	234	2	3	Verdana	1	80	0	0	0	WM Stimuli\	0.4	1081.25	0.7	889.428571428571	0.8	1270.875	1	816.4	0.7	641.714285714286	0.9	995.555555555556	0.7	1147.14285714286	1	876.6	13	388361	2	388349	14	27	388375	-999999	388364	0	15	TrialsPROC	FC_010_F5.png	1	2	62	SessionSelectionList														target	2	Face	2-Back	54	80	46	0	0	87	2	39	283630	1	13	73	281591	-1	283238	0	1647	3	2	2039	52	283643	-53	0													3			62												
WM080112	151223_fnca	1	1	1	-947852435	1	75.031	75.030	2.0.10.147	2.0.10.242	2.0.10.242	1.0.0.439	7	234	2	3	Verdana	1	80	0	0	0	WM Stimuli\	0.4	1081.25	0.7	889.428571428571	0.8	1270.875	1	816.4	0.7	641.714285714286	0.9	995.555555555556	0.7	1147.14285714286	1	876.6	13	388361	2	388349	14	27	388375	-999999	388364	0	15	TrialsPROC	FC_008_F4.png	1	2	63	SessionSelectionList														nonlure	3	Face	2-Back	55	80	47	0	0	87	3	39	286202	1	14	72	284163	-1	285816	1	1653	3	3	2039	53	286216	-54	0													4			63												
WM080112	151223_fnca	1	1	1	-947852435	1	75.031	75.030	2.0.10.147	2.0.10.242	2.0.10.242	1.0.0.439	7	234	2	3	Verdana	1	80	0	0	0	WM Stimuli\	0.4	1081.25	0.7	889.428571428571	0.8	1270.875	1	816.4	0.7	641.714285714286	0.9	995.555555555556	0.7	1147.14285714286	1	876.6	13	388361	2	388349	14	27	388375	-999999	388364	0	15	TrialsPROC	FC_012_F6.png	1	2	64	SessionSelectionList														lure	3	Face	2-Back	56	80	48	0	0	87	4	39	288774	2	14	72	286735	-1	287870	1	1135	3	3	2039	53	288788	-54	0													5			64												
WM080112	151223_fnca	1	1	1	-947852435	1	75.031	75.030	2.0.10.147	2.0.10.242	2.0.10.242	1.0.0.439	7	234	2	3	Verdana	1	80	0	0	0	WM Stimuli\	0.4	1081.25	0.7	889.428571428571	0.8	1270.875	1	816.4	0.7	641.714285714286	0.9	995.555555555556	0.7	1147.14285714286	1	876.6	13	388361	2	388349	14	27	388375	-999999	388364	0	15	TrialsPROC	FC_008_F4.png	1	2	65	SessionSelectionList														target	2	Face	2-Back	57	80	49	0	0	87	1	40	291347	1	13	72	289307	-1	290264	1	957	2	2	2040	53	291360	-54	0													6			65												
WM080112	151223_fnca	1	1	1	-947852435	1	75.031	75.030	2.0.10.147	2.0.10.242	2.0.10.242	1.0.0.439	7	234	2	3	Verdana	1	80	0	0	0	WM Stimuli\	0.4	1081.25	0.7	889.428571428571	0.8	1270.875	1	816.4	0.7	641.714285714286	0.9	995.555555555556	0.7	1147.14285714286	1	876.6	13	388361	2	388349	14	27	388375	-999999	388364	0	15	TrialsPROC	FC_007_M4.png	1	2	66	SessionSelectionList														nonlure	3	Face	2-Back	58	80	50	0	0	87	1	39	293919	1	14	73	291880	-1	292800	1	920	3	3	2039	53	293933	-54	0													7			66												
WM080112	151223_fnca	1	1	1	-947852435	1	75.031	75.030	2.0.10.147	2.0.10.242	2.0.10.242	1.0.0.439	7	234	2	3	Verdana	1	80	0	0	0	WM Stimuli\	0.4	1081.25	0.7	889.428571428571	0.8	1270.875	1	816.4	0.7	641.714285714286	0.9	995.555555555556	0.7	1147.14285714286	1	876.6	13	388361	2	388349	14	27	388375	-999999	388364	0	15	TrialsPROC	FC_007_M4.png	1	2	67	SessionSelectionList														lure	3	Face	2-Back	59	80	51	0	0	87	2	39	296491	2	14	72	294452	-1	296204	1	1752	3	3	2039	53	296505	-54	0													8			67												
WM080112	151223_fnca	1	1	1	-947852435	1	75.031	75.030	2.0.10.147	2.0.10.242	2.0.10.242	1.0.0.439	7	234	2	3	Verdana	1	80	0	0	0	WM Stimuli\	0.4	1081.25	0.7	889.428571428571	0.8	1270.875	1	816.4	0.7	641.714285714286	0.9	995.555555555556	0.7	1147.14285714286	1	876.6	13	388361	2	388349	14	27	388375	-999999	388364	0	15	TrialsPROC	FC_009_M5.png	1	2	68	SessionSelectionList														nonlure	3	Face	2-Back	60	80	52	0	0	87	3	39	299063	2	14	72	297024	-1	298661	1	1637	3	3	2039	53	299077	-54	0													9			68												
WM080112	151223_fnca	1	1	1	-947852435	1	75.031	75.030	2.0.10.147	2.0.10.242	2.0.10.242	1.0.0.439	7	234	2	3	Verdana	1	80	0	0	0	WM Stimuli\	0.4	1081.25	0.7	889.428571428571	0.8	1270.875	1	816.4	0.7	641.714285714286	0.9	995.555555555556	0.7	1147.14285714286	1	876.6	13	388361	2	388349	14	27	388375	-999999	388364	0	15	TrialsPROC	FC_011_M6.png	1	2	69	SessionSelectionList														nonlure	3	Face	2-Back	61	80	53	0	0	87	4	39	301636	1	14	73	299597	-1	301241	1	1644	3	3	2039	53	301650	-54	0													10			69												
WM080112	151223_fnca	1	1	1	-947852435	1	75.031	75.030	2.0.10.147	2.0.10.242	2.0.10.242	1.0.0.439	7	234	2	3	Verdana	1	80	0	0	0	WM Stimuli\	0.4	1081.25	0.7	889.428571428571	0.8	1270.875	1	816.4	0.7	641.714285714286	0.9	995.555555555556	0.7	1147.14285714286	1	876.6	13	388361	2	388349	14	27	388375	-999999	388364	0	16	Fix15secPROC	""	1	2	70	SessionSelectionList																																															6	302103	-7	0							70												
WM080112	151223_fnca	1	1	1	-947852435	1	75.031	75.030	2.0.10.147	2.0.10.242	2.0.10.242	1.0.0.439	7	234	2	3	Verdana	1	80	0	0	0	WM Stimuli\	0.4	1081.25	0.7	889.428571428571	0.8	1270.875	1	816.4	0.7	641.714285714286	0.9	995.555555555556	0.7	1147.14285714286	1	876.6	13	388361	2	388349	14	27	388375	-999999	388364	0	17	Cue0BackPROC	TO_007_TOOL7_BA.png	1	2	71	SessionSelectionList																																										13	317110	-14	0												71												
WM080112	151223_fnca	1	1	1	-947852435	1	75.031	75.030	2.0.10.147	2.0.10.242	2.0.10.242	1.0.0.439	7	234	2	3	Verdana	1	80	0	0	0	WM Stimuli\	0.4	1081.25	0.7	889.428571428571	0.8	1270.875	1	816.4	0.7	641.714285714286	0.9	995.555555555556	0.7	1147.14285714286	1	876.6	13	388361	2	388349	14	27	388375	-999999	388364	0	18	TrialsPROC	TO_010_TOOL10_BA.png	1	2	72	SessionSelectionList														nonlure	3	Tools	0-Back	62	80	54	0	0	87	5	39	321694	2	14	58	319655	-1	321199	1	1544	3	3	2039	53	321708	-54	0														1		72												
WM080112	151223_fnca	1	1	1	-947852435	1	75.031	75.030	2.0.10.147	2.0.10.242	2.0.10.242	1.0.0.439	7	234	2	3	Verdana	1	80	0	0	0	WM Stimuli\	0.4	1081.25	0.7	889.428571428571	0.8	1270.875	1	816.4	0.7	641.714285714286	0.9	995.555555555556	0.7	1147.14285714286	1	876.6	13	388361	2	388349	14	27	388375	-999999	388364	0	18	TrialsPROC	TO_009_TOOL9_BA.png	1	2	73	SessionSelectionList														nonlure	3	Tools	0-Back	63	80	55	0	0	88	6	39	324253	2	14	59	322214	-1	323911	1	1697	3	3	2039	53	324267	-54	0														2		73												
WM080112	151223_fnca	1	1	1	-947852435	1	75.031	75.030	2.0.10.147	2.0.10.242	2.0.10.242	1.0.0.439	7	234	2	3	Verdana	1	80	0	0	0	WM Stimuli\	0.4	1081.25	0.7	889.428571428571	0.8	1270.875	1	816.4	0.7	641.714285714286	0.9	995.555555555556	0.7	1147.14285714286	1	876.6	13	388361	2	388349	14	27	388375	-999999	388364	0	18	TrialsPROC	TO_009_TOOL9_BA.png	1	2	74	SessionSelectionList														lure	3	Tools	0-Back	64	80	56	0	0	88	7	39	326812	2	14	59	324773	-1	325363	1	590	3	3	2039	53	326826	-54	0														3		74												
WM080112	151223_fnca	1	1	1	-947852435	1	75.031	75.030	2.0.10.147	2.0.10.242	2.0.10.242	1.0.0.439	7	234	2	3	Verdana	1	80	0	0	0	WM Stimuli\	0.4	1081.25	0.7	889.428571428571	0.8	1270.875	1	816.4	0.7	641.714285714286	0.9	995.555555555556	0.7	1147.14285714286	1	876.6	13	388361	2	388349	14	27	388375	-999999	388364	0	18	TrialsPROC	TO_008_TOOL8_BA.png	1	2	75	SessionSelectionList														nonlure	3	Tools	0-Back	65	80	57	0	0	88	8	39	329371	2	14	59	327332	-1	328042	1	710	3	3	2039	53	329385	-54	0														4		75												
WM080112	151223_fnca	1	1	1	-947852435	1	75.031	75.030	2.0.10.147	2.0.10.242	2.0.10.242	1.0.0.439	7	234	2	3	Verdana	1	80	0	0	0	WM Stimuli\	0.4	1081.25	0.7	889.428571428571	0.8	1270.875	1	816.4	0.7	641.714285714286	0.9	995.555555555556	0.7	1147.14285714286	1	876.6	13	388361	2	388349	14	27	388375	-999999	388364	0	18	TrialsPROC	TO_011_TOOL11_BA.png	1	2	76	SessionSelectionList														nonlure	3	Tools	0-Back	66	80	58	0	0	89	9	39	331930	2	14	59	329891	-1	330374	1	483	3	3	2039	53	331944	-54	0														5		76												
WM080112	151223_fnca	1	1	1	-947852435	1	75.031	75.030	2.0.10.147	2.0.10.242	2.0.10.242	1.0.0.439	7	234	2	3	Verdana	1	80	0	0	0	WM Stimuli\	0.4	1081.25	0.7	889.428571428571	0.8	1270.875	1	816.4	0.7	641.714285714286	0.9	995.555555555556	0.7	1147.14285714286	1	876.6	13	388361	2	388349	14	27	388375	-999999	388364	0	18	TrialsPROC	TO_012_TOOL12_BA.png	1	2	77	SessionSelectionList														nonlure	3	Tools	0-Back	67	80	59	0	0	89	10	39	334489	2	14	59	332450	-1	333021	1	571	3	3	2039	53	334503	-54	0														6		77												
WM080112	151223_fnca	1	1	1	-947852435	1	75.031	75.030	2.0.10.147	2.0.10.242	2.0.10.242	1.0.0.439	7	234	2	3	Verdana	1	80	0	0	0	WM Stimuli\	0.4	1081.25	0.7	889.428571428571	0.8	1270.875	1	816.4	0.7	641.714285714286	0.9	995.555555555556	0.7	1147.14285714286	1	876.6	13	388361	2	388349	14	27	388375	-999999	388364	0	18	TrialsPROC	TO_010_TOOL10_BA.png	1	2	78	SessionSelectionList														lure	3	Tools	0-Back	68	80	60	0	0	89	11	39	337048	2	14	59	335009	-1	335746	1	737	3	3	2039	53	337062	-54	0														7		78												
WM080112	151223_fnca	1	1	1	-947852435	1	75.031	75.030	2.0.10.147	2.0.10.242	2.0.10.242	1.0.0.439	7	234	2	3	Verdana	1	80	0	0	0	WM Stimuli\	0.4	1081.25	0.7	889.428571428571	0.8	1270.875	1	816.4	0.7	641.714285714286	0.9	995.555555555556	0.7	1147.14285714286	1	876.6	13	388361	2	388349	14	27	388375	-999999	388364	0	18	TrialsPROC	TO_007_TOOL7_BA.png	1	2	79	SessionSelectionList														target	2	Tools	0-Back	69	80	61	0	0	89	1	39	339607	1	14	59	337568	-1	338381	1	813	2	2	2039	53	339621	-54	0														8		79												
WM080112	151223_fnca	1	1	1	-947852435	1	75.031	75.030	2.0.10.147	2.0.10.242	2.0.10.242	1.0.0.439	7	234	2	3	Verdana	1	80	0	0	0	WM Stimuli\	0.4	1081.25	0.7	889.428571428571	0.8	1270.875	1	816.4	0.7	641.714285714286	0.9	995.555555555556	0.7	1147.14285714286	1	876.6	13	388361	2	388349	14	27	388375	-999999	388364	0	18	TrialsPROC	TO_008_TOOL8_BA.png	1	2	80	SessionSelectionList														lure	3	Tools	0-Back	70	80	62	0	0	90	1	39	342166	2	14	59	340127	-1	340912	1	785	3	3	2039	53	342180	-54	0														9		80												
WM080112	151223_fnca	1	1	1	-947852435	1	75.031	75.030	2.0.10.147	2.0.10.242	2.0.10.242	1.0.0.439	7	234	2	3	Verdana	1	80	0	0	0	WM Stimuli\	0.4	1081.25	0.7	889.428571428571	0.8	1270.875	1	816.4	0.7	641.714285714286	0.9	995.555555555556	0.7	1147.14285714286	1	876.6	13	388361	2	388349	14	27	388375	-999999	388364	0	18	TrialsPROC	TO_007_TOOL7_BA.png	1	2	81	SessionSelectionList														target	2	Tools	0-Back	71	80	63	0	0	90	1	39	344725	2	14	59	342686	-1	343522	1	836	2	2	2039	53	344739	-54	0														10		81												
WM080112	151223_fnca	1	1	1	-947852435	1	75.031	75.030	2.0.10.147	2.0.10.242	2.0.10.242	1.0.0.439	7	234	2	3	Verdana	1	80	0	0	0	WM Stimuli\	0.4	1081.25	0.7	889.428571428571	0.8	1270.875	1	816.4	0.7	641.714285714286	0.9	995.555555555556	0.7	1147.14285714286	1	876.6	13	388361	2	388349	14	27	388375	-999999	388364	0	19	Cue2BackPROC	""	1	2	82	SessionSelectionList									6	345192	-7	0																																													82												
WM080112	151223_fnca	1	1	1	-947852435	1	75.031	75.030	2.0.10.147	2.0.10.242	2.0.10.242	1.0.0.439	7	234	2	3	Verdana	1	80	0	0	0	WM Stimuli\	0.4	1081.25	0.7	889.428571428571	0.8	1270.875	1	816.4	0.7	641.714285714286	0.9	995.555555555556	0.7	1147.14285714286	1	876.6	13	388361	2	388349	14	27	388375	-999999	388364	0	20	TrialsPROC	PL_007_92026.png	1	2	83	SessionSelectionList														nonlure	3	Place	2-Back	72	80	63	0	1	90	1	40	349790	1	13	64	347750	-1	0	0	0	""	3	2040	53	349803	-54	0															1	83												
WM080112	151223_fnca	1	1	1	-947852435	1	75.031	75.030	2.0.10.147	2.0.10.242	2.0.10.242	1.0.0.439	7	234	2	3	Verdana	1	80	0	0	0	WM Stimuli\	0.4	1081.25	0.7	889.428571428571	0.8	1270.875	1	816.4	0.7	641.714285714286	0.9	995.555555555556	0.7	1147.14285714286	1	876.6	13	388361	2	388349	14	27	388375	-999999	388364	0	20	TrialsPROC	PL_007_92026.png	1	2	84	SessionSelectionList														lure	3	Place	2-Back	73	80	64	0	0	90	1	40	352349	1	13	59	350309	-1	350842	1	533	3	3	2040	53	352362	-54	0															2	84												
WM080112	151223_fnca	1	1	1	-947852435	1	75.031	75.030	2.0.10.147	2.0.10.242	2.0.10.242	1.0.0.439	7	234	2	3	Verdana	1	80	0	0	0	WM Stimuli\	0.4	1081.25	0.7	889.428571428571	0.8	1270.875	1	816.4	0.7	641.714285714286	0.9	995.555555555556	0.7	1147.14285714286	1	876.6	13	388361	2	388349	14	27	388375	-999999	388364	0	20	TrialsPROC	PL_010_92038.png	1	2	85	SessionSelectionList														nonlure	3	Place	2-Back	74	80	65	0	0	90	2	39	354921	1	14	73	352882	-1	353575	1	693	3	3	2039	53	354935	-54	0															3	85												
WM080112	151223_fnca	1	1	1	-947852435	1	75.031	75.030	2.0.10.147	2.0.10.242	2.0.10.242	1.0.0.439	7	234	2	3	Verdana	1	80	0	0	0	WM Stimuli\	0.4	1081.25	0.7	889.428571428571	0.8	1270.875	1	816.4	0.7	641.714285714286	0.9	995.555555555556	0.7	1147.14285714286	1	876.6	13	388361	2	388349	14	27	388375	-999999	388364	0	20	TrialsPROC	PL_009_92037.png	1	2	86	SessionSelectionList														nonlure	3	Place	2-Back	75	80	66	0	0	90	3	39	357480	1	14	59	355441	-1	356168	1	727	3	3	2039	53	357494	-54	0															4	86												
WM080112	151223_fnca	1	1	1	-947852435	1	75.031	75.030	2.0.10.147	2.0.10.242	2.0.10.242	1.0.0.439	7	234	2	3	Verdana	1	80	0	0	0	WM Stimuli\	0.4	1081.25	0.7	889.428571428571	0.8	1270.875	1	816.4	0.7	641.714285714286	0.9	995.555555555556	0.7	1147.14285714286	1	876.6	13	388361	2	388349	14	27	388375	-999999	388364	0	20	TrialsPROC	PL_010_92038.png	1	2	87	SessionSelectionList														target	2	Place	2-Back	76	80	67	0	0	90	4	39	360052	2	14	72	358013	-1	358752	0	739	3	2	2039	53	360066	-54	0															5	87												
WM080112	151223_fnca	1	1	1	-947852435	1	75.031	75.030	2.0.10.147	2.0.10.242	2.0.10.242	1.0.0.439	7	234	2	3	Verdana	1	80	0	0	0	WM Stimuli\	0.4	1081.25	0.7	889.428571428571	0.8	1270.875	1	816.4	0.7	641.714285714286	0.9	995.555555555556	0.7	1147.14285714286	1	876.6	13	388361	2	388349	14	27	388375	-999999	388364	0	20	TrialsPROC	PL_009_92037.png	1	2	88	SessionSelectionList														target	2	Place	2-Back	77	80	68	0	0	90	5	39	362611	2	14	59	360572	-1	361986	0	1414	3	2	2039	53	362625	-54	0															6	88												
WM080112	151223_fnca	1	1	1	-947852435	1	75.031	75.030	2.0.10.147	2.0.10.242	2.0.10.242	1.0.0.439	7	234	2	3	Verdana	1	80	0	0	0	WM Stimuli\	0.4	1081.25	0.7	889.428571428571	0.8	1270.875	1	816.4	0.7	641.714285714286	0.9	995.555555555556	0.7	1147.14285714286	1	876.6	13	388361	2	388349	14	27	388375	-999999	388364	0	20	TrialsPROC	PL_008_92033.png	1	2	89	SessionSelectionList														nonlure	3	Place	2-Back	78	80	69	0	0	90	6	39	365170	1	14	59	363131	-1	363871	1	740	3	3	2039	53	365184	-54	0															7	89												
WM080112	151223_fnca	1	1	1	-947852435	1	75.031	75.030	2.0.10.147	2.0.10.242	2.0.10.242	1.0.0.439	7	234	2	3	Verdana	1	80	0	0	0	WM Stimuli\	0.4	1081.25	0.7	889.428571428571	0.8	1270.875	1	816.4	0.7	641.714285714286	0.9	995.555555555556	0.7	1147.14285714286	1	876.6	13	388361	2	388349	14	27	388375	-999999	388364	0	20	TrialsPROC	PL_012_92047.png	1	2	90	SessionSelectionList														nonlure	3	Place	2-Back	79	80	70	0	0	90	7	39	367742	2	14	72	365703	-1	366329	1	626	3	3	2039	53	367756	-54	0															8	90												
WM080112	151223_fnca	1	1	1	-947852435	1	75.031	75.030	2.0.10.147	2.0.10.242	2.0.10.242	1.0.0.439	7	234	2	3	Verdana	1	80	0	0	0	WM Stimuli\	0.4	1081.25	0.7	889.428571428571	0.8	1270.875	1	816.4	0.7	641.714285714286	0.9	995.555555555556	0.7	1147.14285714286	1	876.6	13	388361	2	388349	14	27	388375	-999999	388364	0	20	TrialsPROC	PL_012_92047.png	1	2	91	SessionSelectionList														lure	3	Place	2-Back	80	80	71	0	0	90	8	39	370315	1	13	73	368276	-1	368838	1	562	3	3	2039	52	370328	-53	0															9	91												
WM080112	151223_fnca	1	1	1	-947852435	1	75.031	75.030	2.0.10.147	2.0.10.242	2.0.10.242	1.0.0.439	7	234	2	3	Verdana	1	80	0	0	0	WM Stimuli\	0.4	1081.25	0.7	889.428571428571	0.8	1270.875	1	816.4	0.7	641.714285714286	0.9	995.555555555556	0.7	1147.14285714286	1	876.6	13	388361	2	388349	14	27	388375	-999999	388364	0	20	TrialsPROC	PL_011_92044.png	1	2	92	SessionSelectionList														nonlure	3	Place	2-Back	80	80	72	0	0	90	9	39	372887	1	14	72	370848	-1	371459	1	611	3	3	2039	53	372901	-54	0															10	92												
WM080112	151223_fnca	1	1	1	-947852435	1	75.031	75.030	2.0.10.147	2.0.10.242	2.0.10.242	1.0.0.439	7	234	2	3	Verdana	1	80	0	0	0	WM Stimuli\	0.4	1081.25	0.7	889.428571428571	0.8	1270.875	1	816.4	0.7	641.714285714286	0.9	995.555555555556	0.7	1147.14285714286	1	876.6	13	388361	2	388349	14	27	388375	-999999	388364	0	21	Fix15secPROC	""	1	2	93	SessionSelectionList																																															6	373354	-7	0							93												
