ExperimentName	HCPID	RunNumber	Subject	Session	RandomSeed	Group	Laptop.RefreshRate	ScannerD2.RefreshRate	StudioVersion	RuntimeVersion	RuntimeVersionExpected	ExperimentVersion	triggercode	Allowed	Target	Nontarget	FontStyle	RunTrialNumber[Session]	TrialsPerRun[Session]	TotalRespGreater200[Session]	ConsecRTLess200[Session]	ConsecNonResp[Session]	StimuliDir	ACC_2_Back_Body	Avg_RT_For_Correct_Trials_2_Back_Body	ACC_0_Back_Body	Avg_RT_For_Correct_Trials_0_Back_Body	ACC_2_Back_Face	Avg_RT_For_Correct_Trials_2_Back_Face	ACC_0_Back_Face	Avg_RT_For_Correct_Trials_0_Back_Face	ACC_2_Back_Place	Avg_RT_For_Correct_Trials_2_Back_Place	ACC_0_Back_Place	Avg_RT_For_Correct_Trials_0_Back_Place	ACC_2_Back_Tools	Avg_RT_For_Correct_Trials_2_Back_Tools	ACC_0_Back_Tools	Avg_RT_For_Correct_Trials_0_Back_Tools	ExpInstrucFeelFreeToRest.OnsetDelay	ExpInstrucFeelFreeToRest.OnsetTime	ExpInstrucFeelFreeToRest.DurationError	ExpInstrucFeelFreeToRest.StartTime	ExpInstrucFeelFreeToRest.OnsetToOnsetTime	FeelFreeToRest.OnsetDelay	FeelFreeToRest.OnsetTime	FeelFreeToRest.DurationError	FeelFreeToRest.StartTime	FeelFreeToRest.OnsetToOnsetTime	SessionSelectionList	Procedure[Block]	Stimulus[Block]	RunNumberFilterValue	SessionSelectionList.Cycle	SessionSelectionList.Sample	Running[Block]	IntroButtonMap.OnsetDelay	IntroButtonMap.OnsetTime	IntroButtonMap.DurationError	IntroButtonMap.OnsetToOnsetTime	GetReady.OnsetDelay	GetReady.OnsetTime	GetReady.DurationError	GetReady.OnsetToOnsetTime	Cue2Back.OnsetDelay	Cue2Back.OnsetTime	Cue2Back.DurationError	Cue2Back.OnsetToOnsetTime	Run1Block1	TargetType	CorrectResponse	StimType	BlockType	RunTrialNumber[Block]	TrialsPerRun[Block]	TotalRespGreater200[Block]	ConsecRTLess200[Block]	ConsecNonResp[Block]	ControlAcc	ConsecSameResp	ExperimenterWindow.OnsetDelay	ExperimenterWindow.OnsetTime	ExperimenterWindow.DurationError	ExperimenterWindow.OnsetToOnsetTime	Stim.OnsetDelay	Stim.OnsetTime	Stim.DurationError	Stim.RTTime	Stim.ACC	Stim.RT	Stim.RESP	Stim.CRESP	Stim.OnsetToOnsetTime	Fix.OnsetDelay	Fix.OnsetTime	Fix.DurationError	Fix.OnsetToOnsetTime	CueTarget.OnsetDelay	CueTarget.OnsetTime	CueTarget.DurationError	CueTarget.OnsetToOnsetTime	Run1Block2	Fix15sec.OnsetDelay	Fix15sec.OnsetTime	Fix15sec.DurationError	Fix15sec.OnsetToOnsetTime	Run1Block3	Run1Block4	Run1Block5	Run1Block6	Run1Block7	Run1Block8	Block	Procedure[Trial]	Stimulus[Trial]	ReadyList	Running[Trial]	ReadyList.Cycle	ReadyList.Sample	SyncSlide.OnsetDelay	SyncSlide.OnsetTime	SyncSlide.DurationError	SyncSlide.FinishTime	SyncSlide.OnsetToOnsetTime	Trial
WM080112	136833_fnca	2	1	1	1665443173	1	75.032	75.032	2.0.10.147	2.0.10.242	2.0.10.242	1.0.0.439	7	234	2	3	Verdana	1	80	0	0	0	WM Stimuli\	0.8	831.625	0.7	618.428571428571	1	898.8	1	502.8	0.7	657.428571428571	1	507.9	0.8	740.375	1	580.8	13	321708	2	321696	27	40	321735	-999999	321711	0	22	TRSyncPROC	""	2	2	1	SessionSelectionList	102	12278	-999999	0	30	13411	-999999	0																																																	1	InitialTR	4	1	ReadyList	1	1	13	27778	-14	29764	0	1
WM080112	136833_fnca	2	1	1	1665443173	1	75.032	75.032	2.0.10.147	2.0.10.242	2.0.10.242	1.0.0.439	7	234	2	3	Verdana	1	80	0	0	0	WM Stimuli\	0.8	831.625	0.7	618.428571428571	1	898.8	1	502.8	0.7	657.428571428571	1	507.9	0.8	740.375	1	580.8	13	321708	2	321696	27	40	321735	-999999	321711	0	22	TRSyncPROC	""	2	2	1	SessionSelectionList	102	12278	-999999	0	30	13411	-999999	0																																																	1	InitialTR	3	2	ReadyList	1	2	12	29777	-13	31764	0	2
WM080112	136833_fnca	2	1	1	1665443173	1	75.032	75.032	2.0.10.147	2.0.10.242	2.0.10.242	1.0.0.439	7	234	2	3	Verdana	1	80	0	0	0	WM Stimuli\	0.8	831.625	0.7	618.428571428571	1	898.8	1	502.8	0.7	657.428571428571	1	507.9	0.8	740.375	1	580.8	13	321708	2	321696	27	40	321735	-999999	321711	0	22	TRSyncPROC	""	2	2	1	SessionSelectionList	102	12278	-999999	0	30	13411	-999999	0																																																	1	InitialTR	2	3	ReadyList	1	3	11	31776	-12	33764	0	3
WM080112	136833_fnca	2	1	1	1665443173	1	75.032	75.032	2.0.10.147	2.0.10.242	2.0.10.242	1.0.0.439	7	234	2	3	Verdana	1	80	0	0	0	WM Stimuli\	0.8	831.625	0.7	618.428571428571	1	898.8	1	502.8	0.7	657.428571428571	1	507.9	0.8	740.375	1	580.8	13	321708	2	321696	27	40	321735	-999999	321711	0	22	TRSyncPROC	""	2	2	1	SessionSelectionList	102	12278	-999999	0	30	13411	-999999	0																																																	1	InitialTR	1	4	ReadyList	1	4	10	33775	-11	35764	0	4
WM080112	136833_fnca	2	1	1	1665443173	1	75.032	75.032	2.0.10.147	2.0.10.242	2.0.10.242	1.0.0.439	7	234	2	3	Verdana	1	80	0	0	0	WM Stimuli\	0.8	831.625	0.7	618.428571428571	1	898.8	1	502.8	0.7	657.428571428571	1	507.9	0.8	740.375	1	580.8	13	321708	2	321696	27	40	321735	-999999	321711	0	23	Cue2BackPROC	""	2	2	2	SessionSelectionList									9	35774	-10	0																																													2												
WM080112	136833_fnca	2	1	1	1665443173	1	75.032	75.032	2.0.10.147	2.0.10.242	2.0.10.242	1.0.0.439	7	234	2	3	Verdana	1	80	0	0	0	WM Stimuli\	0.8	831.625	0.7	618.428571428571	1	898.8	1	502.8	0.7	657.428571428571	1	507.9	0.8	740.375	1	580.8	13	321708	2	321696	27	40	321735	-999999	321711	0	24	TrialsPROC	TO_014_TOOL14_BA.png	2	2	3	SessionSelectionList														nonlure	3	Tools	2-Back	2	80	1	0	0	0	1	52	40399	3	14	82	38347	-1	39455	1	1108	3	3	2052	66	40413	-67	0																3												
WM080112	136833_fnca	2	1	1	1665443173	1	75.032	75.032	2.0.10.147	2.0.10.242	2.0.10.242	1.0.0.439	7	234	2	3	Verdana	1	80	0	0	0	WM Stimuli\	0.8	831.625	0.7	618.428571428571	1	898.8	1	502.8	0.7	657.428571428571	1	507.9	0.8	740.375	1	580.8	13	321708	2	321696	27	40	321735	-999999	321711	0	24	TrialsPROC	TO_013_TOOL13_BA.png	2	2	4	SessionSelectionList														nonlure	3	Tools	2-Back	3	80	2	0	0	0	2	39	42945	2	13	59	40906	-1	41530	1	624	3	3	2039	52	42958	-53	0																4												
WM080112	136833_fnca	2	1	1	1665443173	1	75.032	75.032	2.0.10.147	2.0.10.242	2.0.10.242	1.0.0.439	7	234	2	3	Verdana	1	80	0	0	0	WM Stimuli\	0.8	831.625	0.7	618.428571428571	1	898.8	1	502.8	0.7	657.428571428571	1	507.9	0.8	740.375	1	580.8	13	321708	2	321696	27	40	321735	-999999	321711	0	24	TrialsPROC	TO_016_TOOL16_BA.png	2	2	5	SessionSelectionList														nonlure	3	Tools	2-Back	4	80	3	0	0	0	3	39	45530	2	14	85	43491	-1	44191	1	700	3	3	2039	53	45544	-54	0																5												
WM080112	136833_fnca	2	1	1	1665443173	1	75.032	75.032	2.0.10.147	2.0.10.242	2.0.10.242	1.0.0.439	7	234	2	3	Verdana	1	80	0	0	0	WM Stimuli\	0.8	831.625	0.7	618.428571428571	1	898.8	1	502.8	0.7	657.428571428571	1	507.9	0.8	740.375	1	580.8	13	321708	2	321696	27	40	321735	-999999	321711	0	24	TrialsPROC	TO_014_TOOL14_BA.png	2	2	6	SessionSelectionList														lure	3	Tools	2-Back	5	80	4	0	0	0	1	39	48102	2	14	72	46063	-1	47835	0	1772	2	3	2039	53	48116	-54	0																6												
WM080112	136833_fnca	2	1	1	1665443173	1	75.032	75.032	2.0.10.147	2.0.10.242	2.0.10.242	1.0.0.439	7	234	2	3	Verdana	1	80	0	0	0	WM Stimuli\	0.8	831.625	0.7	618.428571428571	1	898.8	1	502.8	0.7	657.428571428571	1	507.9	0.8	740.375	1	580.8	13	321708	2	321696	27	40	321735	-999999	321711	0	24	TrialsPROC	TO_016_TOOL16_BA.png	2	2	7	SessionSelectionList														target	2	Tools	2-Back	6	80	5	0	0	0	2	38	50661	2	14	60	48623	-1	49761	1	1138	2	2	2038	52	50675	-53	0																7												
WM080112	136833_fnca	2	1	1	1665443173	1	75.032	75.032	2.0.10.147	2.0.10.242	2.0.10.242	1.0.0.439	7	234	2	3	Verdana	1	80	0	0	0	WM Stimuli\	0.8	831.625	0.7	618.428571428571	1	898.8	1	502.8	0.7	657.428571428571	1	507.9	0.8	740.375	1	580.8	13	321708	2	321696	27	40	321735	-999999	321711	0	24	TrialsPROC	TO_018_TOOL18_BA.png	2	2	8	SessionSelectionList														nonlure	3	Tools	2-Back	7	80	6	0	0	0	1	39	53247	1	14	85	51208	-1	51822	1	614	3	3	2039	53	53261	-54	0																8												
WM080112	136833_fnca	2	1	1	1665443173	1	75.032	75.032	2.0.10.147	2.0.10.242	2.0.10.242	1.0.0.439	7	234	2	3	Verdana	1	80	0	0	0	WM Stimuli\	0.8	831.625	0.7	618.428571428571	1	898.8	1	502.8	0.7	657.428571428571	1	507.9	0.8	740.375	1	580.8	13	321708	2	321696	27	40	321735	-999999	321711	0	24	TrialsPROC	TO_017_TOOL17_BA.png	2	2	9	SessionSelectionList														nonlure	3	Tools	2-Back	8	80	7	0	0	0	2	40	55833	1	13	85	53793	-1	54303	1	510	3	3	2040	53	55846	-54	0																9												
WM080112	136833_fnca	2	1	1	1665443173	1	75.032	75.032	2.0.10.147	2.0.10.242	2.0.10.242	1.0.0.439	7	234	2	3	Verdana	1	80	0	0	0	WM Stimuli\	0.8	831.625	0.7	618.428571428571	1	898.8	1	502.8	0.7	657.428571428571	1	507.9	0.8	740.375	1	580.8	13	321708	2	321696	27	40	321735	-999999	321711	0	24	TrialsPROC	TO_018_TOOL18_BA.png	2	2	10	SessionSelectionList														target	2	Tools	2-Back	9	80	8	0	0	0	1	39	58391	2	14	59	56352	-1	56923	1	571	2	2	2039	53	58405	-54	0																10												
WM080112	136833_fnca	2	1	1	1665443173	1	75.032	75.032	2.0.10.147	2.0.10.242	2.0.10.242	1.0.0.439	7	234	2	3	Verdana	1	80	0	0	0	WM Stimuli\	0.8	831.625	0.7	618.428571428571	1	898.8	1	502.8	0.7	657.428571428571	1	507.9	0.8	740.375	1	580.8	13	321708	2	321696	27	40	321735	-999999	321711	0	24	TrialsPROC	TO_015_TOOL15_BA.png	2	2	11	SessionSelectionList														nonlure	3	Tools	2-Back	10	80	9	0	0	0	1	39	60977	2	14	86	58938	-1	59596	1	658	3	3	2039	53	60991	-54	0																11												
WM080112	136833_fnca	2	1	1	1665443173	1	75.032	75.032	2.0.10.147	2.0.10.242	2.0.10.242	1.0.0.439	7	234	2	3	Verdana	1	80	0	0	0	WM Stimuli\	0.8	831.625	0.7	618.428571428571	1	898.8	1	502.8	0.7	657.428571428571	1	507.9	0.8	740.375	1	580.8	13	321708	2	321696	27	40	321735	-999999	321711	0	24	TrialsPROC	TO_017_TOOL17_BA.png	2	2	12	SessionSelectionList														lure	3	Tools	2-Back	11	80	10	0	0	0	1	39	63536	1	14	59	61497	-1	62021	0	524	2	3	2039	53	63550	-54	0																12												
WM080112	136833_fnca	2	1	1	1665443173	1	75.032	75.032	2.0.10.147	2.0.10.242	2.0.10.242	1.0.0.439	7	234	2	3	Verdana	1	80	0	0	0	WM Stimuli\	0.8	831.625	0.7	618.428571428571	1	898.8	1	502.8	0.7	657.428571428571	1	507.9	0.8	740.375	1	580.8	13	321708	2	321696	27	40	321735	-999999	321711	0	25	Cue0BackPROC	BP_013_BP7_BA.png	2	2	13	SessionSelectionList																																										32	64029	-33	0												13												
WM080112	136833_fnca	2	1	1	1665443173	1	75.032	75.032	2.0.10.147	2.0.10.242	2.0.10.242	1.0.0.439	7	234	2	3	Verdana	1	80	0	0	0	WM Stimuli\	0.8	831.625	0.7	618.428571428571	1	898.8	1	502.8	0.7	657.428571428571	1	507.9	0.8	740.375	1	580.8	13	321708	2	321696	27	40	321735	-999999	321711	0	26	TrialsPROC	BP_015_H10-T_BA.png	2	2	14	SessionSelectionList														nonlure	3	Body	0-Back	12	80	11	0	0	100	1	40	68601	1	13	64	66561	-1	67496	1	935	3	3	2040	53	68614	-54	0																14												
WM080112	136833_fnca	2	1	1	1665443173	1	75.032	75.032	2.0.10.147	2.0.10.242	2.0.10.242	1.0.0.439	7	234	2	3	Verdana	1	80	0	0	0	WM Stimuli\	0.8	831.625	0.7	618.428571428571	1	898.8	1	502.8	0.7	657.428571428571	1	507.9	0.8	740.375	1	580.8	13	321708	2	321696	27	40	321735	-999999	321711	0	26	TrialsPROC	BP_018_H13-T_BA.png	2	2	15	SessionSelectionList														nonlure	3	Body	0-Back	13	80	12	0	0	50	1	39	71173	1	14	73	69134	-1	69961	0	827	2	3	2039	53	71187	-54	0																15												
WM080112	136833_fnca	2	1	1	1665443173	1	75.032	75.032	2.0.10.147	2.0.10.242	2.0.10.242	1.0.0.439	7	234	2	3	Verdana	1	80	0	0	0	WM Stimuli\	0.8	831.625	0.7	618.428571428571	1	898.8	1	502.8	0.7	657.428571428571	1	507.9	0.8	740.375	1	580.8	13	321708	2	321696	27	40	321735	-999999	321711	0	26	TrialsPROC	BP_014_BP9_BA.png	2	2	16	SessionSelectionList														nonlure	3	Body	0-Back	14	80	13	0	0	67	1	39	73732	1	13	59	71693	-1	72248	1	555	3	3	2039	52	73745	-53	0																16												
WM080112	136833_fnca	2	1	1	1665443173	1	75.032	75.032	2.0.10.147	2.0.10.242	2.0.10.242	1.0.0.439	7	234	2	3	Verdana	1	80	0	0	0	WM Stimuli\	0.8	831.625	0.7	618.428571428571	1	898.8	1	502.8	0.7	657.428571428571	1	507.9	0.8	740.375	1	580.8	13	321708	2	321696	27	40	321735	-999999	321711	0	26	TrialsPROC	BP_018_H13-T_BA.png	2	2	17	SessionSelectionList														lure	3	Body	0-Back	15	80	14	0	0	75	2	39	76291	1	13	59	74252	-1	74806	1	554	3	3	2039	52	76304	-53	0																17												
WM080112	136833_fnca	2	1	1	1665443173	1	75.032	75.032	2.0.10.147	2.0.10.242	2.0.10.242	1.0.0.439	7	234	2	3	Verdana	1	80	0	0	0	WM Stimuli\	0.8	831.625	0.7	618.428571428571	1	898.8	1	502.8	0.7	657.428571428571	1	507.9	0.8	740.375	1	580.8	13	321708	2	321696	27	40	321735	-999999	321711	0	26	TrialsPROC	BP_013_BP7_BA.png	2	2	18	SessionSelectionList														target	2	Body	0-Back	16	80	14	0	1	60	2	39	78863	1	14	72	76824	-1	0	0	0	""	2	2039	53	78877	-54	0																18												
WM080112	136833_fnca	2	1	1	1665443173	1	75.032	75.032	2.0.10.147	2.0.10.242	2.0.10.242	1.0.0.439	7	234	2	3	Verdana	1	80	0	0	0	WM Stimuli\	0.8	831.625	0.7	618.428571428571	1	898.8	1	502.8	0.7	657.428571428571	1	507.9	0.8	740.375	1	580.8	13	321708	2	321696	27	40	321735	-999999	321711	0	26	TrialsPROC	BP_015_H10-T_BA.png	2	2	19	SessionSelectionList														lure	3	Body	0-Back	17	80	15	0	0	67	1	39	81422	1	14	59	79383	-1	79877	1	494	3	3	2039	53	81436	-54	0																19												
WM080112	136833_fnca	2	1	1	1665443173	1	75.032	75.032	2.0.10.147	2.0.10.242	2.0.10.242	1.0.0.439	7	234	2	3	Verdana	1	80	0	0	0	WM Stimuli\	0.8	831.625	0.7	618.428571428571	1	898.8	1	502.8	0.7	657.428571428571	1	507.9	0.8	740.375	1	580.8	13	321708	2	321696	27	40	321735	-999999	321711	0	26	TrialsPROC	BP_016_H11-T_BA.png	2	2	20	SessionSelectionList														nonlure	3	Body	0-Back	18	80	16	0	0	71	2	39	83994	1	14	72	81955	-1	82528	1	573	3	3	2039	53	84008	-54	0																20												
WM080112	136833_fnca	2	1	1	1665443173	1	75.032	75.032	2.0.10.147	2.0.10.242	2.0.10.242	1.0.0.439	7	234	2	3	Verdana	1	80	0	0	0	WM Stimuli\	0.8	831.625	0.7	618.428571428571	1	898.8	1	502.8	0.7	657.428571428571	1	507.9	0.8	740.375	1	580.8	13	321708	2	321696	27	40	321735	-999999	321711	0	26	TrialsPROC	BP_013_BP7_BA.png	2	2	21	SessionSelectionList														target	2	Body	0-Back	19	80	17	0	0	62	3	39	86553	1	14	59	84514	-1	86344	0	1830	3	2	2039	53	86567	-54	0																21												
WM080112	136833_fnca	2	1	1	1665443173	1	75.032	75.032	2.0.10.147	2.0.10.242	2.0.10.242	1.0.0.439	7	234	2	3	Verdana	1	80	0	0	0	WM Stimuli\	0.8	831.625	0.7	618.428571428571	1	898.8	1	502.8	0.7	657.428571428571	1	507.9	0.8	740.375	1	580.8	13	321708	2	321696	27	40	321735	-999999	321711	0	26	TrialsPROC	BP_017_H12-T_BA.png	2	2	22	SessionSelectionList														nonlure	3	Body	0-Back	20	80	18	0	0	67	4	39	89125	2	14	72	87086	-1	87673	1	587	3	3	2039	53	89139	-54	0																22												
WM080112	136833_fnca	2	1	1	1665443173	1	75.032	75.032	2.0.10.147	2.0.10.242	2.0.10.242	1.0.0.439	7	234	2	3	Verdana	1	80	0	0	0	WM Stimuli\	0.8	831.625	0.7	618.428571428571	1	898.8	1	502.8	0.7	657.428571428571	1	507.9	0.8	740.375	1	580.8	13	321708	2	321696	27	40	321735	-999999	321711	0	26	TrialsPROC	BP_014_BP9_BA.png	2	2	23	SessionSelectionList														lure	3	Body	0-Back	21	80	19	0	0	70	5	39	91684	2	14	59	89645	-1	90276	1	631	3	3	2039	53	91698	-54	0																23												
WM080112	136833_fnca	2	1	1	1665443173	1	75.032	75.032	2.0.10.147	2.0.10.242	2.0.10.242	1.0.0.439	7	234	2	3	Verdana	1	80	0	0	0	WM Stimuli\	0.8	831.625	0.7	618.428571428571	1	898.8	1	502.8	0.7	657.428571428571	1	507.9	0.8	740.375	1	580.8	13	321708	2	321696	27	40	321735	-999999	321711	0	27	Fix15secPROC	""	2	2	24	SessionSelectionList																																															6	92151	-7	0							24												
WM080112	136833_fnca	2	1	1	1665443173	1	75.032	75.032	2.0.10.147	2.0.10.242	2.0.10.242	1.0.0.439	7	234	2	3	Verdana	1	80	0	0	0	WM Stimuli\	0.8	831.625	0.7	618.428571428571	1	898.8	1	502.8	0.7	657.428571428571	1	507.9	0.8	740.375	1	580.8	13	321708	2	321696	27	40	321735	-999999	321711	0	28	Cue2BackPROC	""	2	2	25	SessionSelectionList									13	107158	-14	0																																													25												
WM080112	136833_fnca	2	1	1	1665443173	1	75.032	75.032	2.0.10.147	2.0.10.242	2.0.10.242	1.0.0.439	7	234	2	3	Verdana	1	80	0	0	0	WM Stimuli\	0.8	831.625	0.7	618.428571428571	1	898.8	1	502.8	0.7	657.428571428571	1	507.9	0.8	740.375	1	580.8	13	321708	2	321696	27	40	321735	-999999	321711	0	29	TrialsPROC	FC_015_M8.png	2	2	26	SessionSelectionList														nonlure	3	Face	2-Back	22	80	20	0	0	70	6	39	111769	1	14	85	109730	-1	111492	1	1762	3	3	2039	53	111783	-54	0																26												
WM080112	136833_fnca	2	1	1	1665443173	1	75.032	75.032	2.0.10.147	2.0.10.242	2.0.10.242	1.0.0.439	7	234	2	3	Verdana	1	80	0	0	0	WM Stimuli\	0.8	831.625	0.7	618.428571428571	1	898.8	1	502.8	0.7	657.428571428571	1	507.9	0.8	740.375	1	580.8	13	321708	2	321696	27	40	321735	-999999	321711	0	29	TrialsPROC	FC_018_F9.png	2	2	27	SessionSelectionList														nonlure	3	Face	2-Back	23	80	21	0	0	70	7	39	114355	1	13	86	112316	-1	112839	1	523	3	3	2039	52	114368	-53	0																27												
WM080112	136833_fnca	2	1	1	1665443173	1	75.032	75.032	2.0.10.147	2.0.10.242	2.0.10.242	1.0.0.439	7	234	2	3	Verdana	1	80	0	0	0	WM Stimuli\	0.8	831.625	0.7	618.428571428571	1	898.8	1	502.8	0.7	657.428571428571	1	507.9	0.8	740.375	1	580.8	13	321708	2	321696	27	40	321735	-999999	321711	0	29	TrialsPROC	FC_018_F9.png	2	2	28	SessionSelectionList														lure	3	Face	2-Back	24	80	22	0	0	70	8	39	116927	1	14	72	114888	-1	115877	1	989	3	3	2039	53	116941	-54	0																28												
WM080112	136833_fnca	2	1	1	1665443173	1	75.032	75.032	2.0.10.147	2.0.10.242	2.0.10.242	1.0.0.439	7	234	2	3	Verdana	1	80	0	0	0	WM Stimuli\	0.8	831.625	0.7	618.428571428571	1	898.8	1	502.8	0.7	657.428571428571	1	507.9	0.8	740.375	1	580.8	13	321708	2	321696	27	40	321735	-999999	321711	0	29	TrialsPROC	FC_017_M9.png	2	2	29	SessionSelectionList														nonlure	3	Face	2-Back	25	80	23	0	0	70	9	39	119499	2	14	72	117460	-1	118185	1	725	3	3	2039	53	119513	-54	0																29												
WM080112	136833_fnca	2	1	1	1665443173	1	75.032	75.032	2.0.10.147	2.0.10.242	2.0.10.242	1.0.0.439	7	234	2	3	Verdana	1	80	0	0	0	WM Stimuli\	0.8	831.625	0.7	618.428571428571	1	898.8	1	502.8	0.7	657.428571428571	1	507.9	0.8	740.375	1	580.8	13	321708	2	321696	27	40	321735	-999999	321711	0	29	TrialsPROC	FC_017_M9.png	2	2	30	SessionSelectionList														lure	3	Face	2-Back	26	80	24	0	0	70	10	39	122071	2	14	72	120032	-1	120894	1	862	3	3	2039	53	122085	-54	0																30												
WM080112	136833_fnca	2	1	1	1665443173	1	75.032	75.032	2.0.10.147	2.0.10.242	2.0.10.242	1.0.0.439	7	234	2	3	Verdana	1	80	0	0	0	WM Stimuli\	0.8	831.625	0.7	618.428571428571	1	898.8	1	502.8	0.7	657.428571428571	1	507.9	0.8	740.375	1	580.8	13	321708	2	321696	27	40	321735	-999999	321711	0	29	TrialsPROC	FC_016_F8.png	2	2	31	SessionSelectionList														nonlure	3	Face	2-Back	27	80	25	0	0	70	11	39	124657	1	14	86	122618	-1	123675	1	1057	3	3	2039	53	124671	-54	0																31												
WM080112	136833_fnca	2	1	1	1665443173	1	75.032	75.032	2.0.10.147	2.0.10.242	2.0.10.242	1.0.0.439	7	234	2	3	Verdana	1	80	0	0	0	WM Stimuli\	0.8	831.625	0.7	618.428571428571	1	898.8	1	502.8	0.7	657.428571428571	1	507.9	0.8	740.375	1	580.8	13	321708	2	321696	27	40	321735	-999999	321711	0	29	TrialsPROC	FC_013_M7.png	2	2	32	SessionSelectionList														nonlure	3	Face	2-Back	28	80	26	0	0	70	12	40	127243	1	13	85	125203	-1	125716	1	513	3	3	2040	53	127256	-54	0																32												
WM080112	136833_fnca	2	1	1	1665443173	1	75.032	75.032	2.0.10.147	2.0.10.242	2.0.10.242	1.0.0.439	7	234	2	3	Verdana	1	80	0	0	0	WM Stimuli\	0.8	831.625	0.7	618.428571428571	1	898.8	1	502.8	0.7	657.428571428571	1	507.9	0.8	740.375	1	580.8	13	321708	2	321696	27	40	321735	-999999	321711	0	29	TrialsPROC	FC_014_F7.png	2	2	33	SessionSelectionList														nonlure	3	Face	2-Back	29	80	27	0	0	70	13	39	129815	1	14	73	127776	-1	128357	1	581	3	3	2039	53	129829	-54	0																33												
WM080112	136833_fnca	2	1	1	1665443173	1	75.032	75.032	2.0.10.147	2.0.10.242	2.0.10.242	1.0.0.439	7	234	2	3	Verdana	1	80	0	0	0	WM Stimuli\	0.8	831.625	0.7	618.428571428571	1	898.8	1	502.8	0.7	657.428571428571	1	507.9	0.8	740.375	1	580.8	13	321708	2	321696	27	40	321735	-999999	321711	0	29	TrialsPROC	FC_013_M7.png	2	2	34	SessionSelectionList														target	2	Face	2-Back	30	80	28	0	0	70	1	39	132387	1	14	72	130348	-1	131201	1	853	2	2	2039	53	132401	-54	0																34												
WM080112	136833_fnca	2	1	1	1665443173	1	75.032	75.032	2.0.10.147	2.0.10.242	2.0.10.242	1.0.0.439	7	234	2	3	Verdana	1	80	0	0	0	WM Stimuli\	0.8	831.625	0.7	618.428571428571	1	898.8	1	502.8	0.7	657.428571428571	1	507.9	0.8	740.375	1	580.8	13	321708	2	321696	27	40	321735	-999999	321711	0	29	TrialsPROC	FC_014_F7.png	2	2	35	SessionSelectionList														target	2	Face	2-Back	31	80	29	0	0	70	2	39	134959	2	14	72	132920	-1	134043	1	1123	2	2	2039	53	134973	-54	0																35												
WM080112	136833_fnca	2	1	1	1665443173	1	75.032	75.032	2.0.10.147	2.0.10.242	2.0.10.242	1.0.0.439	7	234	2	3	Verdana	1	80	0	0	0	WM Stimuli\	0.8	831.625	0.7	618.428571428571	1	898.8	1	502.8	0.7	657.428571428571	1	507.9	0.8	740.375	1	580.8	13	321708	2	321696	27	40	321735	-999999	321711	0	30	Cue0BackPROC	TO_019_TOOL19_BA.png	2	2	36	SessionSelectionList																																										32	135452	-33	0												36												
WM080112	136833_fnca	2	1	1	1665443173	1	75.032	75.032	2.0.10.147	2.0.10.242	2.0.10.242	1.0.0.439	7	234	2	3	Verdana	1	80	0	0	0	WM Stimuli\	0.8	831.625	0.7	618.428571428571	1	898.8	1	502.8	0.7	657.428571428571	1	507.9	0.8	740.375	1	580.8	13	321708	2	321696	27	40	321735	-999999	321711	0	31	TrialsPROC	TO_019_TOOL19_BA.png	2	2	37	SessionSelectionList														target	2	Tools	0-Back	32	80	30	0	0	73	3	40	140011	1	13	51	137971	-1	138962	1	991	2	2	2040	53	140024	-54	0																37												
WM080112	136833_fnca	2	1	1	1665443173	1	75.032	75.032	2.0.10.147	2.0.10.242	2.0.10.242	1.0.0.439	7	234	2	3	Verdana	1	80	0	0	0	WM Stimuli\	0.8	831.625	0.7	618.428571428571	1	898.8	1	502.8	0.7	657.428571428571	1	507.9	0.8	740.375	1	580.8	13	321708	2	321696	27	40	321735	-999999	321711	0	31	TrialsPROC	TO_024_TOOL24_BA.png	2	2	38	SessionSelectionList														nonlure	3	Tools	0-Back	33	80	31	0	0	75	1	39	142596	2	14	86	140557	-1	141216	1	659	3	3	2039	53	142610	-54	0																38												
WM080112	136833_fnca	2	1	1	1665443173	1	75.032	75.032	2.0.10.147	2.0.10.242	2.0.10.242	1.0.0.439	7	234	2	3	Verdana	1	80	0	0	0	WM Stimuli\	0.8	831.625	0.7	618.428571428571	1	898.8	1	502.8	0.7	657.428571428571	1	507.9	0.8	740.375	1	580.8	13	321708	2	321696	27	40	321735	-999999	321711	0	31	TrialsPROC	TO_019_TOOL19_BA.png	2	2	39	SessionSelectionList														target	2	Tools	0-Back	34	80	32	0	0	77	1	39	145155	1	14	59	143116	-1	143601	1	485	2	2	2039	53	145169	-54	0																39												
WM080112	136833_fnca	2	1	1	1665443173	1	75.032	75.032	2.0.10.147	2.0.10.242	2.0.10.242	1.0.0.439	7	234	2	3	Verdana	1	80	0	0	0	WM Stimuli\	0.8	831.625	0.7	618.428571428571	1	898.8	1	502.8	0.7	657.428571428571	1	507.9	0.8	740.375	1	580.8	13	321708	2	321696	27	40	321735	-999999	321711	0	31	TrialsPROC	TO_023_TOOL23_BA.png	2	2	40	SessionSelectionList														nonlure	3	Tools	0-Back	35	80	33	0	0	79	1	39	147741	1	13	86	145702	-1	146281	1	579	3	3	2039	52	147754	-53	0																40												
WM080112	136833_fnca	2	1	1	1665443173	1	75.032	75.032	2.0.10.147	2.0.10.242	2.0.10.242	1.0.0.439	7	234	2	3	Verdana	1	80	0	0	0	WM Stimuli\	0.8	831.625	0.7	618.428571428571	1	898.8	1	502.8	0.7	657.428571428571	1	507.9	0.8	740.375	1	580.8	13	321708	2	321696	27	40	321735	-999999	321711	0	31	TrialsPROC	TO_020_TOOL20_BA.png	2	2	41	SessionSelectionList														nonlure	3	Tools	0-Back	36	80	34	0	0	80	2	39	150326	2	14	85	148287	-1	148763	1	476	3	3	2039	53	150340	-54	0																41												
WM080112	136833_fnca	2	1	1	1665443173	1	75.032	75.032	2.0.10.147	2.0.10.242	2.0.10.242	1.0.0.439	7	234	2	3	Verdana	1	80	0	0	0	WM Stimuli\	0.8	831.625	0.7	618.428571428571	1	898.8	1	502.8	0.7	657.428571428571	1	507.9	0.8	740.375	1	580.8	13	321708	2	321696	27	40	321735	-999999	321711	0	31	TrialsPROC	TO_020_TOOL20_BA.png	2	2	42	SessionSelectionList														lure	3	Tools	0-Back	37	80	35	0	0	81	3	39	152885	2	14	59	150846	-1	151283	1	437	3	3	2039	53	152899	-54	0																42												
WM080112	136833_fnca	2	1	1	1665443173	1	75.032	75.032	2.0.10.147	2.0.10.242	2.0.10.242	1.0.0.439	7	234	2	3	Verdana	1	80	0	0	0	WM Stimuli\	0.8	831.625	0.7	618.428571428571	1	898.8	1	502.8	0.7	657.428571428571	1	507.9	0.8	740.375	1	580.8	13	321708	2	321696	27	40	321735	-999999	321711	0	31	TrialsPROC	TO_022_TOOL22_BA.png	2	2	43	SessionSelectionList														nonlure	3	Tools	0-Back	38	80	36	0	0	82	4	39	155471	2	13	86	153432	-1	154111	1	679	3	3	2039	52	155484	-53	0																43												
WM080112	136833_fnca	2	1	1	1665443173	1	75.032	75.032	2.0.10.147	2.0.10.242	2.0.10.242	1.0.0.439	7	234	2	3	Verdana	1	80	0	0	0	WM Stimuli\	0.8	831.625	0.7	618.428571428571	1	898.8	1	502.8	0.7	657.428571428571	1	507.9	0.8	740.375	1	580.8	13	321708	2	321696	27	40	321735	-999999	321711	0	31	TrialsPROC	TO_022_TOOL22_BA.png	2	2	44	SessionSelectionList														lure	3	Tools	0-Back	39	80	37	0	0	83	5	39	158030	1	13	59	155991	-1	156440	1	449	3	3	2039	52	158043	-53	0																44												
WM080112	136833_fnca	2	1	1	1665443173	1	75.032	75.032	2.0.10.147	2.0.10.242	2.0.10.242	1.0.0.439	7	234	2	3	Verdana	1	80	0	0	0	WM Stimuli\	0.8	831.625	0.7	618.428571428571	1	898.8	1	502.8	0.7	657.428571428571	1	507.9	0.8	740.375	1	580.8	13	321708	2	321696	27	40	321735	-999999	321711	0	31	TrialsPROC	TO_021_TOOL21_BA.png	2	2	45	SessionSelectionList														nonlure	3	Tools	0-Back	40	80	38	0	0	84	6	39	160602	1	14	72	158563	-1	159130	1	567	3	3	2039	53	160616	-54	0																45												
WM080112	136833_fnca	2	1	1	1665443173	1	75.032	75.032	2.0.10.147	2.0.10.242	2.0.10.242	1.0.0.439	7	234	2	3	Verdana	1	80	0	0	0	WM Stimuli\	0.8	831.625	0.7	618.428571428571	1	898.8	1	502.8	0.7	657.428571428571	1	507.9	0.8	740.375	1	580.8	13	321708	2	321696	27	40	321735	-999999	321711	0	31	TrialsPROC	TO_021_TOOL21_BA.png	2	2	46	SessionSelectionList														lure	3	Tools	0-Back	41	80	39	0	0	85	7	39	163161	1	14	59	161122	-1	161608	1	486	3	3	2039	53	163175	-54	0																46												
WM080112	136833_fnca	2	1	1	1665443173	1	75.032	75.032	2.0.10.147	2.0.10.242	2.0.10.242	1.0.0.439	7	234	2	3	Verdana	1	80	0	0	0	WM Stimuli\	0.8	831.625	0.7	618.428571428571	1	898.8	1	502.8	0.7	657.428571428571	1	507.9	0.8	740.375	1	580.8	13	321708	2	321696	27	40	321735	-999999	321711	0	32	Fix15secPROC	""	2	2	47	SessionSelectionList																																															6	163628	-7	0							47												
WM080112	136833_fnca	2	1	1	1665443173	1	75.032	75.032	2.0.10.147	2.0.10.242	2.0.10.242	1.0.0.439	7	234	2	3	Verdana	1	80	0	0	0	WM Stimuli\	0.8	831.625	0.7	618.428571428571	1	898.8	1	502.8	0.7	657.428571428571	1	507.9	0.8	740.375	1	580.8	13	321708	2	321696	27	40	321735	-999999	321711	0	33	Cue2BackPROC	""	2	2	48	SessionSelectionList									12	178634	-13	0																																													48												
WM080112	136833_fnca	2	1	1	1665443173	1	75.032	75.032	2.0.10.147	2.0.10.242	2.0.10.242	1.0.0.439	7	234	2	3	Verdana	1	80	0	0	0	WM Stimuli\	0.8	831.625	0.7	618.428571428571	1	898.8	1	502.8	0.7	657.428571428571	1	507.9	0.8	740.375	1	580.8	13	321708	2	321696	27	40	321735	-999999	321711	0	34	TrialsPROC	BP_020_H17-T_BA.png	2	2	49	SessionSelectionList														nonlure	3	Body	2-Back	42	80	40	0	0	85	8	39	183246	1	13	85	181207	-1	182202	1	995	3	3	2039	52	183259	-53	0																49												
WM080112	136833_fnca	2	1	1	1665443173	1	75.032	75.032	2.0.10.147	2.0.10.242	2.0.10.242	1.0.0.439	7	234	2	3	Verdana	1	80	0	0	0	WM Stimuli\	0.8	831.625	0.7	618.428571428571	1	898.8	1	502.8	0.7	657.428571428571	1	507.9	0.8	740.375	1	580.8	13	321708	2	321696	27	40	321735	-999999	321711	0	34	TrialsPROC	BP_019_H14-T_BA.png	2	2	50	SessionSelectionList														nonlure	3	Body	2-Back	43	80	41	0	0	85	9	39	185818	1	14	72	183779	-1	184357	1	578	3	3	2039	53	185832	-54	0																50												
WM080112	136833_fnca	2	1	1	1665443173	1	75.032	75.032	2.0.10.147	2.0.10.242	2.0.10.242	1.0.0.439	7	234	2	3	Verdana	1	80	0	0	0	WM Stimuli\	0.8	831.625	0.7	618.428571428571	1	898.8	1	502.8	0.7	657.428571428571	1	507.9	0.8	740.375	1	580.8	13	321708	2	321696	27	40	321735	-999999	321711	0	34	TrialsPROC	BP_020_H17-T_BA.png	2	2	51	SessionSelectionList														target	2	Body	2-Back	44	80	42	0	0	85	1	39	188377	1	14	59	186338	-1	186969	1	631	2	2	2039	53	188391	-54	0																51												
WM080112	136833_fnca	2	1	1	1665443173	1	75.032	75.032	2.0.10.147	2.0.10.242	2.0.10.242	1.0.0.439	7	234	2	3	Verdana	1	80	0	0	0	WM Stimuli\	0.8	831.625	0.7	618.428571428571	1	898.8	1	502.8	0.7	657.428571428571	1	507.9	0.8	740.375	1	580.8	13	321708	2	321696	27	40	321735	-999999	321711	0	34	TrialsPROC	BP_019_H14-T_BA.png	2	2	52	SessionSelectionList														target	2	Body	2-Back	45	80	43	0	0	85	2	39	190936	1	14	59	188897	-1	189461	1	564	2	2	2039	53	190950	-54	0																52												
WM080112	136833_fnca	2	1	1	1665443173	1	75.032	75.032	2.0.10.147	2.0.10.242	2.0.10.242	1.0.0.439	7	234	2	3	Verdana	1	80	0	0	0	WM Stimuli\	0.8	831.625	0.7	618.428571428571	1	898.8	1	502.8	0.7	657.428571428571	1	507.9	0.8	740.375	1	580.8	13	321708	2	321696	27	40	321735	-999999	321711	0	34	TrialsPROC	BP_024_H3-T_BA.png	2	2	53	SessionSelectionList														nonlure	3	Body	2-Back	46	80	44	0	0	85	1	39	193521	2	14	85	191482	-1	192122	1	640	3	3	2039	53	193535	-54	0																53												
WM080112	136833_fnca	2	1	1	1665443173	1	75.032	75.032	2.0.10.147	2.0.10.242	2.0.10.242	1.0.0.439	7	234	2	3	Verdana	1	80	0	0	0	WM Stimuli\	0.8	831.625	0.7	618.428571428571	1	898.8	1	502.8	0.7	657.428571428571	1	507.9	0.8	740.375	1	580.8	13	321708	2	321696	27	40	321735	-999999	321711	0	34	TrialsPROC	BP_024_H3-T_BA.png	2	2	54	SessionSelectionList														lure	3	Body	2-Back	47	80	45	0	0	85	1	38	196080	2	14	60	194042	-1	195484	0	1442	2	3	2038	52	196094	-53	0																54												
WM080112	136833_fnca	2	1	1	1665443173	1	75.032	75.032	2.0.10.147	2.0.10.242	2.0.10.242	1.0.0.439	7	234	2	3	Verdana	1	80	0	0	0	WM Stimuli\	0.8	831.625	0.7	618.428571428571	1	898.8	1	502.8	0.7	657.428571428571	1	507.9	0.8	740.375	1	580.8	13	321708	2	321696	27	40	321735	-999999	321711	0	34	TrialsPROC	BP_025_H5-T_BA.png	2	2	55	SessionSelectionList														nonlure	3	Body	2-Back	48	80	46	0	0	85	2	39	198666	1	14	85	196627	-1	197463	0	836	2	3	2039	53	198680	-54	0																55												
WM080112	136833_fnca	2	1	1	1665443173	1	75.032	75.032	2.0.10.147	2.0.10.242	2.0.10.242	1.0.0.439	7	234	2	3	Verdana	1	80	0	0	0	WM Stimuli\	0.8	831.625	0.7	618.428571428571	1	898.8	1	502.8	0.7	657.428571428571	1	507.9	0.8	740.375	1	580.8	13	321708	2	321696	27	40	321735	-999999	321711	0	34	TrialsPROC	BP_023_H25-T_BA.png	2	2	56	SessionSelectionList														nonlure	3	Body	2-Back	49	80	47	0	0	85	1	39	201238	2	14	72	199199	-1	200509	1	1310	3	3	2039	53	201252	-54	0																56												
WM080112	136833_fnca	2	1	1	1665443173	1	75.032	75.032	2.0.10.147	2.0.10.242	2.0.10.242	1.0.0.439	7	234	2	3	Verdana	1	80	0	0	0	WM Stimuli\	0.8	831.625	0.7	618.428571428571	1	898.8	1	502.8	0.7	657.428571428571	1	507.9	0.8	740.375	1	580.8	13	321708	2	321696	27	40	321735	-999999	321711	0	34	TrialsPROC	BP_022_H24-T_BA.png	2	2	57	SessionSelectionList														nonlure	3	Body	2-Back	50	80	48	0	0	85	2	39	203824	1	14	86	201785	-1	202946	1	1161	3	3	2039	53	203838	-54	0																57												
WM080112	136833_fnca	2	1	1	1665443173	1	75.032	75.032	2.0.10.147	2.0.10.242	2.0.10.242	1.0.0.439	7	234	2	3	Verdana	1	80	0	0	0	WM Stimuli\	0.8	831.625	0.7	618.428571428571	1	898.8	1	502.8	0.7	657.428571428571	1	507.9	0.8	740.375	1	580.8	13	321708	2	321696	27	40	321735	-999999	321711	0	34	TrialsPROC	BP_022_H24-T_BA.png	2	2	58	SessionSelectionList														lure	3	Body	2-Back	51	80	49	0	0	85	3	39	206383	1	13	59	204344	-1	205118	1	774	3	3	2039	52	206396	-53	0																58												
WM080112	136833_fnca	2	1	1	1665443173	1	75.032	75.032	2.0.10.147	2.0.10.242	2.0.10.242	1.0.0.439	7	234	2	3	Verdana	1	80	0	0	0	WM Stimuli\	0.8	831.625	0.7	618.428571428571	1	898.8	1	502.8	0.7	657.428571428571	1	507.9	0.8	740.375	1	580.8	13	321708	2	321696	27	40	321735	-999999	321711	0	35	Cue2BackPROC	""	2	2	59	SessionSelectionList									5	206849	-6	0																																													59												
WM080112	136833_fnca	2	1	1	1665443173	1	75.032	75.032	2.0.10.147	2.0.10.242	2.0.10.242	1.0.0.439	7	234	2	3	Verdana	1	80	0	0	0	WM Stimuli\	0.8	831.625	0.7	618.428571428571	1	898.8	1	502.8	0.7	657.428571428571	1	507.9	0.8	740.375	1	580.8	13	321708	2	321696	27	40	321735	-999999	321711	0	36	TrialsPROC	PL_019_SCENE_05.png	2	2	60	SessionSelectionList														nonlure	3	Place	2-Back	52	80	49	0	1	85	3	40	211461	1	13	77	209421	-1	0	0	0	""	3	2040	53	211474	-54	0																60												
WM080112	136833_fnca	2	1	1	1665443173	1	75.032	75.032	2.0.10.147	2.0.10.242	2.0.10.242	1.0.0.439	7	234	2	3	Verdana	1	80	0	0	0	WM Stimuli\	0.8	831.625	0.7	618.428571428571	1	898.8	1	502.8	0.7	657.428571428571	1	507.9	0.8	740.375	1	580.8	13	321708	2	321696	27	40	321735	-999999	321711	0	36	TrialsPROC	PL_017_SCENE_03.png	2	2	61	SessionSelectionList														nonlure	3	Place	2-Back	53	80	50	0	0	85	1	39	214046	2	14	86	212007	-1	213356	1	1349	3	3	2039	53	214060	-54	0																61												
WM080112	136833_fnca	2	1	1	1665443173	1	75.032	75.032	2.0.10.147	2.0.10.242	2.0.10.242	1.0.0.439	7	234	2	3	Verdana	1	80	0	0	0	WM Stimuli\	0.8	831.625	0.7	618.428571428571	1	898.8	1	502.8	0.7	657.428571428571	1	507.9	0.8	740.375	1	580.8	13	321708	2	321696	27	40	321735	-999999	321711	0	36	TrialsPROC	PL_017_SCENE_03.png	2	2	62	SessionSelectionList														lure	3	Place	2-Back	54	80	51	0	0	85	2	39	216618	2	14	72	214579	-1	215552	1	973	3	3	2039	53	216632	-54	0																62												
WM080112	136833_fnca	2	1	1	1665443173	1	75.032	75.032	2.0.10.147	2.0.10.242	2.0.10.242	1.0.0.439	7	234	2	3	Verdana	1	80	0	0	0	WM Stimuli\	0.8	831.625	0.7	618.428571428571	1	898.8	1	502.8	0.7	657.428571428571	1	507.9	0.8	740.375	1	580.8	13	321708	2	321696	27	40	321735	-999999	321711	0	36	TrialsPROC	PL_016_SCENE_02.png	2	2	63	SessionSelectionList														nonlure	3	Place	2-Back	55	80	52	0	0	85	3	39	219191	1	13	73	217152	-1	217660	1	508	3	3	2039	52	219204	-53	0																63												
WM080112	136833_fnca	2	1	1	1665443173	1	75.032	75.032	2.0.10.147	2.0.10.242	2.0.10.242	1.0.0.439	7	234	2	3	Verdana	1	80	0	0	0	WM Stimuli\	0.8	831.625	0.7	618.428571428571	1	898.8	1	502.8	0.7	657.428571428571	1	507.9	0.8	740.375	1	580.8	13	321708	2	321696	27	40	321735	-999999	321711	0	36	TrialsPROC	PL_015_SCENE_01.png	2	2	64	SessionSelectionList														nonlure	3	Place	2-Back	56	80	53	0	0	85	4	39	221776	2	14	85	219737	-1	220284	1	547	3	3	2039	53	221790	-54	0																64												
WM080112	136833_fnca	2	1	1	1665443173	1	75.032	75.032	2.0.10.147	2.0.10.242	2.0.10.242	1.0.0.439	7	234	2	3	Verdana	1	80	0	0	0	WM Stimuli\	0.8	831.625	0.7	618.428571428571	1	898.8	1	502.8	0.7	657.428571428571	1	507.9	0.8	740.375	1	580.8	13	321708	2	321696	27	40	321735	-999999	321711	0	36	TrialsPROC	PL_016_SCENE_02.png	2	2	65	SessionSelectionList														target	2	Place	2-Back	57	80	54	0	0	85	5	40	224349	1	13	72	222309	-1	222627	0	318	3	2	2040	53	224362	-54	0																65												
WM080112	136833_fnca	2	1	1	1665443173	1	75.032	75.032	2.0.10.147	2.0.10.242	2.0.10.242	1.0.0.439	7	234	2	3	Verdana	1	80	0	0	0	WM Stimuli\	0.8	831.625	0.7	618.428571428571	1	898.8	1	502.8	0.7	657.428571428571	1	507.9	0.8	740.375	1	580.8	13	321708	2	321696	27	40	321735	-999999	321711	0	36	TrialsPROC	PL_015_SCENE_01.png	2	2	66	SessionSelectionList														target	2	Place	2-Back	58	80	55	0	0	85	6	39	226921	1	13	73	224882	-1	225265	0	383	3	2	2039	52	226934	-53	0																66												
WM080112	136833_fnca	2	1	1	1665443173	1	75.032	75.032	2.0.10.147	2.0.10.242	2.0.10.242	1.0.0.439	7	234	2	3	Verdana	1	80	0	0	0	WM Stimuli\	0.8	831.625	0.7	618.428571428571	1	898.8	1	502.8	0.7	657.428571428571	1	507.9	0.8	740.375	1	580.8	13	321708	2	321696	27	40	321735	-999999	321711	0	36	TrialsPROC	PL_020_SCENE_06.png	2	2	67	SessionSelectionList														nonlure	3	Place	2-Back	59	80	56	0	0	85	7	39	229506	2	14	85	227467	-1	227944	1	477	3	3	2039	53	229520	-54	0																67												
WM080112	136833_fnca	2	1	1	1665443173	1	75.032	75.032	2.0.10.147	2.0.10.242	2.0.10.242	1.0.0.439	7	234	2	3	Verdana	1	80	0	0	0	WM Stimuli\	0.8	831.625	0.7	618.428571428571	1	898.8	1	502.8	0.7	657.428571428571	1	507.9	0.8	740.375	1	580.8	13	321708	2	321696	27	40	321735	-999999	321711	0	36	TrialsPROC	PL_020_SCENE_06.png	2	2	68	SessionSelectionList														lure	3	Place	2-Back	60	80	57	0	0	85	8	40	232079	1	13	72	230039	-1	230398	1	359	3	3	2040	53	232092	-54	0																68												
WM080112	136833_fnca	2	1	1	1665443173	1	75.032	75.032	2.0.10.147	2.0.10.242	2.0.10.242	1.0.0.439	7	234	2	3	Verdana	1	80	0	0	0	WM Stimuli\	0.8	831.625	0.7	618.428571428571	1	898.8	1	502.8	0.7	657.428571428571	1	507.9	0.8	740.375	1	580.8	13	321708	2	321696	27	40	321735	-999999	321711	0	36	TrialsPROC	PL_018_SCENE_04.png	2	2	69	SessionSelectionList														nonlure	3	Place	2-Back	61	80	58	0	0	85	9	39	234664	2	14	86	232625	-1	233014	1	389	3	3	2039	53	234678	-54	0																69												
WM080112	136833_fnca	2	1	1	1665443173	1	75.032	75.032	2.0.10.147	2.0.10.242	2.0.10.242	1.0.0.439	7	234	2	3	Verdana	1	80	0	0	0	WM Stimuli\	0.8	831.625	0.7	618.428571428571	1	898.8	1	502.8	0.7	657.428571428571	1	507.9	0.8	740.375	1	580.8	13	321708	2	321696	27	40	321735	-999999	321711	0	37	Fix15secPROC	""	2	2	70	SessionSelectionList																																															6	235131	-7	0							70												
WM080112	136833_fnca	2	1	1	1665443173	1	75.032	75.032	2.0.10.147	2.0.10.242	2.0.10.242	1.0.0.439	7	234	2	3	Verdana	1	80	0	0	0	WM Stimuli\	0.8	831.625	0.7	618.428571428571	1	898.8	1	502.8	0.7	657.428571428571	1	507.9	0.8	740.375	1	580.8	13	321708	2	321696	27	40	321735	-999999	321711	0	38	Cue0BackPROC	FC_020_F10.png	2	2	71	SessionSelectionList																																										39	250164	-40	0												71												
WM080112	136833_fnca	2	1	1	1665443173	1	75.032	75.032	2.0.10.147	2.0.10.242	2.0.10.242	1.0.0.439	7	234	2	3	Verdana	1	80	0	0	0	WM Stimuli\	0.8	831.625	0.7	618.428571428571	1	898.8	1	502.8	0.7	657.428571428571	1	507.9	0.8	740.375	1	580.8	13	321708	2	321696	27	40	321735	-999999	321711	0	39	TrialsPROC	FC_024_F12.png	2	2	72	SessionSelectionList														nonlure	3	Face	0-Back	62	80	59	0	0	86	10	39	254749	1	14	85	252710	-1	253252	1	542	3	3	2039	53	254763	-54	0																72												
WM080112	136833_fnca	2	1	1	1665443173	1	75.032	75.032	2.0.10.147	2.0.10.242	2.0.10.242	1.0.0.439	7	234	2	3	Verdana	1	80	0	0	0	WM Stimuli\	0.8	831.625	0.7	618.428571428571	1	898.8	1	502.8	0.7	657.428571428571	1	507.9	0.8	740.375	1	580.8	13	321708	2	321696	27	40	321735	-999999	321711	0	39	TrialsPROC	FC_023_M12.png	2	2	73	SessionSelectionList														nonlure	3	Face	0-Back	63	80	60	0	0	86	11	40	257335	1	13	85	255295	-1	255664	1	369	3	3	2040	53	257348	-54	0																73												
WM080112	136833_fnca	2	1	1	1665443173	1	75.032	75.032	2.0.10.147	2.0.10.242	2.0.10.242	1.0.0.439	7	234	2	3	Verdana	1	80	0	0	0	WM Stimuli\	0.8	831.625	0.7	618.428571428571	1	898.8	1	502.8	0.7	657.428571428571	1	507.9	0.8	740.375	1	580.8	13	321708	2	321696	27	40	321735	-999999	321711	0	39	TrialsPROC	FC_020_F10.png	2	2	74	SessionSelectionList														target	2	Face	0-Back	64	80	61	0	0	87	1	39	259907	1	14	73	257868	-1	258508	1	640	2	2	2039	53	259921	-54	0																74												
WM080112	136833_fnca	2	1	1	1665443173	1	75.032	75.032	2.0.10.147	2.0.10.242	2.0.10.242	1.0.0.439	7	234	2	3	Verdana	1	80	0	0	0	WM Stimuli\	0.8	831.625	0.7	618.428571428571	1	898.8	1	502.8	0.7	657.428571428571	1	507.9	0.8	740.375	1	580.8	13	321708	2	321696	27	40	321735	-999999	321711	0	39	TrialsPROC	FC_024_F12.png	2	2	75	SessionSelectionList														lure	3	Face	0-Back	65	80	62	0	0	88	1	39	262479	2	14	72	260440	-1	261025	1	585	3	3	2039	53	262493	-54	0																75												
WM080112	136833_fnca	2	1	1	1665443173	1	75.032	75.032	2.0.10.147	2.0.10.242	2.0.10.242	1.0.0.439	7	234	2	3	Verdana	1	80	0	0	0	WM Stimuli\	0.8	831.625	0.7	618.428571428571	1	898.8	1	502.8	0.7	657.428571428571	1	507.9	0.8	740.375	1	580.8	13	321708	2	321696	27	40	321735	-999999	321711	0	39	TrialsPROC	FC_020_F10.png	2	2	76	SessionSelectionList														target	2	Face	0-Back	66	80	63	0	0	88	1	39	265051	2	14	72	263012	-1	263525	1	513	2	2	2039	53	265065	-54	0																76												
WM080112	136833_fnca	2	1	1	1665443173	1	75.032	75.032	2.0.10.147	2.0.10.242	2.0.10.242	1.0.0.439	7	234	2	3	Verdana	1	80	0	0	0	WM Stimuli\	0.8	831.625	0.7	618.428571428571	1	898.8	1	502.8	0.7	657.428571428571	1	507.9	0.8	740.375	1	580.8	13	321708	2	321696	27	40	321735	-999999	321711	0	39	TrialsPROC	FC_022_F11.png	2	2	77	SessionSelectionList														nonlure	3	Face	0-Back	67	80	64	0	0	88	1	39	267650	2	14	99	265611	-1	266079	1	468	3	3	2039	53	267664	-54	0																77												
WM080112	136833_fnca	2	1	1	1665443173	1	75.032	75.032	2.0.10.147	2.0.10.242	2.0.10.242	1.0.0.439	7	234	2	3	Verdana	1	80	0	0	0	WM Stimuli\	0.8	831.625	0.7	618.428571428571	1	898.8	1	502.8	0.7	657.428571428571	1	507.9	0.8	740.375	1	580.8	13	321708	2	321696	27	40	321735	-999999	321711	0	39	TrialsPROC	FC_023_M12.png	2	2	78	SessionSelectionList														lure	3	Face	0-Back	68	80	65	0	0	89	2	40	270223	1	13	72	268183	-1	268683	1	500	3	3	2040	53	270236	-54	0																78												
WM080112	136833_fnca	2	1	1	1665443173	1	75.032	75.032	2.0.10.147	2.0.10.242	2.0.10.242	1.0.0.439	7	234	2	3	Verdana	1	80	0	0	0	WM Stimuli\	0.8	831.625	0.7	618.428571428571	1	898.8	1	502.8	0.7	657.428571428571	1	507.9	0.8	740.375	1	580.8	13	321708	2	321696	27	40	321735	-999999	321711	0	39	TrialsPROC	FC_021_M11.png	2	2	79	SessionSelectionList														nonlure	3	Face	0-Back	69	80	66	0	0	89	3	39	272808	2	14	86	270769	-1	271398	1	629	3	3	2039	53	272822	-54	0																79												
WM080112	136833_fnca	2	1	1	1665443173	1	75.032	75.032	2.0.10.147	2.0.10.242	2.0.10.242	1.0.0.439	7	234	2	3	Verdana	1	80	0	0	0	WM Stimuli\	0.8	831.625	0.7	618.428571428571	1	898.8	1	502.8	0.7	657.428571428571	1	507.9	0.8	740.375	1	580.8	13	321708	2	321696	27	40	321735	-999999	321711	0	39	TrialsPROC	FC_021_M11.png	2	2	80	SessionSelectionList														lure	3	Face	0-Back	70	80	67	0	0	90	4	39	275380	2	14	72	273341	-1	273733	1	392	3	3	2039	53	275394	-54	0																80												
WM080112	136833_fnca	2	1	1	1665443173	1	75.032	75.032	2.0.10.147	2.0.10.242	2.0.10.242	1.0.0.439	7	234	2	3	Verdana	1	80	0	0	0	WM Stimuli\	0.8	831.625	0.7	618.428571428571	1	898.8	1	502.8	0.7	657.428571428571	1	507.9	0.8	740.375	1	580.8	13	321708	2	321696	27	40	321735	-999999	321711	0	39	TrialsPROC	FC_019_M10.png	2	2	81	SessionSelectionList														nonlure	3	Face	0-Back	71	80	68	0	0	90	5	39	277966	1	14	86	275927	-1	276317	1	390	3	3	2039	53	277980	-54	0																81												
WM080112	136833_fnca	2	1	1	1665443173	1	75.032	75.032	2.0.10.147	2.0.10.242	2.0.10.242	1.0.0.439	7	234	2	3	Verdana	1	80	0	0	0	WM Stimuli\	0.8	831.625	0.7	618.428571428571	1	898.8	1	502.8	0.7	657.428571428571	1	507.9	0.8	740.375	1	580.8	13	321708	2	321696	27	40	321735	-999999	321711	0	40	Cue0BackPROC	PL_021_SCENE_07.png	2	2	82	SessionSelectionList																																										45	278472	-46	0												82												
WM080112	136833_fnca	2	1	1	1665443173	1	75.032	75.032	2.0.10.147	2.0.10.242	2.0.10.242	1.0.0.439	7	234	2	3	Verdana	1	80	0	0	0	WM Stimuli\	0.8	831.625	0.7	618.428571428571	1	898.8	1	502.8	0.7	657.428571428571	1	507.9	0.8	740.375	1	580.8	13	321708	2	321696	27	40	321735	-999999	321711	0	41	TrialsPROC	PL_025_SCENE_18.png	2	2	83	SessionSelectionList														nonlure	3	Place	0-Back	72	80	69	0	0	90	6	39	283044	1	14	78	281005	-1	281386	1	381	3	3	2039	53	283058	-54	0																83												
WM080112	136833_fnca	2	1	1	1665443173	1	75.032	75.032	2.0.10.147	2.0.10.242	2.0.10.242	1.0.0.439	7	234	2	3	Verdana	1	80	0	0	0	WM Stimuli\	0.8	831.625	0.7	618.428571428571	1	898.8	1	502.8	0.7	657.428571428571	1	507.9	0.8	740.375	1	580.8	13	321708	2	321696	27	40	321735	-999999	321711	0	41	TrialsPROC	PL_026_SCENE_24.png	2	2	84	SessionSelectionList														nonlure	3	Place	0-Back	73	80	70	0	0	91	7	39	285629	2	14	85	283590	-1	284157	1	567	3	3	2039	53	285643	-54	0																84												
WM080112	136833_fnca	2	1	1	1665443173	1	75.032	75.032	2.0.10.147	2.0.10.242	2.0.10.242	1.0.0.439	7	234	2	3	Verdana	1	80	0	0	0	WM Stimuli\	0.8	831.625	0.7	618.428571428571	1	898.8	1	502.8	0.7	657.428571428571	1	507.9	0.8	740.375	1	580.8	13	321708	2	321696	27	40	321735	-999999	321711	0	41	TrialsPROC	PL_025_SCENE_18.png	2	2	85	SessionSelectionList														lure	3	Place	0-Back	74	80	71	0	0	91	8	39	288202	1	13	73	286163	-1	286723	1	560	3	3	2039	52	288215	-53	0																85												
WM080112	136833_fnca	2	1	1	1665443173	1	75.032	75.032	2.0.10.147	2.0.10.242	2.0.10.242	1.0.0.439	7	234	2	3	Verdana	1	80	0	0	0	WM Stimuli\	0.8	831.625	0.7	618.428571428571	1	898.8	1	502.8	0.7	657.428571428571	1	507.9	0.8	740.375	1	580.8	13	321708	2	321696	27	40	321735	-999999	321711	0	41	TrialsPROC	PL_022_SCENE_08.png	2	2	86	SessionSelectionList														nonlure	3	Place	0-Back	75	80	72	0	0	91	9	39	290787	2	14	85	288748	-1	289160	1	412	3	3	2039	53	290801	-54	0																86												
WM080112	136833_fnca	2	1	1	1665443173	1	75.032	75.032	2.0.10.147	2.0.10.242	2.0.10.242	1.0.0.439	7	234	2	3	Verdana	1	80	0	0	0	WM Stimuli\	0.8	831.625	0.7	618.428571428571	1	898.8	1	502.8	0.7	657.428571428571	1	507.9	0.8	740.375	1	580.8	13	321708	2	321696	27	40	321735	-999999	321711	0	41	TrialsPROC	PL_026_SCENE_24.png	2	2	87	SessionSelectionList														lure	3	Place	0-Back	76	80	73	0	0	91	10	40	293360	1	13	72	291320	-1	291818	1	498	3	3	2040	53	293373	-54	0																87												
WM080112	136833_fnca	2	1	1	1665443173	1	75.032	75.032	2.0.10.147	2.0.10.242	2.0.10.242	1.0.0.439	7	234	2	3	Verdana	1	80	0	0	0	WM Stimuli\	0.8	831.625	0.7	618.428571428571	1	898.8	1	502.8	0.7	657.428571428571	1	507.9	0.8	740.375	1	580.8	13	321708	2	321696	27	40	321735	-999999	321711	0	41	TrialsPROC	PL_021_SCENE_07.png	2	2	88	SessionSelectionList														target	2	Place	0-Back	77	80	74	0	0	92	1	39	295932	1	14	73	293893	-1	294433	1	540	2	2	2039	53	295946	-54	0																88												
WM080112	136833_fnca	2	1	1	1665443173	1	75.032	75.032	2.0.10.147	2.0.10.242	2.0.10.242	1.0.0.439	7	234	2	3	Verdana	1	80	0	0	0	WM Stimuli\	0.8	831.625	0.7	618.428571428571	1	898.8	1	502.8	0.7	657.428571428571	1	507.9	0.8	740.375	1	580.8	13	321708	2	321696	27	40	321735	-999999	321711	0	41	TrialsPROC	PL_021_SCENE_07.png	2	2	89	SessionSelectionList														target	2	Place	0-Back	78	80	75	0	0	92	2	39	298504	1	14	72	296465	-1	297108	1	643	2	2	2039	53	298518	-54	0																89												
WM080112	136833_fnca	2	1	1	1665443173	1	75.032	75.032	2.0.10.147	2.0.10.242	2.0.10.242	1.0.0.439	7	234	2	3	Verdana	1	80	0	0	0	WM Stimuli\	0.8	831.625	0.7	618.428571428571	1	898.8	1	502.8	0.7	657.428571428571	1	507.9	0.8	740.375	1	580.8	13	321708	2	321696	27	40	321735	-999999	321711	0	41	TrialsPROC	PL_023_SCENE_09.png	2	2	90	SessionSelectionList														nonlure	3	Place	0-Back	79	80	76	0	0	92	1	40	301090	1	13	85	299050	-1	299544	1	494	3	3	2040	53	301103	-54	0																90												
WM080112	136833_fnca	2	1	1	1665443173	1	75.032	75.032	2.0.10.147	2.0.10.242	2.0.10.242	1.0.0.439	7	234	2	3	Verdana	1	80	0	0	0	WM Stimuli\	0.8	831.625	0.7	618.428571428571	1	898.8	1	502.8	0.7	657.428571428571	1	507.9	0.8	740.375	1	580.8	13	321708	2	321696	27	40	321735	-999999	321711	0	41	TrialsPROC	PL_024_SCENE_10.png	2	2	91	SessionSelectionList														nonlure	3	Place	0-Back	80	80	77	0	0	92	2	39	303662	2	14	73	301623	-1	302094	1	471	3	3	2039	53	303676	-54	0																91												
WM080112	136833_fnca	2	1	1	1665443173	1	75.032	75.032	2.0.10.147	2.0.10.242	2.0.10.242	1.0.0.439	7	234	2	3	Verdana	1	80	0	0	0	WM Stimuli\	0.8	831.625	0.7	618.428571428571	1	898.8	1	502.8	0.7	657.428571428571	1	507.9	0.8	740.375	1	580.8	13	321708	2	321696	27	40	321735	-999999	321711	0	41	TrialsPROC	PL_022_SCENE_08.png	2	2	92	SessionSelectionList														lure	3	Place	0-Back	80	80	78	0	0	92	3	39	306234	2	14	72	304195	-1	304708	1	513	3	3	2039	53	306248	-54	0																92												
WM080112	136833_fnca	2	1	1	1665443173	1	75.032	75.032	2.0.10.147	2.0.10.242	2.0.10.242	1.0.0.439	7	234	2	3	Verdana	1	80	0	0	0	WM Stimuli\	0.8	831.625	0.7	618.428571428571	1	898.8	1	502.8	0.7	657.428571428571	1	507.9	0.8	740.375	1	580.8	13	321708	2	321696	27	40	321735	-999999	321711	0	42	Fix15secPROC	""	2	2	93	SessionSelectionList																																															6	306701	-7	0							93												
