ExperimentName	HCPID	RunNumber	Subject	Session	RandomSeed	Group	Laptop.RefreshRate	ScannerD2.RefreshRate	StudioVersion	RuntimeVersion	RuntimeVersionExpected	ExperimentVersion	triggercode	Allowed	Target	Nontarget	FontStyle	RunTrialNumber[Session]	TrialsPerRun[Session]	TotalRespGreater200[Session]	ConsecRTLess200[Session]	ConsecNonResp[Session]	StimuliDir	ACC_2_Back_Body	Avg_RT_For_Correct_Trials_2_Back_Body	ACC_0_Back_Body	Avg_RT_For_Correct_Trials_0_Back_Body	ACC_2_Back_Face	Avg_RT_For_Correct_Trials_2_Back_Face	ACC_0_Back_Face	Avg_RT_For_Correct_Trials_0_Back_Face	ACC_2_Back_Place	Avg_RT_For_Correct_Trials_2_Back_Place	ACC_0_Back_Place	Avg_RT_For_Correct_Trials_0_Back_Place	ACC_2_Back_Tools	Avg_RT_For_Correct_Trials_2_Back_Tools	ACC_0_Back_Tools	Avg_RT_For_Correct_Trials_0_Back_Tools	ExpInstrucFeelFreeToRest.OnsetDelay	ExpInstrucFeelFreeToRest.OnsetTime	ExpInstrucFeelFreeToRest.DurationError	ExpInstrucFeelFreeToRest.StartTime	ExpInstrucFeelFreeToRest.OnsetToOnsetTime	FeelFreeToRest.OnsetDelay	FeelFreeToRest.OnsetTime	FeelFreeToRest.DurationError	FeelFreeToRest.StartTime	FeelFreeToRest.OnsetToOnsetTime	SessionSelectionList	Procedure[Block]	Stimulus[Block]	RunNumberFilterValue	SessionSelectionList.Cycle	SessionSelectionList.Sample	Running[Block]	IntroButtonMap.OnsetDelay	IntroButtonMap.OnsetTime	IntroButtonMap.DurationError	IntroButtonMap.OnsetToOnsetTime	GetReady.OnsetDelay	GetReady.OnsetTime	GetReady.DurationError	GetReady.OnsetToOnsetTime	Cue2Back.OnsetDelay	Cue2Back.OnsetTime	Cue2Back.DurationError	Cue2Back.OnsetToOnsetTime	Run1Block1	TargetType	CorrectResponse	StimType	BlockType	RunTrialNumber[Block]	TrialsPerRun[Block]	TotalRespGreater200[Block]	ConsecRTLess200[Block]	ConsecNonResp[Block]	ControlAcc	ConsecSameResp	ExperimenterWindow.OnsetDelay	ExperimenterWindow.OnsetTime	ExperimenterWindow.DurationError	ExperimenterWindow.OnsetToOnsetTime	Stim.OnsetDelay	Stim.OnsetTime	Stim.DurationError	Stim.RTTime	Stim.ACC	Stim.RT	Stim.RESP	Stim.CRESP	Stim.OnsetToOnsetTime	Fix.OnsetDelay	Fix.OnsetTime	Fix.DurationError	Fix.OnsetToOnsetTime	CueTarget.OnsetDelay	CueTarget.OnsetTime	CueTarget.DurationError	CueTarget.OnsetToOnsetTime	Run1Block2	Fix15sec.OnsetDelay	Fix15sec.OnsetTime	Fix15sec.DurationError	Fix15sec.OnsetToOnsetTime	Run1Block3	Run1Block4	Run1Block5	Run1Block6	Run1Block7	Run1Block8	Block	Procedure[Trial]	Stimulus[Trial]	ReadyList	Running[Trial]	ReadyList.Cycle	ReadyList.Sample	SyncSlide.OnsetDelay	SyncSlide.OnsetTime	SyncSlide.DurationError	SyncSlide.FinishTime	SyncSlide.OnsetToOnsetTime	Trial
WM080112	135932_fnca	2	1	1	-176940010	1	75.032	75.031	2.0.10.147	2.0.10.242	2.0.10.242	1.0.0.439	7	234	2	3	Verdana	1	80	0	0	0	WM Stimuli\	1	1229	1	674.7	0.7	762	1	608.5	1	1176.3	1	636.9	1	845.7	1	671.1	12	317470	3	317459	27	39	317497	-999999	317473	0	22	TRSyncPROC	""	2	2	1	SessionSelectionList	113	5227	-999999	0	27	9572	-999999	0																																																	1	InitialTR	4	1	ReadyList	1	1	14	23899	-15	25884	0	1
WM080112	135932_fnca	2	1	1	-176940010	1	75.032	75.031	2.0.10.147	2.0.10.242	2.0.10.242	1.0.0.439	7	234	2	3	Verdana	1	80	0	0	0	WM Stimuli\	1	1229	1	674.7	0.7	762	1	608.5	1	1176.3	1	636.9	1	845.7	1	671.1	12	317470	3	317459	27	39	317497	-999999	317473	0	22	TRSyncPROC	""	2	2	1	SessionSelectionList	113	5227	-999999	0	27	9572	-999999	0																																																	1	InitialTR	3	2	ReadyList	1	2	13	25898	-14	27884	0	2
WM080112	135932_fnca	2	1	1	-176940010	1	75.032	75.031	2.0.10.147	2.0.10.242	2.0.10.242	1.0.0.439	7	234	2	3	Verdana	1	80	0	0	0	WM Stimuli\	1	1229	1	674.7	0.7	762	1	608.5	1	1176.3	1	636.9	1	845.7	1	671.1	12	317470	3	317459	27	39	317497	-999999	317473	0	22	TRSyncPROC	""	2	2	1	SessionSelectionList	113	5227	-999999	0	27	9572	-999999	0																																																	1	InitialTR	2	3	ReadyList	1	3	13	27898	-14	29884	0	3
WM080112	135932_fnca	2	1	1	-176940010	1	75.032	75.031	2.0.10.147	2.0.10.242	2.0.10.242	1.0.0.439	7	234	2	3	Verdana	1	80	0	0	0	WM Stimuli\	1	1229	1	674.7	0.7	762	1	608.5	1	1176.3	1	636.9	1	845.7	1	671.1	12	317470	3	317459	27	39	317497	-999999	317473	0	22	TRSyncPROC	""	2	2	1	SessionSelectionList	113	5227	-999999	0	27	9572	-999999	0																																																	1	InitialTR	1	4	ReadyList	1	4	12	29897	-13	31884	0	4
WM080112	135932_fnca	2	1	1	-176940010	1	75.032	75.031	2.0.10.147	2.0.10.242	2.0.10.242	1.0.0.439	7	234	2	3	Verdana	1	80	0	0	0	WM Stimuli\	1	1229	1	674.7	0.7	762	1	608.5	1	1176.3	1	636.9	1	845.7	1	671.1	12	317470	3	317459	27	39	317497	-999999	317473	0	23	Cue2BackPROC	""	2	2	2	SessionSelectionList									11	31896	-12	0																																													2												
WM080112	135932_fnca	2	1	1	-176940010	1	75.032	75.031	2.0.10.147	2.0.10.242	2.0.10.242	1.0.0.439	7	234	2	3	Verdana	1	80	0	0	0	WM Stimuli\	1	1229	1	674.7	0.7	762	1	608.5	1	1176.3	1	636.9	1	845.7	1	671.1	12	317470	3	317459	27	39	317497	-999999	317473	0	24	TrialsPROC	TO_014_TOOL14_BA.png	2	2	3	SessionSelectionList														nonlure	3	Tools	2-Back	2	80	1	0	0	0	1	53	36521	2	13	83	34468	-1	35751	1	1283	3	3	2053	66	36534	-67	0																3												
WM080112	135932_fnca	2	1	1	-176940010	1	75.032	75.031	2.0.10.147	2.0.10.242	2.0.10.242	1.0.0.439	7	234	2	3	Verdana	1	80	0	0	0	WM Stimuli\	1	1229	1	674.7	0.7	762	1	608.5	1	1176.3	1	636.9	1	845.7	1	671.1	12	317470	3	317459	27	39	317497	-999999	317473	0	24	TrialsPROC	TO_013_TOOL13_BA.png	2	2	4	SessionSelectionList														nonlure	3	Tools	2-Back	3	80	2	0	0	0	2	40	39080	2	13	72	37040	-1	37924	1	884	3	3	2040	53	39093	-54	0																4												
WM080112	135932_fnca	2	1	1	-176940010	1	75.032	75.031	2.0.10.147	2.0.10.242	2.0.10.242	1.0.0.439	7	234	2	3	Verdana	1	80	0	0	0	WM Stimuli\	1	1229	1	674.7	0.7	762	1	608.5	1	1176.3	1	636.9	1	845.7	1	671.1	12	317470	3	317459	27	39	317497	-999999	317473	0	24	TrialsPROC	TO_016_TOOL16_BA.png	2	2	5	SessionSelectionList														nonlure	3	Tools	2-Back	4	80	3	0	0	0	3	39	41665	2	14	86	39626	-1	40410	1	784	3	3	2039	53	41679	-54	0																5												
WM080112	135932_fnca	2	1	1	-176940010	1	75.032	75.031	2.0.10.147	2.0.10.242	2.0.10.242	1.0.0.439	7	234	2	3	Verdana	1	80	0	0	0	WM Stimuli\	1	1229	1	674.7	0.7	762	1	608.5	1	1176.3	1	636.9	1	845.7	1	671.1	12	317470	3	317459	27	39	317497	-999999	317473	0	24	TrialsPROC	TO_014_TOOL14_BA.png	2	2	6	SessionSelectionList														lure	3	Tools	2-Back	5	80	4	0	0	0	4	39	44237	2	14	72	42198	-1	43212	1	1014	3	3	2039	53	44251	-54	0																6												
WM080112	135932_fnca	2	1	1	-176940010	1	75.032	75.031	2.0.10.147	2.0.10.242	2.0.10.242	1.0.0.439	7	234	2	3	Verdana	1	80	0	0	0	WM Stimuli\	1	1229	1	674.7	0.7	762	1	608.5	1	1176.3	1	636.9	1	845.7	1	671.1	12	317470	3	317459	27	39	317497	-999999	317473	0	24	TrialsPROC	TO_016_TOOL16_BA.png	2	2	7	SessionSelectionList														target	2	Tools	2-Back	6	80	5	0	0	0	1	39	46796	2	14	59	44757	-1	45479	1	722	2	2	2039	53	46810	-54	0																7												
WM080112	135932_fnca	2	1	1	-176940010	1	75.032	75.031	2.0.10.147	2.0.10.242	2.0.10.242	1.0.0.439	7	234	2	3	Verdana	1	80	0	0	0	WM Stimuli\	1	1229	1	674.7	0.7	762	1	608.5	1	1176.3	1	636.9	1	845.7	1	671.1	12	317470	3	317459	27	39	317497	-999999	317473	0	24	TrialsPROC	TO_018_TOOL18_BA.png	2	2	8	SessionSelectionList														nonlure	3	Tools	2-Back	7	80	6	0	0	0	1	39	49355	2	14	59	47316	-1	48097	1	781	3	3	2039	53	49369	-54	0																8												
WM080112	135932_fnca	2	1	1	-176940010	1	75.032	75.031	2.0.10.147	2.0.10.242	2.0.10.242	1.0.0.439	7	234	2	3	Verdana	1	80	0	0	0	WM Stimuli\	1	1229	1	674.7	0.7	762	1	608.5	1	1176.3	1	636.9	1	845.7	1	671.1	12	317470	3	317459	27	39	317497	-999999	317473	0	24	TrialsPROC	TO_017_TOOL17_BA.png	2	2	9	SessionSelectionList														nonlure	3	Tools	2-Back	8	80	7	0	0	0	2	39	51914	2	14	59	49875	-1	50542	1	667	3	3	2039	53	51928	-54	0																9												
WM080112	135932_fnca	2	1	1	-176940010	1	75.032	75.031	2.0.10.147	2.0.10.242	2.0.10.242	1.0.0.439	7	234	2	3	Verdana	1	80	0	0	0	WM Stimuli\	1	1229	1	674.7	0.7	762	1	608.5	1	1176.3	1	636.9	1	845.7	1	671.1	12	317470	3	317459	27	39	317497	-999999	317473	0	24	TrialsPROC	TO_018_TOOL18_BA.png	2	2	10	SessionSelectionList														target	2	Tools	2-Back	9	80	8	0	0	0	1	39	54473	2	14	59	52434	-1	53304	1	870	2	2	2039	53	54487	-54	0																10												
WM080112	135932_fnca	2	1	1	-176940010	1	75.032	75.031	2.0.10.147	2.0.10.242	2.0.10.242	1.0.0.439	7	234	2	3	Verdana	1	80	0	0	0	WM Stimuli\	1	1229	1	674.7	0.7	762	1	608.5	1	1176.3	1	636.9	1	845.7	1	671.1	12	317470	3	317459	27	39	317497	-999999	317473	0	24	TrialsPROC	TO_015_TOOL15_BA.png	2	2	11	SessionSelectionList														nonlure	3	Tools	2-Back	10	80	9	0	0	0	1	39	57032	2	13	59	54993	-1	55620	1	627	3	3	2039	52	57045	-53	0																11												
WM080112	135932_fnca	2	1	1	-176940010	1	75.032	75.031	2.0.10.147	2.0.10.242	2.0.10.242	1.0.0.439	7	234	2	3	Verdana	1	80	0	0	0	WM Stimuli\	1	1229	1	674.7	0.7	762	1	608.5	1	1176.3	1	636.9	1	845.7	1	671.1	12	317470	3	317459	27	39	317497	-999999	317473	0	24	TrialsPROC	TO_017_TOOL17_BA.png	2	2	12	SessionSelectionList														lure	3	Tools	2-Back	11	80	10	0	0	0	2	39	59591	1	13	59	57552	-1	58377	1	825	3	3	2039	52	59604	-53	0																12												
WM080112	135932_fnca	2	1	1	-176940010	1	75.032	75.031	2.0.10.147	2.0.10.242	2.0.10.242	1.0.0.439	7	234	2	3	Verdana	1	80	0	0	0	WM Stimuli\	1	1229	1	674.7	0.7	762	1	608.5	1	1176.3	1	636.9	1	845.7	1	671.1	12	317470	3	317459	27	39	317497	-999999	317473	0	25	Cue0BackPROC	BP_013_BP7_BA.png	2	2	13	SessionSelectionList																																										19	60071	-20	0												13												
WM080112	135932_fnca	2	1	1	-176940010	1	75.032	75.031	2.0.10.147	2.0.10.242	2.0.10.242	1.0.0.439	7	234	2	3	Verdana	1	80	0	0	0	WM Stimuli\	1	1229	1	674.7	0.7	762	1	608.5	1	1176.3	1	636.9	1	845.7	1	671.1	12	317470	3	317459	27	39	317497	-999999	317473	0	26	TrialsPROC	BP_015_H10-T_BA.png	2	2	14	SessionSelectionList														nonlure	3	Body	0-Back	12	80	11	0	0	100	3	40	64656	1	13	64	62616	-1	63530	1	914	3	3	2040	53	64669	-54	0																14												
WM080112	135932_fnca	2	1	1	-176940010	1	75.032	75.031	2.0.10.147	2.0.10.242	2.0.10.242	1.0.0.439	7	234	2	3	Verdana	1	80	0	0	0	WM Stimuli\	1	1229	1	674.7	0.7	762	1	608.5	1	1176.3	1	636.9	1	845.7	1	671.1	12	317470	3	317459	27	39	317497	-999999	317473	0	26	TrialsPROC	BP_018_H13-T_BA.png	2	2	15	SessionSelectionList														nonlure	3	Body	0-Back	13	80	12	0	0	100	4	38	67214	2	14	60	65176	-1	65709	1	533	3	3	2038	52	67228	-53	0																15												
WM080112	135932_fnca	2	1	1	-176940010	1	75.032	75.031	2.0.10.147	2.0.10.242	2.0.10.242	1.0.0.439	7	234	2	3	Verdana	1	80	0	0	0	WM Stimuli\	1	1229	1	674.7	0.7	762	1	608.5	1	1176.3	1	636.9	1	845.7	1	671.1	12	317470	3	317459	27	39	317497	-999999	317473	0	26	TrialsPROC	BP_014_BP9_BA.png	2	2	16	SessionSelectionList														nonlure	3	Body	0-Back	14	80	13	0	0	100	5	38	69773	2	14	59	67735	-1	68449	1	714	3	3	2038	52	69787	-53	0																16												
WM080112	135932_fnca	2	1	1	-176940010	1	75.032	75.031	2.0.10.147	2.0.10.242	2.0.10.242	1.0.0.439	7	234	2	3	Verdana	1	80	0	0	0	WM Stimuli\	1	1229	1	674.7	0.7	762	1	608.5	1	1176.3	1	636.9	1	845.7	1	671.1	12	317470	3	317459	27	39	317497	-999999	317473	0	26	TrialsPROC	BP_018_H13-T_BA.png	2	2	17	SessionSelectionList														lure	3	Body	0-Back	15	80	14	0	0	100	6	39	72332	2	14	58	70293	-1	70825	1	532	3	3	2039	53	72346	-54	0																17												
WM080112	135932_fnca	2	1	1	-176940010	1	75.032	75.031	2.0.10.147	2.0.10.242	2.0.10.242	1.0.0.439	7	234	2	3	Verdana	1	80	0	0	0	WM Stimuli\	1	1229	1	674.7	0.7	762	1	608.5	1	1176.3	1	636.9	1	845.7	1	671.1	12	317470	3	317459	27	39	317497	-999999	317473	0	26	TrialsPROC	BP_013_BP7_BA.png	2	2	18	SessionSelectionList														target	2	Body	0-Back	16	80	15	0	0	100	1	38	74891	2	14	60	72853	-1	73658	1	805	2	2	2038	52	74905	-53	0																18												
WM080112	135932_fnca	2	1	1	-176940010	1	75.032	75.031	2.0.10.147	2.0.10.242	2.0.10.242	1.0.0.439	7	234	2	3	Verdana	1	80	0	0	0	WM Stimuli\	1	1229	1	674.7	0.7	762	1	608.5	1	1176.3	1	636.9	1	845.7	1	671.1	12	317470	3	317459	27	39	317497	-999999	317473	0	26	TrialsPROC	BP_015_H10-T_BA.png	2	2	19	SessionSelectionList														lure	3	Body	0-Back	17	80	16	0	0	100	1	39	77450	2	14	58	75411	-1	75835	1	424	3	3	2039	53	77464	-54	0																19												
WM080112	135932_fnca	2	1	1	-176940010	1	75.032	75.031	2.0.10.147	2.0.10.242	2.0.10.242	1.0.0.439	7	234	2	3	Verdana	1	80	0	0	0	WM Stimuli\	1	1229	1	674.7	0.7	762	1	608.5	1	1176.3	1	636.9	1	845.7	1	671.1	12	317470	3	317459	27	39	317497	-999999	317473	0	26	TrialsPROC	BP_016_H11-T_BA.png	2	2	20	SessionSelectionList														nonlure	3	Body	0-Back	18	80	17	0	0	100	2	39	80022	2	14	72	77983	-1	78552	1	569	3	3	2039	53	80036	-54	0																20												
WM080112	135932_fnca	2	1	1	-176940010	1	75.032	75.031	2.0.10.147	2.0.10.242	2.0.10.242	1.0.0.439	7	234	2	3	Verdana	1	80	0	0	0	WM Stimuli\	1	1229	1	674.7	0.7	762	1	608.5	1	1176.3	1	636.9	1	845.7	1	671.1	12	317470	3	317459	27	39	317497	-999999	317473	0	26	TrialsPROC	BP_013_BP7_BA.png	2	2	21	SessionSelectionList														target	2	Body	0-Back	19	80	18	0	0	100	1	38	82581	2	14	60	80543	-1	81297	1	754	2	2	2038	52	82595	-53	0																21												
WM080112	135932_fnca	2	1	1	-176940010	1	75.032	75.031	2.0.10.147	2.0.10.242	2.0.10.242	1.0.0.439	7	234	2	3	Verdana	1	80	0	0	0	WM Stimuli\	1	1229	1	674.7	0.7	762	1	608.5	1	1176.3	1	636.9	1	845.7	1	671.1	12	317470	3	317459	27	39	317497	-999999	317473	0	26	TrialsPROC	BP_017_H12-T_BA.png	2	2	22	SessionSelectionList														nonlure	3	Body	0-Back	20	80	19	0	0	100	1	38	85140	2	14	59	83102	-1	83806	1	704	3	3	2038	52	85154	-53	0																22												
WM080112	135932_fnca	2	1	1	-176940010	1	75.032	75.031	2.0.10.147	2.0.10.242	2.0.10.242	1.0.0.439	7	234	2	3	Verdana	1	80	0	0	0	WM Stimuli\	1	1229	1	674.7	0.7	762	1	608.5	1	1176.3	1	636.9	1	845.7	1	671.1	12	317470	3	317459	27	39	317497	-999999	317473	0	26	TrialsPROC	BP_014_BP9_BA.png	2	2	23	SessionSelectionList														lure	3	Body	0-Back	21	80	20	0	0	100	2	39	87699	2	14	58	85660	-1	86458	1	798	3	3	2039	53	87713	-54	0																23												
WM080112	135932_fnca	2	1	1	-176940010	1	75.032	75.031	2.0.10.147	2.0.10.242	2.0.10.242	1.0.0.439	7	234	2	3	Verdana	1	80	0	0	0	WM Stimuli\	1	1229	1	674.7	0.7	762	1	608.5	1	1176.3	1	636.9	1	845.7	1	671.1	12	317470	3	317459	27	39	317497	-999999	317473	0	27	Fix15secPROC	""	2	2	24	SessionSelectionList																																															6	88166	-7	0							24												
WM080112	135932_fnca	2	1	1	-176940010	1	75.032	75.031	2.0.10.147	2.0.10.242	2.0.10.242	1.0.0.439	7	234	2	3	Verdana	1	80	0	0	0	WM Stimuli\	1	1229	1	674.7	0.7	762	1	608.5	1	1176.3	1	636.9	1	845.7	1	671.1	12	317470	3	317459	27	39	317497	-999999	317473	0	28	Cue2BackPROC	""	2	2	25	SessionSelectionList									13	103173	-14	0																																													25												
WM080112	135932_fnca	2	1	1	-176940010	1	75.032	75.031	2.0.10.147	2.0.10.242	2.0.10.242	1.0.0.439	7	234	2	3	Verdana	1	80	0	0	0	WM Stimuli\	1	1229	1	674.7	0.7	762	1	608.5	1	1176.3	1	636.9	1	845.7	1	671.1	12	317470	3	317459	27	39	317497	-999999	317473	0	29	TrialsPROC	FC_015_M8.png	2	2	26	SessionSelectionList														nonlure	3	Face	2-Back	22	80	20	0	1	100	2	39	107771	1	13	72	105732	-1	0	0	0	""	3	2039	52	107784	-53	0																26												
WM080112	135932_fnca	2	1	1	-176940010	1	75.032	75.031	2.0.10.147	2.0.10.242	2.0.10.242	1.0.0.439	7	234	2	3	Verdana	1	80	0	0	0	WM Stimuli\	1	1229	1	674.7	0.7	762	1	608.5	1	1176.3	1	636.9	1	845.7	1	671.1	12	317470	3	317459	27	39	317497	-999999	317473	0	29	TrialsPROC	FC_018_F9.png	2	2	27	SessionSelectionList														nonlure	3	Face	2-Back	23	80	21	0	0	100	1	39	110343	2	14	72	108304	-1	108956	1	652	3	3	2039	53	110357	-54	0																27												
WM080112	135932_fnca	2	1	1	-176940010	1	75.032	75.031	2.0.10.147	2.0.10.242	2.0.10.242	1.0.0.439	7	234	2	3	Verdana	1	80	0	0	0	WM Stimuli\	1	1229	1	674.7	0.7	762	1	608.5	1	1176.3	1	636.9	1	845.7	1	671.1	12	317470	3	317459	27	39	317497	-999999	317473	0	29	TrialsPROC	FC_018_F9.png	2	2	28	SessionSelectionList														lure	3	Face	2-Back	24	80	22	0	0	100	2	39	112915	2	14	72	110876	-1	111469	1	593	3	3	2039	53	112929	-54	0																28												
WM080112	135932_fnca	2	1	1	-176940010	1	75.032	75.031	2.0.10.147	2.0.10.242	2.0.10.242	1.0.0.439	7	234	2	3	Verdana	1	80	0	0	0	WM Stimuli\	1	1229	1	674.7	0.7	762	1	608.5	1	1176.3	1	636.9	1	845.7	1	671.1	12	317470	3	317459	27	39	317497	-999999	317473	0	29	TrialsPROC	FC_017_M9.png	2	2	29	SessionSelectionList														nonlure	3	Face	2-Back	25	80	22	0	1	100	2	39	115488	1	13	73	113449	-1	0	0	0	""	3	2039	52	115501	-53	0																29												
WM080112	135932_fnca	2	1	1	-176940010	1	75.032	75.031	2.0.10.147	2.0.10.242	2.0.10.242	1.0.0.439	7	234	2	3	Verdana	1	80	0	0	0	WM Stimuli\	1	1229	1	674.7	0.7	762	1	608.5	1	1176.3	1	636.9	1	845.7	1	671.1	12	317470	3	317459	27	39	317497	-999999	317473	0	29	TrialsPROC	FC_017_M9.png	2	2	30	SessionSelectionList														lure	3	Face	2-Back	26	80	23	0	0	100	1	39	118060	1	13	72	116021	-1	117215	0	1194	2	3	2039	52	118073	-53	0																30												
WM080112	135932_fnca	2	1	1	-176940010	1	75.032	75.031	2.0.10.147	2.0.10.242	2.0.10.242	1.0.0.439	7	234	2	3	Verdana	1	80	0	0	0	WM Stimuli\	1	1229	1	674.7	0.7	762	1	608.5	1	1176.3	1	636.9	1	845.7	1	671.1	12	317470	3	317459	27	39	317497	-999999	317473	0	29	TrialsPROC	FC_016_F8.png	2	2	31	SessionSelectionList														nonlure	3	Face	2-Back	27	80	24	0	0	100	1	39	120632	3	14	72	118593	-1	119676	1	1083	3	3	2039	53	120646	-54	0																31												
WM080112	135932_fnca	2	1	1	-176940010	1	75.032	75.031	2.0.10.147	2.0.10.242	2.0.10.242	1.0.0.439	7	234	2	3	Verdana	1	80	0	0	0	WM Stimuli\	1	1229	1	674.7	0.7	762	1	608.5	1	1176.3	1	636.9	1	845.7	1	671.1	12	317470	3	317459	27	39	317497	-999999	317473	0	29	TrialsPROC	FC_013_M7.png	2	2	32	SessionSelectionList														nonlure	3	Face	2-Back	28	80	25	0	0	100	2	39	123204	2	14	72	121165	-1	121807	1	642	3	3	2039	53	123218	-54	0																32												
WM080112	135932_fnca	2	1	1	-176940010	1	75.032	75.031	2.0.10.147	2.0.10.242	2.0.10.242	1.0.0.439	7	234	2	3	Verdana	1	80	0	0	0	WM Stimuli\	1	1229	1	674.7	0.7	762	1	608.5	1	1176.3	1	636.9	1	845.7	1	671.1	12	317470	3	317459	27	39	317497	-999999	317473	0	29	TrialsPROC	FC_014_F7.png	2	2	33	SessionSelectionList														nonlure	3	Face	2-Back	29	80	26	0	0	100	3	39	125777	1	13	73	123738	-1	124272	1	534	3	3	2039	52	125790	-53	0																33												
WM080112	135932_fnca	2	1	1	-176940010	1	75.032	75.031	2.0.10.147	2.0.10.242	2.0.10.242	1.0.0.439	7	234	2	3	Verdana	1	80	0	0	0	WM Stimuli\	1	1229	1	674.7	0.7	762	1	608.5	1	1176.3	1	636.9	1	845.7	1	671.1	12	317470	3	317459	27	39	317497	-999999	317473	0	29	TrialsPROC	FC_013_M7.png	2	2	34	SessionSelectionList														target	2	Face	2-Back	30	80	27	0	0	100	1	39	128349	1	13	72	126310	-1	126861	1	551	2	2	2039	52	128362	-53	0																34												
WM080112	135932_fnca	2	1	1	-176940010	1	75.032	75.031	2.0.10.147	2.0.10.242	2.0.10.242	1.0.0.439	7	234	2	3	Verdana	1	80	0	0	0	WM Stimuli\	1	1229	1	674.7	0.7	762	1	608.5	1	1176.3	1	636.9	1	845.7	1	671.1	12	317470	3	317459	27	39	317497	-999999	317473	0	29	TrialsPROC	FC_014_F7.png	2	2	35	SessionSelectionList														target	2	Face	2-Back	31	80	28	0	0	100	2	39	130921	2	14	72	128882	-1	130161	1	1279	2	2	2039	53	130935	-54	0																35												
WM080112	135932_fnca	2	1	1	-176940010	1	75.032	75.031	2.0.10.147	2.0.10.242	2.0.10.242	1.0.0.439	7	234	2	3	Verdana	1	80	0	0	0	WM Stimuli\	1	1229	1	674.7	0.7	762	1	608.5	1	1176.3	1	636.9	1	845.7	1	671.1	12	317470	3	317459	27	39	317497	-999999	317473	0	30	Cue0BackPROC	TO_019_TOOL19_BA.png	2	2	36	SessionSelectionList																																										19	131401	-20	0												36												
WM080112	135932_fnca	2	1	1	-176940010	1	75.032	75.031	2.0.10.147	2.0.10.242	2.0.10.242	1.0.0.439	7	234	2	3	Verdana	1	80	0	0	0	WM Stimuli\	1	1229	1	674.7	0.7	762	1	608.5	1	1176.3	1	636.9	1	845.7	1	671.1	12	317470	3	317459	27	39	317497	-999999	317473	0	31	TrialsPROC	TO_019_TOOL19_BA.png	2	2	37	SessionSelectionList														target	2	Tools	0-Back	32	80	29	0	0	100	3	40	135973	1	13	51	133933	-1	134848	1	915	2	2	2040	53	135986	-54	0																37												
WM080112	135932_fnca	2	1	1	-176940010	1	75.032	75.031	2.0.10.147	2.0.10.242	2.0.10.242	1.0.0.439	7	234	2	3	Verdana	1	80	0	0	0	WM Stimuli\	1	1229	1	674.7	0.7	762	1	608.5	1	1176.3	1	636.9	1	845.7	1	671.1	12	317470	3	317459	27	39	317497	-999999	317473	0	31	TrialsPROC	TO_024_TOOL24_BA.png	2	2	38	SessionSelectionList														nonlure	3	Tools	0-Back	33	80	30	0	0	100	1	39	138531	2	14	59	136492	-1	137292	1	800	3	3	2039	53	138545	-54	0																38												
WM080112	135932_fnca	2	1	1	-176940010	1	75.032	75.031	2.0.10.147	2.0.10.242	2.0.10.242	1.0.0.439	7	234	2	3	Verdana	1	80	0	0	0	WM Stimuli\	1	1229	1	674.7	0.7	762	1	608.5	1	1176.3	1	636.9	1	845.7	1	671.1	12	317470	3	317459	27	39	317497	-999999	317473	0	31	TrialsPROC	TO_019_TOOL19_BA.png	2	2	39	SessionSelectionList														target	2	Tools	0-Back	34	80	31	0	0	100	1	39	141090	2	14	59	139051	-1	139608	1	557	2	2	2039	53	141104	-54	0																39												
WM080112	135932_fnca	2	1	1	-176940010	1	75.032	75.031	2.0.10.147	2.0.10.242	2.0.10.242	1.0.0.439	7	234	2	3	Verdana	1	80	0	0	0	WM Stimuli\	1	1229	1	674.7	0.7	762	1	608.5	1	1176.3	1	636.9	1	845.7	1	671.1	12	317470	3	317459	27	39	317497	-999999	317473	0	31	TrialsPROC	TO_023_TOOL23_BA.png	2	2	40	SessionSelectionList														nonlure	3	Tools	0-Back	35	80	32	0	0	100	1	38	143649	2	14	60	141611	-1	142198	1	587	3	3	2038	52	143663	-53	0																40												
WM080112	135932_fnca	2	1	1	-176940010	1	75.032	75.031	2.0.10.147	2.0.10.242	2.0.10.242	1.0.0.439	7	234	2	3	Verdana	1	80	0	0	0	WM Stimuli\	1	1229	1	674.7	0.7	762	1	608.5	1	1176.3	1	636.9	1	845.7	1	671.1	12	317470	3	317459	27	39	317497	-999999	317473	0	31	TrialsPROC	TO_020_TOOL20_BA.png	2	2	41	SessionSelectionList														nonlure	3	Tools	0-Back	36	80	33	0	0	100	2	39	146208	2	14	58	144169	-1	144715	1	546	3	3	2039	53	146222	-54	0																41												
WM080112	135932_fnca	2	1	1	-176940010	1	75.032	75.031	2.0.10.147	2.0.10.242	2.0.10.242	1.0.0.439	7	234	2	3	Verdana	1	80	0	0	0	WM Stimuli\	1	1229	1	674.7	0.7	762	1	608.5	1	1176.3	1	636.9	1	845.7	1	671.1	12	317470	3	317459	27	39	317497	-999999	317473	0	31	TrialsPROC	TO_020_TOOL20_BA.png	2	2	42	SessionSelectionList														lure	3	Tools	0-Back	37	80	34	0	0	100	3	39	148767	2	14	59	146728	-1	147381	1	653	3	3	2039	53	148781	-54	0																42												
WM080112	135932_fnca	2	1	1	-176940010	1	75.032	75.031	2.0.10.147	2.0.10.242	2.0.10.242	1.0.0.439	7	234	2	3	Verdana	1	80	0	0	0	WM Stimuli\	1	1229	1	674.7	0.7	762	1	608.5	1	1176.3	1	636.9	1	845.7	1	671.1	12	317470	3	317459	27	39	317497	-999999	317473	0	31	TrialsPROC	TO_022_TOOL22_BA.png	2	2	43	SessionSelectionList														nonlure	3	Tools	0-Back	38	80	35	0	0	100	4	39	151326	2	14	59	149287	-1	150143	1	856	3	3	2039	53	151340	-54	0																43												
WM080112	135932_fnca	2	1	1	-176940010	1	75.032	75.031	2.0.10.147	2.0.10.242	2.0.10.242	1.0.0.439	7	234	2	3	Verdana	1	80	0	0	0	WM Stimuli\	1	1229	1	674.7	0.7	762	1	608.5	1	1176.3	1	636.9	1	845.7	1	671.1	12	317470	3	317459	27	39	317497	-999999	317473	0	31	TrialsPROC	TO_022_TOOL22_BA.png	2	2	44	SessionSelectionList														lure	3	Tools	0-Back	39	80	36	0	0	100	5	39	153885	1	13	59	151846	-1	152352	1	506	3	3	2039	52	153898	-53	0																44												
WM080112	135932_fnca	2	1	1	-176940010	1	75.032	75.031	2.0.10.147	2.0.10.242	2.0.10.242	1.0.0.439	7	234	2	3	Verdana	1	80	0	0	0	WM Stimuli\	1	1229	1	674.7	0.7	762	1	608.5	1	1176.3	1	636.9	1	845.7	1	671.1	12	317470	3	317459	27	39	317497	-999999	317473	0	31	TrialsPROC	TO_021_TOOL21_BA.png	2	2	45	SessionSelectionList														nonlure	3	Tools	0-Back	40	80	37	0	0	100	6	39	156444	1	13	59	154405	-1	155114	1	709	3	3	2039	52	156457	-53	0																45												
WM080112	135932_fnca	2	1	1	-176940010	1	75.032	75.031	2.0.10.147	2.0.10.242	2.0.10.242	1.0.0.439	7	234	2	3	Verdana	1	80	0	0	0	WM Stimuli\	1	1229	1	674.7	0.7	762	1	608.5	1	1176.3	1	636.9	1	845.7	1	671.1	12	317470	3	317459	27	39	317497	-999999	317473	0	31	TrialsPROC	TO_021_TOOL21_BA.png	2	2	46	SessionSelectionList														lure	3	Tools	0-Back	41	80	38	0	0	100	7	39	159003	2	13	59	156964	-1	157546	1	582	3	3	2039	52	159016	-53	0																46												
WM080112	135932_fnca	2	1	1	-176940010	1	75.032	75.031	2.0.10.147	2.0.10.242	2.0.10.242	1.0.0.439	7	234	2	3	Verdana	1	80	0	0	0	WM Stimuli\	1	1229	1	674.7	0.7	762	1	608.5	1	1176.3	1	636.9	1	845.7	1	671.1	12	317470	3	317459	27	39	317497	-999999	317473	0	32	Fix15secPROC	""	2	2	47	SessionSelectionList																																															6	159470	-7	0							47												
WM080112	135932_fnca	2	1	1	-176940010	1	75.032	75.031	2.0.10.147	2.0.10.242	2.0.10.242	1.0.0.439	7	234	2	3	Verdana	1	80	0	0	0	WM Stimuli\	1	1229	1	674.7	0.7	762	1	608.5	1	1176.3	1	636.9	1	845.7	1	671.1	12	317470	3	317459	27	39	317497	-999999	317473	0	33	Cue2BackPROC	""	2	2	48	SessionSelectionList									13	174477	-14	0																																													48												
WM080112	135932_fnca	2	1	1	-176940010	1	75.032	75.031	2.0.10.147	2.0.10.242	2.0.10.242	1.0.0.439	7	234	2	3	Verdana	1	80	0	0	0	WM Stimuli\	1	1229	1	674.7	0.7	762	1	608.5	1	1176.3	1	636.9	1	845.7	1	671.1	12	317470	3	317459	27	39	317497	-999999	317473	0	34	TrialsPROC	BP_020_H17-T_BA.png	2	2	49	SessionSelectionList														nonlure	3	Body	2-Back	42	80	39	0	0	100	8	40	179075	1	13	71	177035	-1	178873	1	1838	3	3	2040	53	179088	-54	0																49												
WM080112	135932_fnca	2	1	1	-176940010	1	75.032	75.031	2.0.10.147	2.0.10.242	2.0.10.242	1.0.0.439	7	234	2	3	Verdana	1	80	0	0	0	WM Stimuli\	1	1229	1	674.7	0.7	762	1	608.5	1	1176.3	1	636.9	1	845.7	1	671.1	12	317470	3	317459	27	39	317497	-999999	317473	0	34	TrialsPROC	BP_019_H14-T_BA.png	2	2	50	SessionSelectionList														nonlure	3	Body	2-Back	43	80	40	0	0	100	9	39	181647	1	13	73	179608	-1	181512	1	1904	3	3	2039	52	181660	-53	0																50												
WM080112	135932_fnca	2	1	1	-176940010	1	75.032	75.031	2.0.10.147	2.0.10.242	2.0.10.242	1.0.0.439	7	234	2	3	Verdana	1	80	0	0	0	WM Stimuli\	1	1229	1	674.7	0.7	762	1	608.5	1	1176.3	1	636.9	1	845.7	1	671.1	12	317470	3	317459	27	39	317497	-999999	317473	0	34	TrialsPROC	BP_020_H17-T_BA.png	2	2	51	SessionSelectionList														target	2	Body	2-Back	44	80	41	0	0	100	1	39	184206	1	13	59	182167	-1	183028	1	861	2	2	2039	52	184219	-53	0																51												
WM080112	135932_fnca	2	1	1	-176940010	1	75.032	75.031	2.0.10.147	2.0.10.242	2.0.10.242	1.0.0.439	7	234	2	3	Verdana	1	80	0	0	0	WM Stimuli\	1	1229	1	674.7	0.7	762	1	608.5	1	1176.3	1	636.9	1	845.7	1	671.1	12	317470	3	317459	27	39	317497	-999999	317473	0	34	TrialsPROC	BP_019_H14-T_BA.png	2	2	52	SessionSelectionList														target	2	Body	2-Back	45	80	42	0	0	100	2	39	186765	1	13	59	184726	-1	185642	1	916	2	2	2039	52	186778	-53	0																52												
WM080112	135932_fnca	2	1	1	-176940010	1	75.032	75.031	2.0.10.147	2.0.10.242	2.0.10.242	1.0.0.439	7	234	2	3	Verdana	1	80	0	0	0	WM Stimuli\	1	1229	1	674.7	0.7	762	1	608.5	1	1176.3	1	636.9	1	845.7	1	671.1	12	317470	3	317459	27	39	317497	-999999	317473	0	34	TrialsPROC	BP_024_H3-T_BA.png	2	2	53	SessionSelectionList														nonlure	3	Body	2-Back	46	80	43	0	0	100	1	39	189337	1	13	72	187298	-1	188082	1	784	3	3	2039	52	189350	-53	0																53												
WM080112	135932_fnca	2	1	1	-176940010	1	75.032	75.031	2.0.10.147	2.0.10.242	2.0.10.242	1.0.0.439	7	234	2	3	Verdana	1	80	0	0	0	WM Stimuli\	1	1229	1	674.7	0.7	762	1	608.5	1	1176.3	1	636.9	1	845.7	1	671.1	12	317470	3	317459	27	39	317497	-999999	317473	0	34	TrialsPROC	BP_024_H3-T_BA.png	2	2	54	SessionSelectionList														lure	3	Body	2-Back	47	80	44	0	0	100	2	39	191896	1	13	59	189857	-1	191403	1	1546	3	3	2039	52	191909	-53	0																54												
WM080112	135932_fnca	2	1	1	-176940010	1	75.032	75.031	2.0.10.147	2.0.10.242	2.0.10.242	1.0.0.439	7	234	2	3	Verdana	1	80	0	0	0	WM Stimuli\	1	1229	1	674.7	0.7	762	1	608.5	1	1176.3	1	636.9	1	845.7	1	671.1	12	317470	3	317459	27	39	317497	-999999	317473	0	34	TrialsPROC	BP_025_H5-T_BA.png	2	2	55	SessionSelectionList														nonlure	3	Body	2-Back	48	80	45	0	0	100	3	39	194455	1	13	59	192416	-1	193665	1	1249	3	3	2039	52	194468	-53	0																55												
WM080112	135932_fnca	2	1	1	-176940010	1	75.032	75.031	2.0.10.147	2.0.10.242	2.0.10.242	1.0.0.439	7	234	2	3	Verdana	1	80	0	0	0	WM Stimuli\	1	1229	1	674.7	0.7	762	1	608.5	1	1176.3	1	636.9	1	845.7	1	671.1	12	317470	3	317459	27	39	317497	-999999	317473	0	34	TrialsPROC	BP_023_H25-T_BA.png	2	2	56	SessionSelectionList														nonlure	3	Body	2-Back	49	80	46	0	0	100	4	39	197027	2	14	72	194988	-1	196617	1	1629	3	3	2039	53	197041	-54	0																56												
WM080112	135932_fnca	2	1	1	-176940010	1	75.032	75.031	2.0.10.147	2.0.10.242	2.0.10.242	1.0.0.439	7	234	2	3	Verdana	1	80	0	0	0	WM Stimuli\	1	1229	1	674.7	0.7	762	1	608.5	1	1176.3	1	636.9	1	845.7	1	671.1	12	317470	3	317459	27	39	317497	-999999	317473	0	34	TrialsPROC	BP_022_H24-T_BA.png	2	2	57	SessionSelectionList														nonlure	3	Body	2-Back	50	80	47	0	0	100	5	39	199586	1	14	59	197547	-1	198326	1	779	3	3	2039	53	199600	-54	0																57												
WM080112	135932_fnca	2	1	1	-176940010	1	75.032	75.031	2.0.10.147	2.0.10.242	2.0.10.242	1.0.0.439	7	234	2	3	Verdana	1	80	0	0	0	WM Stimuli\	1	1229	1	674.7	0.7	762	1	608.5	1	1176.3	1	636.9	1	845.7	1	671.1	12	317470	3	317459	27	39	317497	-999999	317473	0	34	TrialsPROC	BP_022_H24-T_BA.png	2	2	58	SessionSelectionList														lure	3	Body	2-Back	51	80	48	0	0	100	6	39	202145	1	13	59	200106	-1	200890	1	784	3	3	2039	52	202158	-53	0																58												
WM080112	135932_fnca	2	1	1	-176940010	1	75.032	75.031	2.0.10.147	2.0.10.242	2.0.10.242	1.0.0.439	7	234	2	3	Verdana	1	80	0	0	0	WM Stimuli\	1	1229	1	674.7	0.7	762	1	608.5	1	1176.3	1	636.9	1	845.7	1	671.1	12	317470	3	317459	27	39	317497	-999999	317473	0	35	Cue2BackPROC	""	2	2	59	SessionSelectionList									5	202611	-6	0																																													59												
WM080112	135932_fnca	2	1	1	-176940010	1	75.032	75.031	2.0.10.147	2.0.10.242	2.0.10.242	1.0.0.439	7	234	2	3	Verdana	1	80	0	0	0	WM Stimuli\	1	1229	1	674.7	0.7	762	1	608.5	1	1176.3	1	636.9	1	845.7	1	671.1	12	317470	3	317459	27	39	317497	-999999	317473	0	36	TrialsPROC	PL_019_SCENE_05.png	2	2	60	SessionSelectionList														nonlure	3	Place	2-Back	52	80	49	0	0	100	7	40	207210	1	13	64	205170	-1	206941	1	1771	3	3	2040	53	207223	-54	0																60												
WM080112	135932_fnca	2	1	1	-176940010	1	75.032	75.031	2.0.10.147	2.0.10.242	2.0.10.242	1.0.0.439	7	234	2	3	Verdana	1	80	0	0	0	WM Stimuli\	1	1229	1	674.7	0.7	762	1	608.5	1	1176.3	1	636.9	1	845.7	1	671.1	12	317470	3	317459	27	39	317497	-999999	317473	0	36	TrialsPROC	PL_017_SCENE_03.png	2	2	61	SessionSelectionList														nonlure	3	Place	2-Back	53	80	50	0	0	100	8	39	209782	1	13	73	207743	-1	208804	1	1061	3	3	2039	52	209795	-53	0																61												
WM080112	135932_fnca	2	1	1	-176940010	1	75.032	75.031	2.0.10.147	2.0.10.242	2.0.10.242	1.0.0.439	7	234	2	3	Verdana	1	80	0	0	0	WM Stimuli\	1	1229	1	674.7	0.7	762	1	608.5	1	1176.3	1	636.9	1	845.7	1	671.1	12	317470	3	317459	27	39	317497	-999999	317473	0	36	TrialsPROC	PL_017_SCENE_03.png	2	2	62	SessionSelectionList														lure	3	Place	2-Back	54	80	51	0	0	100	9	39	212354	2	14	72	210315	-1	211363	1	1048	3	3	2039	53	212368	-54	0																62												
WM080112	135932_fnca	2	1	1	-176940010	1	75.032	75.031	2.0.10.147	2.0.10.242	2.0.10.242	1.0.0.439	7	234	2	3	Verdana	1	80	0	0	0	WM Stimuli\	1	1229	1	674.7	0.7	762	1	608.5	1	1176.3	1	636.9	1	845.7	1	671.1	12	317470	3	317459	27	39	317497	-999999	317473	0	36	TrialsPROC	PL_016_SCENE_02.png	2	2	63	SessionSelectionList														nonlure	3	Place	2-Back	55	80	52	0	0	100	10	39	214940	2	13	86	212901	-1	213858	1	957	3	3	2039	52	214953	-53	0																63												
WM080112	135932_fnca	2	1	1	-176940010	1	75.032	75.031	2.0.10.147	2.0.10.242	2.0.10.242	1.0.0.439	7	234	2	3	Verdana	1	80	0	0	0	WM Stimuli\	1	1229	1	674.7	0.7	762	1	608.5	1	1176.3	1	636.9	1	845.7	1	671.1	12	317470	3	317459	27	39	317497	-999999	317473	0	36	TrialsPROC	PL_015_SCENE_01.png	2	2	64	SessionSelectionList														nonlure	3	Place	2-Back	56	80	53	0	0	100	11	39	217525	2	14	85	215486	-1	216218	1	732	3	3	2039	53	217539	-54	0																64												
WM080112	135932_fnca	2	1	1	-176940010	1	75.032	75.031	2.0.10.147	2.0.10.242	2.0.10.242	1.0.0.439	7	234	2	3	Verdana	1	80	0	0	0	WM Stimuli\	1	1229	1	674.7	0.7	762	1	608.5	1	1176.3	1	636.9	1	845.7	1	671.1	12	317470	3	317459	27	39	317497	-999999	317473	0	36	TrialsPROC	PL_016_SCENE_02.png	2	2	65	SessionSelectionList														target	2	Place	2-Back	57	80	54	0	0	100	1	40	220098	1	13	72	218058	-1	218767	1	709	2	2	2040	53	220111	-54	0																65												
WM080112	135932_fnca	2	1	1	-176940010	1	75.032	75.031	2.0.10.147	2.0.10.242	2.0.10.242	1.0.0.439	7	234	2	3	Verdana	1	80	0	0	0	WM Stimuli\	1	1229	1	674.7	0.7	762	1	608.5	1	1176.3	1	636.9	1	845.7	1	671.1	12	317470	3	317459	27	39	317497	-999999	317473	0	36	TrialsPROC	PL_015_SCENE_01.png	2	2	66	SessionSelectionList														target	2	Place	2-Back	58	80	55	0	0	100	2	39	222670	1	13	73	220631	-1	221745	1	1114	2	2	2039	52	222683	-53	0																66												
WM080112	135932_fnca	2	1	1	-176940010	1	75.032	75.031	2.0.10.147	2.0.10.242	2.0.10.242	1.0.0.439	7	234	2	3	Verdana	1	80	0	0	0	WM Stimuli\	1	1229	1	674.7	0.7	762	1	608.5	1	1176.3	1	636.9	1	845.7	1	671.1	12	317470	3	317459	27	39	317497	-999999	317473	0	36	TrialsPROC	PL_020_SCENE_06.png	2	2	67	SessionSelectionList														nonlure	3	Place	2-Back	59	80	56	0	0	100	1	39	225255	2	14	85	223216	-1	224808	1	1592	3	3	2039	53	225269	-54	0																67												
WM080112	135932_fnca	2	1	1	-176940010	1	75.032	75.031	2.0.10.147	2.0.10.242	2.0.10.242	1.0.0.439	7	234	2	3	Verdana	1	80	0	0	0	WM Stimuli\	1	1229	1	674.7	0.7	762	1	608.5	1	1176.3	1	636.9	1	845.7	1	671.1	12	317470	3	317459	27	39	317497	-999999	317473	0	36	TrialsPROC	PL_020_SCENE_06.png	2	2	68	SessionSelectionList														lure	3	Place	2-Back	60	80	57	0	0	100	2	40	227828	1	13	72	225788	-1	227497	1	1709	3	3	2040	53	227841	-54	0																68												
WM080112	135932_fnca	2	1	1	-176940010	1	75.032	75.031	2.0.10.147	2.0.10.242	2.0.10.242	1.0.0.439	7	234	2	3	Verdana	1	80	0	0	0	WM Stimuli\	1	1229	1	674.7	0.7	762	1	608.5	1	1176.3	1	636.9	1	845.7	1	671.1	12	317470	3	317459	27	39	317497	-999999	317473	0	36	TrialsPROC	PL_018_SCENE_04.png	2	2	69	SessionSelectionList														nonlure	3	Place	2-Back	61	80	58	0	0	100	3	39	230413	2	14	86	228374	-1	229444	1	1070	3	3	2039	53	230427	-54	0																69												
WM080112	135932_fnca	2	1	1	-176940010	1	75.032	75.031	2.0.10.147	2.0.10.242	2.0.10.242	1.0.0.439	7	234	2	3	Verdana	1	80	0	0	0	WM Stimuli\	1	1229	1	674.7	0.7	762	1	608.5	1	1176.3	1	636.9	1	845.7	1	671.1	12	317470	3	317459	27	39	317497	-999999	317473	0	37	Fix15secPROC	""	2	2	70	SessionSelectionList																																															6	230880	-7	0							70												
WM080112	135932_fnca	2	1	1	-176940010	1	75.032	75.031	2.0.10.147	2.0.10.242	2.0.10.242	1.0.0.439	7	234	2	3	Verdana	1	80	0	0	0	WM Stimuli\	1	1229	1	674.7	0.7	762	1	608.5	1	1176.3	1	636.9	1	845.7	1	671.1	12	317470	3	317459	27	39	317497	-999999	317473	0	38	Cue0BackPROC	FC_020_F10.png	2	2	71	SessionSelectionList																																										39	245913	-40	0												71												
WM080112	135932_fnca	2	1	1	-176940010	1	75.032	75.031	2.0.10.147	2.0.10.242	2.0.10.242	1.0.0.439	7	234	2	3	Verdana	1	80	0	0	0	WM Stimuli\	1	1229	1	674.7	0.7	762	1	608.5	1	1176.3	1	636.9	1	845.7	1	671.1	12	317470	3	317459	27	39	317497	-999999	317473	0	39	TrialsPROC	FC_024_F12.png	2	2	72	SessionSelectionList														nonlure	3	Face	0-Back	62	80	59	0	0	100	4	39	250498	2	14	85	248459	-1	249165	1	706	3	3	2039	53	250512	-54	0																72												
WM080112	135932_fnca	2	1	1	-176940010	1	75.032	75.031	2.0.10.147	2.0.10.242	2.0.10.242	1.0.0.439	7	234	2	3	Verdana	1	80	0	0	0	WM Stimuli\	1	1229	1	674.7	0.7	762	1	608.5	1	1176.3	1	636.9	1	845.7	1	671.1	12	317470	3	317459	27	39	317497	-999999	317473	0	39	TrialsPROC	FC_023_M12.png	2	2	73	SessionSelectionList														nonlure	3	Face	0-Back	63	80	60	0	0	100	5	39	253097	2	14	99	251058	-1	251645	1	587	3	3	2039	53	253111	-54	0																73												
WM080112	135932_fnca	2	1	1	-176940010	1	75.032	75.031	2.0.10.147	2.0.10.242	2.0.10.242	1.0.0.439	7	234	2	3	Verdana	1	80	0	0	0	WM Stimuli\	1	1229	1	674.7	0.7	762	1	608.5	1	1176.3	1	636.9	1	845.7	1	671.1	12	317470	3	317459	27	39	317497	-999999	317473	0	39	TrialsPROC	FC_020_F10.png	2	2	74	SessionSelectionList														target	2	Face	0-Back	64	80	61	0	0	100	1	39	255669	2	14	72	253630	-1	254305	1	675	2	2	2039	53	255683	-54	0																74												
WM080112	135932_fnca	2	1	1	-176940010	1	75.032	75.031	2.0.10.147	2.0.10.242	2.0.10.242	1.0.0.439	7	234	2	3	Verdana	1	80	0	0	0	WM Stimuli\	1	1229	1	674.7	0.7	762	1	608.5	1	1176.3	1	636.9	1	845.7	1	671.1	12	317470	3	317459	27	39	317497	-999999	317473	0	39	TrialsPROC	FC_024_F12.png	2	2	75	SessionSelectionList														lure	3	Face	0-Back	65	80	62	0	0	100	1	40	258242	1	13	72	256202	-1	256824	1	622	3	3	2040	53	258255	-54	0																75												
WM080112	135932_fnca	2	1	1	-176940010	1	75.032	75.031	2.0.10.147	2.0.10.242	2.0.10.242	1.0.0.439	7	234	2	3	Verdana	1	80	0	0	0	WM Stimuli\	1	1229	1	674.7	0.7	762	1	608.5	1	1176.3	1	636.9	1	845.7	1	671.1	12	317470	3	317459	27	39	317497	-999999	317473	0	39	TrialsPROC	FC_020_F10.png	2	2	76	SessionSelectionList														target	2	Face	0-Back	66	80	63	0	0	100	1	39	260814	1	13	73	258775	-1	259448	1	673	2	2	2039	52	260827	-53	0																76												
WM080112	135932_fnca	2	1	1	-176940010	1	75.032	75.031	2.0.10.147	2.0.10.242	2.0.10.242	1.0.0.439	7	234	2	3	Verdana	1	80	0	0	0	WM Stimuli\	1	1229	1	674.7	0.7	762	1	608.5	1	1176.3	1	636.9	1	845.7	1	671.1	12	317470	3	317459	27	39	317497	-999999	317473	0	39	TrialsPROC	FC_022_F11.png	2	2	77	SessionSelectionList														nonlure	3	Face	0-Back	67	80	64	0	0	100	1	39	263399	2	14	85	261360	-1	262185	1	825	3	3	2039	53	263413	-54	0																77												
WM080112	135932_fnca	2	1	1	-176940010	1	75.032	75.031	2.0.10.147	2.0.10.242	2.0.10.242	1.0.0.439	7	234	2	3	Verdana	1	80	0	0	0	WM Stimuli\	1	1229	1	674.7	0.7	762	1	608.5	1	1176.3	1	636.9	1	845.7	1	671.1	12	317470	3	317459	27	39	317497	-999999	317473	0	39	TrialsPROC	FC_023_M12.png	2	2	78	SessionSelectionList														lure	3	Face	0-Back	68	80	65	0	0	100	2	39	265972	1	13	73	263933	-1	264429	1	496	3	3	2039	52	265985	-53	0																78												
WM080112	135932_fnca	2	1	1	-176940010	1	75.032	75.031	2.0.10.147	2.0.10.242	2.0.10.242	1.0.0.439	7	234	2	3	Verdana	1	80	0	0	0	WM Stimuli\	1	1229	1	674.7	0.7	762	1	608.5	1	1176.3	1	636.9	1	845.7	1	671.1	12	317470	3	317459	27	39	317497	-999999	317473	0	39	TrialsPROC	FC_021_M11.png	2	2	79	SessionSelectionList														nonlure	3	Face	0-Back	69	80	66	0	0	100	3	39	268557	2	14	85	266518	-1	267010	1	492	3	3	2039	53	268571	-54	0																79												
WM080112	135932_fnca	2	1	1	-176940010	1	75.032	75.031	2.0.10.147	2.0.10.242	2.0.10.242	1.0.0.439	7	234	2	3	Verdana	1	80	0	0	0	WM Stimuli\	1	1229	1	674.7	0.7	762	1	608.5	1	1176.3	1	636.9	1	845.7	1	671.1	12	317470	3	317459	27	39	317497	-999999	317473	0	39	TrialsPROC	FC_021_M11.png	2	2	80	SessionSelectionList														lure	3	Face	0-Back	70	80	67	0	0	100	4	40	271130	1	13	72	269090	-1	269543	1	453	3	3	2040	53	271143	-54	0																80												
WM080112	135932_fnca	2	1	1	-176940010	1	75.032	75.031	2.0.10.147	2.0.10.242	2.0.10.242	1.0.0.439	7	234	2	3	Verdana	1	80	0	0	0	WM Stimuli\	1	1229	1	674.7	0.7	762	1	608.5	1	1176.3	1	636.9	1	845.7	1	671.1	12	317470	3	317459	27	39	317497	-999999	317473	0	39	TrialsPROC	FC_019_M10.png	2	2	81	SessionSelectionList														nonlure	3	Face	0-Back	71	80	68	0	0	100	5	39	273715	2	14	86	271676	-1	272232	1	556	3	3	2039	53	273729	-54	0																81												
WM080112	135932_fnca	2	1	1	-176940010	1	75.032	75.031	2.0.10.147	2.0.10.242	2.0.10.242	1.0.0.439	7	234	2	3	Verdana	1	80	0	0	0	WM Stimuli\	1	1229	1	674.7	0.7	762	1	608.5	1	1176.3	1	636.9	1	845.7	1	671.1	12	317470	3	317459	27	39	317497	-999999	317473	0	40	Cue0BackPROC	PL_021_SCENE_07.png	2	2	82	SessionSelectionList																																										46	274222	-47	0												82												
WM080112	135932_fnca	2	1	1	-176940010	1	75.032	75.031	2.0.10.147	2.0.10.242	2.0.10.242	1.0.0.439	7	234	2	3	Verdana	1	80	0	0	0	WM Stimuli\	1	1229	1	674.7	0.7	762	1	608.5	1	1176.3	1	636.9	1	845.7	1	671.1	12	317470	3	317459	27	39	317497	-999999	317473	0	41	TrialsPROC	PL_025_SCENE_18.png	2	2	83	SessionSelectionList														nonlure	3	Place	0-Back	72	80	69	0	0	100	6	39	278793	1	14	78	276754	-1	277695	1	941	3	3	2039	53	278807	-54	0																83												
WM080112	135932_fnca	2	1	1	-176940010	1	75.032	75.031	2.0.10.147	2.0.10.242	2.0.10.242	1.0.0.439	7	234	2	3	Verdana	1	80	0	0	0	WM Stimuli\	1	1229	1	674.7	0.7	762	1	608.5	1	1176.3	1	636.9	1	845.7	1	671.1	12	317470	3	317459	27	39	317497	-999999	317473	0	41	TrialsPROC	PL_026_SCENE_24.png	2	2	84	SessionSelectionList														nonlure	3	Place	0-Back	73	80	70	0	0	100	7	39	281379	1	13	86	279340	-1	279837	1	497	3	3	2039	52	281392	-53	0																84												
WM080112	135932_fnca	2	1	1	-176940010	1	75.032	75.031	2.0.10.147	2.0.10.242	2.0.10.242	1.0.0.439	7	234	2	3	Verdana	1	80	0	0	0	WM Stimuli\	1	1229	1	674.7	0.7	762	1	608.5	1	1176.3	1	636.9	1	845.7	1	671.1	12	317470	3	317459	27	39	317497	-999999	317473	0	41	TrialsPROC	PL_025_SCENE_18.png	2	2	85	SessionSelectionList														lure	3	Place	0-Back	74	80	71	0	0	100	8	39	283951	1	13	72	281912	-1	282559	1	647	3	3	2039	52	283964	-53	0																85												
WM080112	135932_fnca	2	1	1	-176940010	1	75.032	75.031	2.0.10.147	2.0.10.242	2.0.10.242	1.0.0.439	7	234	2	3	Verdana	1	80	0	0	0	WM Stimuli\	1	1229	1	674.7	0.7	762	1	608.5	1	1176.3	1	636.9	1	845.7	1	671.1	12	317470	3	317459	27	39	317497	-999999	317473	0	41	TrialsPROC	PL_022_SCENE_08.png	2	2	86	SessionSelectionList														nonlure	3	Place	0-Back	75	80	72	0	0	100	9	40	286537	1	13	85	284497	-1	285038	1	541	3	3	2040	53	286550	-54	0																86												
WM080112	135932_fnca	2	1	1	-176940010	1	75.032	75.031	2.0.10.147	2.0.10.242	2.0.10.242	1.0.0.439	7	234	2	3	Verdana	1	80	0	0	0	WM Stimuli\	1	1229	1	674.7	0.7	762	1	608.5	1	1176.3	1	636.9	1	845.7	1	671.1	12	317470	3	317459	27	39	317497	-999999	317473	0	41	TrialsPROC	PL_026_SCENE_24.png	2	2	87	SessionSelectionList														lure	3	Place	0-Back	76	80	73	0	0	100	10	39	289109	1	13	73	287070	-1	287689	1	619	3	3	2039	52	289122	-53	0																87												
WM080112	135932_fnca	2	1	1	-176940010	1	75.032	75.031	2.0.10.147	2.0.10.242	2.0.10.242	1.0.0.439	7	234	2	3	Verdana	1	80	0	0	0	WM Stimuli\	1	1229	1	674.7	0.7	762	1	608.5	1	1176.3	1	636.9	1	845.7	1	671.1	12	317470	3	317459	27	39	317497	-999999	317473	0	41	TrialsPROC	PL_021_SCENE_07.png	2	2	88	SessionSelectionList														target	2	Place	0-Back	77	80	74	0	0	100	1	39	291681	1	13	72	289642	-1	290294	1	652	2	2	2039	52	291694	-53	0																88												
WM080112	135932_fnca	2	1	1	-176940010	1	75.032	75.031	2.0.10.147	2.0.10.242	2.0.10.242	1.0.0.439	7	234	2	3	Verdana	1	80	0	0	0	WM Stimuli\	1	1229	1	674.7	0.7	762	1	608.5	1	1176.3	1	636.9	1	845.7	1	671.1	12	317470	3	317459	27	39	317497	-999999	317473	0	41	TrialsPROC	PL_021_SCENE_07.png	2	2	89	SessionSelectionList														target	2	Place	0-Back	78	80	75	0	0	100	2	39	294253	2	14	72	292214	-1	292680	1	466	2	2	2039	53	294267	-54	0																89												
WM080112	135932_fnca	2	1	1	-176940010	1	75.032	75.031	2.0.10.147	2.0.10.242	2.0.10.242	1.0.0.439	7	234	2	3	Verdana	1	80	0	0	0	WM Stimuli\	1	1229	1	674.7	0.7	762	1	608.5	1	1176.3	1	636.9	1	845.7	1	671.1	12	317470	3	317459	27	39	317497	-999999	317473	0	41	TrialsPROC	PL_023_SCENE_09.png	2	2	90	SessionSelectionList														nonlure	3	Place	0-Back	79	80	76	0	0	100	1	39	296839	1	13	86	294800	-1	295407	1	607	3	3	2039	52	296852	-53	0																90												
WM080112	135932_fnca	2	1	1	-176940010	1	75.032	75.031	2.0.10.147	2.0.10.242	2.0.10.242	1.0.0.439	7	234	2	3	Verdana	1	80	0	0	0	WM Stimuli\	1	1229	1	674.7	0.7	762	1	608.5	1	1176.3	1	636.9	1	845.7	1	671.1	12	317470	3	317459	27	39	317497	-999999	317473	0	41	TrialsPROC	PL_024_SCENE_10.png	2	2	91	SessionSelectionList														nonlure	3	Place	0-Back	80	80	77	0	0	100	2	39	299424	2	14	85	297385	-1	298058	1	673	3	3	2039	53	299438	-54	0																91												
WM080112	135932_fnca	2	1	1	-176940010	1	75.032	75.031	2.0.10.147	2.0.10.242	2.0.10.242	1.0.0.439	7	234	2	3	Verdana	1	80	0	0	0	WM Stimuli\	1	1229	1	674.7	0.7	762	1	608.5	1	1176.3	1	636.9	1	845.7	1	671.1	12	317470	3	317459	27	39	317497	-999999	317473	0	41	TrialsPROC	PL_022_SCENE_08.png	2	2	92	SessionSelectionList														lure	3	Place	0-Back	80	80	78	0	0	100	3	39	301997	1	13	73	299958	-1	300684	1	726	3	3	2039	52	302010	-53	0																92												
WM080112	135932_fnca	2	1	1	-176940010	1	75.032	75.031	2.0.10.147	2.0.10.242	2.0.10.242	1.0.0.439	7	234	2	3	Verdana	1	80	0	0	0	WM Stimuli\	1	1229	1	674.7	0.7	762	1	608.5	1	1176.3	1	636.9	1	845.7	1	671.1	12	317470	3	317459	27	39	317497	-999999	317473	0	42	Fix15secPROC	""	2	2	93	SessionSelectionList																																															5	302463	-6	0							93												
