ExperimentName	HCPID	RunNumber	Subject	Session	RandomSeed	Group	Laptop.RefreshRate	ScannerD2.RefreshRate	StudioVersion	RuntimeVersion	RuntimeVersionExpected	ExperimentVersion	triggercode	Allowed	Target	Nontarget	FontStyle	RunTrialNumber[Session]	TrialsPerRun[Session]	TotalRespGreater200[Session]	ConsecRTLess200[Session]	ConsecNonResp[Session]	StimuliDir	ACC_2_Back_Body	Avg_RT_For_Correct_Trials_2_Back_Body	ACC_0_Back_Body	Avg_RT_For_Correct_Trials_0_Back_Body	ACC_2_Back_Face	Avg_RT_For_Correct_Trials_2_Back_Face	ACC_0_Back_Face	Avg_RT_For_Correct_Trials_0_Back_Face	ACC_2_Back_Place	Avg_RT_For_Correct_Trials_2_Back_Place	ACC_0_Back_Place	Avg_RT_For_Correct_Trials_0_Back_Place	ACC_2_Back_Tools	Avg_RT_For_Correct_Trials_2_Back_Tools	ACC_0_Back_Tools	Avg_RT_For_Correct_Trials_0_Back_Tools	ExpInstrucFeelFreeToRest.OnsetDelay	ExpInstrucFeelFreeToRest.OnsetTime	ExpInstrucFeelFreeToRest.DurationError	ExpInstrucFeelFreeToRest.StartTime	ExpInstrucFeelFreeToRest.OnsetToOnsetTime	FeelFreeToRest.OnsetDelay	FeelFreeToRest.OnsetTime	FeelFreeToRest.DurationError	FeelFreeToRest.StartTime	FeelFreeToRest.OnsetToOnsetTime	SessionSelectionList	Procedure[Block]	Stimulus[Block]	RunNumberFilterValue	SessionSelectionList.Cycle	SessionSelectionList.Sample	Running[Block]	IntroButtonMap.OnsetDelay	IntroButtonMap.OnsetTime	IntroButtonMap.DurationError	IntroButtonMap.OnsetToOnsetTime	GetReady.OnsetDelay	GetReady.OnsetTime	GetReady.DurationError	GetReady.OnsetToOnsetTime	Cue2Back.OnsetDelay	Cue2Back.OnsetTime	Cue2Back.DurationError	Cue2Back.OnsetToOnsetTime	Run1Block1	TargetType	CorrectResponse	StimType	BlockType	RunTrialNumber[Block]	TrialsPerRun[Block]	TotalRespGreater200[Block]	ConsecRTLess200[Block]	ConsecNonResp[Block]	ControlAcc	ConsecSameResp	ExperimenterWindow.OnsetDelay	ExperimenterWindow.OnsetTime	ExperimenterWindow.DurationError	ExperimenterWindow.OnsetToOnsetTime	Stim.OnsetDelay	Stim.OnsetTime	Stim.DurationError	Stim.RTTime	Stim.ACC	Stim.RT	Stim.RESP	Stim.CRESP	Stim.OnsetToOnsetTime	Fix.OnsetDelay	Fix.OnsetTime	Fix.DurationError	Fix.OnsetToOnsetTime	CueTarget.OnsetDelay	CueTarget.OnsetTime	CueTarget.DurationError	CueTarget.OnsetToOnsetTime	Run1Block2	Fix15sec.OnsetDelay	Fix15sec.OnsetTime	Fix15sec.DurationError	Fix15sec.OnsetToOnsetTime	Run1Block3	Run1Block4	Run1Block5	Run1Block6	Run1Block7	Run1Block8	Block	Procedure[Trial]	Stimulus[Trial]	ReadyList	Running[Trial]	ReadyList.Cycle	ReadyList.Sample	SyncSlide.OnsetDelay	SyncSlide.OnsetTime	SyncSlide.DurationError	SyncSlide.FinishTime	SyncSlide.OnsetToOnsetTime	Trial
WM080112	138534_fnca	2	1	1	1396026682	1	75.030	75.030	2.0.10.147	2.0.10.242	2.0.10.242	1.0.0.439	7	234	2	3	Verdana	1	80	0	0	0	WM Stimuli\	0.7	1020.14285714286	1	798.8	0.8	919	1	672.6	1	956.1	1	748.8	0.8	935.75	1	749.1	13	322844	2	322832	27	40	322871	-999999	322847	0	22	TRSyncPROC	""	2	2	1	SessionSelectionList	99	10317	-999999	0	30	13210	-999999	0																																																	1	InitialTR	4	1	ReadyList	1	1	16	29283	-17	31266	0	1
WM080112	138534_fnca	2	1	1	1396026682	1	75.030	75.030	2.0.10.147	2.0.10.242	2.0.10.242	1.0.0.439	7	234	2	3	Verdana	1	80	0	0	0	WM Stimuli\	0.7	1020.14285714286	1	798.8	0.8	919	1	672.6	1	956.1	1	748.8	0.8	935.75	1	749.1	13	322844	2	322832	27	40	322871	-999999	322847	0	22	TRSyncPROC	""	2	2	1	SessionSelectionList	99	10317	-999999	0	30	13210	-999999	0																																																	1	InitialTR	3	2	ReadyList	1	2	15	31282	-16	33266	0	2
WM080112	138534_fnca	2	1	1	1396026682	1	75.030	75.030	2.0.10.147	2.0.10.242	2.0.10.242	1.0.0.439	7	234	2	3	Verdana	1	80	0	0	0	WM Stimuli\	0.7	1020.14285714286	1	798.8	0.8	919	1	672.6	1	956.1	1	748.8	0.8	935.75	1	749.1	13	322844	2	322832	27	40	322871	-999999	322847	0	22	TRSyncPROC	""	2	2	1	SessionSelectionList	99	10317	-999999	0	30	13210	-999999	0																																																	1	InitialTR	2	3	ReadyList	1	3	14	33281	-15	35266	0	3
WM080112	138534_fnca	2	1	1	1396026682	1	75.030	75.030	2.0.10.147	2.0.10.242	2.0.10.242	1.0.0.439	7	234	2	3	Verdana	1	80	0	0	0	WM Stimuli\	0.7	1020.14285714286	1	798.8	0.8	919	1	672.6	1	956.1	1	748.8	0.8	935.75	1	749.1	13	322844	2	322832	27	40	322871	-999999	322847	0	22	TRSyncPROC	""	2	2	1	SessionSelectionList	99	10317	-999999	0	30	13210	-999999	0																																																	1	InitialTR	1	4	ReadyList	1	4	13	35280	-14	37266	0	4
WM080112	138534_fnca	2	1	1	1396026682	1	75.030	75.030	2.0.10.147	2.0.10.242	2.0.10.242	1.0.0.439	7	234	2	3	Verdana	1	80	0	0	0	WM Stimuli\	0.7	1020.14285714286	1	798.8	0.8	919	1	672.6	1	956.1	1	748.8	0.8	935.75	1	749.1	13	322844	2	322832	27	40	322871	-999999	322847	0	23	Cue2BackPROC	""	2	2	2	SessionSelectionList									13	37280	-14	0																																													2												
WM080112	138534_fnca	2	1	1	1396026682	1	75.030	75.030	2.0.10.147	2.0.10.242	2.0.10.242	1.0.0.439	7	234	2	3	Verdana	1	80	0	0	0	WM Stimuli\	0.7	1020.14285714286	1	798.8	0.8	919	1	672.6	1	956.1	1	748.8	0.8	935.75	1	749.1	13	322844	2	322832	27	40	322871	-999999	322847	0	24	TrialsPROC	TO_014_TOOL14_BA.png	2	2	3	SessionSelectionList														nonlure	3	Tools	2-Back	2	80	0	0	1	0	0	52	41891	3	14	72	39839	-1	0	0	0	""	3	2052	66	41905	-67	0																3												
WM080112	138534_fnca	2	1	1	1396026682	1	75.030	75.030	2.0.10.147	2.0.10.242	2.0.10.242	1.0.0.439	7	234	2	3	Verdana	1	80	0	0	0	WM Stimuli\	0.7	1020.14285714286	1	798.8	0.8	919	1	672.6	1	956.1	1	748.8	0.8	935.75	1	749.1	13	322844	2	322832	27	40	322871	-999999	322847	0	24	TrialsPROC	TO_013_TOOL13_BA.png	2	2	4	SessionSelectionList														nonlure	3	Tools	2-Back	3	80	0	0	2	0	0	39	44437	2	13	59	42398	-1	0	0	0	""	3	2039	52	44450	-53	0																4												
WM080112	138534_fnca	2	1	1	1396026682	1	75.030	75.030	2.0.10.147	2.0.10.242	2.0.10.242	1.0.0.439	7	234	2	3	Verdana	1	80	0	0	0	WM Stimuli\	0.7	1020.14285714286	1	798.8	0.8	919	1	672.6	1	956.1	1	748.8	0.8	935.75	1	749.1	13	322844	2	322832	27	40	322871	-999999	322847	0	24	TrialsPROC	TO_016_TOOL16_BA.png	2	2	5	SessionSelectionList														nonlure	3	Tools	2-Back	4	80	1	0	0	0	1	39	47036	1	13	99	44997	-1	46211	1	1214	3	3	2039	52	47049	-53	0																5												
WM080112	138534_fnca	2	1	1	1396026682	1	75.030	75.030	2.0.10.147	2.0.10.242	2.0.10.242	1.0.0.439	7	234	2	3	Verdana	1	80	0	0	0	WM Stimuli\	0.7	1020.14285714286	1	798.8	0.8	919	1	672.6	1	956.1	1	748.8	0.8	935.75	1	749.1	13	322844	2	322832	27	40	322871	-999999	322847	0	24	TrialsPROC	TO_014_TOOL14_BA.png	2	2	6	SessionSelectionList														lure	3	Tools	2-Back	5	80	2	0	0	0	2	39	49608	1	14	72	47569	-1	48889	1	1320	3	3	2039	53	49622	-54	0																6												
WM080112	138534_fnca	2	1	1	1396026682	1	75.030	75.030	2.0.10.147	2.0.10.242	2.0.10.242	1.0.0.439	7	234	2	3	Verdana	1	80	0	0	0	WM Stimuli\	0.7	1020.14285714286	1	798.8	0.8	919	1	672.6	1	956.1	1	748.8	0.8	935.75	1	749.1	13	322844	2	322832	27	40	322871	-999999	322847	0	24	TrialsPROC	TO_016_TOOL16_BA.png	2	2	7	SessionSelectionList														target	2	Tools	2-Back	6	80	3	0	0	0	1	39	52167	1	14	59	50128	-1	51094	1	966	2	2	2039	53	52181	-54	0																7												
WM080112	138534_fnca	2	1	1	1396026682	1	75.030	75.030	2.0.10.147	2.0.10.242	2.0.10.242	1.0.0.439	7	234	2	3	Verdana	1	80	0	0	0	WM Stimuli\	0.7	1020.14285714286	1	798.8	0.8	919	1	672.6	1	956.1	1	748.8	0.8	935.75	1	749.1	13	322844	2	322832	27	40	322871	-999999	322847	0	24	TrialsPROC	TO_018_TOOL18_BA.png	2	2	8	SessionSelectionList														nonlure	3	Tools	2-Back	7	80	4	0	0	0	1	39	54726	1	14	59	52687	-1	53626	1	939	3	3	2039	53	54740	-54	0																8												
WM080112	138534_fnca	2	1	1	1396026682	1	75.030	75.030	2.0.10.147	2.0.10.242	2.0.10.242	1.0.0.439	7	234	2	3	Verdana	1	80	0	0	0	WM Stimuli\	0.7	1020.14285714286	1	798.8	0.8	919	1	672.6	1	956.1	1	748.8	0.8	935.75	1	749.1	13	322844	2	322832	27	40	322871	-999999	322847	0	24	TrialsPROC	TO_017_TOOL17_BA.png	2	2	9	SessionSelectionList														nonlure	3	Tools	2-Back	8	80	5	0	0	0	2	39	57285	1	14	59	55246	-1	55977	1	731	3	3	2039	53	57299	-54	0																9												
WM080112	138534_fnca	2	1	1	1396026682	1	75.030	75.030	2.0.10.147	2.0.10.242	2.0.10.242	1.0.0.439	7	234	2	3	Verdana	1	80	0	0	0	WM Stimuli\	0.7	1020.14285714286	1	798.8	0.8	919	1	672.6	1	956.1	1	748.8	0.8	935.75	1	749.1	13	322844	2	322832	27	40	322871	-999999	322847	0	24	TrialsPROC	TO_018_TOOL18_BA.png	2	2	10	SessionSelectionList														target	2	Tools	2-Back	9	80	6	0	0	0	1	39	59844	1	14	59	57805	-1	58410	1	605	2	2	2039	53	59858	-54	0																10												
WM080112	138534_fnca	2	1	1	1396026682	1	75.030	75.030	2.0.10.147	2.0.10.242	2.0.10.242	1.0.0.439	7	234	2	3	Verdana	1	80	0	0	0	WM Stimuli\	0.7	1020.14285714286	1	798.8	0.8	919	1	672.6	1	956.1	1	748.8	0.8	935.75	1	749.1	13	322844	2	322832	27	40	322871	-999999	322847	0	24	TrialsPROC	TO_015_TOOL15_BA.png	2	2	11	SessionSelectionList														nonlure	3	Tools	2-Back	10	80	7	0	0	0	1	39	62403	1	13	59	60364	-1	61203	1	839	3	3	2039	52	62416	-53	0																11												
WM080112	138534_fnca	2	1	1	1396026682	1	75.030	75.030	2.0.10.147	2.0.10.242	2.0.10.242	1.0.0.439	7	234	2	3	Verdana	1	80	0	0	0	WM Stimuli\	0.7	1020.14285714286	1	798.8	0.8	919	1	672.6	1	956.1	1	748.8	0.8	935.75	1	749.1	13	322844	2	322832	27	40	322871	-999999	322847	0	24	TrialsPROC	TO_017_TOOL17_BA.png	2	2	12	SessionSelectionList														lure	3	Tools	2-Back	11	80	8	0	0	0	2	39	64962	1	13	59	62923	-1	63795	1	872	3	3	2039	52	64975	-53	0																12												
WM080112	138534_fnca	2	1	1	1396026682	1	75.030	75.030	2.0.10.147	2.0.10.242	2.0.10.242	1.0.0.439	7	234	2	3	Verdana	1	80	0	0	0	WM Stimuli\	0.7	1020.14285714286	1	798.8	0.8	919	1	672.6	1	956.1	1	748.8	0.8	935.75	1	749.1	13	322844	2	322832	27	40	322871	-999999	322847	0	25	Cue0BackPROC	BP_013_BP7_BA.png	2	2	13	SessionSelectionList																																										19	65442	-20	0												13												
WM080112	138534_fnca	2	1	1	1396026682	1	75.030	75.030	2.0.10.147	2.0.10.242	2.0.10.242	1.0.0.439	7	234	2	3	Verdana	1	80	0	0	0	WM Stimuli\	0.7	1020.14285714286	1	798.8	0.8	919	1	672.6	1	956.1	1	748.8	0.8	935.75	1	749.1	13	322844	2	322832	27	40	322871	-999999	322847	0	26	TrialsPROC	BP_015_H10-T_BA.png	2	2	14	SessionSelectionList														nonlure	3	Body	0-Back	12	80	9	0	0	100	3	39	70026	2	14	64	67987	-1	69502	1	1515	3	3	2039	53	70040	-54	0																14												
WM080112	138534_fnca	2	1	1	1396026682	1	75.030	75.030	2.0.10.147	2.0.10.242	2.0.10.242	1.0.0.439	7	234	2	3	Verdana	1	80	0	0	0	WM Stimuli\	0.7	1020.14285714286	1	798.8	0.8	919	1	672.6	1	956.1	1	748.8	0.8	935.75	1	749.1	13	322844	2	322832	27	40	322871	-999999	322847	0	26	TrialsPROC	BP_018_H13-T_BA.png	2	2	15	SessionSelectionList														nonlure	3	Body	0-Back	13	80	10	0	0	100	4	39	72585	2	14	59	70546	-1	71353	1	807	3	3	2039	53	72599	-54	0																15												
WM080112	138534_fnca	2	1	1	1396026682	1	75.030	75.030	2.0.10.147	2.0.10.242	2.0.10.242	1.0.0.439	7	234	2	3	Verdana	1	80	0	0	0	WM Stimuli\	0.7	1020.14285714286	1	798.8	0.8	919	1	672.6	1	956.1	1	748.8	0.8	935.75	1	749.1	13	322844	2	322832	27	40	322871	-999999	322847	0	26	TrialsPROC	BP_014_BP9_BA.png	2	2	16	SessionSelectionList														nonlure	3	Body	0-Back	14	80	11	0	0	100	5	38	75144	2	14	60	73106	-1	73989	1	883	3	3	2038	52	75158	-53	0																16												
WM080112	138534_fnca	2	1	1	1396026682	1	75.030	75.030	2.0.10.147	2.0.10.242	2.0.10.242	1.0.0.439	7	234	2	3	Verdana	1	80	0	0	0	WM Stimuli\	0.7	1020.14285714286	1	798.8	0.8	919	1	672.6	1	956.1	1	748.8	0.8	935.75	1	749.1	13	322844	2	322832	27	40	322871	-999999	322847	0	26	TrialsPROC	BP_018_H13-T_BA.png	2	2	17	SessionSelectionList														lure	3	Body	0-Back	15	80	12	0	0	100	6	39	77703	2	14	58	75664	-1	76149	1	485	3	3	2039	53	77717	-54	0																17												
WM080112	138534_fnca	2	1	1	1396026682	1	75.030	75.030	2.0.10.147	2.0.10.242	2.0.10.242	1.0.0.439	7	234	2	3	Verdana	1	80	0	0	0	WM Stimuli\	0.7	1020.14285714286	1	798.8	0.8	919	1	672.6	1	956.1	1	748.8	0.8	935.75	1	749.1	13	322844	2	322832	27	40	322871	-999999	322847	0	26	TrialsPROC	BP_013_BP7_BA.png	2	2	18	SessionSelectionList														target	2	Body	0-Back	16	80	13	0	0	100	1	39	80262	2	14	59	78223	-1	79173	1	950	2	2	2039	53	80276	-54	0																18												
WM080112	138534_fnca	2	1	1	1396026682	1	75.030	75.030	2.0.10.147	2.0.10.242	2.0.10.242	1.0.0.439	7	234	2	3	Verdana	1	80	0	0	0	WM Stimuli\	0.7	1020.14285714286	1	798.8	0.8	919	1	672.6	1	956.1	1	748.8	0.8	935.75	1	749.1	13	322844	2	322832	27	40	322871	-999999	322847	0	26	TrialsPROC	BP_015_H10-T_BA.png	2	2	19	SessionSelectionList														lure	3	Body	0-Back	17	80	14	0	0	100	1	39	82821	2	14	59	80782	-1	81321	1	539	3	3	2039	53	82835	-54	0																19												
WM080112	138534_fnca	2	1	1	1396026682	1	75.030	75.030	2.0.10.147	2.0.10.242	2.0.10.242	1.0.0.439	7	234	2	3	Verdana	1	80	0	0	0	WM Stimuli\	0.7	1020.14285714286	1	798.8	0.8	919	1	672.6	1	956.1	1	748.8	0.8	935.75	1	749.1	13	322844	2	322832	27	40	322871	-999999	322847	0	26	TrialsPROC	BP_016_H11-T_BA.png	2	2	20	SessionSelectionList														nonlure	3	Body	0-Back	18	80	15	0	0	100	2	39	85393	2	14	72	83354	-1	84297	1	943	3	3	2039	53	85407	-54	0																20												
WM080112	138534_fnca	2	1	1	1396026682	1	75.030	75.030	2.0.10.147	2.0.10.242	2.0.10.242	1.0.0.439	7	234	2	3	Verdana	1	80	0	0	0	WM Stimuli\	0.7	1020.14285714286	1	798.8	0.8	919	1	672.6	1	956.1	1	748.8	0.8	935.75	1	749.1	13	322844	2	322832	27	40	322871	-999999	322847	0	26	TrialsPROC	BP_013_BP7_BA.png	2	2	21	SessionSelectionList														target	2	Body	0-Back	19	80	16	0	0	100	1	38	87952	2	14	60	85914	-1	86606	1	692	2	2	2038	52	87966	-53	0																21												
WM080112	138534_fnca	2	1	1	1396026682	1	75.030	75.030	2.0.10.147	2.0.10.242	2.0.10.242	1.0.0.439	7	234	2	3	Verdana	1	80	0	0	0	WM Stimuli\	0.7	1020.14285714286	1	798.8	0.8	919	1	672.6	1	956.1	1	748.8	0.8	935.75	1	749.1	13	322844	2	322832	27	40	322871	-999999	322847	0	26	TrialsPROC	BP_017_H12-T_BA.png	2	2	22	SessionSelectionList														nonlure	3	Body	0-Back	20	80	17	0	0	100	1	38	90511	2	14	59	88473	-1	89009	1	536	3	3	2038	52	90525	-53	0																22												
WM080112	138534_fnca	2	1	1	1396026682	1	75.030	75.030	2.0.10.147	2.0.10.242	2.0.10.242	1.0.0.439	7	234	2	3	Verdana	1	80	0	0	0	WM Stimuli\	0.7	1020.14285714286	1	798.8	0.8	919	1	672.6	1	956.1	1	748.8	0.8	935.75	1	749.1	13	322844	2	322832	27	40	322871	-999999	322847	0	26	TrialsPROC	BP_014_BP9_BA.png	2	2	23	SessionSelectionList														lure	3	Body	0-Back	21	80	18	0	0	100	2	39	93070	2	14	58	91031	-1	91669	1	638	3	3	2039	53	93084	-54	0																23												
WM080112	138534_fnca	2	1	1	1396026682	1	75.030	75.030	2.0.10.147	2.0.10.242	2.0.10.242	1.0.0.439	7	234	2	3	Verdana	1	80	0	0	0	WM Stimuli\	0.7	1020.14285714286	1	798.8	0.8	919	1	672.6	1	956.1	1	748.8	0.8	935.75	1	749.1	13	322844	2	322832	27	40	322871	-999999	322847	0	27	Fix15secPROC	""	2	2	24	SessionSelectionList																																															6	93537	-7	0							24												
WM080112	138534_fnca	2	1	1	1396026682	1	75.030	75.030	2.0.10.147	2.0.10.242	2.0.10.242	1.0.0.439	7	234	2	3	Verdana	1	80	0	0	0	WM Stimuli\	0.7	1020.14285714286	1	798.8	0.8	919	1	672.6	1	956.1	1	748.8	0.8	935.75	1	749.1	13	322844	2	322832	27	40	322871	-999999	322847	0	28	Cue2BackPROC	""	2	2	25	SessionSelectionList									13	108544	-14	0																																													25												
WM080112	138534_fnca	2	1	1	1396026682	1	75.030	75.030	2.0.10.147	2.0.10.242	2.0.10.242	1.0.0.439	7	234	2	3	Verdana	1	80	0	0	0	WM Stimuli\	0.7	1020.14285714286	1	798.8	0.8	919	1	672.6	1	956.1	1	748.8	0.8	935.75	1	749.1	13	322844	2	322832	27	40	322871	-999999	322847	0	29	TrialsPROC	FC_015_M8.png	2	2	26	SessionSelectionList														nonlure	3	Face	2-Back	22	80	18	0	1	100	2	39	113142	2	14	72	111103	-1	0	0	0	""	3	2039	53	113156	-54	0																26												
WM080112	138534_fnca	2	1	1	1396026682	1	75.030	75.030	2.0.10.147	2.0.10.242	2.0.10.242	1.0.0.439	7	234	2	3	Verdana	1	80	0	0	0	WM Stimuli\	0.7	1020.14285714286	1	798.8	0.8	919	1	672.6	1	956.1	1	748.8	0.8	935.75	1	749.1	13	322844	2	322832	27	40	322871	-999999	322847	0	29	TrialsPROC	FC_018_F9.png	2	2	27	SessionSelectionList														nonlure	3	Face	2-Back	23	80	18	0	2	100	2	39	115714	2	14	72	113675	-1	0	0	0	""	3	2039	53	115728	-54	0																27												
WM080112	138534_fnca	2	1	1	1396026682	1	75.030	75.030	2.0.10.147	2.0.10.242	2.0.10.242	1.0.0.439	7	234	2	3	Verdana	1	80	0	0	0	WM Stimuli\	0.7	1020.14285714286	1	798.8	0.8	919	1	672.6	1	956.1	1	748.8	0.8	935.75	1	749.1	13	322844	2	322832	27	40	322871	-999999	322847	0	29	TrialsPROC	FC_018_F9.png	2	2	28	SessionSelectionList														lure	3	Face	2-Back	24	80	19	0	0	100	1	39	118287	1	14	73	116248	-1	117244	1	996	3	3	2039	53	118301	-54	0																28												
WM080112	138534_fnca	2	1	1	1396026682	1	75.030	75.030	2.0.10.147	2.0.10.242	2.0.10.242	1.0.0.439	7	234	2	3	Verdana	1	80	0	0	0	WM Stimuli\	0.7	1020.14285714286	1	798.8	0.8	919	1	672.6	1	956.1	1	748.8	0.8	935.75	1	749.1	13	322844	2	322832	27	40	322871	-999999	322847	0	29	TrialsPROC	FC_017_M9.png	2	2	29	SessionSelectionList														nonlure	3	Face	2-Back	25	80	20	0	0	100	2	39	120859	2	14	72	118820	-1	119708	1	888	3	3	2039	53	120873	-54	0																29												
WM080112	138534_fnca	2	1	1	1396026682	1	75.030	75.030	2.0.10.147	2.0.10.242	2.0.10.242	1.0.0.439	7	234	2	3	Verdana	1	80	0	0	0	WM Stimuli\	0.7	1020.14285714286	1	798.8	0.8	919	1	672.6	1	956.1	1	748.8	0.8	935.75	1	749.1	13	322844	2	322832	27	40	322871	-999999	322847	0	29	TrialsPROC	FC_017_M9.png	2	2	30	SessionSelectionList														lure	3	Face	2-Back	26	80	21	0	0	100	3	39	123431	2	14	72	121392	-1	122614	1	1222	3	3	2039	53	123445	-54	0																30												
WM080112	138534_fnca	2	1	1	1396026682	1	75.030	75.030	2.0.10.147	2.0.10.242	2.0.10.242	1.0.0.439	7	234	2	3	Verdana	1	80	0	0	0	WM Stimuli\	0.7	1020.14285714286	1	798.8	0.8	919	1	672.6	1	956.1	1	748.8	0.8	935.75	1	749.1	13	322844	2	322832	27	40	322871	-999999	322847	0	29	TrialsPROC	FC_016_F8.png	2	2	31	SessionSelectionList														nonlure	3	Face	2-Back	27	80	22	0	0	100	4	39	126004	1	13	73	123965	-1	124721	1	756	3	3	2039	52	126017	-53	0																31												
WM080112	138534_fnca	2	1	1	1396026682	1	75.030	75.030	2.0.10.147	2.0.10.242	2.0.10.242	1.0.0.439	7	234	2	3	Verdana	1	80	0	0	0	WM Stimuli\	0.7	1020.14285714286	1	798.8	0.8	919	1	672.6	1	956.1	1	748.8	0.8	935.75	1	749.1	13	322844	2	322832	27	40	322871	-999999	322847	0	29	TrialsPROC	FC_013_M7.png	2	2	32	SessionSelectionList														nonlure	3	Face	2-Back	28	80	23	0	0	100	5	39	128576	1	14	72	126537	-1	127510	1	973	3	3	2039	53	128590	-54	0																32												
WM080112	138534_fnca	2	1	1	1396026682	1	75.030	75.030	2.0.10.147	2.0.10.242	2.0.10.242	1.0.0.439	7	234	2	3	Verdana	1	80	0	0	0	WM Stimuli\	0.7	1020.14285714286	1	798.8	0.8	919	1	672.6	1	956.1	1	748.8	0.8	935.75	1	749.1	13	322844	2	322832	27	40	322871	-999999	322847	0	29	TrialsPROC	FC_014_F7.png	2	2	33	SessionSelectionList														nonlure	3	Face	2-Back	29	80	24	0	0	100	6	39	131148	2	14	72	129109	-1	129916	1	807	3	3	2039	53	131162	-54	0																33												
WM080112	138534_fnca	2	1	1	1396026682	1	75.030	75.030	2.0.10.147	2.0.10.242	2.0.10.242	1.0.0.439	7	234	2	3	Verdana	1	80	0	0	0	WM Stimuli\	0.7	1020.14285714286	1	798.8	0.8	919	1	672.6	1	956.1	1	748.8	0.8	935.75	1	749.1	13	322844	2	322832	27	40	322871	-999999	322847	0	29	TrialsPROC	FC_013_M7.png	2	2	34	SessionSelectionList														target	2	Face	2-Back	30	80	25	0	0	100	1	40	133721	1	13	72	131681	-1	132520	1	839	2	2	2040	53	133734	-54	0																34												
WM080112	138534_fnca	2	1	1	1396026682	1	75.030	75.030	2.0.10.147	2.0.10.242	2.0.10.242	1.0.0.439	7	234	2	3	Verdana	1	80	0	0	0	WM Stimuli\	0.7	1020.14285714286	1	798.8	0.8	919	1	672.6	1	956.1	1	748.8	0.8	935.75	1	749.1	13	322844	2	322832	27	40	322871	-999999	322847	0	29	TrialsPROC	FC_014_F7.png	2	2	35	SessionSelectionList														target	2	Face	2-Back	31	80	26	0	0	100	2	39	136293	1	14	73	134254	-1	135125	1	871	2	2	2039	53	136307	-54	0																35												
WM080112	138534_fnca	2	1	1	1396026682	1	75.030	75.030	2.0.10.147	2.0.10.242	2.0.10.242	1.0.0.439	7	234	2	3	Verdana	1	80	0	0	0	WM Stimuli\	0.7	1020.14285714286	1	798.8	0.8	919	1	672.6	1	956.1	1	748.8	0.8	935.75	1	749.1	13	322844	2	322832	27	40	322871	-999999	322847	0	30	Cue0BackPROC	TO_019_TOOL19_BA.png	2	2	36	SessionSelectionList																																										19	136773	-20	0												36												
WM080112	138534_fnca	2	1	1	1396026682	1	75.030	75.030	2.0.10.147	2.0.10.242	2.0.10.242	1.0.0.439	7	234	2	3	Verdana	1	80	0	0	0	WM Stimuli\	0.7	1020.14285714286	1	798.8	0.8	919	1	672.6	1	956.1	1	748.8	0.8	935.75	1	749.1	13	322844	2	322832	27	40	322871	-999999	322847	0	31	TrialsPROC	TO_019_TOOL19_BA.png	2	2	37	SessionSelectionList														target	2	Tools	0-Back	32	80	27	0	0	100	3	39	141344	1	14	51	139305	-1	140642	1	1337	2	2	2039	53	141358	-54	0																37												
WM080112	138534_fnca	2	1	1	1396026682	1	75.030	75.030	2.0.10.147	2.0.10.242	2.0.10.242	1.0.0.439	7	234	2	3	Verdana	1	80	0	0	0	WM Stimuli\	0.7	1020.14285714286	1	798.8	0.8	919	1	672.6	1	956.1	1	748.8	0.8	935.75	1	749.1	13	322844	2	322832	27	40	322871	-999999	322847	0	31	TrialsPROC	TO_024_TOOL24_BA.png	2	2	38	SessionSelectionList														nonlure	3	Tools	0-Back	33	80	28	0	0	100	1	39	143903	1	14	59	141864	-1	142592	1	728	3	3	2039	53	143917	-54	0																38												
WM080112	138534_fnca	2	1	1	1396026682	1	75.030	75.030	2.0.10.147	2.0.10.242	2.0.10.242	1.0.0.439	7	234	2	3	Verdana	1	80	0	0	0	WM Stimuli\	0.7	1020.14285714286	1	798.8	0.8	919	1	672.6	1	956.1	1	748.8	0.8	935.75	1	749.1	13	322844	2	322832	27	40	322871	-999999	322847	0	31	TrialsPROC	TO_019_TOOL19_BA.png	2	2	39	SessionSelectionList														target	2	Tools	0-Back	34	80	29	0	0	100	1	39	146462	1	14	59	144423	-1	145043	1	620	2	2	2039	53	146476	-54	0																39												
WM080112	138534_fnca	2	1	1	1396026682	1	75.030	75.030	2.0.10.147	2.0.10.242	2.0.10.242	1.0.0.439	7	234	2	3	Verdana	1	80	0	0	0	WM Stimuli\	0.7	1020.14285714286	1	798.8	0.8	919	1	672.6	1	956.1	1	748.8	0.8	935.75	1	749.1	13	322844	2	322832	27	40	322871	-999999	322847	0	31	TrialsPROC	TO_023_TOOL23_BA.png	2	2	40	SessionSelectionList														nonlure	3	Tools	0-Back	35	80	30	0	0	100	1	39	149021	1	14	59	146982	-1	147532	1	550	3	3	2039	53	149035	-54	0																40												
WM080112	138534_fnca	2	1	1	1396026682	1	75.030	75.030	2.0.10.147	2.0.10.242	2.0.10.242	1.0.0.439	7	234	2	3	Verdana	1	80	0	0	0	WM Stimuli\	0.7	1020.14285714286	1	798.8	0.8	919	1	672.6	1	956.1	1	748.8	0.8	935.75	1	749.1	13	322844	2	322832	27	40	322871	-999999	322847	0	31	TrialsPROC	TO_020_TOOL20_BA.png	2	2	41	SessionSelectionList														nonlure	3	Tools	0-Back	36	80	31	0	0	100	2	39	151580	1	14	59	149541	-1	150294	1	753	3	3	2039	53	151594	-54	0																41												
WM080112	138534_fnca	2	1	1	1396026682	1	75.030	75.030	2.0.10.147	2.0.10.242	2.0.10.242	1.0.0.439	7	234	2	3	Verdana	1	80	0	0	0	WM Stimuli\	0.7	1020.14285714286	1	798.8	0.8	919	1	672.6	1	956.1	1	748.8	0.8	935.75	1	749.1	13	322844	2	322832	27	40	322871	-999999	322847	0	31	TrialsPROC	TO_020_TOOL20_BA.png	2	2	42	SessionSelectionList														lure	3	Tools	0-Back	37	80	32	0	0	100	3	39	154139	1	14	59	152100	-1	152659	1	559	3	3	2039	53	154153	-54	0																42												
WM080112	138534_fnca	2	1	1	1396026682	1	75.030	75.030	2.0.10.147	2.0.10.242	2.0.10.242	1.0.0.439	7	234	2	3	Verdana	1	80	0	0	0	WM Stimuli\	0.7	1020.14285714286	1	798.8	0.8	919	1	672.6	1	956.1	1	748.8	0.8	935.75	1	749.1	13	322844	2	322832	27	40	322871	-999999	322847	0	31	TrialsPROC	TO_022_TOOL22_BA.png	2	2	43	SessionSelectionList														nonlure	3	Tools	0-Back	38	80	33	0	0	100	4	39	156698	1	14	59	154659	-1	155571	1	912	3	3	2039	53	156712	-54	0																43												
WM080112	138534_fnca	2	1	1	1396026682	1	75.030	75.030	2.0.10.147	2.0.10.242	2.0.10.242	1.0.0.439	7	234	2	3	Verdana	1	80	0	0	0	WM Stimuli\	0.7	1020.14285714286	1	798.8	0.8	919	1	672.6	1	956.1	1	748.8	0.8	935.75	1	749.1	13	322844	2	322832	27	40	322871	-999999	322847	0	31	TrialsPROC	TO_022_TOOL22_BA.png	2	2	44	SessionSelectionList														lure	3	Tools	0-Back	39	80	34	0	0	100	5	39	159257	1	14	59	157218	-1	157846	1	628	3	3	2039	53	159271	-54	0																44												
WM080112	138534_fnca	2	1	1	1396026682	1	75.030	75.030	2.0.10.147	2.0.10.242	2.0.10.242	1.0.0.439	7	234	2	3	Verdana	1	80	0	0	0	WM Stimuli\	0.7	1020.14285714286	1	798.8	0.8	919	1	672.6	1	956.1	1	748.8	0.8	935.75	1	749.1	13	322844	2	322832	27	40	322871	-999999	322847	0	31	TrialsPROC	TO_021_TOOL21_BA.png	2	2	45	SessionSelectionList														nonlure	3	Tools	0-Back	40	80	35	0	0	100	6	39	161816	1	14	59	159777	-1	160524	1	747	3	3	2039	53	161830	-54	0																45												
WM080112	138534_fnca	2	1	1	1396026682	1	75.030	75.030	2.0.10.147	2.0.10.242	2.0.10.242	1.0.0.439	7	234	2	3	Verdana	1	80	0	0	0	WM Stimuli\	0.7	1020.14285714286	1	798.8	0.8	919	1	672.6	1	956.1	1	748.8	0.8	935.75	1	749.1	13	322844	2	322832	27	40	322871	-999999	322847	0	31	TrialsPROC	TO_021_TOOL21_BA.png	2	2	46	SessionSelectionList														lure	3	Tools	0-Back	41	80	36	0	0	100	7	39	164375	1	13	59	162336	-1	162993	1	657	3	3	2039	52	164388	-53	0																46												
WM080112	138534_fnca	2	1	1	1396026682	1	75.030	75.030	2.0.10.147	2.0.10.242	2.0.10.242	1.0.0.439	7	234	2	3	Verdana	1	80	0	0	0	WM Stimuli\	0.7	1020.14285714286	1	798.8	0.8	919	1	672.6	1	956.1	1	748.8	0.8	935.75	1	749.1	13	322844	2	322832	27	40	322871	-999999	322847	0	32	Fix15secPROC	""	2	2	47	SessionSelectionList																																															6	164842	-7	0							47												
WM080112	138534_fnca	2	1	1	1396026682	1	75.030	75.030	2.0.10.147	2.0.10.242	2.0.10.242	1.0.0.439	7	234	2	3	Verdana	1	80	0	0	0	WM Stimuli\	0.7	1020.14285714286	1	798.8	0.8	919	1	672.6	1	956.1	1	748.8	0.8	935.75	1	749.1	13	322844	2	322832	27	40	322871	-999999	322847	0	33	Cue2BackPROC	""	2	2	48	SessionSelectionList									12	179848	-13	0																																													48												
WM080112	138534_fnca	2	1	1	1396026682	1	75.030	75.030	2.0.10.147	2.0.10.242	2.0.10.242	1.0.0.439	7	234	2	3	Verdana	1	80	0	0	0	WM Stimuli\	0.7	1020.14285714286	1	798.8	0.8	919	1	672.6	1	956.1	1	748.8	0.8	935.75	1	749.1	13	322844	2	322832	27	40	322871	-999999	322847	0	34	TrialsPROC	BP_020_H17-T_BA.png	2	2	49	SessionSelectionList														nonlure	3	Body	2-Back	42	80	37	0	0	100	1	39	184433	2	14	58	182394	-1	183889	0	1495	2	3	2039	53	184447	-54	0																49												
WM080112	138534_fnca	2	1	1	1396026682	1	75.030	75.030	2.0.10.147	2.0.10.242	2.0.10.242	1.0.0.439	7	234	2	3	Verdana	1	80	0	0	0	WM Stimuli\	0.7	1020.14285714286	1	798.8	0.8	919	1	672.6	1	956.1	1	748.8	0.8	935.75	1	749.1	13	322844	2	322832	27	40	322871	-999999	322847	0	34	TrialsPROC	BP_019_H14-T_BA.png	2	2	50	SessionSelectionList														nonlure	3	Body	2-Back	43	80	38	0	0	100	1	40	187006	1	13	72	184966	-1	185711	1	745	3	3	2040	53	187019	-54	0																50												
WM080112	138534_fnca	2	1	1	1396026682	1	75.030	75.030	2.0.10.147	2.0.10.242	2.0.10.242	1.0.0.439	7	234	2	3	Verdana	1	80	0	0	0	WM Stimuli\	0.7	1020.14285714286	1	798.8	0.8	919	1	672.6	1	956.1	1	748.8	0.8	935.75	1	749.1	13	322844	2	322832	27	40	322871	-999999	322847	0	34	TrialsPROC	BP_020_H17-T_BA.png	2	2	51	SessionSelectionList														target	2	Body	2-Back	44	80	39	0	0	100	1	40	189565	1	13	59	187525	-1	188322	1	797	2	2	2040	53	189578	-54	0																51												
WM080112	138534_fnca	2	1	1	1396026682	1	75.030	75.030	2.0.10.147	2.0.10.242	2.0.10.242	1.0.0.439	7	234	2	3	Verdana	1	80	0	0	0	WM Stimuli\	0.7	1020.14285714286	1	798.8	0.8	919	1	672.6	1	956.1	1	748.8	0.8	935.75	1	749.1	13	322844	2	322832	27	40	322871	-999999	322847	0	34	TrialsPROC	BP_019_H14-T_BA.png	2	2	52	SessionSelectionList														target	2	Body	2-Back	45	80	40	0	0	100	1	39	192137	1	14	73	190098	-1	190848	0	750	3	2	2039	53	192151	-54	0																52												
WM080112	138534_fnca	2	1	1	1396026682	1	75.030	75.030	2.0.10.147	2.0.10.242	2.0.10.242	1.0.0.439	7	234	2	3	Verdana	1	80	0	0	0	WM Stimuli\	0.7	1020.14285714286	1	798.8	0.8	919	1	672.6	1	956.1	1	748.8	0.8	935.75	1	749.1	13	322844	2	322832	27	40	322871	-999999	322847	0	34	TrialsPROC	BP_024_H3-T_BA.png	2	2	53	SessionSelectionList														nonlure	3	Body	2-Back	46	80	41	0	0	100	2	39	194709	2	14	72	192670	-1	193687	1	1017	3	3	2039	53	194723	-54	0																53												
WM080112	138534_fnca	2	1	1	1396026682	1	75.030	75.030	2.0.10.147	2.0.10.242	2.0.10.242	1.0.0.439	7	234	2	3	Verdana	1	80	0	0	0	WM Stimuli\	0.7	1020.14285714286	1	798.8	0.8	919	1	672.6	1	956.1	1	748.8	0.8	935.75	1	749.1	13	322844	2	322832	27	40	322871	-999999	322847	0	34	TrialsPROC	BP_024_H3-T_BA.png	2	2	54	SessionSelectionList														lure	3	Body	2-Back	47	80	42	0	0	100	1	39	197268	1	14	59	195229	-1	195981	0	752	2	3	2039	53	197282	-54	0																54												
WM080112	138534_fnca	2	1	1	1396026682	1	75.030	75.030	2.0.10.147	2.0.10.242	2.0.10.242	1.0.0.439	7	234	2	3	Verdana	1	80	0	0	0	WM Stimuli\	0.7	1020.14285714286	1	798.8	0.8	919	1	672.6	1	956.1	1	748.8	0.8	935.75	1	749.1	13	322844	2	322832	27	40	322871	-999999	322847	0	34	TrialsPROC	BP_025_H5-T_BA.png	2	2	55	SessionSelectionList														nonlure	3	Body	2-Back	48	80	43	0	0	100	1	39	199827	1	14	59	197788	-1	198976	1	1188	3	3	2039	53	199841	-54	0																55												
WM080112	138534_fnca	2	1	1	1396026682	1	75.030	75.030	2.0.10.147	2.0.10.242	2.0.10.242	1.0.0.439	7	234	2	3	Verdana	1	80	0	0	0	WM Stimuli\	0.7	1020.14285714286	1	798.8	0.8	919	1	672.6	1	956.1	1	748.8	0.8	935.75	1	749.1	13	322844	2	322832	27	40	322871	-999999	322847	0	34	TrialsPROC	BP_023_H25-T_BA.png	2	2	56	SessionSelectionList														nonlure	3	Body	2-Back	49	80	44	0	0	100	2	39	202386	1	14	59	200347	-1	201748	1	1401	3	3	2039	53	202400	-54	0																56												
WM080112	138534_fnca	2	1	1	1396026682	1	75.030	75.030	2.0.10.147	2.0.10.242	2.0.10.242	1.0.0.439	7	234	2	3	Verdana	1	80	0	0	0	WM Stimuli\	0.7	1020.14285714286	1	798.8	0.8	919	1	672.6	1	956.1	1	748.8	0.8	935.75	1	749.1	13	322844	2	322832	27	40	322871	-999999	322847	0	34	TrialsPROC	BP_022_H24-T_BA.png	2	2	57	SessionSelectionList														nonlure	3	Body	2-Back	50	80	45	0	0	100	3	39	204945	1	14	59	202906	-1	204003	1	1097	3	3	2039	53	204959	-54	0																57												
WM080112	138534_fnca	2	1	1	1396026682	1	75.030	75.030	2.0.10.147	2.0.10.242	2.0.10.242	1.0.0.439	7	234	2	3	Verdana	1	80	0	0	0	WM Stimuli\	0.7	1020.14285714286	1	798.8	0.8	919	1	672.6	1	956.1	1	748.8	0.8	935.75	1	749.1	13	322844	2	322832	27	40	322871	-999999	322847	0	34	TrialsPROC	BP_022_H24-T_BA.png	2	2	58	SessionSelectionList														lure	3	Body	2-Back	51	80	46	0	0	100	4	39	207504	1	14	59	205465	-1	206361	1	896	3	3	2039	53	207518	-54	0																58												
WM080112	138534_fnca	2	1	1	1396026682	1	75.030	75.030	2.0.10.147	2.0.10.242	2.0.10.242	1.0.0.439	7	234	2	3	Verdana	1	80	0	0	0	WM Stimuli\	0.7	1020.14285714286	1	798.8	0.8	919	1	672.6	1	956.1	1	748.8	0.8	935.75	1	749.1	13	322844	2	322832	27	40	322871	-999999	322847	0	35	Cue2BackPROC	""	2	2	59	SessionSelectionList									5	207970	-6	0																																													59												
WM080112	138534_fnca	2	1	1	1396026682	1	75.030	75.030	2.0.10.147	2.0.10.242	2.0.10.242	1.0.0.439	7	234	2	3	Verdana	1	80	0	0	0	WM Stimuli\	0.7	1020.14285714286	1	798.8	0.8	919	1	672.6	1	956.1	1	748.8	0.8	935.75	1	749.1	13	322844	2	322832	27	40	322871	-999999	322847	0	36	TrialsPROC	PL_019_SCENE_05.png	2	2	60	SessionSelectionList														nonlure	3	Place	2-Back	52	80	47	0	0	100	5	40	212569	1	13	64	210529	-1	212109	1	1580	3	3	2040	53	212582	-54	0																60												
WM080112	138534_fnca	2	1	1	1396026682	1	75.030	75.030	2.0.10.147	2.0.10.242	2.0.10.242	1.0.0.439	7	234	2	3	Verdana	1	80	0	0	0	WM Stimuli\	0.7	1020.14285714286	1	798.8	0.8	919	1	672.6	1	956.1	1	748.8	0.8	935.75	1	749.1	13	322844	2	322832	27	40	322871	-999999	322847	0	36	TrialsPROC	PL_017_SCENE_03.png	2	2	61	SessionSelectionList														nonlure	3	Place	2-Back	53	80	48	0	0	100	6	39	215141	1	14	73	213102	-1	213881	1	779	3	3	2039	53	215155	-54	0																61												
WM080112	138534_fnca	2	1	1	1396026682	1	75.030	75.030	2.0.10.147	2.0.10.242	2.0.10.242	1.0.0.439	7	234	2	3	Verdana	1	80	0	0	0	WM Stimuli\	0.7	1020.14285714286	1	798.8	0.8	919	1	672.6	1	956.1	1	748.8	0.8	935.75	1	749.1	13	322844	2	322832	27	40	322871	-999999	322847	0	36	TrialsPROC	PL_017_SCENE_03.png	2	2	62	SessionSelectionList														lure	3	Place	2-Back	54	80	49	0	0	100	7	39	217713	2	14	72	215674	-1	216599	1	925	3	3	2039	53	217727	-54	0																62												
WM080112	138534_fnca	2	1	1	1396026682	1	75.030	75.030	2.0.10.147	2.0.10.242	2.0.10.242	1.0.0.439	7	234	2	3	Verdana	1	80	0	0	0	WM Stimuli\	0.7	1020.14285714286	1	798.8	0.8	919	1	672.6	1	956.1	1	748.8	0.8	935.75	1	749.1	13	322844	2	322832	27	40	322871	-999999	322847	0	36	TrialsPROC	PL_016_SCENE_02.png	2	2	63	SessionSelectionList														nonlure	3	Place	2-Back	55	80	50	0	0	100	8	39	220285	2	14	72	218246	-1	219038	1	792	3	3	2039	53	220299	-54	0																63												
WM080112	138534_fnca	2	1	1	1396026682	1	75.030	75.030	2.0.10.147	2.0.10.242	2.0.10.242	1.0.0.439	7	234	2	3	Verdana	1	80	0	0	0	WM Stimuli\	0.7	1020.14285714286	1	798.8	0.8	919	1	672.6	1	956.1	1	748.8	0.8	935.75	1	749.1	13	322844	2	322832	27	40	322871	-999999	322847	0	36	TrialsPROC	PL_015_SCENE_01.png	2	2	64	SessionSelectionList														nonlure	3	Place	2-Back	56	80	51	0	0	100	9	39	222858	1	13	73	220819	-1	221500	1	681	3	3	2039	52	222871	-53	0																64												
WM080112	138534_fnca	2	1	1	1396026682	1	75.030	75.030	2.0.10.147	2.0.10.242	2.0.10.242	1.0.0.439	7	234	2	3	Verdana	1	80	0	0	0	WM Stimuli\	0.7	1020.14285714286	1	798.8	0.8	919	1	672.6	1	956.1	1	748.8	0.8	935.75	1	749.1	13	322844	2	322832	27	40	322871	-999999	322847	0	36	TrialsPROC	PL_016_SCENE_02.png	2	2	65	SessionSelectionList														target	2	Place	2-Back	57	80	52	0	0	100	1	39	225430	1	14	72	223391	-1	224190	1	799	2	2	2039	53	225444	-54	0																65												
WM080112	138534_fnca	2	1	1	1396026682	1	75.030	75.030	2.0.10.147	2.0.10.242	2.0.10.242	1.0.0.439	7	234	2	3	Verdana	1	80	0	0	0	WM Stimuli\	0.7	1020.14285714286	1	798.8	0.8	919	1	672.6	1	956.1	1	748.8	0.8	935.75	1	749.1	13	322844	2	322832	27	40	322871	-999999	322847	0	36	TrialsPROC	PL_015_SCENE_01.png	2	2	66	SessionSelectionList														target	2	Place	2-Back	58	80	53	0	0	100	2	39	228002	2	14	72	225963	-1	226869	1	906	2	2	2039	53	228016	-54	0																66												
WM080112	138534_fnca	2	1	1	1396026682	1	75.030	75.030	2.0.10.147	2.0.10.242	2.0.10.242	1.0.0.439	7	234	2	3	Verdana	1	80	0	0	0	WM Stimuli\	0.7	1020.14285714286	1	798.8	0.8	919	1	672.6	1	956.1	1	748.8	0.8	935.75	1	749.1	13	322844	2	322832	27	40	322871	-999999	322847	0	36	TrialsPROC	PL_020_SCENE_06.png	2	2	67	SessionSelectionList														nonlure	3	Place	2-Back	59	80	54	0	0	100	1	39	230601	2	14	99	228562	-1	229542	1	980	3	3	2039	53	230615	-54	0																67												
WM080112	138534_fnca	2	1	1	1396026682	1	75.030	75.030	2.0.10.147	2.0.10.242	2.0.10.242	1.0.0.439	7	234	2	3	Verdana	1	80	0	0	0	WM Stimuli\	0.7	1020.14285714286	1	798.8	0.8	919	1	672.6	1	956.1	1	748.8	0.8	935.75	1	749.1	13	322844	2	322832	27	40	322871	-999999	322847	0	36	TrialsPROC	PL_020_SCENE_06.png	2	2	68	SessionSelectionList														lure	3	Place	2-Back	60	80	55	0	0	100	2	40	233174	1	13	72	231134	-1	232327	1	1193	3	3	2040	53	233187	-54	0																68												
WM080112	138534_fnca	2	1	1	1396026682	1	75.030	75.030	2.0.10.147	2.0.10.242	2.0.10.242	1.0.0.439	7	234	2	3	Verdana	1	80	0	0	0	WM Stimuli\	0.7	1020.14285714286	1	798.8	0.8	919	1	672.6	1	956.1	1	748.8	0.8	935.75	1	749.1	13	322844	2	322832	27	40	322871	-999999	322847	0	36	TrialsPROC	PL_018_SCENE_04.png	2	2	69	SessionSelectionList														nonlure	3	Place	2-Back	61	80	56	0	0	100	3	39	235772	2	14	99	233733	-1	234659	1	926	3	3	2039	53	235786	-54	0																69												
WM080112	138534_fnca	2	1	1	1396026682	1	75.030	75.030	2.0.10.147	2.0.10.242	2.0.10.242	1.0.0.439	7	234	2	3	Verdana	1	80	0	0	0	WM Stimuli\	0.7	1020.14285714286	1	798.8	0.8	919	1	672.6	1	956.1	1	748.8	0.8	935.75	1	749.1	13	322844	2	322832	27	40	322871	-999999	322847	0	37	Fix15secPROC	""	2	2	70	SessionSelectionList																																															6	236239	-7	0							70												
WM080112	138534_fnca	2	1	1	1396026682	1	75.030	75.030	2.0.10.147	2.0.10.242	2.0.10.242	1.0.0.439	7	234	2	3	Verdana	1	80	0	0	0	WM Stimuli\	0.7	1020.14285714286	1	798.8	0.8	919	1	672.6	1	956.1	1	748.8	0.8	935.75	1	749.1	13	322844	2	322832	27	40	322871	-999999	322847	0	38	Cue0BackPROC	FC_020_F10.png	2	2	71	SessionSelectionList																																										40	251273	-41	0												71												
WM080112	138534_fnca	2	1	1	1396026682	1	75.030	75.030	2.0.10.147	2.0.10.242	2.0.10.242	1.0.0.439	7	234	2	3	Verdana	1	80	0	0	0	WM Stimuli\	0.7	1020.14285714286	1	798.8	0.8	919	1	672.6	1	956.1	1	748.8	0.8	935.75	1	749.1	13	322844	2	322832	27	40	322871	-999999	322847	0	39	TrialsPROC	FC_024_F12.png	2	2	72	SessionSelectionList														nonlure	3	Face	0-Back	62	80	57	0	0	100	4	39	255871	1	14	99	253832	-1	255047	1	1215	3	3	2039	53	255885	-54	0																72												
WM080112	138534_fnca	2	1	1	1396026682	1	75.030	75.030	2.0.10.147	2.0.10.242	2.0.10.242	1.0.0.439	7	234	2	3	Verdana	1	80	0	0	0	WM Stimuli\	0.7	1020.14285714286	1	798.8	0.8	919	1	672.6	1	956.1	1	748.8	0.8	935.75	1	749.1	13	322844	2	322832	27	40	322871	-999999	322847	0	39	TrialsPROC	FC_023_M12.png	2	2	73	SessionSelectionList														nonlure	3	Face	0-Back	63	80	58	0	0	100	5	39	258470	2	14	99	256431	-1	257079	1	648	3	3	2039	53	258484	-54	0																73												
WM080112	138534_fnca	2	1	1	1396026682	1	75.030	75.030	2.0.10.147	2.0.10.242	2.0.10.242	1.0.0.439	7	234	2	3	Verdana	1	80	0	0	0	WM Stimuli\	0.7	1020.14285714286	1	798.8	0.8	919	1	672.6	1	956.1	1	748.8	0.8	935.75	1	749.1	13	322844	2	322832	27	40	322871	-999999	322847	0	39	TrialsPROC	FC_020_F10.png	2	2	74	SessionSelectionList														target	2	Face	0-Back	64	80	59	0	0	100	1	39	261042	2	14	72	259003	-1	259622	1	619	2	2	2039	53	261056	-54	0																74												
WM080112	138534_fnca	2	1	1	1396026682	1	75.030	75.030	2.0.10.147	2.0.10.242	2.0.10.242	1.0.0.439	7	234	2	3	Verdana	1	80	0	0	0	WM Stimuli\	0.7	1020.14285714286	1	798.8	0.8	919	1	672.6	1	956.1	1	748.8	0.8	935.75	1	749.1	13	322844	2	322832	27	40	322871	-999999	322847	0	39	TrialsPROC	FC_024_F12.png	2	2	75	SessionSelectionList														lure	3	Face	0-Back	65	80	60	0	0	100	1	40	263615	1	13	72	261575	-1	262206	1	631	3	3	2040	53	263628	-54	0																75												
WM080112	138534_fnca	2	1	1	1396026682	1	75.030	75.030	2.0.10.147	2.0.10.242	2.0.10.242	1.0.0.439	7	234	2	3	Verdana	1	80	0	0	0	WM Stimuli\	0.7	1020.14285714286	1	798.8	0.8	919	1	672.6	1	956.1	1	748.8	0.8	935.75	1	749.1	13	322844	2	322832	27	40	322871	-999999	322847	0	39	TrialsPROC	FC_020_F10.png	2	2	76	SessionSelectionList														target	2	Face	0-Back	66	80	61	0	0	100	1	39	266187	1	14	73	264148	-1	264720	1	572	2	2	2039	53	266201	-54	0																76												
WM080112	138534_fnca	2	1	1	1396026682	1	75.030	75.030	2.0.10.147	2.0.10.242	2.0.10.242	1.0.0.439	7	234	2	3	Verdana	1	80	0	0	0	WM Stimuli\	0.7	1020.14285714286	1	798.8	0.8	919	1	672.6	1	956.1	1	748.8	0.8	935.75	1	749.1	13	322844	2	322832	27	40	322871	-999999	322847	0	39	TrialsPROC	FC_022_F11.png	2	2	77	SessionSelectionList														nonlure	3	Face	0-Back	67	80	62	0	0	100	1	39	268786	1	13	99	266747	-1	267289	1	542	3	3	2039	52	268799	-53	0																77												
WM080112	138534_fnca	2	1	1	1396026682	1	75.030	75.030	2.0.10.147	2.0.10.242	2.0.10.242	1.0.0.439	7	234	2	3	Verdana	1	80	0	0	0	WM Stimuli\	0.7	1020.14285714286	1	798.8	0.8	919	1	672.6	1	956.1	1	748.8	0.8	935.75	1	749.1	13	322844	2	322832	27	40	322871	-999999	322847	0	39	TrialsPROC	FC_023_M12.png	2	2	78	SessionSelectionList														lure	3	Face	0-Back	68	80	63	0	0	100	2	39	271358	1	14	72	269319	-1	270006	1	687	3	3	2039	53	271372	-54	0																78												
WM080112	138534_fnca	2	1	1	1396026682	1	75.030	75.030	2.0.10.147	2.0.10.242	2.0.10.242	1.0.0.439	7	234	2	3	Verdana	1	80	0	0	0	WM Stimuli\	0.7	1020.14285714286	1	798.8	0.8	919	1	672.6	1	956.1	1	748.8	0.8	935.75	1	749.1	13	322844	2	322832	27	40	322871	-999999	322847	0	39	TrialsPROC	FC_021_M11.png	2	2	79	SessionSelectionList														nonlure	3	Face	0-Back	69	80	64	0	0	100	3	40	273944	1	13	85	271904	-1	272427	1	523	3	3	2040	53	273957	-54	0																79												
WM080112	138534_fnca	2	1	1	1396026682	1	75.030	75.030	2.0.10.147	2.0.10.242	2.0.10.242	1.0.0.439	7	234	2	3	Verdana	1	80	0	0	0	WM Stimuli\	0.7	1020.14285714286	1	798.8	0.8	919	1	672.6	1	956.1	1	748.8	0.8	935.75	1	749.1	13	322844	2	322832	27	40	322871	-999999	322847	0	39	TrialsPROC	FC_021_M11.png	2	2	80	SessionSelectionList														lure	3	Face	0-Back	70	80	65	0	0	100	4	39	276516	1	14	73	274477	-1	274927	1	450	3	3	2039	53	276530	-54	0																80												
WM080112	138534_fnca	2	1	1	1396026682	1	75.030	75.030	2.0.10.147	2.0.10.242	2.0.10.242	1.0.0.439	7	234	2	3	Verdana	1	80	0	0	0	WM Stimuli\	0.7	1020.14285714286	1	798.8	0.8	919	1	672.6	1	956.1	1	748.8	0.8	935.75	1	749.1	13	322844	2	322832	27	40	322871	-999999	322847	0	39	TrialsPROC	FC_019_M10.png	2	2	81	SessionSelectionList														nonlure	3	Face	0-Back	71	80	66	0	0	100	5	40	279102	1	13	85	277062	-1	277901	1	839	3	3	2040	53	279115	-54	0																81												
WM080112	138534_fnca	2	1	1	1396026682	1	75.030	75.030	2.0.10.147	2.0.10.242	2.0.10.242	1.0.0.439	7	234	2	3	Verdana	1	80	0	0	0	WM Stimuli\	0.7	1020.14285714286	1	798.8	0.8	919	1	672.6	1	956.1	1	748.8	0.8	935.75	1	749.1	13	322844	2	322832	27	40	322871	-999999	322847	0	40	Cue0BackPROC	PL_021_SCENE_07.png	2	2	82	SessionSelectionList																																										46	279608	-47	0												82												
WM080112	138534_fnca	2	1	1	1396026682	1	75.030	75.030	2.0.10.147	2.0.10.242	2.0.10.242	1.0.0.439	7	234	2	3	Verdana	1	80	0	0	0	WM Stimuli\	0.7	1020.14285714286	1	798.8	0.8	919	1	672.6	1	956.1	1	748.8	0.8	935.75	1	749.1	13	322844	2	322832	27	40	322871	-999999	322847	0	41	TrialsPROC	PL_025_SCENE_18.png	2	2	83	SessionSelectionList														nonlure	3	Place	0-Back	72	80	67	0	0	100	6	39	284179	2	14	78	282140	-1	283351	1	1211	3	3	2039	53	284193	-54	0																83												
WM080112	138534_fnca	2	1	1	1396026682	1	75.030	75.030	2.0.10.147	2.0.10.242	2.0.10.242	1.0.0.439	7	234	2	3	Verdana	1	80	0	0	0	WM Stimuli\	0.7	1020.14285714286	1	798.8	0.8	919	1	672.6	1	956.1	1	748.8	0.8	935.75	1	749.1	13	322844	2	322832	27	40	322871	-999999	322847	0	41	TrialsPROC	PL_026_SCENE_24.png	2	2	84	SessionSelectionList														nonlure	3	Place	0-Back	73	80	68	0	0	100	7	39	286752	1	13	73	284713	-1	285294	1	581	3	3	2039	52	286765	-53	0																84												
WM080112	138534_fnca	2	1	1	1396026682	1	75.030	75.030	2.0.10.147	2.0.10.242	2.0.10.242	1.0.0.439	7	234	2	3	Verdana	1	80	0	0	0	WM Stimuli\	0.7	1020.14285714286	1	798.8	0.8	919	1	672.6	1	956.1	1	748.8	0.8	935.75	1	749.1	13	322844	2	322832	27	40	322871	-999999	322847	0	41	TrialsPROC	PL_025_SCENE_18.png	2	2	85	SessionSelectionList														lure	3	Place	0-Back	74	80	69	0	0	100	8	39	289324	1	14	72	287285	-1	288457	1	1172	3	3	2039	53	289338	-54	0																85												
WM080112	138534_fnca	2	1	1	1396026682	1	75.030	75.030	2.0.10.147	2.0.10.242	2.0.10.242	1.0.0.439	7	234	2	3	Verdana	1	80	0	0	0	WM Stimuli\	0.7	1020.14285714286	1	798.8	0.8	919	1	672.6	1	956.1	1	748.8	0.8	935.75	1	749.1	13	322844	2	322832	27	40	322871	-999999	322847	0	41	TrialsPROC	PL_022_SCENE_08.png	2	2	86	SessionSelectionList														nonlure	3	Place	0-Back	75	80	70	0	0	100	9	39	291896	2	14	72	289857	-1	290631	1	774	3	3	2039	53	291910	-54	0																86												
WM080112	138534_fnca	2	1	1	1396026682	1	75.030	75.030	2.0.10.147	2.0.10.242	2.0.10.242	1.0.0.439	7	234	2	3	Verdana	1	80	0	0	0	WM Stimuli\	0.7	1020.14285714286	1	798.8	0.8	919	1	672.6	1	956.1	1	748.8	0.8	935.75	1	749.1	13	322844	2	322832	27	40	322871	-999999	322847	0	41	TrialsPROC	PL_026_SCENE_24.png	2	2	87	SessionSelectionList														lure	3	Place	0-Back	76	80	71	0	0	100	10	39	294469	1	13	73	292430	-1	293100	1	670	3	3	2039	52	294482	-53	0																87												
WM080112	138534_fnca	2	1	1	1396026682	1	75.030	75.030	2.0.10.147	2.0.10.242	2.0.10.242	1.0.0.439	7	234	2	3	Verdana	1	80	0	0	0	WM Stimuli\	0.7	1020.14285714286	1	798.8	0.8	919	1	672.6	1	956.1	1	748.8	0.8	935.75	1	749.1	13	322844	2	322832	27	40	322871	-999999	322847	0	41	TrialsPROC	PL_021_SCENE_07.png	2	2	88	SessionSelectionList														target	2	Place	0-Back	77	80	72	0	0	100	1	39	297041	1	14	72	295002	-1	295595	1	593	2	2	2039	53	297055	-54	0																88												
WM080112	138534_fnca	2	1	1	1396026682	1	75.030	75.030	2.0.10.147	2.0.10.242	2.0.10.242	1.0.0.439	7	234	2	3	Verdana	1	80	0	0	0	WM Stimuli\	0.7	1020.14285714286	1	798.8	0.8	919	1	672.6	1	956.1	1	748.8	0.8	935.75	1	749.1	13	322844	2	322832	27	40	322871	-999999	322847	0	41	TrialsPROC	PL_021_SCENE_07.png	2	2	89	SessionSelectionList														target	2	Place	0-Back	78	80	73	0	0	100	2	39	299613	2	14	72	297574	-1	298181	1	607	2	2	2039	53	299627	-54	0																89												
WM080112	138534_fnca	2	1	1	1396026682	1	75.030	75.030	2.0.10.147	2.0.10.242	2.0.10.242	1.0.0.439	7	234	2	3	Verdana	1	80	0	0	0	WM Stimuli\	0.7	1020.14285714286	1	798.8	0.8	919	1	672.6	1	956.1	1	748.8	0.8	935.75	1	749.1	13	322844	2	322832	27	40	322871	-999999	322847	0	41	TrialsPROC	PL_023_SCENE_09.png	2	2	90	SessionSelectionList														nonlure	3	Place	0-Back	79	80	74	0	0	100	1	39	302212	2	14	99	300173	-1	300747	1	574	3	3	2039	53	302226	-54	0																90												
WM080112	138534_fnca	2	1	1	1396026682	1	75.030	75.030	2.0.10.147	2.0.10.242	2.0.10.242	1.0.0.439	7	234	2	3	Verdana	1	80	0	0	0	WM Stimuli\	0.7	1020.14285714286	1	798.8	0.8	919	1	672.6	1	956.1	1	748.8	0.8	935.75	1	749.1	13	322844	2	322832	27	40	322871	-999999	322847	0	41	TrialsPROC	PL_024_SCENE_10.png	2	2	91	SessionSelectionList														nonlure	3	Place	0-Back	80	80	75	0	0	100	2	39	304798	1	14	86	302759	-1	303306	1	547	3	3	2039	53	304812	-54	0																91												
WM080112	138534_fnca	2	1	1	1396026682	1	75.030	75.030	2.0.10.147	2.0.10.242	2.0.10.242	1.0.0.439	7	234	2	3	Verdana	1	80	0	0	0	WM Stimuli\	0.7	1020.14285714286	1	798.8	0.8	919	1	672.6	1	956.1	1	748.8	0.8	935.75	1	749.1	13	322844	2	322832	27	40	322871	-999999	322847	0	41	TrialsPROC	PL_022_SCENE_08.png	2	2	92	SessionSelectionList														lure	3	Place	0-Back	80	80	76	0	0	100	3	39	307370	1	14	72	305331	-1	306090	1	759	3	3	2039	53	307384	-54	0																92												
WM080112	138534_fnca	2	1	1	1396026682	1	75.030	75.030	2.0.10.147	2.0.10.242	2.0.10.242	1.0.0.439	7	234	2	3	Verdana	1	80	0	0	0	WM Stimuli\	0.7	1020.14285714286	1	798.8	0.8	919	1	672.6	1	956.1	1	748.8	0.8	935.75	1	749.1	13	322844	2	322832	27	40	322871	-999999	322847	0	42	Fix15secPROC	""	2	2	93	SessionSelectionList																																															6	307837	-7	0							93												
