ExperimentName	HCPID	RunNumber	Subject	Session	RandomSeed	Group	Laptop.RefreshRate	ScannerD2.RefreshRate	StudioVersion	RuntimeVersion	RuntimeVersionExpected	ExperimentVersion	triggercode	Allowed	Target	Nontarget	FontStyle	RunTrialNumber[Session]	TrialsPerRun[Session]	TotalRespGreater200[Session]	ConsecRTLess200[Session]	ConsecNonResp[Session]	StimuliDir	ACC_2_Back_Body	Avg_RT_For_Correct_Trials_2_Back_Body	ACC_0_Back_Body	Avg_RT_For_Correct_Trials_0_Back_Body	ACC_2_Back_Face	Avg_RT_For_Correct_Trials_2_Back_Face	ACC_0_Back_Face	Avg_RT_For_Correct_Trials_0_Back_Face	ACC_2_Back_Place	Avg_RT_For_Correct_Trials_2_Back_Place	ACC_0_Back_Place	Avg_RT_For_Correct_Trials_0_Back_Place	ACC_2_Back_Tools	Avg_RT_For_Correct_Trials_2_Back_Tools	ACC_0_Back_Tools	Avg_RT_For_Correct_Trials_0_Back_Tools	ExpInstrucFeelFreeToRest.OnsetDelay	ExpInstrucFeelFreeToRest.OnsetTime	ExpInstrucFeelFreeToRest.DurationError	ExpInstrucFeelFreeToRest.StartTime	ExpInstrucFeelFreeToRest.OnsetToOnsetTime	FeelFreeToRest.OnsetDelay	FeelFreeToRest.OnsetTime	FeelFreeToRest.DurationError	FeelFreeToRest.StartTime	FeelFreeToRest.OnsetToOnsetTime	SessionSelectionList	Procedure[Block]	Stimulus[Block]	RunNumberFilterValue	SessionSelectionList.Cycle	SessionSelectionList.Sample	Running[Block]	IntroButtonMap.OnsetDelay	IntroButtonMap.OnsetTime	IntroButtonMap.DurationError	IntroButtonMap.OnsetToOnsetTime	GetReady.OnsetDelay	GetReady.OnsetTime	GetReady.DurationError	GetReady.OnsetToOnsetTime	Cue2Back.OnsetDelay	Cue2Back.OnsetTime	Cue2Back.DurationError	Cue2Back.OnsetToOnsetTime	Run1Block1	TargetType	CorrectResponse	StimType	BlockType	RunTrialNumber[Block]	TrialsPerRun[Block]	TotalRespGreater200[Block]	ConsecRTLess200[Block]	ConsecNonResp[Block]	ControlAcc	ConsecSameResp	ExperimenterWindow.OnsetDelay	ExperimenterWindow.OnsetTime	ExperimenterWindow.DurationError	ExperimenterWindow.OnsetToOnsetTime	Stim.OnsetDelay	Stim.OnsetTime	Stim.DurationError	Stim.RTTime	Stim.ACC	Stim.RT	Stim.RESP	Stim.CRESP	Stim.OnsetToOnsetTime	Fix.OnsetDelay	Fix.OnsetTime	Fix.DurationError	Fix.OnsetToOnsetTime	CueTarget.OnsetDelay	CueTarget.OnsetTime	CueTarget.DurationError	CueTarget.OnsetToOnsetTime	Run1Block2	Fix15sec.OnsetDelay	Fix15sec.OnsetTime	Fix15sec.DurationError	Fix15sec.OnsetToOnsetTime	Run1Block3	Run1Block4	Run1Block5	Run1Block6	Run1Block7	Run1Block8	Block	Procedure[Trial]	Stimulus[Trial]	ReadyList	Running[Trial]	ReadyList.Cycle	ReadyList.Sample	SyncSlide.OnsetDelay	SyncSlide.OnsetTime	SyncSlide.DurationError	SyncSlide.FinishTime	SyncSlide.OnsetToOnsetTime	Trial
WM080112	161731_fnca	1	1	1	-1074230405	1	75.031	75.031	2.0.10.147	2.0.10.242	2.0.10.242	1.0.0.439	7	234	2	3	Verdana	1	80	0	0	0	WM Stimuli\	0.7	1217.71428571429	1	948.3	1	977	1	869.1	1	1057.2	1	951.5	0.9	1134.44444444444	0.9	900.111111111111	13	413913	2	413901	26	39	413939	-999999	413916	0	1	TRSyncPROC	""	1	2	1	SessionSelectionList	98	21219	-999999	0	30	107118	-999999	0																																																	1	InitialTR	4	1	ReadyList	1	1	19	120645	-20	122625	0	1
WM080112	161731_fnca	1	1	1	-1074230405	1	75.031	75.031	2.0.10.147	2.0.10.242	2.0.10.242	1.0.0.439	7	234	2	3	Verdana	1	80	0	0	0	WM Stimuli\	0.7	1217.71428571429	1	948.3	1	977	1	869.1	1	1057.2	1	951.5	0.9	1134.44444444444	0.9	900.111111111111	13	413913	2	413901	26	39	413939	-999999	413916	0	1	TRSyncPROC	""	1	2	1	SessionSelectionList	98	21219	-999999	0	30	107118	-999999	0																																																	1	InitialTR	3	2	ReadyList	1	2	19	122645	-20	124625	0	2
WM080112	161731_fnca	1	1	1	-1074230405	1	75.031	75.031	2.0.10.147	2.0.10.242	2.0.10.242	1.0.0.439	7	234	2	3	Verdana	1	80	0	0	0	WM Stimuli\	0.7	1217.71428571429	1	948.3	1	977	1	869.1	1	1057.2	1	951.5	0.9	1134.44444444444	0.9	900.111111111111	13	413913	2	413901	26	39	413939	-999999	413916	0	1	TRSyncPROC	""	1	2	1	SessionSelectionList	98	21219	-999999	0	30	107118	-999999	0																																																	1	InitialTR	2	3	ReadyList	1	3	4	124630	-5	126625	0	3
WM080112	161731_fnca	1	1	1	-1074230405	1	75.031	75.031	2.0.10.147	2.0.10.242	2.0.10.242	1.0.0.439	7	234	2	3	Verdana	1	80	0	0	0	WM Stimuli\	0.7	1217.71428571429	1	948.3	1	977	1	869.1	1	1057.2	1	951.5	0.9	1134.44444444444	0.9	900.111111111111	13	413913	2	413901	26	39	413939	-999999	413916	0	1	TRSyncPROC	""	1	2	1	SessionSelectionList	98	21219	-999999	0	30	107118	-999999	0																																																	1	InitialTR	1	4	ReadyList	1	4	4	126630	-5	128625	0	4
WM080112	161731_fnca	1	1	1	-1074230405	1	75.031	75.031	2.0.10.147	2.0.10.242	2.0.10.242	1.0.0.439	7	234	2	3	Verdana	1	80	0	0	0	WM Stimuli\	0.7	1217.71428571429	1	948.3	1	977	1	869.1	1	1057.2	1	951.5	0.9	1134.44444444444	0.9	900.111111111111	13	413913	2	413901	26	39	413939	-999999	413916	0	2	Cue2BackPROC	""	1	2	2	SessionSelectionList									16	128642	-17	0																																													2												
WM080112	161731_fnca	1	1	1	-1074230405	1	75.031	75.031	2.0.10.147	2.0.10.242	2.0.10.242	1.0.0.439	7	234	2	3	Verdana	1	80	0	0	0	WM Stimuli\	0.7	1217.71428571429	1	948.3	1	977	1	869.1	1	1057.2	1	951.5	0.9	1134.44444444444	0.9	900.111111111111	13	413913	2	413901	26	39	413939	-999999	413916	0	3	TrialsPROC	BP_002_BP10_BA.png	1	2	3	SessionSelectionList													1	nonlure	3	Body	2-Back	2	80	1	0	0	0	1	53	133254	3	13	75	131201	-1	132962	1	1761	3	3	2053	66	133267	-67	0																3												
WM080112	161731_fnca	1	1	1	-1074230405	1	75.031	75.031	2.0.10.147	2.0.10.242	2.0.10.242	1.0.0.439	7	234	2	3	Verdana	1	80	0	0	0	WM Stimuli\	0.7	1217.71428571429	1	948.3	1	977	1	869.1	1	1057.2	1	951.5	0.9	1134.44444444444	0.9	900.111111111111	13	413913	2	413901	26	39	413939	-999999	413916	0	3	TrialsPROC	BP_001_BP1_BA.png	1	2	4	SessionSelectionList													2	nonlure	3	Body	2-Back	3	80	2	0	0	0	2	40	135813	2	13	72	133773	-1	134565	1	792	3	3	2040	53	135826	-54	0																4												
WM080112	161731_fnca	1	1	1	-1074230405	1	75.031	75.031	2.0.10.147	2.0.10.242	2.0.10.242	1.0.0.439	7	234	2	3	Verdana	1	80	0	0	0	WM Stimuli\	0.7	1217.71428571429	1	948.3	1	977	1	869.1	1	1057.2	1	951.5	0.9	1134.44444444444	0.9	900.111111111111	13	413913	2	413901	26	39	413939	-999999	413916	0	3	TrialsPROC	BP_006_BP2_BA.png	1	2	5	SessionSelectionList													3	nonlure	3	Body	2-Back	4	80	2	0	1	0	2	40	138372	1	13	59	136332	-1	0	0	0	""	3	2040	53	138385	-54	0																5												
WM080112	161731_fnca	1	1	1	-1074230405	1	75.031	75.031	2.0.10.147	2.0.10.242	2.0.10.242	1.0.0.439	7	234	2	3	Verdana	1	80	0	0	0	WM Stimuli\	0.7	1217.71428571429	1	948.3	1	977	1	869.1	1	1057.2	1	951.5	0.9	1134.44444444444	0.9	900.111111111111	13	413913	2	413901	26	39	413939	-999999	413916	0	3	TrialsPROC	BP_001_BP1_BA.png	1	2	6	SessionSelectionList													4	target	2	Body	2-Back	5	80	3	0	0	0	1	39	140944	1	13	73	138905	-1	139773	1	868	2	2	2039	52	140957	-53	0																6												
WM080112	161731_fnca	1	1	1	-1074230405	1	75.031	75.031	2.0.10.147	2.0.10.242	2.0.10.242	1.0.0.439	7	234	2	3	Verdana	1	80	0	0	0	WM Stimuli\	0.7	1217.71428571429	1	948.3	1	977	1	869.1	1	1057.2	1	951.5	0.9	1134.44444444444	0.9	900.111111111111	13	413913	2	413901	26	39	413939	-999999	413916	0	3	TrialsPROC	BP_005_BP19_BA.png	1	2	7	SessionSelectionList													5	nonlure	3	Body	2-Back	6	80	4	0	0	0	1	39	143516	2	14	72	141477	-1	142553	1	1076	3	3	2039	53	143530	-54	0																7												
WM080112	161731_fnca	1	1	1	-1074230405	1	75.031	75.031	2.0.10.147	2.0.10.242	2.0.10.242	1.0.0.439	7	234	2	3	Verdana	1	80	0	0	0	WM Stimuli\	0.7	1217.71428571429	1	948.3	1	977	1	869.1	1	1057.2	1	951.5	0.9	1134.44444444444	0.9	900.111111111111	13	413913	2	413901	26	39	413939	-999999	413916	0	3	TrialsPROC	BP_003_BP16_BA.png	1	2	8	SessionSelectionList													6	nonlure	3	Body	2-Back	7	80	5	0	0	0	2	39	146075	1	14	59	144036	-1	145138	1	1102	3	3	2039	53	146089	-54	0																8												
WM080112	161731_fnca	1	1	1	-1074230405	1	75.031	75.031	2.0.10.147	2.0.10.242	2.0.10.242	1.0.0.439	7	234	2	3	Verdana	1	80	0	0	0	WM Stimuli\	0.7	1217.71428571429	1	948.3	1	977	1	869.1	1	1057.2	1	951.5	0.9	1134.44444444444	0.9	900.111111111111	13	413913	2	413901	26	39	413939	-999999	413916	0	3	TrialsPROC	BP_006_BP2_BA.png	1	2	9	SessionSelectionList													7	lure	3	Body	2-Back	8	80	6	0	0	0	3	39	148634	1	13	59	146595	-1	147967	1	1372	3	3	2039	52	148647	-53	0																9												
WM080112	161731_fnca	1	1	1	-1074230405	1	75.031	75.031	2.0.10.147	2.0.10.242	2.0.10.242	1.0.0.439	7	234	2	3	Verdana	1	80	0	0	0	WM Stimuli\	0.7	1217.71428571429	1	948.3	1	977	1	869.1	1	1057.2	1	951.5	0.9	1134.44444444444	0.9	900.111111111111	13	413913	2	413901	26	39	413939	-999999	413916	0	3	TrialsPROC	BP_004_BP18_BA.png	1	2	10	SessionSelectionList													8	nonlure	3	Body	2-Back	9	80	7	0	0	0	4	39	151193	1	13	59	149154	-1	150707	1	1553	3	3	2039	52	151206	-53	0																10												
WM080112	161731_fnca	1	1	1	-1074230405	1	75.031	75.031	2.0.10.147	2.0.10.242	2.0.10.242	1.0.0.439	7	234	2	3	Verdana	1	80	0	0	0	WM Stimuli\	0.7	1217.71428571429	1	948.3	1	977	1	869.1	1	1057.2	1	951.5	0.9	1134.44444444444	0.9	900.111111111111	13	413913	2	413901	26	39	413939	-999999	413916	0	3	TrialsPROC	BP_005_BP19_BA.png	1	2	11	SessionSelectionList													9	lure	3	Body	2-Back	10	80	7	0	1	0	4	39	153752	1	13	59	151713	-1	0	0	0	""	3	2039	52	153765	-53	0																11												
WM080112	161731_fnca	1	1	1	-1074230405	1	75.031	75.031	2.0.10.147	2.0.10.242	2.0.10.242	1.0.0.439	7	234	2	3	Verdana	1	80	0	0	0	WM Stimuli\	0.7	1217.71428571429	1	948.3	1	977	1	869.1	1	1057.2	1	951.5	0.9	1134.44444444444	0.9	900.111111111111	13	413913	2	413901	26	39	413939	-999999	413916	0	3	TrialsPROC	BP_004_BP18_BA.png	1	2	12	SessionSelectionList													10	target	2	Body	2-Back	11	80	7	1	0	0	1	39	156311	1	13	59	154272	-1	154330	0	58	3	2	2039	52	156324	-53	0																12												
WM080112	161731_fnca	1	1	1	-1074230405	1	75.031	75.031	2.0.10.147	2.0.10.242	2.0.10.242	1.0.0.439	7	234	2	3	Verdana	1	80	0	0	0	WM Stimuli\	0.7	1217.71428571429	1	948.3	1	977	1	869.1	1	1057.2	1	951.5	0.9	1134.44444444444	0.9	900.111111111111	13	413913	2	413901	26	39	413939	-999999	413916	0	4	Cue0BackPROC	FC_001_M1.png	1	2	13	SessionSelectionList																																										19	156791	-20	0												13												
WM080112	161731_fnca	1	1	1	-1074230405	1	75.031	75.031	2.0.10.147	2.0.10.242	2.0.10.242	1.0.0.439	7	234	2	3	Verdana	1	80	0	0	0	WM Stimuli\	0.7	1217.71428571429	1	948.3	1	977	1	869.1	1	1057.2	1	951.5	0.9	1134.44444444444	0.9	900.111111111111	13	413913	2	413901	26	39	413939	-999999	413916	0	5	TrialsPROC	FC_005_M3.png	1	2	14	SessionSelectionList														nonlure	3	Face	0-Back	12	80	8	0	0	100	2	40	161376	1	13	64	159336	-1	160180	1	844	3	3	2040	53	161389	-54	0					1											14												
WM080112	161731_fnca	1	1	1	-1074230405	1	75.031	75.031	2.0.10.147	2.0.10.242	2.0.10.242	1.0.0.439	7	234	2	3	Verdana	1	80	0	0	0	WM Stimuli\	0.7	1217.71428571429	1	948.3	1	977	1	869.1	1	1057.2	1	951.5	0.9	1134.44444444444	0.9	900.111111111111	13	413913	2	413901	26	39	413939	-999999	413916	0	5	TrialsPROC	FC_001_M1.png	1	2	15	SessionSelectionList														target	2	Face	0-Back	13	80	9	0	0	100	1	39	163948	1	13	73	161909	-1	162678	1	769	2	2	2039	52	163961	-53	0					2											15												
WM080112	161731_fnca	1	1	1	-1074230405	1	75.031	75.031	2.0.10.147	2.0.10.242	2.0.10.242	1.0.0.439	7	234	2	3	Verdana	1	80	0	0	0	WM Stimuli\	0.7	1217.71428571429	1	948.3	1	977	1	869.1	1	1057.2	1	951.5	0.9	1134.44444444444	0.9	900.111111111111	13	413913	2	413901	26	39	413939	-999999	413916	0	5	TrialsPROC	FC_003_M2.png	1	2	16	SessionSelectionList														nonlure	3	Face	0-Back	14	80	10	0	0	100	1	39	166520	1	14	72	164481	-1	165344	1	863	3	3	2039	53	166534	-54	0					3											16												
WM080112	161731_fnca	1	1	1	-1074230405	1	75.031	75.031	2.0.10.147	2.0.10.242	2.0.10.242	1.0.0.439	7	234	2	3	Verdana	1	80	0	0	0	WM Stimuli\	0.7	1217.71428571429	1	948.3	1	977	1	869.1	1	1057.2	1	951.5	0.9	1134.44444444444	0.9	900.111111111111	13	413913	2	413901	26	39	413939	-999999	413916	0	5	TrialsPROC	FC_004_F2.png	1	2	17	SessionSelectionList														nonlure	3	Face	0-Back	15	80	11	0	0	100	2	39	169092	2	14	72	167053	-1	167814	1	761	3	3	2039	53	169106	-54	0					4											17												
WM080112	161731_fnca	1	1	1	-1074230405	1	75.031	75.031	2.0.10.147	2.0.10.242	2.0.10.242	1.0.0.439	7	234	2	3	Verdana	1	80	0	0	0	WM Stimuli\	0.7	1217.71428571429	1	948.3	1	977	1	869.1	1	1057.2	1	951.5	0.9	1134.44444444444	0.9	900.111111111111	13	413913	2	413901	26	39	413939	-999999	413916	0	5	TrialsPROC	FC_004_F2.png	1	2	18	SessionSelectionList														lure	3	Face	0-Back	16	80	12	0	0	100	3	40	171665	1	13	72	169625	-1	170754	1	1129	3	3	2040	53	171678	-54	0					5											18												
WM080112	161731_fnca	1	1	1	-1074230405	1	75.031	75.031	2.0.10.147	2.0.10.242	2.0.10.242	1.0.0.439	7	234	2	3	Verdana	1	80	0	0	0	WM Stimuli\	0.7	1217.71428571429	1	948.3	1	977	1	869.1	1	1057.2	1	951.5	0.9	1134.44444444444	0.9	900.111111111111	13	413913	2	413901	26	39	413939	-999999	413916	0	5	TrialsPROC	FC_001_M1.png	1	2	19	SessionSelectionList														target	2	Face	0-Back	17	80	13	0	0	100	1	39	174237	1	13	73	172198	-1	172748	1	550	2	2	2039	52	174250	-53	0					6											19												
WM080112	161731_fnca	1	1	1	-1074230405	1	75.031	75.031	2.0.10.147	2.0.10.242	2.0.10.242	1.0.0.439	7	234	2	3	Verdana	1	80	0	0	0	WM Stimuli\	0.7	1217.71428571429	1	948.3	1	977	1	869.1	1	1057.2	1	951.5	0.9	1134.44444444444	0.9	900.111111111111	13	413913	2	413901	26	39	413939	-999999	413916	0	5	TrialsPROC	FC_006_F3.png	1	2	20	SessionSelectionList														nonlure	3	Face	0-Back	18	80	14	0	0	100	1	39	176809	2	14	72	174770	-1	175458	1	688	3	3	2039	53	176823	-54	0					7											20												
WM080112	161731_fnca	1	1	1	-1074230405	1	75.031	75.031	2.0.10.147	2.0.10.242	2.0.10.242	1.0.0.439	7	234	2	3	Verdana	1	80	0	0	0	WM Stimuli\	0.7	1217.71428571429	1	948.3	1	977	1	869.1	1	1057.2	1	951.5	0.9	1134.44444444444	0.9	900.111111111111	13	413913	2	413901	26	39	413939	-999999	413916	0	5	TrialsPROC	FC_006_F3.png	1	2	21	SessionSelectionList														lure	3	Face	0-Back	19	80	15	0	0	100	2	39	179381	3	14	72	177342	-1	178159	1	817	3	3	2039	53	179395	-54	0					8											21												
WM080112	161731_fnca	1	1	1	-1074230405	1	75.031	75.031	2.0.10.147	2.0.10.242	2.0.10.242	1.0.0.439	7	234	2	3	Verdana	1	80	0	0	0	WM Stimuli\	0.7	1217.71428571429	1	948.3	1	977	1	869.1	1	1057.2	1	951.5	0.9	1134.44444444444	0.9	900.111111111111	13	413913	2	413901	26	39	413939	-999999	413916	0	5	TrialsPROC	FC_003_M2.png	1	2	22	SessionSelectionList														lure	3	Face	0-Back	20	80	16	0	0	100	3	39	181954	1	13	73	179915	-1	181237	1	1322	3	3	2039	52	181967	-53	0					9											22												
WM080112	161731_fnca	1	1	1	-1074230405	1	75.031	75.031	2.0.10.147	2.0.10.242	2.0.10.242	1.0.0.439	7	234	2	3	Verdana	1	80	0	0	0	WM Stimuli\	0.7	1217.71428571429	1	948.3	1	977	1	869.1	1	1057.2	1	951.5	0.9	1134.44444444444	0.9	900.111111111111	13	413913	2	413901	26	39	413939	-999999	413916	0	5	TrialsPROC	FC_002_F1.png	1	2	23	SessionSelectionList														nonlure	3	Face	0-Back	21	80	17	0	0	100	4	39	184526	1	14	72	182487	-1	183435	1	948	3	3	2039	53	184540	-54	0					10											23												
WM080112	161731_fnca	1	1	1	-1074230405	1	75.031	75.031	2.0.10.147	2.0.10.242	2.0.10.242	1.0.0.439	7	234	2	3	Verdana	1	80	0	0	0	WM Stimuli\	0.7	1217.71428571429	1	948.3	1	977	1	869.1	1	1057.2	1	951.5	0.9	1134.44444444444	0.9	900.111111111111	13	413913	2	413901	26	39	413939	-999999	413916	0	6	Fix15secPROC	""	1	2	24	SessionSelectionList																																															6	184993	-7	0							24												
WM080112	161731_fnca	1	1	1	-1074230405	1	75.031	75.031	2.0.10.147	2.0.10.242	2.0.10.242	1.0.0.439	7	234	2	3	Verdana	1	80	0	0	0	WM Stimuli\	0.7	1217.71428571429	1	948.3	1	977	1	869.1	1	1057.2	1	951.5	0.9	1134.44444444444	0.9	900.111111111111	13	413913	2	413901	26	39	413939	-999999	413916	0	7	Cue2BackPROC	""	1	2	25	SessionSelectionList									13	200000	-14	0																																													25												
WM080112	161731_fnca	1	1	1	-1074230405	1	75.031	75.031	2.0.10.147	2.0.10.242	2.0.10.242	1.0.0.439	7	234	2	3	Verdana	1	80	0	0	0	WM Stimuli\	0.7	1217.71428571429	1	948.3	1	977	1	869.1	1	1057.2	1	951.5	0.9	1134.44444444444	0.9	900.111111111111	13	413913	2	413901	26	39	413939	-999999	413916	0	8	TrialsPROC	TO_001_TOOL1_BA.png	1	2	26	SessionSelectionList														nonlure	3	Tools	2-Back	22	80	18	0	0	100	5	40	204585	1	13	58	202545	-1	204291	1	1746	3	3	2040	53	204598	-54	0										1						26												
WM080112	161731_fnca	1	1	1	-1074230405	1	75.031	75.031	2.0.10.147	2.0.10.242	2.0.10.242	1.0.0.439	7	234	2	3	Verdana	1	80	0	0	0	WM Stimuli\	0.7	1217.71428571429	1	948.3	1	977	1	869.1	1	1057.2	1	951.5	0.9	1134.44444444444	0.9	900.111111111111	13	413913	2	413901	26	39	413939	-999999	413916	0	8	TrialsPROC	TO_002_TOOL2_BA.png	1	2	27	SessionSelectionList														nonlure	3	Tools	2-Back	23	80	19	0	0	100	6	39	207143	2	14	59	205104	-1	206273	1	1169	3	3	2039	53	207157	-54	0										2						27												
WM080112	161731_fnca	1	1	1	-1074230405	1	75.031	75.031	2.0.10.147	2.0.10.242	2.0.10.242	1.0.0.439	7	234	2	3	Verdana	1	80	0	0	0	WM Stimuli\	0.7	1217.71428571429	1	948.3	1	977	1	869.1	1	1057.2	1	951.5	0.9	1134.44444444444	0.9	900.111111111111	13	413913	2	413901	26	39	413939	-999999	413916	0	8	TrialsPROC	TO_004_TOOL4_BA.png	1	2	28	SessionSelectionList														nonlure	3	Tools	2-Back	24	80	20	0	0	100	7	39	209702	2	14	59	207663	-1	208895	1	1232	3	3	2039	53	209716	-54	0										3						28												
WM080112	161731_fnca	1	1	1	-1074230405	1	75.031	75.031	2.0.10.147	2.0.10.242	2.0.10.242	1.0.0.439	7	234	2	3	Verdana	1	80	0	0	0	WM Stimuli\	0.7	1217.71428571429	1	948.3	1	977	1	869.1	1	1057.2	1	951.5	0.9	1134.44444444444	0.9	900.111111111111	13	413913	2	413901	26	39	413939	-999999	413916	0	8	TrialsPROC	TO_002_TOOL2_BA.png	1	2	29	SessionSelectionList														target	2	Tools	2-Back	25	80	21	0	0	100	1	39	212261	2	14	59	210222	-1	211030	1	808	2	2	2039	53	212275	-54	0										4						29												
WM080112	161731_fnca	1	1	1	-1074230405	1	75.031	75.031	2.0.10.147	2.0.10.242	2.0.10.242	1.0.0.439	7	234	2	3	Verdana	1	80	0	0	0	WM Stimuli\	0.7	1217.71428571429	1	948.3	1	977	1	869.1	1	1057.2	1	951.5	0.9	1134.44444444444	0.9	900.111111111111	13	413913	2	413901	26	39	413939	-999999	413916	0	8	TrialsPROC	TO_001_TOOL1_BA.png	1	2	30	SessionSelectionList														lure	3	Tools	2-Back	26	80	22	0	0	100	1	39	214820	2	14	59	212781	-1	213723	1	942	3	3	2039	53	214834	-54	0										5						30												
WM080112	161731_fnca	1	1	1	-1074230405	1	75.031	75.031	2.0.10.147	2.0.10.242	2.0.10.242	1.0.0.439	7	234	2	3	Verdana	1	80	0	0	0	WM Stimuli\	0.7	1217.71428571429	1	948.3	1	977	1	869.1	1	1057.2	1	951.5	0.9	1134.44444444444	0.9	900.111111111111	13	413913	2	413901	26	39	413939	-999999	413916	0	8	TrialsPROC	TO_004_TOOL4_BA.png	1	2	31	SessionSelectionList														lure	3	Tools	2-Back	27	80	23	0	0	100	1	39	217379	2	14	59	215340	-1	216387	0	1047	2	3	2039	53	217393	-54	0										6						31												
WM080112	161731_fnca	1	1	1	-1074230405	1	75.031	75.031	2.0.10.147	2.0.10.242	2.0.10.242	1.0.0.439	7	234	2	3	Verdana	1	80	0	0	0	WM Stimuli\	0.7	1217.71428571429	1	948.3	1	977	1	869.1	1	1057.2	1	951.5	0.9	1134.44444444444	0.9	900.111111111111	13	413913	2	413901	26	39	413939	-999999	413916	0	8	TrialsPROC	TO_006_TOOL6_BA.png	1	2	32	SessionSelectionList														nonlure	3	Tools	2-Back	28	80	24	0	0	100	1	39	219938	2	14	59	217899	-1	219616	1	1717	3	3	2039	53	219952	-54	0										7						32												
WM080112	161731_fnca	1	1	1	-1074230405	1	75.031	75.031	2.0.10.147	2.0.10.242	2.0.10.242	1.0.0.439	7	234	2	3	Verdana	1	80	0	0	0	WM Stimuli\	0.7	1217.71428571429	1	948.3	1	977	1	869.1	1	1057.2	1	951.5	0.9	1134.44444444444	0.9	900.111111111111	13	413913	2	413901	26	39	413939	-999999	413916	0	8	TrialsPROC	TO_005_TOOL5_BA.png	1	2	33	SessionSelectionList														nonlure	3	Tools	2-Back	29	80	25	0	0	100	2	39	222497	2	14	59	220458	-1	221517	1	1059	3	3	2039	53	222511	-54	0										8						33												
WM080112	161731_fnca	1	1	1	-1074230405	1	75.031	75.031	2.0.10.147	2.0.10.242	2.0.10.242	1.0.0.439	7	234	2	3	Verdana	1	80	0	0	0	WM Stimuli\	0.7	1217.71428571429	1	948.3	1	977	1	869.1	1	1057.2	1	951.5	0.9	1134.44444444444	0.9	900.111111111111	13	413913	2	413901	26	39	413939	-999999	413916	0	8	TrialsPROC	TO_006_TOOL6_BA.png	1	2	34	SessionSelectionList														target	2	Tools	2-Back	30	80	26	0	0	100	1	39	225056	2	14	59	223017	-1	223652	1	635	2	2	2039	53	225070	-54	0										9						34												
WM080112	161731_fnca	1	1	1	-1074230405	1	75.031	75.031	2.0.10.147	2.0.10.242	2.0.10.242	1.0.0.439	7	234	2	3	Verdana	1	80	0	0	0	WM Stimuli\	0.7	1217.71428571429	1	948.3	1	977	1	869.1	1	1057.2	1	951.5	0.9	1134.44444444444	0.9	900.111111111111	13	413913	2	413901	26	39	413939	-999999	413916	0	8	TrialsPROC	TO_003_TOOL3_BA.png	1	2	35	SessionSelectionList														nonlure	3	Tools	2-Back	31	80	27	0	0	100	1	39	227615	2	14	59	225576	-1	226478	1	902	3	3	2039	53	227629	-54	0										10						35												
WM080112	161731_fnca	1	1	1	-1074230405	1	75.031	75.031	2.0.10.147	2.0.10.242	2.0.10.242	1.0.0.439	7	234	2	3	Verdana	1	80	0	0	0	WM Stimuli\	0.7	1217.71428571429	1	948.3	1	977	1	869.1	1	1057.2	1	951.5	0.9	1134.44444444444	0.9	900.111111111111	13	413913	2	413901	26	39	413939	-999999	413916	0	9	Cue0BackPROC	BP_007_BP20_BA.png	1	2	36	SessionSelectionList																																										19	228095	-20	0												36												
WM080112	161731_fnca	1	1	1	-1074230405	1	75.031	75.031	2.0.10.147	2.0.10.242	2.0.10.242	1.0.0.439	7	234	2	3	Verdana	1	80	0	0	0	WM Stimuli\	0.7	1217.71428571429	1	948.3	1	977	1	869.1	1	1057.2	1	951.5	0.9	1134.44444444444	0.9	900.111111111111	13	413913	2	413901	26	39	413939	-999999	413916	0	10	TrialsPROC	BP_007_BP20_BA.png	1	2	37	SessionSelectionList														target	2	Body	0-Back	32	80	28	0	0	100	1	39	232666	2	14	51	230627	-1	231765	1	1138	2	2	2039	53	232680	-54	0											1					37												
WM080112	161731_fnca	1	1	1	-1074230405	1	75.031	75.031	2.0.10.147	2.0.10.242	2.0.10.242	1.0.0.439	7	234	2	3	Verdana	1	80	0	0	0	WM Stimuli\	0.7	1217.71428571429	1	948.3	1	977	1	869.1	1	1057.2	1	951.5	0.9	1134.44444444444	0.9	900.111111111111	13	413913	2	413901	26	39	413939	-999999	413916	0	10	TrialsPROC	BP_011_BP4_BA.png	1	2	38	SessionSelectionList														nonlure	3	Body	0-Back	33	80	29	0	0	100	1	39	235239	1	13	73	233200	-1	233795	1	595	3	3	2039	52	235252	-53	0											2					38												
WM080112	161731_fnca	1	1	1	-1074230405	1	75.031	75.031	2.0.10.147	2.0.10.242	2.0.10.242	1.0.0.439	7	234	2	3	Verdana	1	80	0	0	0	WM Stimuli\	0.7	1217.71428571429	1	948.3	1	977	1	869.1	1	1057.2	1	951.5	0.9	1134.44444444444	0.9	900.111111111111	13	413913	2	413901	26	39	413939	-999999	413916	0	10	TrialsPROC	BP_010_BP3_BA.png	1	2	39	SessionSelectionList														nonlure	3	Body	0-Back	34	80	30	0	0	100	2	39	237798	1	13	59	235759	-1	236661	1	902	3	3	2039	52	237811	-53	0											3					39												
WM080112	161731_fnca	1	1	1	-1074230405	1	75.031	75.031	2.0.10.147	2.0.10.242	2.0.10.242	1.0.0.439	7	234	2	3	Verdana	1	80	0	0	0	WM Stimuli\	0.7	1217.71428571429	1	948.3	1	977	1	869.1	1	1057.2	1	951.5	0.9	1134.44444444444	0.9	900.111111111111	13	413913	2	413901	26	39	413939	-999999	413916	0	10	TrialsPROC	BP_008_BP21_BA.png	1	2	40	SessionSelectionList														nonlure	3	Body	0-Back	35	80	31	0	0	100	3	40	240357	1	13	58	238317	-1	239279	1	962	3	3	2040	53	240370	-54	0											4					40												
WM080112	161731_fnca	1	1	1	-1074230405	1	75.031	75.031	2.0.10.147	2.0.10.242	2.0.10.242	1.0.0.439	7	234	2	3	Verdana	1	80	0	0	0	WM Stimuli\	0.7	1217.71428571429	1	948.3	1	977	1	869.1	1	1057.2	1	951.5	0.9	1134.44444444444	0.9	900.111111111111	13	413913	2	413901	26	39	413939	-999999	413916	0	10	TrialsPROC	BP_011_BP4_BA.png	1	2	41	SessionSelectionList														lure	3	Body	0-Back	36	80	32	0	0	100	4	39	242929	1	13	73	240890	-1	241856	1	966	3	3	2039	52	242942	-53	0											5					41												
WM080112	161731_fnca	1	1	1	-1074230405	1	75.031	75.031	2.0.10.147	2.0.10.242	2.0.10.242	1.0.0.439	7	234	2	3	Verdana	1	80	0	0	0	WM Stimuli\	0.7	1217.71428571429	1	948.3	1	977	1	869.1	1	1057.2	1	951.5	0.9	1134.44444444444	0.9	900.111111111111	13	413913	2	413901	26	39	413939	-999999	413916	0	10	TrialsPROC	BP_009_BP22_BA.png	1	2	42	SessionSelectionList														nonlure	3	Body	0-Back	37	80	33	0	0	100	5	39	245488	1	13	59	243449	-1	244494	1	1045	3	3	2039	52	245501	-53	0											6					42												
WM080112	161731_fnca	1	1	1	-1074230405	1	75.031	75.031	2.0.10.147	2.0.10.242	2.0.10.242	1.0.0.439	7	234	2	3	Verdana	1	80	0	0	0	WM Stimuli\	0.7	1217.71428571429	1	948.3	1	977	1	869.1	1	1057.2	1	951.5	0.9	1134.44444444444	0.9	900.111111111111	13	413913	2	413901	26	39	413939	-999999	413916	0	10	TrialsPROC	BP_009_BP22_BA.png	1	2	43	SessionSelectionList														lure	3	Body	0-Back	38	80	34	0	0	100	6	39	248047	1	13	59	246008	-1	247049	1	1041	3	3	2039	52	248060	-53	0											7					43												
WM080112	161731_fnca	1	1	1	-1074230405	1	75.031	75.031	2.0.10.147	2.0.10.242	2.0.10.242	1.0.0.439	7	234	2	3	Verdana	1	80	0	0	0	WM Stimuli\	0.7	1217.71428571429	1	948.3	1	977	1	869.1	1	1057.2	1	951.5	0.9	1134.44444444444	0.9	900.111111111111	13	413913	2	413901	26	39	413939	-999999	413916	0	10	TrialsPROC	BP_008_BP21_BA.png	1	2	44	SessionSelectionList														lure	3	Body	0-Back	39	80	35	0	0	100	7	39	250606	1	13	59	248567	-1	250164	1	1597	3	3	2039	52	250619	-53	0											8					44												
WM080112	161731_fnca	1	1	1	-1074230405	1	75.031	75.031	2.0.10.147	2.0.10.242	2.0.10.242	1.0.0.439	7	234	2	3	Verdana	1	80	0	0	0	WM Stimuli\	0.7	1217.71428571429	1	948.3	1	977	1	869.1	1	1057.2	1	951.5	0.9	1134.44444444444	0.9	900.111111111111	13	413913	2	413901	26	39	413939	-999999	413916	0	10	TrialsPROC	BP_007_BP20_BA.png	1	2	45	SessionSelectionList														target	2	Body	0-Back	40	80	36	0	0	100	1	39	253165	1	13	59	251126	-1	251709	1	583	2	2	2039	52	253178	-53	0											9					45												
WM080112	161731_fnca	1	1	1	-1074230405	1	75.031	75.031	2.0.10.147	2.0.10.242	2.0.10.242	1.0.0.439	7	234	2	3	Verdana	1	80	0	0	0	WM Stimuli\	0.7	1217.71428571429	1	948.3	1	977	1	869.1	1	1057.2	1	951.5	0.9	1134.44444444444	0.9	900.111111111111	13	413913	2	413901	26	39	413939	-999999	413916	0	10	TrialsPROC	BP_012_BP5_BA.png	1	2	46	SessionSelectionList														nonlure	3	Body	0-Back	41	80	37	0	0	100	1	39	255724	1	13	59	253685	-1	254339	1	654	3	3	2039	52	255737	-53	0											10					46												
WM080112	161731_fnca	1	1	1	-1074230405	1	75.031	75.031	2.0.10.147	2.0.10.242	2.0.10.242	1.0.0.439	7	234	2	3	Verdana	1	80	0	0	0	WM Stimuli\	0.7	1217.71428571429	1	948.3	1	977	1	869.1	1	1057.2	1	951.5	0.9	1134.44444444444	0.9	900.111111111111	13	413913	2	413901	26	39	413939	-999999	413916	0	11	Fix15secPROC	""	1	2	47	SessionSelectionList																																															5	256190	-6	0							47												
WM080112	161731_fnca	1	1	1	-1074230405	1	75.031	75.031	2.0.10.147	2.0.10.242	2.0.10.242	1.0.0.439	7	234	2	3	Verdana	1	80	0	0	0	WM Stimuli\	0.7	1217.71428571429	1	948.3	1	977	1	869.1	1	1057.2	1	951.5	0.9	1134.44444444444	0.9	900.111111111111	13	413913	2	413901	26	39	413939	-999999	413916	0	12	Cue0BackPROC	PL_001_92012.png	1	2	48	SessionSelectionList																																										12	271197	-13	0												48												
WM080112	161731_fnca	1	1	1	-1074230405	1	75.031	75.031	2.0.10.147	2.0.10.242	2.0.10.242	1.0.0.439	7	234	2	3	Verdana	1	80	0	0	0	WM Stimuli\	0.7	1217.71428571429	1	948.3	1	977	1	869.1	1	1057.2	1	951.5	0.9	1134.44444444444	0.9	900.111111111111	13	413913	2	413901	26	39	413939	-999999	413916	0	13	TrialsPROC	PL_003_92016.png	1	2	49	SessionSelectionList														nonlure	3	Place	0-Back	42	80	38	0	0	100	2	40	275796	1	13	71	273756	-1	274792	1	1036	3	3	2040	53	275809	-54	0												1				49												
WM080112	161731_fnca	1	1	1	-1074230405	1	75.031	75.031	2.0.10.147	2.0.10.242	2.0.10.242	1.0.0.439	7	234	2	3	Verdana	1	80	0	0	0	WM Stimuli\	0.7	1217.71428571429	1	948.3	1	977	1	869.1	1	1057.2	1	951.5	0.9	1134.44444444444	0.9	900.111111111111	13	413913	2	413901	26	39	413939	-999999	413916	0	13	TrialsPROC	PL_003_92016.png	1	2	50	SessionSelectionList														lure	3	Place	0-Back	43	80	39	0	0	100	3	39	278368	1	13	73	276329	-1	277427	1	1098	3	3	2039	52	278381	-53	0												2				50												
WM080112	161731_fnca	1	1	1	-1074230405	1	75.031	75.031	2.0.10.147	2.0.10.242	2.0.10.242	1.0.0.439	7	234	2	3	Verdana	1	80	0	0	0	WM Stimuli\	0.7	1217.71428571429	1	948.3	1	977	1	869.1	1	1057.2	1	951.5	0.9	1134.44444444444	0.9	900.111111111111	13	413913	2	413901	26	39	413939	-999999	413916	0	13	TrialsPROC	PL_006_92025.png	1	2	51	SessionSelectionList														nonlure	3	Place	0-Back	44	80	40	0	0	100	4	39	280940	2	14	72	278901	-1	280076	1	1175	3	3	2039	53	280954	-54	0												3				51												
WM080112	161731_fnca	1	1	1	-1074230405	1	75.031	75.031	2.0.10.147	2.0.10.242	2.0.10.242	1.0.0.439	7	234	2	3	Verdana	1	80	0	0	0	WM Stimuli\	0.7	1217.71428571429	1	948.3	1	977	1	869.1	1	1057.2	1	951.5	0.9	1134.44444444444	0.9	900.111111111111	13	413913	2	413901	26	39	413939	-999999	413916	0	13	TrialsPROC	PL_001_92012.png	1	2	52	SessionSelectionList														target	2	Place	0-Back	45	80	41	0	0	100	1	39	283512	2	14	72	281473	-1	282368	1	895	2	2	2039	53	283526	-54	0												4				52												
WM080112	161731_fnca	1	1	1	-1074230405	1	75.031	75.031	2.0.10.147	2.0.10.242	2.0.10.242	1.0.0.439	7	234	2	3	Verdana	1	80	0	0	0	WM Stimuli\	0.7	1217.71428571429	1	948.3	1	977	1	869.1	1	1057.2	1	951.5	0.9	1134.44444444444	0.9	900.111111111111	13	413913	2	413901	26	39	413939	-999999	413916	0	13	TrialsPROC	PL_004_92023.png	1	2	53	SessionSelectionList														nonlure	3	Place	0-Back	46	80	42	0	0	100	1	40	286085	1	13	72	284045	-1	284877	1	832	3	3	2040	53	286098	-54	0												5				53												
WM080112	161731_fnca	1	1	1	-1074230405	1	75.031	75.031	2.0.10.147	2.0.10.242	2.0.10.242	1.0.0.439	7	234	2	3	Verdana	1	80	0	0	0	WM Stimuli\	0.7	1217.71428571429	1	948.3	1	977	1	869.1	1	1057.2	1	951.5	0.9	1134.44444444444	0.9	900.111111111111	13	413913	2	413901	26	39	413939	-999999	413916	0	13	TrialsPROC	PL_005_92024.png	1	2	54	SessionSelectionList														nonlure	3	Place	0-Back	47	80	43	0	0	100	2	39	288657	1	13	73	286618	-1	287599	1	981	3	3	2039	52	288670	-53	0												6				54												
WM080112	161731_fnca	1	1	1	-1074230405	1	75.031	75.031	2.0.10.147	2.0.10.242	2.0.10.242	1.0.0.439	7	234	2	3	Verdana	1	80	0	0	0	WM Stimuli\	0.7	1217.71428571429	1	948.3	1	977	1	869.1	1	1057.2	1	951.5	0.9	1134.44444444444	0.9	900.111111111111	13	413913	2	413901	26	39	413939	-999999	413916	0	13	TrialsPROC	PL_001_92012.png	1	2	55	SessionSelectionList														target	2	Place	0-Back	48	80	44	0	0	100	1	39	291229	2	14	72	289190	-1	290001	1	811	2	2	2039	53	291243	-54	0												7				55												
WM080112	161731_fnca	1	1	1	-1074230405	1	75.031	75.031	2.0.10.147	2.0.10.242	2.0.10.242	1.0.0.439	7	234	2	3	Verdana	1	80	0	0	0	WM Stimuli\	0.7	1217.71428571429	1	948.3	1	977	1	869.1	1	1057.2	1	951.5	0.9	1134.44444444444	0.9	900.111111111111	13	413913	2	413901	26	39	413939	-999999	413916	0	13	TrialsPROC	PL_002_92014.png	1	2	56	SessionSelectionList														nonlure	3	Place	0-Back	49	80	45	0	0	100	1	40	293802	1	13	72	291762	-1	292429	1	667	3	3	2040	53	293815	-54	0												8				56												
WM080112	161731_fnca	1	1	1	-1074230405	1	75.031	75.031	2.0.10.147	2.0.10.242	2.0.10.242	1.0.0.439	7	234	2	3	Verdana	1	80	0	0	0	WM Stimuli\	0.7	1217.71428571429	1	948.3	1	977	1	869.1	1	1057.2	1	951.5	0.9	1134.44444444444	0.9	900.111111111111	13	413913	2	413901	26	39	413939	-999999	413916	0	13	TrialsPROC	PL_004_92023.png	1	2	57	SessionSelectionList														lure	3	Place	0-Back	50	80	46	0	0	100	2	39	296374	1	13	73	294335	-1	295222	1	887	3	3	2039	52	296387	-53	0												9				57												
WM080112	161731_fnca	1	1	1	-1074230405	1	75.031	75.031	2.0.10.147	2.0.10.242	2.0.10.242	1.0.0.439	7	234	2	3	Verdana	1	80	0	0	0	WM Stimuli\	0.7	1217.71428571429	1	948.3	1	977	1	869.1	1	1057.2	1	951.5	0.9	1134.44444444444	0.9	900.111111111111	13	413913	2	413901	26	39	413939	-999999	413916	0	13	TrialsPROC	PL_006_92025.png	1	2	58	SessionSelectionList														lure	3	Place	0-Back	51	80	47	0	0	100	3	39	298946	2	14	72	296907	-1	298040	1	1133	3	3	2039	53	298960	-54	0												10				58												
WM080112	161731_fnca	1	1	1	-1074230405	1	75.031	75.031	2.0.10.147	2.0.10.242	2.0.10.242	1.0.0.439	7	234	2	3	Verdana	1	80	0	0	0	WM Stimuli\	0.7	1217.71428571429	1	948.3	1	977	1	869.1	1	1057.2	1	951.5	0.9	1134.44444444444	0.9	900.111111111111	13	413913	2	413901	26	39	413939	-999999	413916	0	14	Cue2BackPROC	""	1	2	59	SessionSelectionList									6	299413	-7	0																																													59												
WM080112	161731_fnca	1	1	1	-1074230405	1	75.031	75.031	2.0.10.147	2.0.10.242	2.0.10.242	1.0.0.439	7	234	2	3	Verdana	1	80	0	0	0	WM Stimuli\	0.7	1217.71428571429	1	948.3	1	977	1	869.1	1	1057.2	1	951.5	0.9	1134.44444444444	0.9	900.111111111111	13	413913	2	413901	26	39	413939	-999999	413916	0	15	TrialsPROC	FC_010_F5.png	1	2	60	SessionSelectionList														nonlure	3	Face	2-Back	52	80	48	0	0	100	4	39	304011	1	13	65	301972	-1	303064	1	1092	3	3	2039	52	304024	-53	0													1			60												
WM080112	161731_fnca	1	1	1	-1074230405	1	75.031	75.031	2.0.10.147	2.0.10.242	2.0.10.242	1.0.0.439	7	234	2	3	Verdana	1	80	0	0	0	WM Stimuli\	0.7	1217.71428571429	1	948.3	1	977	1	869.1	1	1057.2	1	951.5	0.9	1134.44444444444	0.9	900.111111111111	13	413913	2	413901	26	39	413939	-999999	413916	0	15	TrialsPROC	FC_012_F6.png	1	2	61	SessionSelectionList														nonlure	3	Face	2-Back	53	80	49	0	0	100	5	39	306583	1	13	72	304544	-1	305471	1	927	3	3	2039	52	306596	-53	0													2			61												
WM080112	161731_fnca	1	1	1	-1074230405	1	75.031	75.031	2.0.10.147	2.0.10.242	2.0.10.242	1.0.0.439	7	234	2	3	Verdana	1	80	0	0	0	WM Stimuli\	0.7	1217.71428571429	1	948.3	1	977	1	869.1	1	1057.2	1	951.5	0.9	1134.44444444444	0.9	900.111111111111	13	413913	2	413901	26	39	413939	-999999	413916	0	15	TrialsPROC	FC_010_F5.png	1	2	62	SessionSelectionList														target	2	Face	2-Back	54	80	50	0	0	100	1	39	309155	2	14	72	307116	-1	307833	1	717	2	2	2039	53	309169	-54	0													3			62												
WM080112	161731_fnca	1	1	1	-1074230405	1	75.031	75.031	2.0.10.147	2.0.10.242	2.0.10.242	1.0.0.439	7	234	2	3	Verdana	1	80	0	0	0	WM Stimuli\	0.7	1217.71428571429	1	948.3	1	977	1	869.1	1	1057.2	1	951.5	0.9	1134.44444444444	0.9	900.111111111111	13	413913	2	413901	26	39	413939	-999999	413916	0	15	TrialsPROC	FC_008_F4.png	1	2	63	SessionSelectionList														nonlure	3	Face	2-Back	55	80	51	0	0	100	1	40	311728	2	13	72	309688	-1	310370	1	682	3	3	2040	53	311741	-54	0													4			63												
WM080112	161731_fnca	1	1	1	-1074230405	1	75.031	75.031	2.0.10.147	2.0.10.242	2.0.10.242	1.0.0.439	7	234	2	3	Verdana	1	80	0	0	0	WM Stimuli\	0.7	1217.71428571429	1	948.3	1	977	1	869.1	1	1057.2	1	951.5	0.9	1134.44444444444	0.9	900.111111111111	13	413913	2	413901	26	39	413939	-999999	413916	0	15	TrialsPROC	FC_012_F6.png	1	2	64	SessionSelectionList														lure	3	Face	2-Back	56	80	52	0	0	100	2	39	314300	1	13	73	312261	-1	312982	1	721	3	3	2039	52	314313	-53	0													5			64												
WM080112	161731_fnca	1	1	1	-1074230405	1	75.031	75.031	2.0.10.147	2.0.10.242	2.0.10.242	1.0.0.439	7	234	2	3	Verdana	1	80	0	0	0	WM Stimuli\	0.7	1217.71428571429	1	948.3	1	977	1	869.1	1	1057.2	1	951.5	0.9	1134.44444444444	0.9	900.111111111111	13	413913	2	413901	26	39	413939	-999999	413916	0	15	TrialsPROC	FC_008_F4.png	1	2	65	SessionSelectionList														target	2	Face	2-Back	57	80	53	0	0	100	1	39	316872	2	14	72	314833	-1	315897	1	1064	2	2	2039	53	316886	-54	0													6			65												
WM080112	161731_fnca	1	1	1	-1074230405	1	75.031	75.031	2.0.10.147	2.0.10.242	2.0.10.242	1.0.0.439	7	234	2	3	Verdana	1	80	0	0	0	WM Stimuli\	0.7	1217.71428571429	1	948.3	1	977	1	869.1	1	1057.2	1	951.5	0.9	1134.44444444444	0.9	900.111111111111	13	413913	2	413901	26	39	413939	-999999	413916	0	15	TrialsPROC	FC_007_M4.png	1	2	66	SessionSelectionList														nonlure	3	Face	2-Back	58	80	54	0	0	100	1	39	319444	2	14	72	317405	-1	318414	1	1009	3	3	2039	53	319458	-54	0													7			66												
WM080112	161731_fnca	1	1	1	-1074230405	1	75.031	75.031	2.0.10.147	2.0.10.242	2.0.10.242	1.0.0.439	7	234	2	3	Verdana	1	80	0	0	0	WM Stimuli\	0.7	1217.71428571429	1	948.3	1	977	1	869.1	1	1057.2	1	951.5	0.9	1134.44444444444	0.9	900.111111111111	13	413913	2	413901	26	39	413939	-999999	413916	0	15	TrialsPROC	FC_007_M4.png	1	2	67	SessionSelectionList														lure	3	Face	2-Back	59	80	55	0	0	100	2	39	322017	1	13	73	319978	-1	321164	1	1186	3	3	2039	52	322030	-53	0													8			67												
WM080112	161731_fnca	1	1	1	-1074230405	1	75.031	75.031	2.0.10.147	2.0.10.242	2.0.10.242	1.0.0.439	7	234	2	3	Verdana	1	80	0	0	0	WM Stimuli\	0.7	1217.71428571429	1	948.3	1	977	1	869.1	1	1057.2	1	951.5	0.9	1134.44444444444	0.9	900.111111111111	13	413913	2	413901	26	39	413939	-999999	413916	0	15	TrialsPROC	FC_009_M5.png	1	2	68	SessionSelectionList														nonlure	3	Face	2-Back	60	80	56	0	0	100	3	39	324589	1	13	72	322550	-1	323521	1	971	3	3	2039	52	324602	-53	0													9			68												
WM080112	161731_fnca	1	1	1	-1074230405	1	75.031	75.031	2.0.10.147	2.0.10.242	2.0.10.242	1.0.0.439	7	234	2	3	Verdana	1	80	0	0	0	WM Stimuli\	0.7	1217.71428571429	1	948.3	1	977	1	869.1	1	1057.2	1	951.5	0.9	1134.44444444444	0.9	900.111111111111	13	413913	2	413901	26	39	413939	-999999	413916	0	15	TrialsPROC	FC_011_M6.png	1	2	69	SessionSelectionList														nonlure	3	Face	2-Back	61	80	57	0	0	100	4	39	327161	2	14	72	325122	-1	326523	1	1401	3	3	2039	53	327175	-54	0													10			69												
WM080112	161731_fnca	1	1	1	-1074230405	1	75.031	75.031	2.0.10.147	2.0.10.242	2.0.10.242	1.0.0.439	7	234	2	3	Verdana	1	80	0	0	0	WM Stimuli\	0.7	1217.71428571429	1	948.3	1	977	1	869.1	1	1057.2	1	951.5	0.9	1134.44444444444	0.9	900.111111111111	13	413913	2	413901	26	39	413939	-999999	413916	0	16	Fix15secPROC	""	1	2	70	SessionSelectionList																																															6	327628	-7	0							70												
WM080112	161731_fnca	1	1	1	-1074230405	1	75.031	75.031	2.0.10.147	2.0.10.242	2.0.10.242	1.0.0.439	7	234	2	3	Verdana	1	80	0	0	0	WM Stimuli\	0.7	1217.71428571429	1	948.3	1	977	1	869.1	1	1057.2	1	951.5	0.9	1134.44444444444	0.9	900.111111111111	13	413913	2	413901	26	39	413939	-999999	413916	0	17	Cue0BackPROC	TO_007_TOOL7_BA.png	1	2	71	SessionSelectionList																																										13	342635	-14	0												71												
WM080112	161731_fnca	1	1	1	-1074230405	1	75.031	75.031	2.0.10.147	2.0.10.242	2.0.10.242	1.0.0.439	7	234	2	3	Verdana	1	80	0	0	0	WM Stimuli\	0.7	1217.71428571429	1	948.3	1	977	1	869.1	1	1057.2	1	951.5	0.9	1134.44444444444	0.9	900.111111111111	13	413913	2	413901	26	39	413939	-999999	413916	0	18	TrialsPROC	TO_010_TOOL10_BA.png	1	2	72	SessionSelectionList														nonlure	3	Tools	0-Back	62	80	58	0	0	100	5	39	347220	1	13	59	345181	-1	346323	1	1142	3	3	2039	52	347233	-53	0														1		72												
WM080112	161731_fnca	1	1	1	-1074230405	1	75.031	75.031	2.0.10.147	2.0.10.242	2.0.10.242	1.0.0.439	7	234	2	3	Verdana	1	80	0	0	0	WM Stimuli\	0.7	1217.71428571429	1	948.3	1	977	1	869.1	1	1057.2	1	951.5	0.9	1134.44444444444	0.9	900.111111111111	13	413913	2	413901	26	39	413939	-999999	413916	0	18	TrialsPROC	TO_009_TOOL9_BA.png	1	2	73	SessionSelectionList														nonlure	3	Tools	0-Back	63	80	59	0	0	100	6	39	349779	1	13	59	347740	-1	349130	1	1390	3	3	2039	52	349792	-53	0														2		73												
WM080112	161731_fnca	1	1	1	-1074230405	1	75.031	75.031	2.0.10.147	2.0.10.242	2.0.10.242	1.0.0.439	7	234	2	3	Verdana	1	80	0	0	0	WM Stimuli\	0.7	1217.71428571429	1	948.3	1	977	1	869.1	1	1057.2	1	951.5	0.9	1134.44444444444	0.9	900.111111111111	13	413913	2	413901	26	39	413939	-999999	413916	0	18	TrialsPROC	TO_009_TOOL9_BA.png	1	2	74	SessionSelectionList														lure	3	Tools	0-Back	64	80	60	0	0	100	7	39	352338	1	13	59	350299	-1	351165	1	866	3	3	2039	52	352351	-53	0														3		74												
WM080112	161731_fnca	1	1	1	-1074230405	1	75.031	75.031	2.0.10.147	2.0.10.242	2.0.10.242	1.0.0.439	7	234	2	3	Verdana	1	80	0	0	0	WM Stimuli\	0.7	1217.71428571429	1	948.3	1	977	1	869.1	1	1057.2	1	951.5	0.9	1134.44444444444	0.9	900.111111111111	13	413913	2	413901	26	39	413939	-999999	413916	0	18	TrialsPROC	TO_008_TOOL8_BA.png	1	2	75	SessionSelectionList														nonlure	3	Tools	0-Back	65	80	61	0	0	100	8	40	354897	1	13	58	352857	-1	353812	1	955	3	3	2040	53	354910	-54	0														4		75												
WM080112	161731_fnca	1	1	1	-1074230405	1	75.031	75.031	2.0.10.147	2.0.10.242	2.0.10.242	1.0.0.439	7	234	2	3	Verdana	1	80	0	0	0	WM Stimuli\	0.7	1217.71428571429	1	948.3	1	977	1	869.1	1	1057.2	1	951.5	0.9	1134.44444444444	0.9	900.111111111111	13	413913	2	413901	26	39	413939	-999999	413916	0	18	TrialsPROC	TO_011_TOOL11_BA.png	1	2	76	SessionSelectionList														nonlure	3	Tools	0-Back	66	80	62	0	0	100	9	40	357456	1	13	59	355416	-1	356301	1	885	3	3	2040	53	357469	-54	0														5		76												
WM080112	161731_fnca	1	1	1	-1074230405	1	75.031	75.031	2.0.10.147	2.0.10.242	2.0.10.242	1.0.0.439	7	234	2	3	Verdana	1	80	0	0	0	WM Stimuli\	0.7	1217.71428571429	1	948.3	1	977	1	869.1	1	1057.2	1	951.5	0.9	1134.44444444444	0.9	900.111111111111	13	413913	2	413901	26	39	413939	-999999	413916	0	18	TrialsPROC	TO_012_TOOL12_BA.png	1	2	77	SessionSelectionList														nonlure	3	Tools	0-Back	67	80	63	0	0	100	10	40	360015	1	13	59	357975	-1	358844	1	869	3	3	2040	53	360028	-54	0														6		77												
WM080112	161731_fnca	1	1	1	-1074230405	1	75.031	75.031	2.0.10.147	2.0.10.242	2.0.10.242	1.0.0.439	7	234	2	3	Verdana	1	80	0	0	0	WM Stimuli\	0.7	1217.71428571429	1	948.3	1	977	1	869.1	1	1057.2	1	951.5	0.9	1134.44444444444	0.9	900.111111111111	13	413913	2	413901	26	39	413939	-999999	413916	0	18	TrialsPROC	TO_010_TOOL10_BA.png	1	2	78	SessionSelectionList														lure	3	Tools	0-Back	68	80	63	0	1	97	10	40	362574	1	13	59	360534	-1	0	0	0	""	3	2040	53	362587	-54	0														7		78												
WM080112	161731_fnca	1	1	1	-1074230405	1	75.031	75.031	2.0.10.147	2.0.10.242	2.0.10.242	1.0.0.439	7	234	2	3	Verdana	1	80	0	0	0	WM Stimuli\	0.7	1217.71428571429	1	948.3	1	977	1	869.1	1	1057.2	1	951.5	0.9	1134.44444444444	0.9	900.111111111111	13	413913	2	413901	26	39	413939	-999999	413916	0	18	TrialsPROC	TO_007_TOOL7_BA.png	1	2	79	SessionSelectionList														target	2	Tools	0-Back	69	80	64	0	0	97	1	39	365132	2	14	59	363093	-1	363762	1	669	2	2	2039	53	365146	-54	0														8		79												
WM080112	161731_fnca	1	1	1	-1074230405	1	75.031	75.031	2.0.10.147	2.0.10.242	2.0.10.242	1.0.0.439	7	234	2	3	Verdana	1	80	0	0	0	WM Stimuli\	0.7	1217.71428571429	1	948.3	1	977	1	869.1	1	1057.2	1	951.5	0.9	1134.44444444444	0.9	900.111111111111	13	413913	2	413901	26	39	413939	-999999	413916	0	18	TrialsPROC	TO_008_TOOL8_BA.png	1	2	80	SessionSelectionList														lure	3	Tools	0-Back	70	80	65	0	0	97	1	39	367691	2	14	59	365652	-1	366286	1	634	3	3	2039	53	367705	-54	0														9		80												
WM080112	161731_fnca	1	1	1	-1074230405	1	75.031	75.031	2.0.10.147	2.0.10.242	2.0.10.242	1.0.0.439	7	234	2	3	Verdana	1	80	0	0	0	WM Stimuli\	0.7	1217.71428571429	1	948.3	1	977	1	869.1	1	1057.2	1	951.5	0.9	1134.44444444444	0.9	900.111111111111	13	413913	2	413901	26	39	413939	-999999	413916	0	18	TrialsPROC	TO_007_TOOL7_BA.png	1	2	81	SessionSelectionList														target	2	Tools	0-Back	71	80	66	0	0	98	1	39	370250	2	14	59	368211	-1	368902	1	691	2	2	2039	53	370264	-54	0														10		81												
WM080112	161731_fnca	1	1	1	-1074230405	1	75.031	75.031	2.0.10.147	2.0.10.242	2.0.10.242	1.0.0.439	7	234	2	3	Verdana	1	80	0	0	0	WM Stimuli\	0.7	1217.71428571429	1	948.3	1	977	1	869.1	1	1057.2	1	951.5	0.9	1134.44444444444	0.9	900.111111111111	13	413913	2	413901	26	39	413939	-999999	413916	0	19	Cue2BackPROC	""	1	2	82	SessionSelectionList									6	370717	-7	0																																													82												
WM080112	161731_fnca	1	1	1	-1074230405	1	75.031	75.031	2.0.10.147	2.0.10.242	2.0.10.242	1.0.0.439	7	234	2	3	Verdana	1	80	0	0	0	WM Stimuli\	0.7	1217.71428571429	1	948.3	1	977	1	869.1	1	1057.2	1	951.5	0.9	1134.44444444444	0.9	900.111111111111	13	413913	2	413901	26	39	413939	-999999	413916	0	20	TrialsPROC	PL_007_92026.png	1	2	83	SessionSelectionList														nonlure	3	Place	2-Back	72	80	67	0	0	98	1	39	375315	1	13	65	373276	-1	374607	1	1331	3	3	2039	52	375328	-53	0															1	83												
WM080112	161731_fnca	1	1	1	-1074230405	1	75.031	75.031	2.0.10.147	2.0.10.242	2.0.10.242	1.0.0.439	7	234	2	3	Verdana	1	80	0	0	0	WM Stimuli\	0.7	1217.71428571429	1	948.3	1	977	1	869.1	1	1057.2	1	951.5	0.9	1134.44444444444	0.9	900.111111111111	13	413913	2	413901	26	39	413939	-999999	413916	0	20	TrialsPROC	PL_007_92026.png	1	2	84	SessionSelectionList														lure	3	Place	2-Back	73	80	68	0	0	98	2	39	377887	2	14	72	375848	-1	376829	1	981	3	3	2039	53	377901	-54	0															2	84												
WM080112	161731_fnca	1	1	1	-1074230405	1	75.031	75.031	2.0.10.147	2.0.10.242	2.0.10.242	1.0.0.439	7	234	2	3	Verdana	1	80	0	0	0	WM Stimuli\	0.7	1217.71428571429	1	948.3	1	977	1	869.1	1	1057.2	1	951.5	0.9	1134.44444444444	0.9	900.111111111111	13	413913	2	413901	26	39	413939	-999999	413916	0	20	TrialsPROC	PL_010_92038.png	1	2	85	SessionSelectionList														nonlure	3	Place	2-Back	74	80	69	0	0	98	3	40	380460	1	13	72	378420	-1	379398	1	978	3	3	2040	53	380473	-54	0															3	85												
WM080112	161731_fnca	1	1	1	-1074230405	1	75.031	75.031	2.0.10.147	2.0.10.242	2.0.10.242	1.0.0.439	7	234	2	3	Verdana	1	80	0	0	0	WM Stimuli\	0.7	1217.71428571429	1	948.3	1	977	1	869.1	1	1057.2	1	951.5	0.9	1134.44444444444	0.9	900.111111111111	13	413913	2	413901	26	39	413939	-999999	413916	0	20	TrialsPROC	PL_009_92037.png	1	2	86	SessionSelectionList														nonlure	3	Place	2-Back	75	80	70	0	0	98	4	39	383019	1	13	60	380980	-1	382109	1	1129	3	3	2039	52	383032	-53	0															4	86												
WM080112	161731_fnca	1	1	1	-1074230405	1	75.031	75.031	2.0.10.147	2.0.10.242	2.0.10.242	1.0.0.439	7	234	2	3	Verdana	1	80	0	0	0	WM Stimuli\	0.7	1217.71428571429	1	948.3	1	977	1	869.1	1	1057.2	1	951.5	0.9	1134.44444444444	0.9	900.111111111111	13	413913	2	413901	26	39	413939	-999999	413916	0	20	TrialsPROC	PL_010_92038.png	1	2	87	SessionSelectionList														target	2	Place	2-Back	76	80	71	0	0	98	1	38	385577	2	14	59	383539	-1	384251	1	712	2	2	2038	52	385591	-53	0															5	87												
WM080112	161731_fnca	1	1	1	-1074230405	1	75.031	75.031	2.0.10.147	2.0.10.242	2.0.10.242	1.0.0.439	7	234	2	3	Verdana	1	80	0	0	0	WM Stimuli\	0.7	1217.71428571429	1	948.3	1	977	1	869.1	1	1057.2	1	951.5	0.9	1134.44444444444	0.9	900.111111111111	13	413913	2	413901	26	39	413939	-999999	413916	0	20	TrialsPROC	PL_009_92037.png	1	2	88	SessionSelectionList														target	2	Place	2-Back	77	80	72	0	0	98	2	39	388150	1	13	72	386111	-1	387336	1	1225	2	2	2039	52	388163	-53	0															6	88												
WM080112	161731_fnca	1	1	1	-1074230405	1	75.031	75.031	2.0.10.147	2.0.10.242	2.0.10.242	1.0.0.439	7	234	2	3	Verdana	1	80	0	0	0	WM Stimuli\	0.7	1217.71428571429	1	948.3	1	977	1	869.1	1	1057.2	1	951.5	0.9	1134.44444444444	0.9	900.111111111111	13	413913	2	413901	26	39	413939	-999999	413916	0	20	TrialsPROC	PL_008_92033.png	1	2	89	SessionSelectionList														nonlure	3	Place	2-Back	78	80	73	0	0	98	1	39	390722	1	13	72	388683	-1	389752	1	1069	3	3	2039	52	390735	-53	0															7	89												
WM080112	161731_fnca	1	1	1	-1074230405	1	75.031	75.031	2.0.10.147	2.0.10.242	2.0.10.242	1.0.0.439	7	234	2	3	Verdana	1	80	0	0	0	WM Stimuli\	0.7	1217.71428571429	1	948.3	1	977	1	869.1	1	1057.2	1	951.5	0.9	1134.44444444444	0.9	900.111111111111	13	413913	2	413901	26	39	413939	-999999	413916	0	20	TrialsPROC	PL_012_92047.png	1	2	90	SessionSelectionList														nonlure	3	Place	2-Back	79	80	74	0	0	98	2	39	393294	2	14	72	391255	-1	392373	1	1118	3	3	2039	53	393308	-54	0															8	90												
WM080112	161731_fnca	1	1	1	-1074230405	1	75.031	75.031	2.0.10.147	2.0.10.242	2.0.10.242	1.0.0.439	7	234	2	3	Verdana	1	80	0	0	0	WM Stimuli\	0.7	1217.71428571429	1	948.3	1	977	1	869.1	1	1057.2	1	951.5	0.9	1134.44444444444	0.9	900.111111111111	13	413913	2	413901	26	39	413939	-999999	413916	0	20	TrialsPROC	PL_012_92047.png	1	2	91	SessionSelectionList														lure	3	Place	2-Back	80	80	75	0	0	98	3	40	395867	1	13	72	393827	-1	394781	1	954	3	3	2040	53	395880	-54	0															9	91												
WM080112	161731_fnca	1	1	1	-1074230405	1	75.031	75.031	2.0.10.147	2.0.10.242	2.0.10.242	1.0.0.439	7	234	2	3	Verdana	1	80	0	0	0	WM Stimuli\	0.7	1217.71428571429	1	948.3	1	977	1	869.1	1	1057.2	1	951.5	0.9	1134.44444444444	0.9	900.111111111111	13	413913	2	413901	26	39	413939	-999999	413916	0	20	TrialsPROC	PL_011_92044.png	1	2	92	SessionSelectionList														nonlure	3	Place	2-Back	80	80	76	0	0	98	4	39	398439	1	13	73	396400	-1	397475	1	1075	3	3	2039	52	398452	-53	0															10	92												
WM080112	161731_fnca	1	1	1	-1074230405	1	75.031	75.031	2.0.10.147	2.0.10.242	2.0.10.242	1.0.0.439	7	234	2	3	Verdana	1	80	0	0	0	WM Stimuli\	0.7	1217.71428571429	1	948.3	1	977	1	869.1	1	1057.2	1	951.5	0.9	1134.44444444444	0.9	900.111111111111	13	413913	2	413901	26	39	413939	-999999	413916	0	21	Fix15secPROC	""	1	2	93	SessionSelectionList																																															5	398905	-6	0							93												
