ExperimentName	HCPID	RunNumber	Subject	Session	RandomSeed	Group	Laptop.RefreshRate	ScannerD2.RefreshRate	StudioVersion	RuntimeVersion	RuntimeVersionExpected	ExperimentVersion	triggercode	Allowed	Target	Nontarget	FontStyle	RunTrialNumber[Session]	TrialsPerRun[Session]	TotalRespGreater200[Session]	ConsecRTLess200[Session]	ConsecNonResp[Session]	StimuliDir	ACC_2_Back_Body	Avg_RT_For_Correct_Trials_2_Back_Body	ACC_0_Back_Body	Avg_RT_For_Correct_Trials_0_Back_Body	ACC_2_Back_Face	Avg_RT_For_Correct_Trials_2_Back_Face	ACC_0_Back_Face	Avg_RT_For_Correct_Trials_0_Back_Face	ACC_2_Back_Place	Avg_RT_For_Correct_Trials_2_Back_Place	ACC_0_Back_Place	Avg_RT_For_Correct_Trials_0_Back_Place	ACC_2_Back_Tools	Avg_RT_For_Correct_Trials_2_Back_Tools	ACC_0_Back_Tools	Avg_RT_For_Correct_Trials_0_Back_Tools	ExpInstrucFeelFreeToRest.OnsetDelay	ExpInstrucFeelFreeToRest.OnsetTime	ExpInstrucFeelFreeToRest.DurationError	ExpInstrucFeelFreeToRest.StartTime	ExpInstrucFeelFreeToRest.OnsetToOnsetTime	FeelFreeToRest.OnsetDelay	FeelFreeToRest.OnsetTime	FeelFreeToRest.DurationError	FeelFreeToRest.StartTime	FeelFreeToRest.OnsetToOnsetTime	SessionSelectionList	Procedure[Block]	Stimulus[Block]	RunNumberFilterValue	SessionSelectionList.Cycle	SessionSelectionList.Sample	Running[Block]	IntroButtonMap.OnsetDelay	IntroButtonMap.OnsetTime	IntroButtonMap.DurationError	IntroButtonMap.OnsetToOnsetTime	GetReady.OnsetDelay	GetReady.OnsetTime	GetReady.DurationError	GetReady.OnsetToOnsetTime	Cue2Back.OnsetDelay	Cue2Back.OnsetTime	Cue2Back.DurationError	Cue2Back.OnsetToOnsetTime	Run1Block1	TargetType	CorrectResponse	StimType	BlockType	RunTrialNumber[Block]	TrialsPerRun[Block]	TotalRespGreater200[Block]	ConsecRTLess200[Block]	ConsecNonResp[Block]	ControlAcc	ConsecSameResp	ExperimenterWindow.OnsetDelay	ExperimenterWindow.OnsetTime	ExperimenterWindow.DurationError	ExperimenterWindow.OnsetToOnsetTime	Stim.OnsetDelay	Stim.OnsetTime	Stim.DurationError	Stim.RTTime	Stim.ACC	Stim.RT	Stim.RESP	Stim.CRESP	Stim.OnsetToOnsetTime	Fix.OnsetDelay	Fix.OnsetTime	Fix.DurationError	Fix.OnsetToOnsetTime	CueTarget.OnsetDelay	CueTarget.OnsetTime	CueTarget.DurationError	CueTarget.OnsetToOnsetTime	Run1Block2	Fix15sec.OnsetDelay	Fix15sec.OnsetTime	Fix15sec.DurationError	Fix15sec.OnsetToOnsetTime	Run1Block3	Run1Block4	Run1Block5	Run1Block6	Run1Block7	Run1Block8	Block	Procedure[Trial]	Stimulus[Trial]	ReadyList	Running[Trial]	ReadyList.Cycle	ReadyList.Sample	SyncSlide.OnsetDelay	SyncSlide.OnsetTime	SyncSlide.DurationError	SyncSlide.FinishTime	SyncSlide.OnsetToOnsetTime	Trial
WM080112	130316_fnca	1	1	1	-1722834109	1	75.032	75.031	2.0.10.147	2.0.10.242	2.0.10.242	1.0.0.439	7	234	2	3	Verdana	1	80	0	0	0	WM Stimuli\	0.8	1244.5	0.9	673.222222222222	0.9	1010.77777777778	1	773.2	0.9	938.888888888889	1	652.6	0.8	1137	1	689.4	12	544130	3	544119	27	39	544157	-999999	544133	0	1	TRSyncPROC	""	1	2	1	SessionSelectionList	100	35448	-999999	0	33	237338	-999999	0																																																	1	InitialTR	4	1	ReadyList	1	1	12	250999	-13	252986	0	1
WM080112	130316_fnca	1	1	1	-1722834109	1	75.032	75.031	2.0.10.147	2.0.10.242	2.0.10.242	1.0.0.439	7	234	2	3	Verdana	1	80	0	0	0	WM Stimuli\	0.8	1244.5	0.9	673.222222222222	0.9	1010.77777777778	1	773.2	0.9	938.888888888889	1	652.6	0.8	1137	1	689.4	12	544130	3	544119	27	39	544157	-999999	544133	0	1	TRSyncPROC	""	1	2	1	SessionSelectionList	100	35448	-999999	0	33	237338	-999999	0																																																	1	InitialTR	3	2	ReadyList	1	2	11	252998	-12	254986	0	2
WM080112	130316_fnca	1	1	1	-1722834109	1	75.032	75.031	2.0.10.147	2.0.10.242	2.0.10.242	1.0.0.439	7	234	2	3	Verdana	1	80	0	0	0	WM Stimuli\	0.8	1244.5	0.9	673.222222222222	0.9	1010.77777777778	1	773.2	0.9	938.888888888889	1	652.6	0.8	1137	1	689.4	12	544130	3	544119	27	39	544157	-999999	544133	0	1	TRSyncPROC	""	1	2	1	SessionSelectionList	100	35448	-999999	0	33	237338	-999999	0																																																	1	InitialTR	2	3	ReadyList	1	3	10	254997	-11	256986	0	3
WM080112	130316_fnca	1	1	1	-1722834109	1	75.032	75.031	2.0.10.147	2.0.10.242	2.0.10.242	1.0.0.439	7	234	2	3	Verdana	1	80	0	0	0	WM Stimuli\	0.8	1244.5	0.9	673.222222222222	0.9	1010.77777777778	1	773.2	0.9	938.888888888889	1	652.6	0.8	1137	1	689.4	12	544130	3	544119	27	39	544157	-999999	544133	0	1	TRSyncPROC	""	1	2	1	SessionSelectionList	100	35448	-999999	0	33	237338	-999999	0																																																	1	InitialTR	1	4	ReadyList	1	4	9	256996	-10	258986	0	4
WM080112	130316_fnca	1	1	1	-1722834109	1	75.032	75.031	2.0.10.147	2.0.10.242	2.0.10.242	1.0.0.439	7	234	2	3	Verdana	1	80	0	0	0	WM Stimuli\	0.8	1244.5	0.9	673.222222222222	0.9	1010.77777777778	1	773.2	0.9	938.888888888889	1	652.6	0.8	1137	1	689.4	12	544130	3	544119	27	39	544157	-999999	544133	0	2	Cue2BackPROC	""	1	2	2	SessionSelectionList									8	258995	-9	0																																													2												
WM080112	130316_fnca	1	1	1	-1722834109	1	75.032	75.031	2.0.10.147	2.0.10.242	2.0.10.242	1.0.0.439	7	234	2	3	Verdana	1	80	0	0	0	WM Stimuli\	0.8	1244.5	0.9	673.222222222222	0.9	1010.77777777778	1	773.2	0.9	938.888888888889	1	652.6	0.8	1137	1	689.4	12	544130	3	544119	27	39	544157	-999999	544133	0	3	TrialsPROC	BP_002_BP10_BA.png	1	2	3	SessionSelectionList													1	nonlure	3	Body	2-Back	2	80	1	0	0	0	1	52	263620	3	14	81	261568	-1	262432	1	864	3	3	2052	66	263634	-67	0																3												
WM080112	130316_fnca	1	1	1	-1722834109	1	75.032	75.031	2.0.10.147	2.0.10.242	2.0.10.242	1.0.0.439	7	234	2	3	Verdana	1	80	0	0	0	WM Stimuli\	0.8	1244.5	0.9	673.222222222222	0.9	1010.77777777778	1	773.2	0.9	938.888888888889	1	652.6	0.8	1137	1	689.4	12	544130	3	544119	27	39	544157	-999999	544133	0	3	TrialsPROC	BP_001_BP1_BA.png	1	2	4	SessionSelectionList													2	nonlure	3	Body	2-Back	3	80	2	0	0	0	2	39	266179	2	14	72	264140	-1	265640	1	1500	3	3	2039	53	266193	-54	0																4												
WM080112	130316_fnca	1	1	1	-1722834109	1	75.032	75.031	2.0.10.147	2.0.10.242	2.0.10.242	1.0.0.439	7	234	2	3	Verdana	1	80	0	0	0	WM Stimuli\	0.8	1244.5	0.9	673.222222222222	0.9	1010.77777777778	1	773.2	0.9	938.888888888889	1	652.6	0.8	1137	1	689.4	12	544130	3	544119	27	39	544157	-999999	544133	0	3	TrialsPROC	BP_006_BP2_BA.png	1	2	5	SessionSelectionList													3	nonlure	3	Body	2-Back	4	80	3	0	0	0	1	39	268738	1	14	59	266699	-1	267626	0	927	2	3	2039	53	268752	-54	0																5												
WM080112	130316_fnca	1	1	1	-1722834109	1	75.032	75.031	2.0.10.147	2.0.10.242	2.0.10.242	1.0.0.439	7	234	2	3	Verdana	1	80	0	0	0	WM Stimuli\	0.8	1244.5	0.9	673.222222222222	0.9	1010.77777777778	1	773.2	0.9	938.888888888889	1	652.6	0.8	1137	1	689.4	12	544130	3	544119	27	39	544157	-999999	544133	0	3	TrialsPROC	BP_001_BP1_BA.png	1	2	6	SessionSelectionList													4	target	2	Body	2-Back	5	80	4	0	0	0	2	39	271310	2	14	72	269271	-1	270229	1	958	2	2	2039	53	271324	-54	0																6												
WM080112	130316_fnca	1	1	1	-1722834109	1	75.032	75.031	2.0.10.147	2.0.10.242	2.0.10.242	1.0.0.439	7	234	2	3	Verdana	1	80	0	0	0	WM Stimuli\	0.8	1244.5	0.9	673.222222222222	0.9	1010.77777777778	1	773.2	0.9	938.888888888889	1	652.6	0.8	1137	1	689.4	12	544130	3	544119	27	39	544157	-999999	544133	0	3	TrialsPROC	BP_005_BP19_BA.png	1	2	7	SessionSelectionList													5	nonlure	3	Body	2-Back	6	80	5	0	0	0	1	39	273869	2	14	59	271830	-1	272931	1	1101	3	3	2039	53	273883	-54	0																7												
WM080112	130316_fnca	1	1	1	-1722834109	1	75.032	75.031	2.0.10.147	2.0.10.242	2.0.10.242	1.0.0.439	7	234	2	3	Verdana	1	80	0	0	0	WM Stimuli\	0.8	1244.5	0.9	673.222222222222	0.9	1010.77777777778	1	773.2	0.9	938.888888888889	1	652.6	0.8	1137	1	689.4	12	544130	3	544119	27	39	544157	-999999	544133	0	3	TrialsPROC	BP_003_BP16_BA.png	1	2	8	SessionSelectionList													6	nonlure	3	Body	2-Back	7	80	6	0	0	0	2	39	276428	2	14	59	274389	-1	275414	1	1025	3	3	2039	53	276442	-54	0																8												
WM080112	130316_fnca	1	1	1	-1722834109	1	75.032	75.031	2.0.10.147	2.0.10.242	2.0.10.242	1.0.0.439	7	234	2	3	Verdana	1	80	0	0	0	WM Stimuli\	0.8	1244.5	0.9	673.222222222222	0.9	1010.77777777778	1	773.2	0.9	938.888888888889	1	652.6	0.8	1137	1	689.4	12	544130	3	544119	27	39	544157	-999999	544133	0	3	TrialsPROC	BP_006_BP2_BA.png	1	2	9	SessionSelectionList													7	lure	3	Body	2-Back	8	80	7	0	0	0	3	39	278987	1	14	59	276948	-1	278611	1	1663	3	3	2039	53	279001	-54	0																9												
WM080112	130316_fnca	1	1	1	-1722834109	1	75.032	75.031	2.0.10.147	2.0.10.242	2.0.10.242	1.0.0.439	7	234	2	3	Verdana	1	80	0	0	0	WM Stimuli\	0.8	1244.5	0.9	673.222222222222	0.9	1010.77777777778	1	773.2	0.9	938.888888888889	1	652.6	0.8	1137	1	689.4	12	544130	3	544119	27	39	544157	-999999	544133	0	3	TrialsPROC	BP_004_BP18_BA.png	1	2	10	SessionSelectionList													8	nonlure	3	Body	2-Back	9	80	8	0	0	0	4	39	281546	1	14	59	279507	-1	280468	1	961	3	3	2039	53	281560	-54	0																10												
WM080112	130316_fnca	1	1	1	-1722834109	1	75.032	75.031	2.0.10.147	2.0.10.242	2.0.10.242	1.0.0.439	7	234	2	3	Verdana	1	80	0	0	0	WM Stimuli\	0.8	1244.5	0.9	673.222222222222	0.9	1010.77777777778	1	773.2	0.9	938.888888888889	1	652.6	0.8	1137	1	689.4	12	544130	3	544119	27	39	544157	-999999	544133	0	3	TrialsPROC	BP_005_BP19_BA.png	1	2	11	SessionSelectionList													9	lure	3	Body	2-Back	10	80	9	0	0	0	5	39	284105	1	14	59	282066	-1	283950	1	1884	3	3	2039	53	284119	-54	0																11												
WM080112	130316_fnca	1	1	1	-1722834109	1	75.032	75.031	2.0.10.147	2.0.10.242	2.0.10.242	1.0.0.439	7	234	2	3	Verdana	1	80	0	0	0	WM Stimuli\	0.8	1244.5	0.9	673.222222222222	0.9	1010.77777777778	1	773.2	0.9	938.888888888889	1	652.6	0.8	1137	1	689.4	12	544130	3	544119	27	39	544157	-999999	544133	0	3	TrialsPROC	BP_004_BP18_BA.png	1	2	12	SessionSelectionList													10	target	2	Body	2-Back	11	80	10	0	0	0	6	39	286664	1	14	59	284625	-1	286162	0	1537	3	2	2039	53	286678	-54	0																12												
WM080112	130316_fnca	1	1	1	-1722834109	1	75.032	75.031	2.0.10.147	2.0.10.242	2.0.10.242	1.0.0.439	7	234	2	3	Verdana	1	80	0	0	0	WM Stimuli\	0.8	1244.5	0.9	673.222222222222	0.9	1010.77777777778	1	773.2	0.9	938.888888888889	1	652.6	0.8	1137	1	689.4	12	544130	3	544119	27	39	544157	-999999	544133	0	4	Cue0BackPROC	FC_001_M1.png	1	2	13	SessionSelectionList																																										19	287144	-20	0												13												
WM080112	130316_fnca	1	1	1	-1722834109	1	75.032	75.031	2.0.10.147	2.0.10.242	2.0.10.242	1.0.0.439	7	234	2	3	Verdana	1	80	0	0	0	WM Stimuli\	0.8	1244.5	0.9	673.222222222222	0.9	1010.77777777778	1	773.2	0.9	938.888888888889	1	652.6	0.8	1137	1	689.4	12	544130	3	544119	27	39	544157	-999999	544133	0	5	TrialsPROC	FC_005_M3.png	1	2	14	SessionSelectionList														nonlure	3	Face	0-Back	12	80	11	0	0	100	7	39	291728	2	14	64	289689	-1	290717	1	1028	3	3	2039	53	291742	-54	0					1											14												
WM080112	130316_fnca	1	1	1	-1722834109	1	75.032	75.031	2.0.10.147	2.0.10.242	2.0.10.242	1.0.0.439	7	234	2	3	Verdana	1	80	0	0	0	WM Stimuli\	0.8	1244.5	0.9	673.222222222222	0.9	1010.77777777778	1	773.2	0.9	938.888888888889	1	652.6	0.8	1137	1	689.4	12	544130	3	544119	27	39	544157	-999999	544133	0	5	TrialsPROC	FC_001_M1.png	1	2	15	SessionSelectionList														target	2	Face	0-Back	13	80	12	0	0	100	1	39	294301	1	14	73	292262	-1	292812	1	550	2	2	2039	53	294315	-54	0					2											15												
WM080112	130316_fnca	1	1	1	-1722834109	1	75.032	75.031	2.0.10.147	2.0.10.242	2.0.10.242	1.0.0.439	7	234	2	3	Verdana	1	80	0	0	0	WM Stimuli\	0.8	1244.5	0.9	673.222222222222	0.9	1010.77777777778	1	773.2	0.9	938.888888888889	1	652.6	0.8	1137	1	689.4	12	544130	3	544119	27	39	544157	-999999	544133	0	5	TrialsPROC	FC_003_M2.png	1	2	16	SessionSelectionList														nonlure	3	Face	0-Back	14	80	13	0	0	100	1	39	296873	1	14	72	294834	-1	295388	1	554	3	3	2039	53	296887	-54	0					3											16												
WM080112	130316_fnca	1	1	1	-1722834109	1	75.032	75.031	2.0.10.147	2.0.10.242	2.0.10.242	1.0.0.439	7	234	2	3	Verdana	1	80	0	0	0	WM Stimuli\	0.8	1244.5	0.9	673.222222222222	0.9	1010.77777777778	1	773.2	0.9	938.888888888889	1	652.6	0.8	1137	1	689.4	12	544130	3	544119	27	39	544157	-999999	544133	0	5	TrialsPROC	FC_004_F2.png	1	2	17	SessionSelectionList														nonlure	3	Face	0-Back	15	80	14	0	0	100	2	39	299445	2	14	72	297406	-1	297918	1	512	3	3	2039	53	299459	-54	0					4											17												
WM080112	130316_fnca	1	1	1	-1722834109	1	75.032	75.031	2.0.10.147	2.0.10.242	2.0.10.242	1.0.0.439	7	234	2	3	Verdana	1	80	0	0	0	WM Stimuli\	0.8	1244.5	0.9	673.222222222222	0.9	1010.77777777778	1	773.2	0.9	938.888888888889	1	652.6	0.8	1137	1	689.4	12	544130	3	544119	27	39	544157	-999999	544133	0	5	TrialsPROC	FC_004_F2.png	1	2	18	SessionSelectionList														lure	3	Face	0-Back	16	80	15	0	0	100	3	40	302018	1	13	72	299978	-1	300526	1	548	3	3	2040	53	302031	-54	0					5											18												
WM080112	130316_fnca	1	1	1	-1722834109	1	75.032	75.031	2.0.10.147	2.0.10.242	2.0.10.242	1.0.0.439	7	234	2	3	Verdana	1	80	0	0	0	WM Stimuli\	0.8	1244.5	0.9	673.222222222222	0.9	1010.77777777778	1	773.2	0.9	938.888888888889	1	652.6	0.8	1137	1	689.4	12	544130	3	544119	27	39	544157	-999999	544133	0	5	TrialsPROC	FC_001_M1.png	1	2	19	SessionSelectionList														target	2	Face	0-Back	17	80	16	0	0	100	1	39	304590	1	14	73	302551	-1	304145	1	1594	2	2	2039	53	304604	-54	0					6											19												
WM080112	130316_fnca	1	1	1	-1722834109	1	75.032	75.031	2.0.10.147	2.0.10.242	2.0.10.242	1.0.0.439	7	234	2	3	Verdana	1	80	0	0	0	WM Stimuli\	0.8	1244.5	0.9	673.222222222222	0.9	1010.77777777778	1	773.2	0.9	938.888888888889	1	652.6	0.8	1137	1	689.4	12	544130	3	544119	27	39	544157	-999999	544133	0	5	TrialsPROC	FC_006_F3.png	1	2	20	SessionSelectionList														nonlure	3	Face	0-Back	18	80	17	0	0	100	1	39	307162	1	14	72	305123	-1	305885	1	762	3	3	2039	53	307176	-54	0					7											20												
WM080112	130316_fnca	1	1	1	-1722834109	1	75.032	75.031	2.0.10.147	2.0.10.242	2.0.10.242	1.0.0.439	7	234	2	3	Verdana	1	80	0	0	0	WM Stimuli\	0.8	1244.5	0.9	673.222222222222	0.9	1010.77777777778	1	773.2	0.9	938.888888888889	1	652.6	0.8	1137	1	689.4	12	544130	3	544119	27	39	544157	-999999	544133	0	5	TrialsPROC	FC_006_F3.png	1	2	21	SessionSelectionList														lure	3	Face	0-Back	19	80	18	0	0	100	2	39	309734	2	14	72	307695	-1	308651	1	956	3	3	2039	53	309748	-54	0					8											21												
WM080112	130316_fnca	1	1	1	-1722834109	1	75.032	75.031	2.0.10.147	2.0.10.242	2.0.10.242	1.0.0.439	7	234	2	3	Verdana	1	80	0	0	0	WM Stimuli\	0.8	1244.5	0.9	673.222222222222	0.9	1010.77777777778	1	773.2	0.9	938.888888888889	1	652.6	0.8	1137	1	689.4	12	544130	3	544119	27	39	544157	-999999	544133	0	5	TrialsPROC	FC_003_M2.png	1	2	22	SessionSelectionList														lure	3	Face	0-Back	20	80	19	0	0	100	3	40	312307	1	13	72	310267	-1	310940	1	673	3	3	2040	53	312320	-54	0					9											22												
WM080112	130316_fnca	1	1	1	-1722834109	1	75.032	75.031	2.0.10.147	2.0.10.242	2.0.10.242	1.0.0.439	7	234	2	3	Verdana	1	80	0	0	0	WM Stimuli\	0.8	1244.5	0.9	673.222222222222	0.9	1010.77777777778	1	773.2	0.9	938.888888888889	1	652.6	0.8	1137	1	689.4	12	544130	3	544119	27	39	544157	-999999	544133	0	5	TrialsPROC	FC_002_F1.png	1	2	23	SessionSelectionList														nonlure	3	Face	0-Back	21	80	20	0	0	100	4	39	314879	1	14	73	312840	-1	313395	1	555	3	3	2039	53	314893	-54	0					10											23												
WM080112	130316_fnca	1	1	1	-1722834109	1	75.032	75.031	2.0.10.147	2.0.10.242	2.0.10.242	1.0.0.439	7	234	2	3	Verdana	1	80	0	0	0	WM Stimuli\	0.8	1244.5	0.9	673.222222222222	0.9	1010.77777777778	1	773.2	0.9	938.888888888889	1	652.6	0.8	1137	1	689.4	12	544130	3	544119	27	39	544157	-999999	544133	0	6	Fix15secPROC	""	1	2	24	SessionSelectionList																																															6	315346	-7	0							24												
WM080112	130316_fnca	1	1	1	-1722834109	1	75.032	75.031	2.0.10.147	2.0.10.242	2.0.10.242	1.0.0.439	7	234	2	3	Verdana	1	80	0	0	0	WM Stimuli\	0.8	1244.5	0.9	673.222222222222	0.9	1010.77777777778	1	773.2	0.9	938.888888888889	1	652.6	0.8	1137	1	689.4	12	544130	3	544119	27	39	544157	-999999	544133	0	7	Cue2BackPROC	""	1	2	25	SessionSelectionList									12	330352	-13	0																																													25												
WM080112	130316_fnca	1	1	1	-1722834109	1	75.032	75.031	2.0.10.147	2.0.10.242	2.0.10.242	1.0.0.439	7	234	2	3	Verdana	1	80	0	0	0	WM Stimuli\	0.8	1244.5	0.9	673.222222222222	0.9	1010.77777777778	1	773.2	0.9	938.888888888889	1	652.6	0.8	1137	1	689.4	12	544130	3	544119	27	39	544157	-999999	544133	0	8	TrialsPROC	TO_001_TOOL1_BA.png	1	2	26	SessionSelectionList														nonlure	3	Tools	2-Back	22	80	21	0	0	100	5	39	334937	2	14	58	332898	-1	333960	1	1062	3	3	2039	53	334951	-54	0										1						26												
WM080112	130316_fnca	1	1	1	-1722834109	1	75.032	75.031	2.0.10.147	2.0.10.242	2.0.10.242	1.0.0.439	7	234	2	3	Verdana	1	80	0	0	0	WM Stimuli\	0.8	1244.5	0.9	673.222222222222	0.9	1010.77777777778	1	773.2	0.9	938.888888888889	1	652.6	0.8	1137	1	689.4	12	544130	3	544119	27	39	544157	-999999	544133	0	8	TrialsPROC	TO_002_TOOL2_BA.png	1	2	27	SessionSelectionList														nonlure	3	Tools	2-Back	23	80	22	0	0	100	6	39	337496	1	14	59	335457	-1	336600	1	1143	3	3	2039	53	337510	-54	0										2						27												
WM080112	130316_fnca	1	1	1	-1722834109	1	75.032	75.031	2.0.10.147	2.0.10.242	2.0.10.242	1.0.0.439	7	234	2	3	Verdana	1	80	0	0	0	WM Stimuli\	0.8	1244.5	0.9	673.222222222222	0.9	1010.77777777778	1	773.2	0.9	938.888888888889	1	652.6	0.8	1137	1	689.4	12	544130	3	544119	27	39	544157	-999999	544133	0	8	TrialsPROC	TO_004_TOOL4_BA.png	1	2	28	SessionSelectionList														nonlure	3	Tools	2-Back	24	80	22	0	1	100	6	39	340055	1	14	59	338016	-1	0	0	0	""	3	2039	53	340069	-54	0										3						28												
WM080112	130316_fnca	1	1	1	-1722834109	1	75.032	75.031	2.0.10.147	2.0.10.242	2.0.10.242	1.0.0.439	7	234	2	3	Verdana	1	80	0	0	0	WM Stimuli\	0.8	1244.5	0.9	673.222222222222	0.9	1010.77777777778	1	773.2	0.9	938.888888888889	1	652.6	0.8	1137	1	689.4	12	544130	3	544119	27	39	544157	-999999	544133	0	8	TrialsPROC	TO_002_TOOL2_BA.png	1	2	29	SessionSelectionList														target	2	Tools	2-Back	25	80	23	0	0	100	1	39	342614	1	14	59	340575	-1	341634	1	1059	2	2	2039	53	342628	-54	0										4						29												
WM080112	130316_fnca	1	1	1	-1722834109	1	75.032	75.031	2.0.10.147	2.0.10.242	2.0.10.242	1.0.0.439	7	234	2	3	Verdana	1	80	0	0	0	WM Stimuli\	0.8	1244.5	0.9	673.222222222222	0.9	1010.77777777778	1	773.2	0.9	938.888888888889	1	652.6	0.8	1137	1	689.4	12	544130	3	544119	27	39	544157	-999999	544133	0	8	TrialsPROC	TO_001_TOOL1_BA.png	1	2	30	SessionSelectionList														lure	3	Tools	2-Back	26	80	24	0	0	100	1	39	345173	1	14	59	343134	-1	344769	1	1635	3	3	2039	53	345187	-54	0										5						30												
WM080112	130316_fnca	1	1	1	-1722834109	1	75.032	75.031	2.0.10.147	2.0.10.242	2.0.10.242	1.0.0.439	7	234	2	3	Verdana	1	80	0	0	0	WM Stimuli\	0.8	1244.5	0.9	673.222222222222	0.9	1010.77777777778	1	773.2	0.9	938.888888888889	1	652.6	0.8	1137	1	689.4	12	544130	3	544119	27	39	544157	-999999	544133	0	8	TrialsPROC	TO_004_TOOL4_BA.png	1	2	31	SessionSelectionList														lure	3	Tools	2-Back	27	80	25	0	0	100	1	39	347732	1	14	59	345693	-1	347414	0	1721	2	3	2039	53	347746	-54	0										6						31												
WM080112	130316_fnca	1	1	1	-1722834109	1	75.032	75.031	2.0.10.147	2.0.10.242	2.0.10.242	1.0.0.439	7	234	2	3	Verdana	1	80	0	0	0	WM Stimuli\	0.8	1244.5	0.9	673.222222222222	0.9	1010.77777777778	1	773.2	0.9	938.888888888889	1	652.6	0.8	1137	1	689.4	12	544130	3	544119	27	39	544157	-999999	544133	0	8	TrialsPROC	TO_006_TOOL6_BA.png	1	2	32	SessionSelectionList														nonlure	3	Tools	2-Back	28	80	26	0	0	100	1	39	350291	1	14	59	348252	-1	349702	1	1450	3	3	2039	53	350305	-54	0										7						32												
WM080112	130316_fnca	1	1	1	-1722834109	1	75.032	75.031	2.0.10.147	2.0.10.242	2.0.10.242	1.0.0.439	7	234	2	3	Verdana	1	80	0	0	0	WM Stimuli\	0.8	1244.5	0.9	673.222222222222	0.9	1010.77777777778	1	773.2	0.9	938.888888888889	1	652.6	0.8	1137	1	689.4	12	544130	3	544119	27	39	544157	-999999	544133	0	8	TrialsPROC	TO_005_TOOL5_BA.png	1	2	33	SessionSelectionList														nonlure	3	Tools	2-Back	29	80	27	0	0	100	2	39	352850	1	14	59	350811	-1	351521	1	710	3	3	2039	53	352864	-54	0										8						33												
WM080112	130316_fnca	1	1	1	-1722834109	1	75.032	75.031	2.0.10.147	2.0.10.242	2.0.10.242	1.0.0.439	7	234	2	3	Verdana	1	80	0	0	0	WM Stimuli\	0.8	1244.5	0.9	673.222222222222	0.9	1010.77777777778	1	773.2	0.9	938.888888888889	1	652.6	0.8	1137	1	689.4	12	544130	3	544119	27	39	544157	-999999	544133	0	8	TrialsPROC	TO_006_TOOL6_BA.png	1	2	34	SessionSelectionList														target	2	Tools	2-Back	30	80	28	0	0	100	1	39	355409	1	13	59	353370	-1	354431	1	1061	2	2	2039	52	355422	-53	0										9						34												
WM080112	130316_fnca	1	1	1	-1722834109	1	75.032	75.031	2.0.10.147	2.0.10.242	2.0.10.242	1.0.0.439	7	234	2	3	Verdana	1	80	0	0	0	WM Stimuli\	0.8	1244.5	0.9	673.222222222222	0.9	1010.77777777778	1	773.2	0.9	938.888888888889	1	652.6	0.8	1137	1	689.4	12	544130	3	544119	27	39	544157	-999999	544133	0	8	TrialsPROC	TO_003_TOOL3_BA.png	1	2	35	SessionSelectionList														nonlure	3	Tools	2-Back	31	80	29	0	0	100	1	40	357968	1	13	58	355928	-1	356904	1	976	3	3	2040	53	357981	-54	0										10						35												
WM080112	130316_fnca	1	1	1	-1722834109	1	75.032	75.031	2.0.10.147	2.0.10.242	2.0.10.242	1.0.0.439	7	234	2	3	Verdana	1	80	0	0	0	WM Stimuli\	0.8	1244.5	0.9	673.222222222222	0.9	1010.77777777778	1	773.2	0.9	938.888888888889	1	652.6	0.8	1137	1	689.4	12	544130	3	544119	27	39	544157	-999999	544133	0	9	Cue0BackPROC	BP_007_BP20_BA.png	1	2	36	SessionSelectionList																																										19	358447	-20	0												36												
WM080112	130316_fnca	1	1	1	-1722834109	1	75.032	75.031	2.0.10.147	2.0.10.242	2.0.10.242	1.0.0.439	7	234	2	3	Verdana	1	80	0	0	0	WM Stimuli\	0.8	1244.5	0.9	673.222222222222	0.9	1010.77777777778	1	773.2	0.9	938.888888888889	1	652.6	0.8	1137	1	689.4	12	544130	3	544119	27	39	544157	-999999	544133	0	10	TrialsPROC	BP_007_BP20_BA.png	1	2	37	SessionSelectionList														target	2	Body	0-Back	32	80	29	0	1	91	1	39	363019	1	14	52	360980	-1	0	0	0	""	2	2039	53	363033	-54	0											1					37												
WM080112	130316_fnca	1	1	1	-1722834109	1	75.032	75.031	2.0.10.147	2.0.10.242	2.0.10.242	1.0.0.439	7	234	2	3	Verdana	1	80	0	0	0	WM Stimuli\	0.8	1244.5	0.9	673.222222222222	0.9	1010.77777777778	1	773.2	0.9	938.888888888889	1	652.6	0.8	1137	1	689.4	12	544130	3	544119	27	39	544157	-999999	544133	0	10	TrialsPROC	BP_011_BP4_BA.png	1	2	38	SessionSelectionList														nonlure	3	Body	0-Back	33	80	30	0	0	92	1	39	365578	1	14	59	363539	-1	364400	1	861	3	3	2039	53	365592	-54	0											2					38												
WM080112	130316_fnca	1	1	1	-1722834109	1	75.032	75.031	2.0.10.147	2.0.10.242	2.0.10.242	1.0.0.439	7	234	2	3	Verdana	1	80	0	0	0	WM Stimuli\	0.8	1244.5	0.9	673.222222222222	0.9	1010.77777777778	1	773.2	0.9	938.888888888889	1	652.6	0.8	1137	1	689.4	12	544130	3	544119	27	39	544157	-999999	544133	0	10	TrialsPROC	BP_010_BP3_BA.png	1	2	39	SessionSelectionList														nonlure	3	Body	0-Back	34	80	31	0	0	92	2	39	368137	1	14	59	366098	-1	366667	1	569	3	3	2039	53	368151	-54	0											3					39												
WM080112	130316_fnca	1	1	1	-1722834109	1	75.032	75.031	2.0.10.147	2.0.10.242	2.0.10.242	1.0.0.439	7	234	2	3	Verdana	1	80	0	0	0	WM Stimuli\	0.8	1244.5	0.9	673.222222222222	0.9	1010.77777777778	1	773.2	0.9	938.888888888889	1	652.6	0.8	1137	1	689.4	12	544130	3	544119	27	39	544157	-999999	544133	0	10	TrialsPROC	BP_008_BP21_BA.png	1	2	40	SessionSelectionList														nonlure	3	Body	0-Back	35	80	32	0	0	93	3	39	370696	1	13	59	368657	-1	369543	1	886	3	3	2039	52	370709	-53	0											4					40												
WM080112	130316_fnca	1	1	1	-1722834109	1	75.032	75.031	2.0.10.147	2.0.10.242	2.0.10.242	1.0.0.439	7	234	2	3	Verdana	1	80	0	0	0	WM Stimuli\	0.8	1244.5	0.9	673.222222222222	0.9	1010.77777777778	1	773.2	0.9	938.888888888889	1	652.6	0.8	1137	1	689.4	12	544130	3	544119	27	39	544157	-999999	544133	0	10	TrialsPROC	BP_011_BP4_BA.png	1	2	41	SessionSelectionList														lure	3	Body	0-Back	36	80	33	0	0	93	4	39	373255	1	13	59	371216	-1	371731	1	515	3	3	2039	52	373268	-53	0											5					41												
WM080112	130316_fnca	1	1	1	-1722834109	1	75.032	75.031	2.0.10.147	2.0.10.242	2.0.10.242	1.0.0.439	7	234	2	3	Verdana	1	80	0	0	0	WM Stimuli\	0.8	1244.5	0.9	673.222222222222	0.9	1010.77777777778	1	773.2	0.9	938.888888888889	1	652.6	0.8	1137	1	689.4	12	544130	3	544119	27	39	544157	-999999	544133	0	10	TrialsPROC	BP_009_BP22_BA.png	1	2	42	SessionSelectionList														nonlure	3	Body	0-Back	37	80	34	0	0	94	5	40	375814	2	13	58	373774	-1	374432	1	658	3	3	2040	53	375827	-54	0											6					42												
WM080112	130316_fnca	1	1	1	-1722834109	1	75.032	75.031	2.0.10.147	2.0.10.242	2.0.10.242	1.0.0.439	7	234	2	3	Verdana	1	80	0	0	0	WM Stimuli\	0.8	1244.5	0.9	673.222222222222	0.9	1010.77777777778	1	773.2	0.9	938.888888888889	1	652.6	0.8	1137	1	689.4	12	544130	3	544119	27	39	544157	-999999	544133	0	10	TrialsPROC	BP_009_BP22_BA.png	1	2	43	SessionSelectionList														lure	3	Body	0-Back	38	80	35	0	0	94	6	39	378372	2	14	59	376333	-1	377160	1	827	3	3	2039	53	378386	-54	0											7					43												
WM080112	130316_fnca	1	1	1	-1722834109	1	75.032	75.031	2.0.10.147	2.0.10.242	2.0.10.242	1.0.0.439	7	234	2	3	Verdana	1	80	0	0	0	WM Stimuli\	0.8	1244.5	0.9	673.222222222222	0.9	1010.77777777778	1	773.2	0.9	938.888888888889	1	652.6	0.8	1137	1	689.4	12	544130	3	544119	27	39	544157	-999999	544133	0	10	TrialsPROC	BP_008_BP21_BA.png	1	2	44	SessionSelectionList														lure	3	Body	0-Back	39	80	36	0	0	94	7	39	380931	2	14	59	378892	-1	379526	1	634	3	3	2039	53	380945	-54	0											8					44												
WM080112	130316_fnca	1	1	1	-1722834109	1	75.032	75.031	2.0.10.147	2.0.10.242	2.0.10.242	1.0.0.439	7	234	2	3	Verdana	1	80	0	0	0	WM Stimuli\	0.8	1244.5	0.9	673.222222222222	0.9	1010.77777777778	1	773.2	0.9	938.888888888889	1	652.6	0.8	1137	1	689.4	12	544130	3	544119	27	39	544157	-999999	544133	0	10	TrialsPROC	BP_007_BP20_BA.png	1	2	45	SessionSelectionList														target	2	Body	0-Back	40	80	37	0	0	95	1	39	383490	3	14	59	381451	-1	382021	1	570	2	2	2039	53	383504	-54	0											9					45												
WM080112	130316_fnca	1	1	1	-1722834109	1	75.032	75.031	2.0.10.147	2.0.10.242	2.0.10.242	1.0.0.439	7	234	2	3	Verdana	1	80	0	0	0	WM Stimuli\	0.8	1244.5	0.9	673.222222222222	0.9	1010.77777777778	1	773.2	0.9	938.888888888889	1	652.6	0.8	1137	1	689.4	12	544130	3	544119	27	39	544157	-999999	544133	0	10	TrialsPROC	BP_012_BP5_BA.png	1	2	46	SessionSelectionList														nonlure	3	Body	0-Back	41	80	38	0	0	95	1	38	386049	2	14	60	384011	-1	384550	1	539	3	3	2038	52	386063	-53	0											10					46												
WM080112	130316_fnca	1	1	1	-1722834109	1	75.032	75.031	2.0.10.147	2.0.10.242	2.0.10.242	1.0.0.439	7	234	2	3	Verdana	1	80	0	0	0	WM Stimuli\	0.8	1244.5	0.9	673.222222222222	0.9	1010.77777777778	1	773.2	0.9	938.888888888889	1	652.6	0.8	1137	1	689.4	12	544130	3	544119	27	39	544157	-999999	544133	0	11	Fix15secPROC	""	1	2	47	SessionSelectionList																																															5	386516	-6	0							47												
WM080112	130316_fnca	1	1	1	-1722834109	1	75.032	75.031	2.0.10.147	2.0.10.242	2.0.10.242	1.0.0.439	7	234	2	3	Verdana	1	80	0	0	0	WM Stimuli\	0.8	1244.5	0.9	673.222222222222	0.9	1010.77777777778	1	773.2	0.9	938.888888888889	1	652.6	0.8	1137	1	689.4	12	544130	3	544119	27	39	544157	-999999	544133	0	12	Cue0BackPROC	PL_001_92012.png	1	2	48	SessionSelectionList																																										12	401523	-13	0												48												
WM080112	130316_fnca	1	1	1	-1722834109	1	75.032	75.031	2.0.10.147	2.0.10.242	2.0.10.242	1.0.0.439	7	234	2	3	Verdana	1	80	0	0	0	WM Stimuli\	0.8	1244.5	0.9	673.222222222222	0.9	1010.77777777778	1	773.2	0.9	938.888888888889	1	652.6	0.8	1137	1	689.4	12	544130	3	544119	27	39	544157	-999999	544133	0	13	TrialsPROC	PL_003_92016.png	1	2	49	SessionSelectionList														nonlure	3	Place	0-Back	42	80	39	0	0	95	2	39	406121	1	14	71	404082	-1	405119	1	1037	3	3	2039	53	406135	-54	0												1				49												
WM080112	130316_fnca	1	1	1	-1722834109	1	75.032	75.031	2.0.10.147	2.0.10.242	2.0.10.242	1.0.0.439	7	234	2	3	Verdana	1	80	0	0	0	WM Stimuli\	0.8	1244.5	0.9	673.222222222222	0.9	1010.77777777778	1	773.2	0.9	938.888888888889	1	652.6	0.8	1137	1	689.4	12	544130	3	544119	27	39	544157	-999999	544133	0	13	TrialsPROC	PL_003_92016.png	1	2	50	SessionSelectionList														lure	3	Place	0-Back	43	80	40	0	0	95	3	39	408693	2	14	72	406654	-1	407364	1	710	3	3	2039	53	408707	-54	0												2				50												
WM080112	130316_fnca	1	1	1	-1722834109	1	75.032	75.031	2.0.10.147	2.0.10.242	2.0.10.242	1.0.0.439	7	234	2	3	Verdana	1	80	0	0	0	WM Stimuli\	0.8	1244.5	0.9	673.222222222222	0.9	1010.77777777778	1	773.2	0.9	938.888888888889	1	652.6	0.8	1137	1	689.4	12	544130	3	544119	27	39	544157	-999999	544133	0	13	TrialsPROC	PL_006_92025.png	1	2	51	SessionSelectionList														nonlure	3	Place	0-Back	44	80	41	0	0	96	4	39	411252	2	14	59	409213	-1	409693	1	480	3	3	2039	53	411266	-54	0												3				51												
WM080112	130316_fnca	1	1	1	-1722834109	1	75.032	75.031	2.0.10.147	2.0.10.242	2.0.10.242	1.0.0.439	7	234	2	3	Verdana	1	80	0	0	0	WM Stimuli\	0.8	1244.5	0.9	673.222222222222	0.9	1010.77777777778	1	773.2	0.9	938.888888888889	1	652.6	0.8	1137	1	689.4	12	544130	3	544119	27	39	544157	-999999	544133	0	13	TrialsPROC	PL_001_92012.png	1	2	52	SessionSelectionList														target	2	Place	0-Back	45	80	42	0	0	96	1	39	413811	1	14	59	411772	-1	412293	1	521	2	2	2039	53	413825	-54	0												4				52												
WM080112	130316_fnca	1	1	1	-1722834109	1	75.032	75.031	2.0.10.147	2.0.10.242	2.0.10.242	1.0.0.439	7	234	2	3	Verdana	1	80	0	0	0	WM Stimuli\	0.8	1244.5	0.9	673.222222222222	0.9	1010.77777777778	1	773.2	0.9	938.888888888889	1	652.6	0.8	1137	1	689.4	12	544130	3	544119	27	39	544157	-999999	544133	0	13	TrialsPROC	PL_004_92023.png	1	2	53	SessionSelectionList														nonlure	3	Place	0-Back	46	80	43	0	0	96	1	39	416383	2	14	72	414344	-1	415101	1	757	3	3	2039	53	416397	-54	0												5				53												
WM080112	130316_fnca	1	1	1	-1722834109	1	75.032	75.031	2.0.10.147	2.0.10.242	2.0.10.242	1.0.0.439	7	234	2	3	Verdana	1	80	0	0	0	WM Stimuli\	0.8	1244.5	0.9	673.222222222222	0.9	1010.77777777778	1	773.2	0.9	938.888888888889	1	652.6	0.8	1137	1	689.4	12	544130	3	544119	27	39	544157	-999999	544133	0	13	TrialsPROC	PL_005_92024.png	1	2	54	SessionSelectionList														nonlure	3	Place	0-Back	47	80	44	0	0	96	2	40	418956	1	13	72	416916	-1	417575	1	659	3	3	2040	53	418969	-54	0												6				54												
WM080112	130316_fnca	1	1	1	-1722834109	1	75.032	75.031	2.0.10.147	2.0.10.242	2.0.10.242	1.0.0.439	7	234	2	3	Verdana	1	80	0	0	0	WM Stimuli\	0.8	1244.5	0.9	673.222222222222	0.9	1010.77777777778	1	773.2	0.9	938.888888888889	1	652.6	0.8	1137	1	689.4	12	544130	3	544119	27	39	544157	-999999	544133	0	13	TrialsPROC	PL_001_92012.png	1	2	55	SessionSelectionList														target	2	Place	0-Back	48	80	45	0	0	96	1	39	421528	1	14	73	419489	-1	420035	1	546	2	2	2039	53	421542	-54	0												7				55												
WM080112	130316_fnca	1	1	1	-1722834109	1	75.032	75.031	2.0.10.147	2.0.10.242	2.0.10.242	1.0.0.439	7	234	2	3	Verdana	1	80	0	0	0	WM Stimuli\	0.8	1244.5	0.9	673.222222222222	0.9	1010.77777777778	1	773.2	0.9	938.888888888889	1	652.6	0.8	1137	1	689.4	12	544130	3	544119	27	39	544157	-999999	544133	0	13	TrialsPROC	PL_002_92014.png	1	2	56	SessionSelectionList														nonlure	3	Place	0-Back	49	80	46	0	0	96	1	39	424100	2	14	72	422061	-1	422603	1	542	3	3	2039	53	424114	-54	0												8				56												
WM080112	130316_fnca	1	1	1	-1722834109	1	75.032	75.031	2.0.10.147	2.0.10.242	2.0.10.242	1.0.0.439	7	234	2	3	Verdana	1	80	0	0	0	WM Stimuli\	0.8	1244.5	0.9	673.222222222222	0.9	1010.77777777778	1	773.2	0.9	938.888888888889	1	652.6	0.8	1137	1	689.4	12	544130	3	544119	27	39	544157	-999999	544133	0	13	TrialsPROC	PL_004_92023.png	1	2	57	SessionSelectionList														lure	3	Place	0-Back	50	80	47	0	0	97	2	39	426659	2	14	59	424620	-1	425261	1	641	3	3	2039	53	426673	-54	0												9				57												
WM080112	130316_fnca	1	1	1	-1722834109	1	75.032	75.031	2.0.10.147	2.0.10.242	2.0.10.242	1.0.0.439	7	234	2	3	Verdana	1	80	0	0	0	WM Stimuli\	0.8	1244.5	0.9	673.222222222222	0.9	1010.77777777778	1	773.2	0.9	938.888888888889	1	652.6	0.8	1137	1	689.4	12	544130	3	544119	27	39	544157	-999999	544133	0	13	TrialsPROC	PL_006_92025.png	1	2	58	SessionSelectionList														lure	3	Place	0-Back	51	80	48	0	0	97	3	39	429231	2	14	72	427192	-1	427825	1	633	3	3	2039	53	429245	-54	0												10				58												
WM080112	130316_fnca	1	1	1	-1722834109	1	75.032	75.031	2.0.10.147	2.0.10.242	2.0.10.242	1.0.0.439	7	234	2	3	Verdana	1	80	0	0	0	WM Stimuli\	0.8	1244.5	0.9	673.222222222222	0.9	1010.77777777778	1	773.2	0.9	938.888888888889	1	652.6	0.8	1137	1	689.4	12	544130	3	544119	27	39	544157	-999999	544133	0	14	Cue2BackPROC	""	1	2	59	SessionSelectionList									6	429698	-7	0																																													59												
WM080112	130316_fnca	1	1	1	-1722834109	1	75.032	75.031	2.0.10.147	2.0.10.242	2.0.10.242	1.0.0.439	7	234	2	3	Verdana	1	80	0	0	0	WM Stimuli\	0.8	1244.5	0.9	673.222222222222	0.9	1010.77777777778	1	773.2	0.9	938.888888888889	1	652.6	0.8	1137	1	689.4	12	544130	3	544119	27	39	544157	-999999	544133	0	15	TrialsPROC	FC_010_F5.png	1	2	60	SessionSelectionList														nonlure	3	Face	2-Back	52	80	49	0	0	97	4	39	434296	1	14	65	432257	-1	434219	1	1962	3	3	2039	53	434310	-54	0													1			60												
WM080112	130316_fnca	1	1	1	-1722834109	1	75.032	75.031	2.0.10.147	2.0.10.242	2.0.10.242	1.0.0.439	7	234	2	3	Verdana	1	80	0	0	0	WM Stimuli\	0.8	1244.5	0.9	673.222222222222	0.9	1010.77777777778	1	773.2	0.9	938.888888888889	1	652.6	0.8	1137	1	689.4	12	544130	3	544119	27	39	544157	-999999	544133	0	15	TrialsPROC	FC_012_F6.png	1	2	61	SessionSelectionList														nonlure	3	Face	2-Back	53	80	50	0	0	97	5	39	436868	2	14	72	434829	-1	435822	1	993	3	3	2039	53	436882	-54	0													2			61												
WM080112	130316_fnca	1	1	1	-1722834109	1	75.032	75.031	2.0.10.147	2.0.10.242	2.0.10.242	1.0.0.439	7	234	2	3	Verdana	1	80	0	0	0	WM Stimuli\	0.8	1244.5	0.9	673.222222222222	0.9	1010.77777777778	1	773.2	0.9	938.888888888889	1	652.6	0.8	1137	1	689.4	12	544130	3	544119	27	39	544157	-999999	544133	0	15	TrialsPROC	FC_010_F5.png	1	2	62	SessionSelectionList														target	2	Face	2-Back	54	80	51	0	0	97	1	39	439440	2	14	72	437401	-1	438463	1	1062	2	2	2039	53	439454	-54	0													3			62												
WM080112	130316_fnca	1	1	1	-1722834109	1	75.032	75.031	2.0.10.147	2.0.10.242	2.0.10.242	1.0.0.439	7	234	2	3	Verdana	1	80	0	0	0	WM Stimuli\	0.8	1244.5	0.9	673.222222222222	0.9	1010.77777777778	1	773.2	0.9	938.888888888889	1	652.6	0.8	1137	1	689.4	12	544130	3	544119	27	39	544157	-999999	544133	0	15	TrialsPROC	FC_008_F4.png	1	2	63	SessionSelectionList														nonlure	3	Face	2-Back	55	80	52	0	0	97	1	39	442013	1	14	73	439974	-1	440749	1	775	3	3	2039	53	442027	-54	0													4			63												
WM080112	130316_fnca	1	1	1	-1722834109	1	75.032	75.031	2.0.10.147	2.0.10.242	2.0.10.242	1.0.0.439	7	234	2	3	Verdana	1	80	0	0	0	WM Stimuli\	0.8	1244.5	0.9	673.222222222222	0.9	1010.77777777778	1	773.2	0.9	938.888888888889	1	652.6	0.8	1137	1	689.4	12	544130	3	544119	27	39	544157	-999999	544133	0	15	TrialsPROC	FC_012_F6.png	1	2	64	SessionSelectionList														lure	3	Face	2-Back	56	80	53	0	0	97	1	39	444585	1	14	72	442546	-1	443091	0	545	2	3	2039	53	444599	-54	0													5			64												
WM080112	130316_fnca	1	1	1	-1722834109	1	75.032	75.031	2.0.10.147	2.0.10.242	2.0.10.242	1.0.0.439	7	234	2	3	Verdana	1	80	0	0	0	WM Stimuli\	0.8	1244.5	0.9	673.222222222222	0.9	1010.77777777778	1	773.2	0.9	938.888888888889	1	652.6	0.8	1137	1	689.4	12	544130	3	544119	27	39	544157	-999999	544133	0	15	TrialsPROC	FC_008_F4.png	1	2	65	SessionSelectionList														target	2	Face	2-Back	57	80	54	0	0	97	2	39	447157	2	14	72	445118	-1	446429	1	1311	2	2	2039	53	447171	-54	0													6			65												
WM080112	130316_fnca	1	1	1	-1722834109	1	75.032	75.031	2.0.10.147	2.0.10.242	2.0.10.242	1.0.0.439	7	234	2	3	Verdana	1	80	0	0	0	WM Stimuli\	0.8	1244.5	0.9	673.222222222222	0.9	1010.77777777778	1	773.2	0.9	938.888888888889	1	652.6	0.8	1137	1	689.4	12	544130	3	544119	27	39	544157	-999999	544133	0	15	TrialsPROC	FC_007_M4.png	1	2	66	SessionSelectionList														nonlure	3	Face	2-Back	58	80	55	0	0	97	1	39	449729	2	14	72	447690	-1	448370	1	680	3	3	2039	53	449743	-54	0													7			66												
WM080112	130316_fnca	1	1	1	-1722834109	1	75.032	75.031	2.0.10.147	2.0.10.242	2.0.10.242	1.0.0.439	7	234	2	3	Verdana	1	80	0	0	0	WM Stimuli\	0.8	1244.5	0.9	673.222222222222	0.9	1010.77777777778	1	773.2	0.9	938.888888888889	1	652.6	0.8	1137	1	689.4	12	544130	3	544119	27	39	544157	-999999	544133	0	15	TrialsPROC	FC_007_M4.png	1	2	67	SessionSelectionList														lure	3	Face	2-Back	59	80	56	0	0	97	2	39	452302	1	14	73	450263	-1	450957	1	694	3	3	2039	53	452316	-54	0													8			67												
WM080112	130316_fnca	1	1	1	-1722834109	1	75.032	75.031	2.0.10.147	2.0.10.242	2.0.10.242	1.0.0.439	7	234	2	3	Verdana	1	80	0	0	0	WM Stimuli\	0.8	1244.5	0.9	673.222222222222	0.9	1010.77777777778	1	773.2	0.9	938.888888888889	1	652.6	0.8	1137	1	689.4	12	544130	3	544119	27	39	544157	-999999	544133	0	15	TrialsPROC	FC_009_M5.png	1	2	68	SessionSelectionList														nonlure	3	Face	2-Back	60	80	57	0	0	97	3	39	454874	1	14	72	452835	-1	453723	1	888	3	3	2039	53	454888	-54	0													9			68												
WM080112	130316_fnca	1	1	1	-1722834109	1	75.032	75.031	2.0.10.147	2.0.10.242	2.0.10.242	1.0.0.439	7	234	2	3	Verdana	1	80	0	0	0	WM Stimuli\	0.8	1244.5	0.9	673.222222222222	0.9	1010.77777777778	1	773.2	0.9	938.888888888889	1	652.6	0.8	1137	1	689.4	12	544130	3	544119	27	39	544157	-999999	544133	0	15	TrialsPROC	FC_011_M6.png	1	2	69	SessionSelectionList														nonlure	3	Face	2-Back	61	80	58	0	0	97	4	39	457446	2	14	72	455407	-1	456139	1	732	3	3	2039	53	457460	-54	0													10			69												
WM080112	130316_fnca	1	1	1	-1722834109	1	75.032	75.031	2.0.10.147	2.0.10.242	2.0.10.242	1.0.0.439	7	234	2	3	Verdana	1	80	0	0	0	WM Stimuli\	0.8	1244.5	0.9	673.222222222222	0.9	1010.77777777778	1	773.2	0.9	938.888888888889	1	652.6	0.8	1137	1	689.4	12	544130	3	544119	27	39	544157	-999999	544133	0	16	Fix15secPROC	""	1	2	70	SessionSelectionList																																															6	457913	-7	0							70												
WM080112	130316_fnca	1	1	1	-1722834109	1	75.032	75.031	2.0.10.147	2.0.10.242	2.0.10.242	1.0.0.439	7	234	2	3	Verdana	1	80	0	0	0	WM Stimuli\	0.8	1244.5	0.9	673.222222222222	0.9	1010.77777777778	1	773.2	0.9	938.888888888889	1	652.6	0.8	1137	1	689.4	12	544130	3	544119	27	39	544157	-999999	544133	0	17	Cue0BackPROC	TO_007_TOOL7_BA.png	1	2	71	SessionSelectionList																																										13	472920	-14	0												71												
WM080112	130316_fnca	1	1	1	-1722834109	1	75.032	75.031	2.0.10.147	2.0.10.242	2.0.10.242	1.0.0.439	7	234	2	3	Verdana	1	80	0	0	0	WM Stimuli\	0.8	1244.5	0.9	673.222222222222	0.9	1010.77777777778	1	773.2	0.9	938.888888888889	1	652.6	0.8	1137	1	689.4	12	544130	3	544119	27	39	544157	-999999	544133	0	18	TrialsPROC	TO_010_TOOL10_BA.png	1	2	72	SessionSelectionList														nonlure	3	Tools	0-Back	62	80	59	0	0	97	5	40	477505	1	13	58	475465	-1	476724	1	1259	3	3	2040	53	477518	-54	0														1		72												
WM080112	130316_fnca	1	1	1	-1722834109	1	75.032	75.031	2.0.10.147	2.0.10.242	2.0.10.242	1.0.0.439	7	234	2	3	Verdana	1	80	0	0	0	WM Stimuli\	0.8	1244.5	0.9	673.222222222222	0.9	1010.77777777778	1	773.2	0.9	938.888888888889	1	652.6	0.8	1137	1	689.4	12	544130	3	544119	27	39	544157	-999999	544133	0	18	TrialsPROC	TO_009_TOOL9_BA.png	1	2	73	SessionSelectionList														nonlure	3	Tools	0-Back	63	80	60	0	0	97	6	40	480064	1	13	59	478024	-1	478840	1	816	3	3	2040	53	480077	-54	0														2		73												
WM080112	130316_fnca	1	1	1	-1722834109	1	75.032	75.031	2.0.10.147	2.0.10.242	2.0.10.242	1.0.0.439	7	234	2	3	Verdana	1	80	0	0	0	WM Stimuli\	0.8	1244.5	0.9	673.222222222222	0.9	1010.77777777778	1	773.2	0.9	938.888888888889	1	652.6	0.8	1137	1	689.4	12	544130	3	544119	27	39	544157	-999999	544133	0	18	TrialsPROC	TO_009_TOOL9_BA.png	1	2	74	SessionSelectionList														lure	3	Tools	0-Back	64	80	61	0	0	97	7	40	482623	2	13	59	480583	-1	481420	1	837	3	3	2040	53	482636	-54	0														3		74												
WM080112	130316_fnca	1	1	1	-1722834109	1	75.032	75.031	2.0.10.147	2.0.10.242	2.0.10.242	1.0.0.439	7	234	2	3	Verdana	1	80	0	0	0	WM Stimuli\	0.8	1244.5	0.9	673.222222222222	0.9	1010.77777777778	1	773.2	0.9	938.888888888889	1	652.6	0.8	1137	1	689.4	12	544130	3	544119	27	39	544157	-999999	544133	0	18	TrialsPROC	TO_008_TOOL8_BA.png	1	2	75	SessionSelectionList														nonlure	3	Tools	0-Back	65	80	62	0	0	97	8	39	485181	2	14	59	483142	-1	483705	1	563	3	3	2039	53	485195	-54	0														4		75												
WM080112	130316_fnca	1	1	1	-1722834109	1	75.032	75.031	2.0.10.147	2.0.10.242	2.0.10.242	1.0.0.439	7	234	2	3	Verdana	1	80	0	0	0	WM Stimuli\	0.8	1244.5	0.9	673.222222222222	0.9	1010.77777777778	1	773.2	0.9	938.888888888889	1	652.6	0.8	1137	1	689.4	12	544130	3	544119	27	39	544157	-999999	544133	0	18	TrialsPROC	TO_011_TOOL11_BA.png	1	2	76	SessionSelectionList														nonlure	3	Tools	0-Back	66	80	63	0	0	97	9	38	487740	2	14	60	485702	-1	486126	1	424	3	3	2038	52	487754	-53	0														5		76												
WM080112	130316_fnca	1	1	1	-1722834109	1	75.032	75.031	2.0.10.147	2.0.10.242	2.0.10.242	1.0.0.439	7	234	2	3	Verdana	1	80	0	0	0	WM Stimuli\	0.8	1244.5	0.9	673.222222222222	0.9	1010.77777777778	1	773.2	0.9	938.888888888889	1	652.6	0.8	1137	1	689.4	12	544130	3	544119	27	39	544157	-999999	544133	0	18	TrialsPROC	TO_012_TOOL12_BA.png	1	2	77	SessionSelectionList														nonlure	3	Tools	0-Back	67	80	64	0	0	97	10	39	490299	3	14	58	488260	-1	488863	1	603	3	3	2039	53	490313	-54	0														6		77												
WM080112	130316_fnca	1	1	1	-1722834109	1	75.032	75.031	2.0.10.147	2.0.10.242	2.0.10.242	1.0.0.439	7	234	2	3	Verdana	1	80	0	0	0	WM Stimuli\	0.8	1244.5	0.9	673.222222222222	0.9	1010.77777777778	1	773.2	0.9	938.888888888889	1	652.6	0.8	1137	1	689.4	12	544130	3	544119	27	39	544157	-999999	544133	0	18	TrialsPROC	TO_010_TOOL10_BA.png	1	2	78	SessionSelectionList														lure	3	Tools	0-Back	68	80	65	0	0	97	11	39	492858	2	14	59	490819	-1	491619	1	800	3	3	2039	53	492872	-54	0														7		78												
WM080112	130316_fnca	1	1	1	-1722834109	1	75.032	75.031	2.0.10.147	2.0.10.242	2.0.10.242	1.0.0.439	7	234	2	3	Verdana	1	80	0	0	0	WM Stimuli\	0.8	1244.5	0.9	673.222222222222	0.9	1010.77777777778	1	773.2	0.9	938.888888888889	1	652.6	0.8	1137	1	689.4	12	544130	3	544119	27	39	544157	-999999	544133	0	18	TrialsPROC	TO_007_TOOL7_BA.png	1	2	79	SessionSelectionList														target	2	Tools	0-Back	69	80	66	0	0	97	1	39	495417	2	14	59	493378	-1	493981	1	603	2	2	2039	53	495431	-54	0														8		79												
WM080112	130316_fnca	1	1	1	-1722834109	1	75.032	75.031	2.0.10.147	2.0.10.242	2.0.10.242	1.0.0.439	7	234	2	3	Verdana	1	80	0	0	0	WM Stimuli\	0.8	1244.5	0.9	673.222222222222	0.9	1010.77777777778	1	773.2	0.9	938.888888888889	1	652.6	0.8	1137	1	689.4	12	544130	3	544119	27	39	544157	-999999	544133	0	18	TrialsPROC	TO_008_TOOL8_BA.png	1	2	80	SessionSelectionList														lure	3	Tools	0-Back	70	80	67	0	0	97	1	39	497976	3	14	59	495937	-1	496460	1	523	3	3	2039	53	497990	-54	0														9		80												
WM080112	130316_fnca	1	1	1	-1722834109	1	75.032	75.031	2.0.10.147	2.0.10.242	2.0.10.242	1.0.0.439	7	234	2	3	Verdana	1	80	0	0	0	WM Stimuli\	0.8	1244.5	0.9	673.222222222222	0.9	1010.77777777778	1	773.2	0.9	938.888888888889	1	652.6	0.8	1137	1	689.4	12	544130	3	544119	27	39	544157	-999999	544133	0	18	TrialsPROC	TO_007_TOOL7_BA.png	1	2	81	SessionSelectionList														target	2	Tools	0-Back	71	80	68	0	0	98	1	39	500535	1	14	59	498496	-1	498962	1	466	2	2	2039	53	500549	-54	0														10		81												
WM080112	130316_fnca	1	1	1	-1722834109	1	75.032	75.031	2.0.10.147	2.0.10.242	2.0.10.242	1.0.0.439	7	234	2	3	Verdana	1	80	0	0	0	WM Stimuli\	0.8	1244.5	0.9	673.222222222222	0.9	1010.77777777778	1	773.2	0.9	938.888888888889	1	652.6	0.8	1137	1	689.4	12	544130	3	544119	27	39	544157	-999999	544133	0	19	Cue2BackPROC	""	1	2	82	SessionSelectionList									6	501002	-7	0																																													82												
WM080112	130316_fnca	1	1	1	-1722834109	1	75.032	75.031	2.0.10.147	2.0.10.242	2.0.10.242	1.0.0.439	7	234	2	3	Verdana	1	80	0	0	0	WM Stimuli\	0.8	1244.5	0.9	673.222222222222	0.9	1010.77777777778	1	773.2	0.9	938.888888888889	1	652.6	0.8	1137	1	689.4	12	544130	3	544119	27	39	544157	-999999	544133	0	20	TrialsPROC	PL_007_92026.png	1	2	83	SessionSelectionList														nonlure	3	Place	2-Back	72	80	69	0	0	98	1	39	505586	2	14	51	503547	-1	504741	1	1194	3	3	2039	53	505600	-54	0															1	83												
WM080112	130316_fnca	1	1	1	-1722834109	1	75.032	75.031	2.0.10.147	2.0.10.242	2.0.10.242	1.0.0.439	7	234	2	3	Verdana	1	80	0	0	0	WM Stimuli\	0.8	1244.5	0.9	673.222222222222	0.9	1010.77777777778	1	773.2	0.9	938.888888888889	1	652.6	0.8	1137	1	689.4	12	544130	3	544119	27	39	544157	-999999	544133	0	20	TrialsPROC	PL_007_92026.png	1	2	84	SessionSelectionList														lure	3	Place	2-Back	73	80	70	0	0	98	2	39	508145	2	14	59	506106	-1	507567	1	1461	3	3	2039	53	508159	-54	0															2	84												
WM080112	130316_fnca	1	1	1	-1722834109	1	75.032	75.031	2.0.10.147	2.0.10.242	2.0.10.242	1.0.0.439	7	234	2	3	Verdana	1	80	0	0	0	WM Stimuli\	0.8	1244.5	0.9	673.222222222222	0.9	1010.77777777778	1	773.2	0.9	938.888888888889	1	652.6	0.8	1137	1	689.4	12	544130	3	544119	27	39	544157	-999999	544133	0	20	TrialsPROC	PL_010_92038.png	1	2	85	SessionSelectionList														nonlure	3	Place	2-Back	74	80	71	0	0	98	3	38	510704	2	14	60	508666	-1	509814	1	1148	3	3	2038	52	510718	-53	0															3	85												
WM080112	130316_fnca	1	1	1	-1722834109	1	75.032	75.031	2.0.10.147	2.0.10.242	2.0.10.242	1.0.0.439	7	234	2	3	Verdana	1	80	0	0	0	WM Stimuli\	0.8	1244.5	0.9	673.222222222222	0.9	1010.77777777778	1	773.2	0.9	938.888888888889	1	652.6	0.8	1137	1	689.4	12	544130	3	544119	27	39	544157	-999999	544133	0	20	TrialsPROC	PL_009_92037.png	1	2	86	SessionSelectionList														nonlure	3	Place	2-Back	75	80	72	0	0	98	4	39	513263	2	14	58	511224	-1	511910	1	686	3	3	2039	53	513277	-54	0															4	86												
WM080112	130316_fnca	1	1	1	-1722834109	1	75.032	75.031	2.0.10.147	2.0.10.242	2.0.10.242	1.0.0.439	7	234	2	3	Verdana	1	80	0	0	0	WM Stimuli\	0.8	1244.5	0.9	673.222222222222	0.9	1010.77777777778	1	773.2	0.9	938.888888888889	1	652.6	0.8	1137	1	689.4	12	544130	3	544119	27	39	544157	-999999	544133	0	20	TrialsPROC	PL_010_92038.png	1	2	87	SessionSelectionList														target	2	Place	2-Back	76	80	73	0	0	98	1	39	515822	1	14	59	513783	-1	514351	1	568	2	2	2039	53	515836	-54	0															5	87												
WM080112	130316_fnca	1	1	1	-1722834109	1	75.032	75.031	2.0.10.147	2.0.10.242	2.0.10.242	1.0.0.439	7	234	2	3	Verdana	1	80	0	0	0	WM Stimuli\	0.8	1244.5	0.9	673.222222222222	0.9	1010.77777777778	1	773.2	0.9	938.888888888889	1	652.6	0.8	1137	1	689.4	12	544130	3	544119	27	39	544157	-999999	544133	0	20	TrialsPROC	PL_009_92037.png	1	2	88	SessionSelectionList														target	2	Place	2-Back	77	80	74	0	0	98	1	39	518381	1	14	59	516342	-1	517145	0	803	3	2	2039	53	518395	-54	0															6	88												
WM080112	130316_fnca	1	1	1	-1722834109	1	75.032	75.031	2.0.10.147	2.0.10.242	2.0.10.242	1.0.0.439	7	234	2	3	Verdana	1	80	0	0	0	WM Stimuli\	0.8	1244.5	0.9	673.222222222222	0.9	1010.77777777778	1	773.2	0.9	938.888888888889	1	652.6	0.8	1137	1	689.4	12	544130	3	544119	27	39	544157	-999999	544133	0	20	TrialsPROC	PL_008_92033.png	1	2	89	SessionSelectionList														nonlure	3	Place	2-Back	78	80	75	0	0	98	2	39	520953	2	14	72	518914	-1	519961	1	1047	3	3	2039	53	520967	-54	0															7	89												
WM080112	130316_fnca	1	1	1	-1722834109	1	75.032	75.031	2.0.10.147	2.0.10.242	2.0.10.242	1.0.0.439	7	234	2	3	Verdana	1	80	0	0	0	WM Stimuli\	0.8	1244.5	0.9	673.222222222222	0.9	1010.77777777778	1	773.2	0.9	938.888888888889	1	652.6	0.8	1137	1	689.4	12	544130	3	544119	27	39	544157	-999999	544133	0	20	TrialsPROC	PL_012_92047.png	1	2	90	SessionSelectionList														nonlure	3	Place	2-Back	79	80	76	0	0	98	3	40	523526	1	13	72	521486	-1	522203	1	717	3	3	2040	53	523539	-54	0															8	90												
WM080112	130316_fnca	1	1	1	-1722834109	1	75.032	75.031	2.0.10.147	2.0.10.242	2.0.10.242	1.0.0.439	7	234	2	3	Verdana	1	80	0	0	0	WM Stimuli\	0.8	1244.5	0.9	673.222222222222	0.9	1010.77777777778	1	773.2	0.9	938.888888888889	1	652.6	0.8	1137	1	689.4	12	544130	3	544119	27	39	544157	-999999	544133	0	20	TrialsPROC	PL_012_92047.png	1	2	91	SessionSelectionList														lure	3	Place	2-Back	80	80	77	0	0	98	4	39	526084	2	14	59	524045	-1	524945	1	900	3	3	2039	53	526098	-54	0															9	91												
WM080112	130316_fnca	1	1	1	-1722834109	1	75.032	75.031	2.0.10.147	2.0.10.242	2.0.10.242	1.0.0.439	7	234	2	3	Verdana	1	80	0	0	0	WM Stimuli\	0.8	1244.5	0.9	673.222222222222	0.9	1010.77777777778	1	773.2	0.9	938.888888888889	1	652.6	0.8	1137	1	689.4	12	544130	3	544119	27	39	544157	-999999	544133	0	20	TrialsPROC	PL_011_92044.png	1	2	92	SessionSelectionList														nonlure	3	Place	2-Back	80	80	78	0	0	98	5	39	528657	1	14	73	526618	-1	527347	1	729	3	3	2039	53	528671	-54	0															10	92												
WM080112	130316_fnca	1	1	1	-1722834109	1	75.032	75.031	2.0.10.147	2.0.10.242	2.0.10.242	1.0.0.439	7	234	2	3	Verdana	1	80	0	0	0	WM Stimuli\	0.8	1244.5	0.9	673.222222222222	0.9	1010.77777777778	1	773.2	0.9	938.888888888889	1	652.6	0.8	1137	1	689.4	12	544130	3	544119	27	39	544157	-999999	544133	0	21	Fix15secPROC	""	1	2	93	SessionSelectionList																																															6	529124	-7	0							93												
