ExperimentName	HCPID	RunNumber	Subject	Session	RandomSeed	Group	Laptop.RefreshRate	ScannerD2.RefreshRate	StudioVersion	RuntimeVersion	RuntimeVersionExpected	ExperimentVersion	triggercode	Allowed	Target	Nontarget	FontStyle	RunTrialNumber[Session]	TrialsPerRun[Session]	TotalRespGreater200[Session]	ConsecRTLess200[Session]	ConsecNonResp[Session]	StimuliDir	ACC_2_Back_Body	Avg_RT_For_Correct_Trials_2_Back_Body	ACC_0_Back_Body	Avg_RT_For_Correct_Trials_0_Back_Body	ACC_2_Back_Face	Avg_RT_For_Correct_Trials_2_Back_Face	ACC_0_Back_Face	Avg_RT_For_Correct_Trials_0_Back_Face	ACC_2_Back_Place	Avg_RT_For_Correct_Trials_2_Back_Place	ACC_0_Back_Place	Avg_RT_For_Correct_Trials_0_Back_Place	ACC_2_Back_Tools	Avg_RT_For_Correct_Trials_2_Back_Tools	ACC_0_Back_Tools	Avg_RT_For_Correct_Trials_0_Back_Tools	ExpInstrucFeelFreeToRest.OnsetDelay	ExpInstrucFeelFreeToRest.OnsetTime	ExpInstrucFeelFreeToRest.DurationError	ExpInstrucFeelFreeToRest.StartTime	ExpInstrucFeelFreeToRest.OnsetToOnsetTime	FeelFreeToRest.OnsetDelay	FeelFreeToRest.OnsetTime	FeelFreeToRest.DurationError	FeelFreeToRest.StartTime	FeelFreeToRest.OnsetToOnsetTime	SessionSelectionList	Procedure[Block]	Stimulus[Block]	RunNumberFilterValue	SessionSelectionList.Cycle	SessionSelectionList.Sample	Running[Block]	IntroButtonMap.OnsetDelay	IntroButtonMap.OnsetTime	IntroButtonMap.DurationError	IntroButtonMap.OnsetToOnsetTime	GetReady.OnsetDelay	GetReady.OnsetTime	GetReady.DurationError	GetReady.OnsetToOnsetTime	Cue2Back.OnsetDelay	Cue2Back.OnsetTime	Cue2Back.DurationError	Cue2Back.OnsetToOnsetTime	Run1Block1	TargetType	CorrectResponse	StimType	BlockType	RunTrialNumber[Block]	TrialsPerRun[Block]	TotalRespGreater200[Block]	ConsecRTLess200[Block]	ConsecNonResp[Block]	ControlAcc	ConsecSameResp	ExperimenterWindow.OnsetDelay	ExperimenterWindow.OnsetTime	ExperimenterWindow.DurationError	ExperimenterWindow.OnsetToOnsetTime	Stim.OnsetDelay	Stim.OnsetTime	Stim.DurationError	Stim.RTTime	Stim.ACC	Stim.RT	Stim.RESP	Stim.CRESP	Stim.OnsetToOnsetTime	Fix.OnsetDelay	Fix.OnsetTime	Fix.DurationError	Fix.OnsetToOnsetTime	CueTarget.OnsetDelay	CueTarget.OnsetTime	CueTarget.DurationError	CueTarget.OnsetToOnsetTime	Run1Block2	Fix15sec.OnsetDelay	Fix15sec.OnsetTime	Fix15sec.DurationError	Fix15sec.OnsetToOnsetTime	Run1Block3	Run1Block4	Run1Block5	Run1Block6	Run1Block7	Run1Block8	Block	Procedure[Trial]	Stimulus[Trial]	ReadyList	Running[Trial]	ReadyList.Cycle	ReadyList.Sample	SyncSlide.OnsetDelay	SyncSlide.OnsetTime	SyncSlide.DurationError	SyncSlide.FinishTime	SyncSlide.OnsetToOnsetTime	Trial
WM080112	122317_fnca	2	1	1	-1976635843	1	75.031	75.030	2.0.10.147	2.0.10.242	2.0.10.242	1.0.0.439	7	234	2	3	Verdana	1	80	0	0	0	WM Stimuli\	0.8	1312.625	1	919.9	0.8	1275.375	1	745.6	1	1223.5	1	1028.6	1	996	1	935.5	13	316938	2	316926	27	40	316965	-999999	316941	0	22	TRSyncPROC	""	2	2	1	SessionSelectionList	102	8757	-999999	0	28	9157	-999999	0																																																	1	InitialTR	4	1	ReadyList	1	1	19	23471	-20	25451	0	1
WM080112	122317_fnca	2	1	1	-1976635843	1	75.031	75.030	2.0.10.147	2.0.10.242	2.0.10.242	1.0.0.439	7	234	2	3	Verdana	1	80	0	0	0	WM Stimuli\	0.8	1312.625	1	919.9	0.8	1275.375	1	745.6	1	1223.5	1	1028.6	1	996	1	935.5	13	316938	2	316926	27	40	316965	-999999	316941	0	22	TRSyncPROC	""	2	2	1	SessionSelectionList	102	8757	-999999	0	28	9157	-999999	0																																																	1	InitialTR	3	2	ReadyList	1	2	18	25470	-19	27451	0	2
WM080112	122317_fnca	2	1	1	-1976635843	1	75.031	75.030	2.0.10.147	2.0.10.242	2.0.10.242	1.0.0.439	7	234	2	3	Verdana	1	80	0	0	0	WM Stimuli\	0.8	1312.625	1	919.9	0.8	1275.375	1	745.6	1	1223.5	1	1028.6	1	996	1	935.5	13	316938	2	316926	27	40	316965	-999999	316941	0	22	TRSyncPROC	""	2	2	1	SessionSelectionList	102	8757	-999999	0	28	9157	-999999	0																																																	1	InitialTR	2	3	ReadyList	1	3	4	27456	-5	29451	0	3
WM080112	122317_fnca	2	1	1	-1976635843	1	75.031	75.030	2.0.10.147	2.0.10.242	2.0.10.242	1.0.0.439	7	234	2	3	Verdana	1	80	0	0	0	WM Stimuli\	0.8	1312.625	1	919.9	0.8	1275.375	1	745.6	1	1223.5	1	1028.6	1	996	1	935.5	13	316938	2	316926	27	40	316965	-999999	316941	0	22	TRSyncPROC	""	2	2	1	SessionSelectionList	102	8757	-999999	0	28	9157	-999999	0																																																	1	InitialTR	1	4	ReadyList	1	4	3	29455	-4	31451	0	4
WM080112	122317_fnca	2	1	1	-1976635843	1	75.031	75.030	2.0.10.147	2.0.10.242	2.0.10.242	1.0.0.439	7	234	2	3	Verdana	1	80	0	0	0	WM Stimuli\	0.8	1312.625	1	919.9	0.8	1275.375	1	745.6	1	1223.5	1	1028.6	1	996	1	935.5	13	316938	2	316926	27	40	316965	-999999	316941	0	23	Cue2BackPROC	""	2	2	2	SessionSelectionList									16	31468	-17	0																																													2												
WM080112	122317_fnca	2	1	1	-1976635843	1	75.031	75.030	2.0.10.147	2.0.10.242	2.0.10.242	1.0.0.439	7	234	2	3	Verdana	1	80	0	0	0	WM Stimuli\	0.8	1312.625	1	919.9	0.8	1275.375	1	745.6	1	1223.5	1	1028.6	1	996	1	935.5	13	316938	2	316926	27	40	316965	-999999	316941	0	24	TrialsPROC	TO_014_TOOL14_BA.png	2	2	3	SessionSelectionList														nonlure	3	Tools	2-Back	2	80	1	0	0	0	1	52	36079	3	14	75	34027	-1	34752	1	725	3	3	2052	66	36093	-67	0																3												
WM080112	122317_fnca	2	1	1	-1976635843	1	75.031	75.030	2.0.10.147	2.0.10.242	2.0.10.242	1.0.0.439	7	234	2	3	Verdana	1	80	0	0	0	WM Stimuli\	0.8	1312.625	1	919.9	0.8	1275.375	1	745.6	1	1223.5	1	1028.6	1	996	1	935.5	13	316938	2	316926	27	40	316965	-999999	316941	0	24	TrialsPROC	TO_013_TOOL13_BA.png	2	2	4	SessionSelectionList														nonlure	3	Tools	2-Back	3	80	2	0	0	0	2	39	38625	2	14	59	36586	-1	37353	1	767	3	3	2039	53	38639	-54	0																4												
WM080112	122317_fnca	2	1	1	-1976635843	1	75.031	75.030	2.0.10.147	2.0.10.242	2.0.10.242	1.0.0.439	7	234	2	3	Verdana	1	80	0	0	0	WM Stimuli\	0.8	1312.625	1	919.9	0.8	1275.375	1	745.6	1	1223.5	1	1028.6	1	996	1	935.5	13	316938	2	316926	27	40	316965	-999999	316941	0	24	TrialsPROC	TO_016_TOOL16_BA.png	2	2	5	SessionSelectionList														nonlure	3	Tools	2-Back	4	80	3	0	0	0	3	40	41211	1	13	85	39171	-1	39973	1	802	3	3	2040	53	41224	-54	0																5												
WM080112	122317_fnca	2	1	1	-1976635843	1	75.031	75.030	2.0.10.147	2.0.10.242	2.0.10.242	1.0.0.439	7	234	2	3	Verdana	1	80	0	0	0	WM Stimuli\	0.8	1312.625	1	919.9	0.8	1275.375	1	745.6	1	1223.5	1	1028.6	1	996	1	935.5	13	316938	2	316926	27	40	316965	-999999	316941	0	24	TrialsPROC	TO_014_TOOL14_BA.png	2	2	6	SessionSelectionList														lure	3	Tools	2-Back	5	80	4	0	0	0	4	39	43783	1	13	73	41744	-1	43024	1	1280	3	3	2039	52	43796	-53	0																6												
WM080112	122317_fnca	2	1	1	-1976635843	1	75.031	75.030	2.0.10.147	2.0.10.242	2.0.10.242	1.0.0.439	7	234	2	3	Verdana	1	80	0	0	0	WM Stimuli\	0.8	1312.625	1	919.9	0.8	1275.375	1	745.6	1	1223.5	1	1028.6	1	996	1	935.5	13	316938	2	316926	27	40	316965	-999999	316941	0	24	TrialsPROC	TO_016_TOOL16_BA.png	2	2	7	SessionSelectionList														target	2	Tools	2-Back	6	80	5	0	0	0	1	39	46342	1	13	59	44303	-1	45151	1	848	2	2	2039	52	46355	-53	0																7												
WM080112	122317_fnca	2	1	1	-1976635843	1	75.031	75.030	2.0.10.147	2.0.10.242	2.0.10.242	1.0.0.439	7	234	2	3	Verdana	1	80	0	0	0	WM Stimuli\	0.8	1312.625	1	919.9	0.8	1275.375	1	745.6	1	1223.5	1	1028.6	1	996	1	935.5	13	316938	2	316926	27	40	316965	-999999	316941	0	24	TrialsPROC	TO_018_TOOL18_BA.png	2	2	8	SessionSelectionList														nonlure	3	Tools	2-Back	7	80	6	0	0	0	1	39	48901	1	13	59	46862	-1	47668	1	806	3	3	2039	52	48914	-53	0																8												
WM080112	122317_fnca	2	1	1	-1976635843	1	75.031	75.030	2.0.10.147	2.0.10.242	2.0.10.242	1.0.0.439	7	234	2	3	Verdana	1	80	0	0	0	WM Stimuli\	0.8	1312.625	1	919.9	0.8	1275.375	1	745.6	1	1223.5	1	1028.6	1	996	1	935.5	13	316938	2	316926	27	40	316965	-999999	316941	0	24	TrialsPROC	TO_017_TOOL17_BA.png	2	2	9	SessionSelectionList														nonlure	3	Tools	2-Back	8	80	7	0	0	0	2	39	51460	1	13	59	49421	-1	50438	1	1017	3	3	2039	52	51473	-53	0																9												
WM080112	122317_fnca	2	1	1	-1976635843	1	75.031	75.030	2.0.10.147	2.0.10.242	2.0.10.242	1.0.0.439	7	234	2	3	Verdana	1	80	0	0	0	WM Stimuli\	0.8	1312.625	1	919.9	0.8	1275.375	1	745.6	1	1223.5	1	1028.6	1	996	1	935.5	13	316938	2	316926	27	40	316965	-999999	316941	0	24	TrialsPROC	TO_018_TOOL18_BA.png	2	2	10	SessionSelectionList														target	2	Tools	2-Back	9	80	8	0	0	0	1	39	54019	1	13	59	51980	-1	53132	1	1152	2	2	2039	52	54032	-53	0																10												
WM080112	122317_fnca	2	1	1	-1976635843	1	75.031	75.030	2.0.10.147	2.0.10.242	2.0.10.242	1.0.0.439	7	234	2	3	Verdana	1	80	0	0	0	WM Stimuli\	0.8	1312.625	1	919.9	0.8	1275.375	1	745.6	1	1223.5	1	1028.6	1	996	1	935.5	13	316938	2	316926	27	40	316965	-999999	316941	0	24	TrialsPROC	TO_015_TOOL15_BA.png	2	2	11	SessionSelectionList														nonlure	3	Tools	2-Back	10	80	9	0	0	0	1	39	56578	1	13	59	54539	-1	55565	1	1026	3	3	2039	52	56591	-53	0																11												
WM080112	122317_fnca	2	1	1	-1976635843	1	75.031	75.030	2.0.10.147	2.0.10.242	2.0.10.242	1.0.0.439	7	234	2	3	Verdana	1	80	0	0	0	WM Stimuli\	0.8	1312.625	1	919.9	0.8	1275.375	1	745.6	1	1223.5	1	1028.6	1	996	1	935.5	13	316938	2	316926	27	40	316965	-999999	316941	0	24	TrialsPROC	TO_017_TOOL17_BA.png	2	2	12	SessionSelectionList														lure	3	Tools	2-Back	11	80	10	0	0	0	2	40	59137	1	13	58	57097	-1	58634	1	1537	3	3	2040	53	59150	-54	0																12												
WM080112	122317_fnca	2	1	1	-1976635843	1	75.031	75.030	2.0.10.147	2.0.10.242	2.0.10.242	1.0.0.439	7	234	2	3	Verdana	1	80	0	0	0	WM Stimuli\	0.8	1312.625	1	919.9	0.8	1275.375	1	745.6	1	1223.5	1	1028.6	1	996	1	935.5	13	316938	2	316926	27	40	316965	-999999	316941	0	25	Cue0BackPROC	BP_013_BP7_BA.png	2	2	13	SessionSelectionList																																										19	59616	-20	0												13												
WM080112	122317_fnca	2	1	1	-1976635843	1	75.031	75.030	2.0.10.147	2.0.10.242	2.0.10.242	1.0.0.439	7	234	2	3	Verdana	1	80	0	0	0	WM Stimuli\	0.8	1312.625	1	919.9	0.8	1275.375	1	745.6	1	1223.5	1	1028.6	1	996	1	935.5	13	316938	2	316926	27	40	316965	-999999	316941	0	26	TrialsPROC	BP_015_H10-T_BA.png	2	2	14	SessionSelectionList														nonlure	3	Body	0-Back	12	80	11	0	0	100	3	39	64188	1	13	52	62149	-1	63144	1	995	3	3	2039	52	64201	-53	0																14												
WM080112	122317_fnca	2	1	1	-1976635843	1	75.031	75.030	2.0.10.147	2.0.10.242	2.0.10.242	1.0.0.439	7	234	2	3	Verdana	1	80	0	0	0	WM Stimuli\	0.8	1312.625	1	919.9	0.8	1275.375	1	745.6	1	1223.5	1	1028.6	1	996	1	935.5	13	316938	2	316926	27	40	316965	-999999	316941	0	26	TrialsPROC	BP_018_H13-T_BA.png	2	2	15	SessionSelectionList														nonlure	3	Body	0-Back	13	80	12	0	0	100	4	39	66747	1	13	59	64708	-1	65549	1	841	3	3	2039	52	66760	-53	0																15												
WM080112	122317_fnca	2	1	1	-1976635843	1	75.031	75.030	2.0.10.147	2.0.10.242	2.0.10.242	1.0.0.439	7	234	2	3	Verdana	1	80	0	0	0	WM Stimuli\	0.8	1312.625	1	919.9	0.8	1275.375	1	745.6	1	1223.5	1	1028.6	1	996	1	935.5	13	316938	2	316926	27	40	316965	-999999	316941	0	26	TrialsPROC	BP_014_BP9_BA.png	2	2	16	SessionSelectionList														nonlure	3	Body	0-Back	14	80	13	0	0	100	5	39	69306	1	13	59	67267	-1	68259	1	992	3	3	2039	52	69319	-53	0																16												
WM080112	122317_fnca	2	1	1	-1976635843	1	75.031	75.030	2.0.10.147	2.0.10.242	2.0.10.242	1.0.0.439	7	234	2	3	Verdana	1	80	0	0	0	WM Stimuli\	0.8	1312.625	1	919.9	0.8	1275.375	1	745.6	1	1223.5	1	1028.6	1	996	1	935.5	13	316938	2	316926	27	40	316965	-999999	316941	0	26	TrialsPROC	BP_018_H13-T_BA.png	2	2	17	SessionSelectionList														lure	3	Body	0-Back	15	80	14	0	0	100	6	39	71865	1	13	59	69826	-1	70635	1	809	3	3	2039	52	71878	-53	0																17												
WM080112	122317_fnca	2	1	1	-1976635843	1	75.031	75.030	2.0.10.147	2.0.10.242	2.0.10.242	1.0.0.439	7	234	2	3	Verdana	1	80	0	0	0	WM Stimuli\	0.8	1312.625	1	919.9	0.8	1275.375	1	745.6	1	1223.5	1	1028.6	1	996	1	935.5	13	316938	2	316926	27	40	316965	-999999	316941	0	26	TrialsPROC	BP_013_BP7_BA.png	2	2	18	SessionSelectionList														target	2	Body	0-Back	16	80	15	0	0	100	1	39	74424	1	13	59	72385	-1	73224	1	839	2	2	2039	52	74437	-53	0																18												
WM080112	122317_fnca	2	1	1	-1976635843	1	75.031	75.030	2.0.10.147	2.0.10.242	2.0.10.242	1.0.0.439	7	234	2	3	Verdana	1	80	0	0	0	WM Stimuli\	0.8	1312.625	1	919.9	0.8	1275.375	1	745.6	1	1223.5	1	1028.6	1	996	1	935.5	13	316938	2	316926	27	40	316965	-999999	316941	0	26	TrialsPROC	BP_015_H10-T_BA.png	2	2	19	SessionSelectionList														lure	3	Body	0-Back	17	80	16	0	0	100	1	39	76983	1	13	59	74944	-1	75839	1	895	3	3	2039	52	76996	-53	0																19												
WM080112	122317_fnca	2	1	1	-1976635843	1	75.031	75.030	2.0.10.147	2.0.10.242	2.0.10.242	1.0.0.439	7	234	2	3	Verdana	1	80	0	0	0	WM Stimuli\	0.8	1312.625	1	919.9	0.8	1275.375	1	745.6	1	1223.5	1	1028.6	1	996	1	935.5	13	316938	2	316926	27	40	316965	-999999	316941	0	26	TrialsPROC	BP_016_H11-T_BA.png	2	2	20	SessionSelectionList														nonlure	3	Body	0-Back	18	80	17	0	0	100	2	39	79555	1	13	72	77516	-1	78341	1	825	3	3	2039	52	79568	-53	0																20												
WM080112	122317_fnca	2	1	1	-1976635843	1	75.031	75.030	2.0.10.147	2.0.10.242	2.0.10.242	1.0.0.439	7	234	2	3	Verdana	1	80	0	0	0	WM Stimuli\	0.8	1312.625	1	919.9	0.8	1275.375	1	745.6	1	1223.5	1	1028.6	1	996	1	935.5	13	316938	2	316926	27	40	316965	-999999	316941	0	26	TrialsPROC	BP_013_BP7_BA.png	2	2	21	SessionSelectionList														target	2	Body	0-Back	19	80	18	0	0	100	1	39	82114	1	13	59	80075	-1	81061	1	986	2	2	2039	52	82127	-53	0																21												
WM080112	122317_fnca	2	1	1	-1976635843	1	75.031	75.030	2.0.10.147	2.0.10.242	2.0.10.242	1.0.0.439	7	234	2	3	Verdana	1	80	0	0	0	WM Stimuli\	0.8	1312.625	1	919.9	0.8	1275.375	1	745.6	1	1223.5	1	1028.6	1	996	1	935.5	13	316938	2	316926	27	40	316965	-999999	316941	0	26	TrialsPROC	BP_017_H12-T_BA.png	2	2	22	SessionSelectionList														nonlure	3	Body	0-Back	20	80	19	0	0	100	1	39	84673	1	13	59	82634	-1	83676	1	1042	3	3	2039	52	84686	-53	0																22												
WM080112	122317_fnca	2	1	1	-1976635843	1	75.031	75.030	2.0.10.147	2.0.10.242	2.0.10.242	1.0.0.439	7	234	2	3	Verdana	1	80	0	0	0	WM Stimuli\	0.8	1312.625	1	919.9	0.8	1275.375	1	745.6	1	1223.5	1	1028.6	1	996	1	935.5	13	316938	2	316926	27	40	316965	-999999	316941	0	26	TrialsPROC	BP_014_BP9_BA.png	2	2	23	SessionSelectionList														lure	3	Body	0-Back	21	80	20	0	0	100	2	39	87232	1	13	59	85193	-1	86168	1	975	3	3	2039	52	87245	-53	0																23												
WM080112	122317_fnca	2	1	1	-1976635843	1	75.031	75.030	2.0.10.147	2.0.10.242	2.0.10.242	1.0.0.439	7	234	2	3	Verdana	1	80	0	0	0	WM Stimuli\	0.8	1312.625	1	919.9	0.8	1275.375	1	745.6	1	1223.5	1	1028.6	1	996	1	935.5	13	316938	2	316926	27	40	316965	-999999	316941	0	27	Fix15secPROC	""	2	2	24	SessionSelectionList																																															5	87698	-6	0							24												
WM080112	122317_fnca	2	1	1	-1976635843	1	75.031	75.030	2.0.10.147	2.0.10.242	2.0.10.242	1.0.0.439	7	234	2	3	Verdana	1	80	0	0	0	WM Stimuli\	0.8	1312.625	1	919.9	0.8	1275.375	1	745.6	1	1223.5	1	1028.6	1	996	1	935.5	13	316938	2	316926	27	40	316965	-999999	316941	0	28	Cue2BackPROC	""	2	2	25	SessionSelectionList									13	102706	-14	0																																													25												
WM080112	122317_fnca	2	1	1	-1976635843	1	75.031	75.030	2.0.10.147	2.0.10.242	2.0.10.242	1.0.0.439	7	234	2	3	Verdana	1	80	0	0	0	WM Stimuli\	0.8	1312.625	1	919.9	0.8	1275.375	1	745.6	1	1223.5	1	1028.6	1	996	1	935.5	13	316938	2	316926	27	40	316965	-999999	316941	0	29	TrialsPROC	FC_015_M8.png	2	2	26	SessionSelectionList														nonlure	3	Face	2-Back	22	80	20	0	1	100	2	40	107304	1	13	71	105264	-1	0	0	0	""	3	2040	53	107317	-54	0																26												
WM080112	122317_fnca	2	1	1	-1976635843	1	75.031	75.030	2.0.10.147	2.0.10.242	2.0.10.242	1.0.0.439	7	234	2	3	Verdana	1	80	0	0	0	WM Stimuli\	0.8	1312.625	1	919.9	0.8	1275.375	1	745.6	1	1223.5	1	1028.6	1	996	1	935.5	13	316938	2	316926	27	40	316965	-999999	316941	0	29	TrialsPROC	FC_018_F9.png	2	2	27	SessionSelectionList														nonlure	3	Face	2-Back	23	80	21	0	0	100	1	39	109876	1	13	73	107837	-1	108658	1	821	3	3	2039	52	109889	-53	0																27												
WM080112	122317_fnca	2	1	1	-1976635843	1	75.031	75.030	2.0.10.147	2.0.10.242	2.0.10.242	1.0.0.439	7	234	2	3	Verdana	1	80	0	0	0	WM Stimuli\	0.8	1312.625	1	919.9	0.8	1275.375	1	745.6	1	1223.5	1	1028.6	1	996	1	935.5	13	316938	2	316926	27	40	316965	-999999	316941	0	29	TrialsPROC	FC_018_F9.png	2	2	28	SessionSelectionList														lure	3	Face	2-Back	24	80	22	0	0	100	2	39	112448	2	14	72	110409	-1	111658	1	1249	3	3	2039	53	112462	-54	0																28												
WM080112	122317_fnca	2	1	1	-1976635843	1	75.031	75.030	2.0.10.147	2.0.10.242	2.0.10.242	1.0.0.439	7	234	2	3	Verdana	1	80	0	0	0	WM Stimuli\	0.8	1312.625	1	919.9	0.8	1275.375	1	745.6	1	1223.5	1	1028.6	1	996	1	935.5	13	316938	2	316926	27	40	316965	-999999	316941	0	29	TrialsPROC	FC_017_M9.png	2	2	29	SessionSelectionList														nonlure	3	Face	2-Back	25	80	23	0	0	100	3	39	115020	2	14	72	112981	-1	114340	1	1359	3	3	2039	53	115034	-54	0																29												
WM080112	122317_fnca	2	1	1	-1976635843	1	75.031	75.030	2.0.10.147	2.0.10.242	2.0.10.242	1.0.0.439	7	234	2	3	Verdana	1	80	0	0	0	WM Stimuli\	0.8	1312.625	1	919.9	0.8	1275.375	1	745.6	1	1223.5	1	1028.6	1	996	1	935.5	13	316938	2	316926	27	40	316965	-999999	316941	0	29	TrialsPROC	FC_017_M9.png	2	2	30	SessionSelectionList														lure	3	Face	2-Back	26	80	24	0	0	100	4	39	117593	1	13	73	115554	-1	116815	1	1261	3	3	2039	52	117606	-53	0																30												
WM080112	122317_fnca	2	1	1	-1976635843	1	75.031	75.030	2.0.10.147	2.0.10.242	2.0.10.242	1.0.0.439	7	234	2	3	Verdana	1	80	0	0	0	WM Stimuli\	0.8	1312.625	1	919.9	0.8	1275.375	1	745.6	1	1223.5	1	1028.6	1	996	1	935.5	13	316938	2	316926	27	40	316965	-999999	316941	0	29	TrialsPROC	FC_016_F8.png	2	2	31	SessionSelectionList														nonlure	3	Face	2-Back	27	80	25	0	0	100	5	39	120165	1	13	72	118126	-1	119366	1	1240	3	3	2039	52	120178	-53	0																31												
WM080112	122317_fnca	2	1	1	-1976635843	1	75.031	75.030	2.0.10.147	2.0.10.242	2.0.10.242	1.0.0.439	7	234	2	3	Verdana	1	80	0	0	0	WM Stimuli\	0.8	1312.625	1	919.9	0.8	1275.375	1	745.6	1	1223.5	1	1028.6	1	996	1	935.5	13	316938	2	316926	27	40	316965	-999999	316941	0	29	TrialsPROC	FC_013_M7.png	2	2	32	SessionSelectionList														nonlure	3	Face	2-Back	28	80	26	0	0	100	6	39	122737	2	14	72	120698	-1	122027	1	1329	3	3	2039	53	122751	-54	0																32												
WM080112	122317_fnca	2	1	1	-1976635843	1	75.031	75.030	2.0.10.147	2.0.10.242	2.0.10.242	1.0.0.439	7	234	2	3	Verdana	1	80	0	0	0	WM Stimuli\	0.8	1312.625	1	919.9	0.8	1275.375	1	745.6	1	1223.5	1	1028.6	1	996	1	935.5	13	316938	2	316926	27	40	316965	-999999	316941	0	29	TrialsPROC	FC_014_F7.png	2	2	33	SessionSelectionList														nonlure	3	Face	2-Back	29	80	27	0	0	100	7	40	125310	1	13	72	123270	-1	125064	1	1794	3	3	2040	53	125323	-54	0																33												
WM080112	122317_fnca	2	1	1	-1976635843	1	75.031	75.030	2.0.10.147	2.0.10.242	2.0.10.242	1.0.0.439	7	234	2	3	Verdana	1	80	0	0	0	WM Stimuli\	0.8	1312.625	1	919.9	0.8	1275.375	1	745.6	1	1223.5	1	1028.6	1	996	1	935.5	13	316938	2	316926	27	40	316965	-999999	316941	0	29	TrialsPROC	FC_013_M7.png	2	2	34	SessionSelectionList														target	2	Face	2-Back	30	80	28	0	0	100	1	39	127882	1	13	73	125843	-1	126993	1	1150	2	2	2039	52	127895	-53	0																34												
WM080112	122317_fnca	2	1	1	-1976635843	1	75.031	75.030	2.0.10.147	2.0.10.242	2.0.10.242	1.0.0.439	7	234	2	3	Verdana	1	80	0	0	0	WM Stimuli\	0.8	1312.625	1	919.9	0.8	1275.375	1	745.6	1	1223.5	1	1028.6	1	996	1	935.5	13	316938	2	316926	27	40	316965	-999999	316941	0	29	TrialsPROC	FC_014_F7.png	2	2	35	SessionSelectionList														target	2	Face	2-Back	31	80	29	0	0	100	1	39	130454	2	14	72	128415	-1	130101	0	1686	3	2	2039	53	130468	-54	0																35												
WM080112	122317_fnca	2	1	1	-1976635843	1	75.031	75.030	2.0.10.147	2.0.10.242	2.0.10.242	1.0.0.439	7	234	2	3	Verdana	1	80	0	0	0	WM Stimuli\	0.8	1312.625	1	919.9	0.8	1275.375	1	745.6	1	1223.5	1	1028.6	1	996	1	935.5	13	316938	2	316926	27	40	316965	-999999	316941	0	30	Cue0BackPROC	TO_019_TOOL19_BA.png	2	2	36	SessionSelectionList																																										19	130934	-20	0												36												
WM080112	122317_fnca	2	1	1	-1976635843	1	75.031	75.030	2.0.10.147	2.0.10.242	2.0.10.242	1.0.0.439	7	234	2	3	Verdana	1	80	0	0	0	WM Stimuli\	0.8	1312.625	1	919.9	0.8	1275.375	1	745.6	1	1223.5	1	1028.6	1	996	1	935.5	13	316938	2	316926	27	40	316965	-999999	316941	0	31	TrialsPROC	TO_019_TOOL19_BA.png	2	2	37	SessionSelectionList														target	2	Tools	0-Back	32	80	30	0	0	100	1	39	135505	2	14	51	133466	-1	134895	1	1429	2	2	2039	53	135519	-54	0																37												
WM080112	122317_fnca	2	1	1	-1976635843	1	75.031	75.030	2.0.10.147	2.0.10.242	2.0.10.242	1.0.0.439	7	234	2	3	Verdana	1	80	0	0	0	WM Stimuli\	0.8	1312.625	1	919.9	0.8	1275.375	1	745.6	1	1223.5	1	1028.6	1	996	1	935.5	13	316938	2	316926	27	40	316965	-999999	316941	0	31	TrialsPROC	TO_024_TOOL24_BA.png	2	2	38	SessionSelectionList														nonlure	3	Tools	0-Back	33	80	31	0	0	100	1	39	138064	2	14	59	136025	-1	136898	1	873	3	3	2039	53	138078	-54	0																38												
WM080112	122317_fnca	2	1	1	-1976635843	1	75.031	75.030	2.0.10.147	2.0.10.242	2.0.10.242	1.0.0.439	7	234	2	3	Verdana	1	80	0	0	0	WM Stimuli\	0.8	1312.625	1	919.9	0.8	1275.375	1	745.6	1	1223.5	1	1028.6	1	996	1	935.5	13	316938	2	316926	27	40	316965	-999999	316941	0	31	TrialsPROC	TO_019_TOOL19_BA.png	2	2	39	SessionSelectionList														target	2	Tools	0-Back	34	80	32	0	0	100	1	39	140623	3	14	59	138584	-1	140050	1	1466	2	2	2039	53	140637	-54	0																39												
WM080112	122317_fnca	2	1	1	-1976635843	1	75.031	75.030	2.0.10.147	2.0.10.242	2.0.10.242	1.0.0.439	7	234	2	3	Verdana	1	80	0	0	0	WM Stimuli\	0.8	1312.625	1	919.9	0.8	1275.375	1	745.6	1	1223.5	1	1028.6	1	996	1	935.5	13	316938	2	316926	27	40	316965	-999999	316941	0	31	TrialsPROC	TO_023_TOOL23_BA.png	2	2	40	SessionSelectionList														nonlure	3	Tools	0-Back	35	80	33	0	0	100	1	38	143182	2	14	60	141144	-1	141766	1	622	3	3	2038	52	143196	-53	0																40												
WM080112	122317_fnca	2	1	1	-1976635843	1	75.031	75.030	2.0.10.147	2.0.10.242	2.0.10.242	1.0.0.439	7	234	2	3	Verdana	1	80	0	0	0	WM Stimuli\	0.8	1312.625	1	919.9	0.8	1275.375	1	745.6	1	1223.5	1	1028.6	1	996	1	935.5	13	316938	2	316926	27	40	316965	-999999	316941	0	31	TrialsPROC	TO_020_TOOL20_BA.png	2	2	41	SessionSelectionList														nonlure	3	Tools	0-Back	36	80	34	0	0	100	2	39	145741	2	14	58	143702	-1	144542	1	840	3	3	2039	53	145755	-54	0																41												
WM080112	122317_fnca	2	1	1	-1976635843	1	75.031	75.030	2.0.10.147	2.0.10.242	2.0.10.242	1.0.0.439	7	234	2	3	Verdana	1	80	0	0	0	WM Stimuli\	0.8	1312.625	1	919.9	0.8	1275.375	1	745.6	1	1223.5	1	1028.6	1	996	1	935.5	13	316938	2	316926	27	40	316965	-999999	316941	0	31	TrialsPROC	TO_020_TOOL20_BA.png	2	2	42	SessionSelectionList														lure	3	Tools	0-Back	37	80	35	0	0	100	3	39	148300	2	14	59	146261	-1	146985	1	724	3	3	2039	53	148314	-54	0																42												
WM080112	122317_fnca	2	1	1	-1976635843	1	75.031	75.030	2.0.10.147	2.0.10.242	2.0.10.242	1.0.0.439	7	234	2	3	Verdana	1	80	0	0	0	WM Stimuli\	0.8	1312.625	1	919.9	0.8	1275.375	1	745.6	1	1223.5	1	1028.6	1	996	1	935.5	13	316938	2	316926	27	40	316965	-999999	316941	0	31	TrialsPROC	TO_022_TOOL22_BA.png	2	2	43	SessionSelectionList														nonlure	3	Tools	0-Back	38	80	36	0	0	100	4	39	150859	2	14	59	148820	-1	149888	1	1068	3	3	2039	53	150873	-54	0																43												
WM080112	122317_fnca	2	1	1	-1976635843	1	75.031	75.030	2.0.10.147	2.0.10.242	2.0.10.242	1.0.0.439	7	234	2	3	Verdana	1	80	0	0	0	WM Stimuli\	0.8	1312.625	1	919.9	0.8	1275.375	1	745.6	1	1223.5	1	1028.6	1	996	1	935.5	13	316938	2	316926	27	40	316965	-999999	316941	0	31	TrialsPROC	TO_022_TOOL22_BA.png	2	2	44	SessionSelectionList														lure	3	Tools	0-Back	39	80	37	0	0	100	5	39	153418	1	14	59	151379	-1	152023	1	644	3	3	2039	53	153432	-54	0																44												
WM080112	122317_fnca	2	1	1	-1976635843	1	75.031	75.030	2.0.10.147	2.0.10.242	2.0.10.242	1.0.0.439	7	234	2	3	Verdana	1	80	0	0	0	WM Stimuli\	0.8	1312.625	1	919.9	0.8	1275.375	1	745.6	1	1223.5	1	1028.6	1	996	1	935.5	13	316938	2	316926	27	40	316965	-999999	316941	0	31	TrialsPROC	TO_021_TOOL21_BA.png	2	2	45	SessionSelectionList														nonlure	3	Tools	0-Back	40	80	38	0	0	100	6	39	155977	1	13	59	153938	-1	154833	1	895	3	3	2039	52	155990	-53	0																45												
WM080112	122317_fnca	2	1	1	-1976635843	1	75.031	75.030	2.0.10.147	2.0.10.242	2.0.10.242	1.0.0.439	7	234	2	3	Verdana	1	80	0	0	0	WM Stimuli\	0.8	1312.625	1	919.9	0.8	1275.375	1	745.6	1	1223.5	1	1028.6	1	996	1	935.5	13	316938	2	316926	27	40	316965	-999999	316941	0	31	TrialsPROC	TO_021_TOOL21_BA.png	2	2	46	SessionSelectionList														lure	3	Tools	0-Back	41	80	39	0	0	100	7	39	158536	1	13	59	156497	-1	157291	1	794	3	3	2039	52	158549	-53	0																46												
WM080112	122317_fnca	2	1	1	-1976635843	1	75.031	75.030	2.0.10.147	2.0.10.242	2.0.10.242	1.0.0.439	7	234	2	3	Verdana	1	80	0	0	0	WM Stimuli\	0.8	1312.625	1	919.9	0.8	1275.375	1	745.6	1	1223.5	1	1028.6	1	996	1	935.5	13	316938	2	316926	27	40	316965	-999999	316941	0	32	Fix15secPROC	""	2	2	47	SessionSelectionList																																															6	159003	-7	0							47												
WM080112	122317_fnca	2	1	1	-1976635843	1	75.031	75.030	2.0.10.147	2.0.10.242	2.0.10.242	1.0.0.439	7	234	2	3	Verdana	1	80	0	0	0	WM Stimuli\	0.8	1312.625	1	919.9	0.8	1275.375	1	745.6	1	1223.5	1	1028.6	1	996	1	935.5	13	316938	2	316926	27	40	316965	-999999	316941	0	33	Cue2BackPROC	""	2	2	48	SessionSelectionList									13	174010	-14	0																																													48												
WM080112	122317_fnca	2	1	1	-1976635843	1	75.031	75.030	2.0.10.147	2.0.10.242	2.0.10.242	1.0.0.439	7	234	2	3	Verdana	1	80	0	0	0	WM Stimuli\	0.8	1312.625	1	919.9	0.8	1275.375	1	745.6	1	1223.5	1	1028.6	1	996	1	935.5	13	316938	2	316926	27	40	316965	-999999	316941	0	34	TrialsPROC	BP_020_H17-T_BA.png	2	2	49	SessionSelectionList														nonlure	3	Body	2-Back	42	80	40	0	0	100	8	39	178608	1	13	72	176569	-1	177451	1	882	3	3	2039	52	178621	-53	0																49												
WM080112	122317_fnca	2	1	1	-1976635843	1	75.031	75.030	2.0.10.147	2.0.10.242	2.0.10.242	1.0.0.439	7	234	2	3	Verdana	1	80	0	0	0	WM Stimuli\	0.8	1312.625	1	919.9	0.8	1275.375	1	745.6	1	1223.5	1	1028.6	1	996	1	935.5	13	316938	2	316926	27	40	316965	-999999	316941	0	34	TrialsPROC	BP_019_H14-T_BA.png	2	2	50	SessionSelectionList														nonlure	3	Body	2-Back	43	80	41	0	0	100	9	39	181167	2	13	59	179128	-1	181091	1	1963	3	3	2039	52	181180	-53	0																50												
WM080112	122317_fnca	2	1	1	-1976635843	1	75.031	75.030	2.0.10.147	2.0.10.242	2.0.10.242	1.0.0.439	7	234	2	3	Verdana	1	80	0	0	0	WM Stimuli\	0.8	1312.625	1	919.9	0.8	1275.375	1	745.6	1	1223.5	1	1028.6	1	996	1	935.5	13	316938	2	316926	27	40	316965	-999999	316941	0	34	TrialsPROC	BP_020_H17-T_BA.png	2	2	51	SessionSelectionList														target	2	Body	2-Back	44	80	42	0	0	100	1	39	183726	1	13	59	181687	-1	182945	1	1258	2	2	2039	52	183739	-53	0																51												
WM080112	122317_fnca	2	1	1	-1976635843	1	75.031	75.030	2.0.10.147	2.0.10.242	2.0.10.242	1.0.0.439	7	234	2	3	Verdana	1	80	0	0	0	WM Stimuli\	0.8	1312.625	1	919.9	0.8	1275.375	1	745.6	1	1223.5	1	1028.6	1	996	1	935.5	13	316938	2	316926	27	40	316965	-999999	316941	0	34	TrialsPROC	BP_019_H14-T_BA.png	2	2	52	SessionSelectionList														target	2	Body	2-Back	45	80	43	0	0	100	2	40	186285	1	13	58	184245	-1	185543	1	1298	2	2	2040	53	186298	-54	0																52												
WM080112	122317_fnca	2	1	1	-1976635843	1	75.031	75.030	2.0.10.147	2.0.10.242	2.0.10.242	1.0.0.439	7	234	2	3	Verdana	1	80	0	0	0	WM Stimuli\	0.8	1312.625	1	919.9	0.8	1275.375	1	745.6	1	1223.5	1	1028.6	1	996	1	935.5	13	316938	2	316926	27	40	316965	-999999	316941	0	34	TrialsPROC	BP_024_H3-T_BA.png	2	2	53	SessionSelectionList														nonlure	3	Body	2-Back	46	80	43	0	1	100	2	39	188857	1	13	73	186818	-1	0	0	0	""	3	2039	52	188870	-53	0																53												
WM080112	122317_fnca	2	1	1	-1976635843	1	75.031	75.030	2.0.10.147	2.0.10.242	2.0.10.242	1.0.0.439	7	234	2	3	Verdana	1	80	0	0	0	WM Stimuli\	0.8	1312.625	1	919.9	0.8	1275.375	1	745.6	1	1223.5	1	1028.6	1	996	1	935.5	13	316938	2	316926	27	40	316965	-999999	316941	0	34	TrialsPROC	BP_024_H3-T_BA.png	2	2	54	SessionSelectionList														lure	3	Body	2-Back	47	80	44	0	0	100	1	39	191416	1	13	59	189377	-1	190875	0	1498	2	3	2039	52	191429	-53	0																54												
WM080112	122317_fnca	2	1	1	-1976635843	1	75.031	75.030	2.0.10.147	2.0.10.242	2.0.10.242	1.0.0.439	7	234	2	3	Verdana	1	80	0	0	0	WM Stimuli\	0.8	1312.625	1	919.9	0.8	1275.375	1	745.6	1	1223.5	1	1028.6	1	996	1	935.5	13	316938	2	316926	27	40	316965	-999999	316941	0	34	TrialsPROC	BP_025_H5-T_BA.png	2	2	55	SessionSelectionList														nonlure	3	Body	2-Back	48	80	45	0	0	100	1	39	193988	2	14	72	191949	-1	193187	1	1238	3	3	2039	53	194002	-54	0																55												
WM080112	122317_fnca	2	1	1	-1976635843	1	75.031	75.030	2.0.10.147	2.0.10.242	2.0.10.242	1.0.0.439	7	234	2	3	Verdana	1	80	0	0	0	WM Stimuli\	0.8	1312.625	1	919.9	0.8	1275.375	1	745.6	1	1223.5	1	1028.6	1	996	1	935.5	13	316938	2	316926	27	40	316965	-999999	316941	0	34	TrialsPROC	BP_023_H25-T_BA.png	2	2	56	SessionSelectionList														nonlure	3	Body	2-Back	49	80	46	0	0	100	2	39	196560	2	14	72	194521	-1	196106	1	1585	3	3	2039	53	196574	-54	0																56												
WM080112	122317_fnca	2	1	1	-1976635843	1	75.031	75.030	2.0.10.147	2.0.10.242	2.0.10.242	1.0.0.439	7	234	2	3	Verdana	1	80	0	0	0	WM Stimuli\	0.8	1312.625	1	919.9	0.8	1275.375	1	745.6	1	1223.5	1	1028.6	1	996	1	935.5	13	316938	2	316926	27	40	316965	-999999	316941	0	34	TrialsPROC	BP_022_H24-T_BA.png	2	2	57	SessionSelectionList														nonlure	3	Body	2-Back	50	80	47	0	0	100	3	39	199119	2	14	59	197080	-1	198205	1	1125	3	3	2039	53	199133	-54	0																57												
WM080112	122317_fnca	2	1	1	-1976635843	1	75.031	75.030	2.0.10.147	2.0.10.242	2.0.10.242	1.0.0.439	7	234	2	3	Verdana	1	80	0	0	0	WM Stimuli\	0.8	1312.625	1	919.9	0.8	1275.375	1	745.6	1	1223.5	1	1028.6	1	996	1	935.5	13	316938	2	316926	27	40	316965	-999999	316941	0	34	TrialsPROC	BP_022_H24-T_BA.png	2	2	58	SessionSelectionList														lure	3	Body	2-Back	51	80	48	0	0	100	4	39	201678	2	14	59	199639	-1	200791	1	1152	3	3	2039	53	201692	-54	0																58												
WM080112	122317_fnca	2	1	1	-1976635843	1	75.031	75.030	2.0.10.147	2.0.10.242	2.0.10.242	1.0.0.439	7	234	2	3	Verdana	1	80	0	0	0	WM Stimuli\	0.8	1312.625	1	919.9	0.8	1275.375	1	745.6	1	1223.5	1	1028.6	1	996	1	935.5	13	316938	2	316926	27	40	316965	-999999	316941	0	35	Cue2BackPROC	""	2	2	59	SessionSelectionList									6	202145	-7	0																																													59												
WM080112	122317_fnca	2	1	1	-1976635843	1	75.031	75.030	2.0.10.147	2.0.10.242	2.0.10.242	1.0.0.439	7	234	2	3	Verdana	1	80	0	0	0	WM Stimuli\	0.8	1312.625	1	919.9	0.8	1275.375	1	745.6	1	1223.5	1	1028.6	1	996	1	935.5	13	316938	2	316926	27	40	316965	-999999	316941	0	36	TrialsPROC	PL_019_SCENE_05.png	2	2	60	SessionSelectionList														nonlure	3	Place	2-Back	52	80	49	0	0	100	5	39	206743	1	13	65	204704	-1	206419	1	1715	3	3	2039	52	206756	-53	0																60												
WM080112	122317_fnca	2	1	1	-1976635843	1	75.031	75.030	2.0.10.147	2.0.10.242	2.0.10.242	1.0.0.439	7	234	2	3	Verdana	1	80	0	0	0	WM Stimuli\	0.8	1312.625	1	919.9	0.8	1275.375	1	745.6	1	1223.5	1	1028.6	1	996	1	935.5	13	316938	2	316926	27	40	316965	-999999	316941	0	36	TrialsPROC	PL_017_SCENE_03.png	2	2	61	SessionSelectionList														nonlure	3	Place	2-Back	53	80	50	0	0	100	6	39	209315	2	14	72	207276	-1	208478	1	1202	3	3	2039	53	209329	-54	0																61												
WM080112	122317_fnca	2	1	1	-1976635843	1	75.031	75.030	2.0.10.147	2.0.10.242	2.0.10.242	1.0.0.439	7	234	2	3	Verdana	1	80	0	0	0	WM Stimuli\	0.8	1312.625	1	919.9	0.8	1275.375	1	745.6	1	1223.5	1	1028.6	1	996	1	935.5	13	316938	2	316926	27	40	316965	-999999	316941	0	36	TrialsPROC	PL_017_SCENE_03.png	2	2	62	SessionSelectionList														lure	3	Place	2-Back	54	80	51	0	0	100	7	39	211887	2	14	72	209848	-1	211050	1	1202	3	3	2039	53	211901	-54	0																62												
WM080112	122317_fnca	2	1	1	-1976635843	1	75.031	75.030	2.0.10.147	2.0.10.242	2.0.10.242	1.0.0.439	7	234	2	3	Verdana	1	80	0	0	0	WM Stimuli\	0.8	1312.625	1	919.9	0.8	1275.375	1	745.6	1	1223.5	1	1028.6	1	996	1	935.5	13	316938	2	316926	27	40	316965	-999999	316941	0	36	TrialsPROC	PL_016_SCENE_02.png	2	2	63	SessionSelectionList														nonlure	3	Place	2-Back	55	80	52	0	0	100	8	39	214460	1	13	73	212421	-1	213567	1	1146	3	3	2039	52	214473	-53	0																63												
WM080112	122317_fnca	2	1	1	-1976635843	1	75.031	75.030	2.0.10.147	2.0.10.242	2.0.10.242	1.0.0.439	7	234	2	3	Verdana	1	80	0	0	0	WM Stimuli\	0.8	1312.625	1	919.9	0.8	1275.375	1	745.6	1	1223.5	1	1028.6	1	996	1	935.5	13	316938	2	316926	27	40	316965	-999999	316941	0	36	TrialsPROC	PL_015_SCENE_01.png	2	2	64	SessionSelectionList														nonlure	3	Place	2-Back	56	80	53	0	0	100	9	39	217032	2	13	72	214993	-1	216196	1	1203	3	3	2039	52	217045	-53	0																64												
WM080112	122317_fnca	2	1	1	-1976635843	1	75.031	75.030	2.0.10.147	2.0.10.242	2.0.10.242	1.0.0.439	7	234	2	3	Verdana	1	80	0	0	0	WM Stimuli\	0.8	1312.625	1	919.9	0.8	1275.375	1	745.6	1	1223.5	1	1028.6	1	996	1	935.5	13	316938	2	316926	27	40	316965	-999999	316941	0	36	TrialsPROC	PL_016_SCENE_02.png	2	2	65	SessionSelectionList														target	2	Place	2-Back	57	80	54	0	0	100	1	39	219604	2	14	72	217565	-1	218447	1	882	2	2	2039	53	219618	-54	0																65												
WM080112	122317_fnca	2	1	1	-1976635843	1	75.031	75.030	2.0.10.147	2.0.10.242	2.0.10.242	1.0.0.439	7	234	2	3	Verdana	1	80	0	0	0	WM Stimuli\	0.8	1312.625	1	919.9	0.8	1275.375	1	745.6	1	1223.5	1	1028.6	1	996	1	935.5	13	316938	2	316926	27	40	316965	-999999	316941	0	36	TrialsPROC	PL_015_SCENE_01.png	2	2	66	SessionSelectionList														target	2	Place	2-Back	58	80	55	0	0	100	2	40	222177	1	13	72	220137	-1	221611	1	1474	2	2	2040	53	222190	-54	0																66												
WM080112	122317_fnca	2	1	1	-1976635843	1	75.031	75.030	2.0.10.147	2.0.10.242	2.0.10.242	1.0.0.439	7	234	2	3	Verdana	1	80	0	0	0	WM Stimuli\	0.8	1312.625	1	919.9	0.8	1275.375	1	745.6	1	1223.5	1	1028.6	1	996	1	935.5	13	316938	2	316926	27	40	316965	-999999	316941	0	36	TrialsPROC	PL_020_SCENE_06.png	2	2	67	SessionSelectionList														nonlure	3	Place	2-Back	59	80	56	0	0	100	1	39	224749	1	13	73	222710	-1	223777	1	1067	3	3	2039	52	224762	-53	0																67												
WM080112	122317_fnca	2	1	1	-1976635843	1	75.031	75.030	2.0.10.147	2.0.10.242	2.0.10.242	1.0.0.439	7	234	2	3	Verdana	1	80	0	0	0	WM Stimuli\	0.8	1312.625	1	919.9	0.8	1275.375	1	745.6	1	1223.5	1	1028.6	1	996	1	935.5	13	316938	2	316926	27	40	316965	-999999	316941	0	36	TrialsPROC	PL_020_SCENE_06.png	2	2	68	SessionSelectionList														lure	3	Place	2-Back	60	80	57	0	0	100	2	39	227321	2	14	72	225282	-1	226517	1	1235	3	3	2039	53	227335	-54	0																68												
WM080112	122317_fnca	2	1	1	-1976635843	1	75.031	75.030	2.0.10.147	2.0.10.242	2.0.10.242	1.0.0.439	7	234	2	3	Verdana	1	80	0	0	0	WM Stimuli\	0.8	1312.625	1	919.9	0.8	1275.375	1	745.6	1	1223.5	1	1028.6	1	996	1	935.5	13	316938	2	316926	27	40	316965	-999999	316941	0	36	TrialsPROC	PL_018_SCENE_04.png	2	2	69	SessionSelectionList														nonlure	3	Place	2-Back	61	80	58	0	0	100	3	39	229907	1	13	86	227868	-1	228977	1	1109	3	3	2039	52	229920	-53	0																69												
WM080112	122317_fnca	2	1	1	-1976635843	1	75.031	75.030	2.0.10.147	2.0.10.242	2.0.10.242	1.0.0.439	7	234	2	3	Verdana	1	80	0	0	0	WM Stimuli\	0.8	1312.625	1	919.9	0.8	1275.375	1	745.6	1	1223.5	1	1028.6	1	996	1	935.5	13	316938	2	316926	27	40	316965	-999999	316941	0	37	Fix15secPROC	""	2	2	70	SessionSelectionList																																															5	230373	-6	0							70												
WM080112	122317_fnca	2	1	1	-1976635843	1	75.031	75.030	2.0.10.147	2.0.10.242	2.0.10.242	1.0.0.439	7	234	2	3	Verdana	1	80	0	0	0	WM Stimuli\	0.8	1312.625	1	919.9	0.8	1275.375	1	745.6	1	1223.5	1	1028.6	1	996	1	935.5	13	316938	2	316926	27	40	316965	-999999	316941	0	38	Cue0BackPROC	FC_020_F10.png	2	2	71	SessionSelectionList																																										39	245407	-40	0												71												
WM080112	122317_fnca	2	1	1	-1976635843	1	75.031	75.030	2.0.10.147	2.0.10.242	2.0.10.242	1.0.0.439	7	234	2	3	Verdana	1	80	0	0	0	WM Stimuli\	0.8	1312.625	1	919.9	0.8	1275.375	1	745.6	1	1223.5	1	1028.6	1	996	1	935.5	13	316938	2	316926	27	40	316965	-999999	316941	0	39	TrialsPROC	FC_024_F12.png	2	2	72	SessionSelectionList														nonlure	3	Face	0-Back	62	80	59	0	0	100	4	39	249992	1	13	85	247953	-1	249240	1	1287	3	3	2039	52	250005	-53	0																72												
WM080112	122317_fnca	2	1	1	-1976635843	1	75.031	75.030	2.0.10.147	2.0.10.242	2.0.10.242	1.0.0.439	7	234	2	3	Verdana	1	80	0	0	0	WM Stimuli\	0.8	1312.625	1	919.9	0.8	1275.375	1	745.6	1	1223.5	1	1028.6	1	996	1	935.5	13	316938	2	316926	27	40	316965	-999999	316941	0	39	TrialsPROC	FC_023_M12.png	2	2	73	SessionSelectionList														nonlure	3	Face	0-Back	63	80	60	0	0	100	5	39	252577	2	14	85	250538	-1	251323	1	785	3	3	2039	53	252591	-54	0																73												
WM080112	122317_fnca	2	1	1	-1976635843	1	75.031	75.030	2.0.10.147	2.0.10.242	2.0.10.242	1.0.0.439	7	234	2	3	Verdana	1	80	0	0	0	WM Stimuli\	0.8	1312.625	1	919.9	0.8	1275.375	1	745.6	1	1223.5	1	1028.6	1	996	1	935.5	13	316938	2	316926	27	40	316965	-999999	316941	0	39	TrialsPROC	FC_020_F10.png	2	2	74	SessionSelectionList														target	2	Face	0-Back	64	80	61	0	0	100	1	39	255150	1	13	73	253111	-1	253817	1	706	2	2	2039	52	255163	-53	0																74												
WM080112	122317_fnca	2	1	1	-1976635843	1	75.031	75.030	2.0.10.147	2.0.10.242	2.0.10.242	1.0.0.439	7	234	2	3	Verdana	1	80	0	0	0	WM Stimuli\	0.8	1312.625	1	919.9	0.8	1275.375	1	745.6	1	1223.5	1	1028.6	1	996	1	935.5	13	316938	2	316926	27	40	316965	-999999	316941	0	39	TrialsPROC	FC_024_F12.png	2	2	75	SessionSelectionList														lure	3	Face	0-Back	65	80	62	0	0	100	1	39	257722	2	14	72	255683	-1	256293	1	610	3	3	2039	53	257736	-54	0																75												
WM080112	122317_fnca	2	1	1	-1976635843	1	75.031	75.030	2.0.10.147	2.0.10.242	2.0.10.242	1.0.0.439	7	234	2	3	Verdana	1	80	0	0	0	WM Stimuli\	0.8	1312.625	1	919.9	0.8	1275.375	1	745.6	1	1223.5	1	1028.6	1	996	1	935.5	13	316938	2	316926	27	40	316965	-999999	316941	0	39	TrialsPROC	FC_020_F10.png	2	2	76	SessionSelectionList														target	2	Face	0-Back	66	80	63	0	0	100	1	39	260294	2	14	72	258255	-1	259159	1	904	2	2	2039	53	260308	-54	0																76												
WM080112	122317_fnca	2	1	1	-1976635843	1	75.031	75.030	2.0.10.147	2.0.10.242	2.0.10.242	1.0.0.439	7	234	2	3	Verdana	1	80	0	0	0	WM Stimuli\	0.8	1312.625	1	919.9	0.8	1275.375	1	745.6	1	1223.5	1	1028.6	1	996	1	935.5	13	316938	2	316926	27	40	316965	-999999	316941	0	39	TrialsPROC	FC_022_F11.png	2	2	77	SessionSelectionList														nonlure	3	Face	0-Back	67	80	64	0	0	100	1	39	262880	1	13	86	260841	-1	261455	1	614	3	3	2039	52	262893	-53	0																77												
WM080112	122317_fnca	2	1	1	-1976635843	1	75.031	75.030	2.0.10.147	2.0.10.242	2.0.10.242	1.0.0.439	7	234	2	3	Verdana	1	80	0	0	0	WM Stimuli\	0.8	1312.625	1	919.9	0.8	1275.375	1	745.6	1	1223.5	1	1028.6	1	996	1	935.5	13	316938	2	316926	27	40	316965	-999999	316941	0	39	TrialsPROC	FC_023_M12.png	2	2	78	SessionSelectionList														lure	3	Face	0-Back	68	80	65	0	0	100	2	39	265452	3	14	72	263413	-1	264123	1	710	3	3	2039	53	265466	-54	0																78												
WM080112	122317_fnca	2	1	1	-1976635843	1	75.031	75.030	2.0.10.147	2.0.10.242	2.0.10.242	1.0.0.439	7	234	2	3	Verdana	1	80	0	0	0	WM Stimuli\	0.8	1312.625	1	919.9	0.8	1275.375	1	745.6	1	1223.5	1	1028.6	1	996	1	935.5	13	316938	2	316926	27	40	316965	-999999	316941	0	39	TrialsPROC	FC_021_M11.png	2	2	79	SessionSelectionList														nonlure	3	Face	0-Back	69	80	66	0	0	100	3	39	268038	1	13	86	265999	-1	266584	1	585	3	3	2039	52	268051	-53	0																79												
WM080112	122317_fnca	2	1	1	-1976635843	1	75.031	75.030	2.0.10.147	2.0.10.242	2.0.10.242	1.0.0.439	7	234	2	3	Verdana	1	80	0	0	0	WM Stimuli\	0.8	1312.625	1	919.9	0.8	1275.375	1	745.6	1	1223.5	1	1028.6	1	996	1	935.5	13	316938	2	316926	27	40	316965	-999999	316941	0	39	TrialsPROC	FC_021_M11.png	2	2	80	SessionSelectionList														lure	3	Face	0-Back	70	80	67	0	0	100	4	39	270610	2	14	72	268571	-1	269205	1	634	3	3	2039	53	270624	-54	0																80												
WM080112	122317_fnca	2	1	1	-1976635843	1	75.031	75.030	2.0.10.147	2.0.10.242	2.0.10.242	1.0.0.439	7	234	2	3	Verdana	1	80	0	0	0	WM Stimuli\	0.8	1312.625	1	919.9	0.8	1275.375	1	745.6	1	1223.5	1	1028.6	1	996	1	935.5	13	316938	2	316926	27	40	316965	-999999	316941	0	39	TrialsPROC	FC_019_M10.png	2	2	81	SessionSelectionList														nonlure	3	Face	0-Back	71	80	68	0	0	100	5	39	273196	1	13	86	271157	-1	271778	1	621	3	3	2039	52	273209	-53	0																81												
WM080112	122317_fnca	2	1	1	-1976635843	1	75.031	75.030	2.0.10.147	2.0.10.242	2.0.10.242	1.0.0.439	7	234	2	3	Verdana	1	80	0	0	0	WM Stimuli\	0.8	1312.625	1	919.9	0.8	1275.375	1	745.6	1	1223.5	1	1028.6	1	996	1	935.5	13	316938	2	316926	27	40	316965	-999999	316941	0	40	Cue0BackPROC	PL_021_SCENE_07.png	2	2	82	SessionSelectionList																																										45	273702	-46	0												82												
WM080112	122317_fnca	2	1	1	-1976635843	1	75.031	75.030	2.0.10.147	2.0.10.242	2.0.10.242	1.0.0.439	7	234	2	3	Verdana	1	80	0	0	0	WM Stimuli\	0.8	1312.625	1	919.9	0.8	1275.375	1	745.6	1	1223.5	1	1028.6	1	996	1	935.5	13	316938	2	316926	27	40	316965	-999999	316941	0	41	TrialsPROC	PL_025_SCENE_18.png	2	2	83	SessionSelectionList														nonlure	3	Place	0-Back	72	80	69	0	0	100	6	40	278274	1	13	77	276234	-1	277212	1	978	3	3	2040	53	278287	-54	0																83												
WM080112	122317_fnca	2	1	1	-1976635843	1	75.031	75.030	2.0.10.147	2.0.10.242	2.0.10.242	1.0.0.439	7	234	2	3	Verdana	1	80	0	0	0	WM Stimuli\	0.8	1312.625	1	919.9	0.8	1275.375	1	745.6	1	1223.5	1	1028.6	1	996	1	935.5	13	316938	2	316926	27	40	316965	-999999	316941	0	41	TrialsPROC	PL_026_SCENE_24.png	2	2	84	SessionSelectionList														nonlure	3	Place	0-Back	73	80	70	0	0	100	7	39	280846	2	13	73	278807	-1	280297	1	1490	3	3	2039	52	280859	-53	0																84												
WM080112	122317_fnca	2	1	1	-1976635843	1	75.031	75.030	2.0.10.147	2.0.10.242	2.0.10.242	1.0.0.439	7	234	2	3	Verdana	1	80	0	0	0	WM Stimuli\	0.8	1312.625	1	919.9	0.8	1275.375	1	745.6	1	1223.5	1	1028.6	1	996	1	935.5	13	316938	2	316926	27	40	316965	-999999	316941	0	41	TrialsPROC	PL_025_SCENE_18.png	2	2	85	SessionSelectionList														lure	3	Place	0-Back	74	80	71	0	0	100	8	39	283418	2	14	72	281379	-1	282182	1	803	3	3	2039	53	283432	-54	0																85												
WM080112	122317_fnca	2	1	1	-1976635843	1	75.031	75.030	2.0.10.147	2.0.10.242	2.0.10.242	1.0.0.439	7	234	2	3	Verdana	1	80	0	0	0	WM Stimuli\	0.8	1312.625	1	919.9	0.8	1275.375	1	745.6	1	1223.5	1	1028.6	1	996	1	935.5	13	316938	2	316926	27	40	316965	-999999	316941	0	41	TrialsPROC	PL_022_SCENE_08.png	2	2	86	SessionSelectionList														nonlure	3	Place	0-Back	75	80	72	0	0	100	9	39	286004	1	13	86	283965	-1	284823	1	858	3	3	2039	52	286017	-53	0																86												
WM080112	122317_fnca	2	1	1	-1976635843	1	75.031	75.030	2.0.10.147	2.0.10.242	2.0.10.242	1.0.0.439	7	234	2	3	Verdana	1	80	0	0	0	WM Stimuli\	0.8	1312.625	1	919.9	0.8	1275.375	1	745.6	1	1223.5	1	1028.6	1	996	1	935.5	13	316938	2	316926	27	40	316965	-999999	316941	0	41	TrialsPROC	PL_026_SCENE_24.png	2	2	87	SessionSelectionList														lure	3	Place	0-Back	76	80	73	0	0	100	10	39	288576	2	14	72	286537	-1	287836	1	1299	3	3	2039	53	288590	-54	0																87												
WM080112	122317_fnca	2	1	1	-1976635843	1	75.031	75.030	2.0.10.147	2.0.10.242	2.0.10.242	1.0.0.439	7	234	2	3	Verdana	1	80	0	0	0	WM Stimuli\	0.8	1312.625	1	919.9	0.8	1275.375	1	745.6	1	1223.5	1	1028.6	1	996	1	935.5	13	316938	2	316926	27	40	316965	-999999	316941	0	41	TrialsPROC	PL_021_SCENE_07.png	2	2	88	SessionSelectionList														target	2	Place	0-Back	77	80	74	0	0	100	1	39	291148	2	14	72	289109	-1	289941	1	832	2	2	2039	53	291162	-54	0																88												
WM080112	122317_fnca	2	1	1	-1976635843	1	75.031	75.030	2.0.10.147	2.0.10.242	2.0.10.242	1.0.0.439	7	234	2	3	Verdana	1	80	0	0	0	WM Stimuli\	0.8	1312.625	1	919.9	0.8	1275.375	1	745.6	1	1223.5	1	1028.6	1	996	1	935.5	13	316938	2	316926	27	40	316965	-999999	316941	0	41	TrialsPROC	PL_021_SCENE_07.png	2	2	89	SessionSelectionList														target	2	Place	0-Back	78	80	75	0	0	100	2	39	293721	1	13	73	291682	-1	292931	1	1249	2	2	2039	52	293734	-53	0																89												
WM080112	122317_fnca	2	1	1	-1976635843	1	75.031	75.030	2.0.10.147	2.0.10.242	2.0.10.242	1.0.0.439	7	234	2	3	Verdana	1	80	0	0	0	WM Stimuli\	0.8	1312.625	1	919.9	0.8	1275.375	1	745.6	1	1223.5	1	1028.6	1	996	1	935.5	13	316938	2	316926	27	40	316965	-999999	316941	0	41	TrialsPROC	PL_023_SCENE_09.png	2	2	90	SessionSelectionList														nonlure	3	Place	0-Back	79	80	76	0	0	100	1	39	296306	2	14	85	294267	-1	295479	1	1212	3	3	2039	53	296320	-54	0																90												
WM080112	122317_fnca	2	1	1	-1976635843	1	75.031	75.030	2.0.10.147	2.0.10.242	2.0.10.242	1.0.0.439	7	234	2	3	Verdana	1	80	0	0	0	WM Stimuli\	0.8	1312.625	1	919.9	0.8	1275.375	1	745.6	1	1223.5	1	1028.6	1	996	1	935.5	13	316938	2	316926	27	40	316965	-999999	316941	0	41	TrialsPROC	PL_024_SCENE_10.png	2	2	91	SessionSelectionList														nonlure	3	Place	0-Back	80	80	77	0	0	100	2	39	298892	1	13	86	296853	-1	297543	1	690	3	3	2039	52	298905	-53	0																91												
WM080112	122317_fnca	2	1	1	-1976635843	1	75.031	75.030	2.0.10.147	2.0.10.242	2.0.10.242	1.0.0.439	7	234	2	3	Verdana	1	80	0	0	0	WM Stimuli\	0.8	1312.625	1	919.9	0.8	1275.375	1	745.6	1	1223.5	1	1028.6	1	996	1	935.5	13	316938	2	316926	27	40	316965	-999999	316941	0	41	TrialsPROC	PL_022_SCENE_08.png	2	2	92	SessionSelectionList														lure	3	Place	0-Back	80	80	78	0	0	100	3	39	301464	2	14	72	299425	-1	300300	1	875	3	3	2039	53	301478	-54	0																92												
WM080112	122317_fnca	2	1	1	-1976635843	1	75.031	75.030	2.0.10.147	2.0.10.242	2.0.10.242	1.0.0.439	7	234	2	3	Verdana	1	80	0	0	0	WM Stimuli\	0.8	1312.625	1	919.9	0.8	1275.375	1	745.6	1	1223.5	1	1028.6	1	996	1	935.5	13	316938	2	316926	27	40	316965	-999999	316941	0	42	Fix15secPROC	""	2	2	93	SessionSelectionList																																															6	301931	-7	0							93												
