ExperimentName	HCPID	RunNumber	Subject	Session	RandomSeed	Group	Laptop.RefreshRate	ScannerD2.RefreshRate	StudioVersion	RuntimeVersion	RuntimeVersionExpected	ExperimentVersion	triggercode	Allowed	Target	Nontarget	FontStyle	RunTrialNumber[Session]	TrialsPerRun[Session]	TotalRespGreater200[Session]	ConsecRTLess200[Session]	ConsecNonResp[Session]	StimuliDir	ACC_2_Back_Body	Avg_RT_For_Correct_Trials_2_Back_Body	ACC_0_Back_Body	Avg_RT_For_Correct_Trials_0_Back_Body	ACC_2_Back_Face	Avg_RT_For_Correct_Trials_2_Back_Face	ACC_0_Back_Face	Avg_RT_For_Correct_Trials_0_Back_Face	ACC_2_Back_Place	Avg_RT_For_Correct_Trials_2_Back_Place	ACC_0_Back_Place	Avg_RT_For_Correct_Trials_0_Back_Place	ACC_2_Back_Tools	Avg_RT_For_Correct_Trials_2_Back_Tools	ACC_0_Back_Tools	Avg_RT_For_Correct_Trials_0_Back_Tools	ExpInstrucFeelFreeToRest.OnsetDelay	ExpInstrucFeelFreeToRest.OnsetTime	ExpInstrucFeelFreeToRest.DurationError	ExpInstrucFeelFreeToRest.StartTime	ExpInstrucFeelFreeToRest.OnsetToOnsetTime	FeelFreeToRest.OnsetDelay	FeelFreeToRest.OnsetTime	FeelFreeToRest.DurationError	FeelFreeToRest.StartTime	FeelFreeToRest.OnsetToOnsetTime	SessionSelectionList	Procedure[Block]	Stimulus[Block]	RunNumberFilterValue	SessionSelectionList.Cycle	SessionSelectionList.Sample	Running[Block]	IntroButtonMap.OnsetDelay	IntroButtonMap.OnsetTime	IntroButtonMap.DurationError	IntroButtonMap.OnsetToOnsetTime	GetReady.OnsetDelay	GetReady.OnsetTime	GetReady.DurationError	GetReady.OnsetToOnsetTime	Cue2Back.OnsetDelay	Cue2Back.OnsetTime	Cue2Back.DurationError	Cue2Back.OnsetToOnsetTime	Run1Block1	TargetType	CorrectResponse	StimType	BlockType	RunTrialNumber[Block]	TrialsPerRun[Block]	TotalRespGreater200[Block]	ConsecRTLess200[Block]	ConsecNonResp[Block]	ControlAcc	ConsecSameResp	ExperimenterWindow.OnsetDelay	ExperimenterWindow.OnsetTime	ExperimenterWindow.DurationError	ExperimenterWindow.OnsetToOnsetTime	Stim.OnsetDelay	Stim.OnsetTime	Stim.DurationError	Stim.RTTime	Stim.ACC	Stim.RT	Stim.RESP	Stim.CRESP	Stim.OnsetToOnsetTime	Fix.OnsetDelay	Fix.OnsetTime	Fix.DurationError	Fix.OnsetToOnsetTime	CueTarget.OnsetDelay	CueTarget.OnsetTime	CueTarget.DurationError	CueTarget.OnsetToOnsetTime	Run1Block2	Fix15sec.OnsetDelay	Fix15sec.OnsetTime	Fix15sec.DurationError	Fix15sec.OnsetToOnsetTime	Run1Block3	Run1Block4	Run1Block5	Run1Block6	Run1Block7	Run1Block8	Block	Procedure[Trial]	Stimulus[Trial]	ReadyList	Running[Trial]	ReadyList.Cycle	ReadyList.Sample	SyncSlide.OnsetDelay	SyncSlide.OnsetTime	SyncSlide.DurationError	SyncSlide.FinishTime	SyncSlide.OnsetToOnsetTime	Trial
WM080112	162733_fnca	1	1	1	-580398226	1	75.032	75.031	2.0.10.147	2.0.10.242	2.0.10.242	1.0.0.439	7	234	2	3	Verdana	1	80	0	0	0	WM Stimuli\	0.5	1186.6	0.9	865.888888888889	0.8	1046	0.7	832.428571428571	0.9	1076.88888888889	1	862.8	0.7	1325.42857142857	0.9	1020.55555555556	12	552119	3	552108	27	39	552146	-999999	552122	0	1	TRSyncPROC	""	1	2	1	SessionSelectionList	103	22111	-999999	0	40	245726	-999999	0																																																	1	InitialTR	4	1	ReadyList	1	1	21	258693	-22	260671	0	1
WM080112	162733_fnca	1	1	1	-580398226	1	75.032	75.031	2.0.10.147	2.0.10.242	2.0.10.242	1.0.0.439	7	234	2	3	Verdana	1	80	0	0	0	WM Stimuli\	0.5	1186.6	0.9	865.888888888889	0.8	1046	0.7	832.428571428571	0.9	1076.88888888889	1	862.8	0.7	1325.42857142857	0.9	1020.55555555556	12	552119	3	552108	27	39	552146	-999999	552122	0	1	TRSyncPROC	""	1	2	1	SessionSelectionList	103	22111	-999999	0	40	245726	-999999	0																																																	1	InitialTR	3	2	ReadyList	1	2	21	260693	-22	262671	0	2
WM080112	162733_fnca	1	1	1	-580398226	1	75.032	75.031	2.0.10.147	2.0.10.242	2.0.10.242	1.0.0.439	7	234	2	3	Verdana	1	80	0	0	0	WM Stimuli\	0.5	1186.6	0.9	865.888888888889	0.8	1046	0.7	832.428571428571	0.9	1076.88888888889	1	862.8	0.7	1325.42857142857	0.9	1020.55555555556	12	552119	3	552108	27	39	552146	-999999	552122	0	1	TRSyncPROC	""	1	2	1	SessionSelectionList	103	22111	-999999	0	40	245726	-999999	0																																																	1	InitialTR	2	3	ReadyList	1	3	6	262678	-7	264671	0	3
WM080112	162733_fnca	1	1	1	-580398226	1	75.032	75.031	2.0.10.147	2.0.10.242	2.0.10.242	1.0.0.439	7	234	2	3	Verdana	1	80	0	0	0	WM Stimuli\	0.5	1186.6	0.9	865.888888888889	0.8	1046	0.7	832.428571428571	0.9	1076.88888888889	1	862.8	0.7	1325.42857142857	0.9	1020.55555555556	12	552119	3	552108	27	39	552146	-999999	552122	0	1	TRSyncPROC	""	1	2	1	SessionSelectionList	103	22111	-999999	0	40	245726	-999999	0																																																	1	InitialTR	1	4	ReadyList	1	4	6	264678	-7	266671	0	4
WM080112	162733_fnca	1	1	1	-580398226	1	75.032	75.031	2.0.10.147	2.0.10.242	2.0.10.242	1.0.0.439	7	234	2	3	Verdana	1	80	0	0	0	WM Stimuli\	0.5	1186.6	0.9	865.888888888889	0.8	1046	0.7	832.428571428571	0.9	1076.88888888889	1	862.8	0.7	1325.42857142857	0.9	1020.55555555556	12	552119	3	552108	27	39	552146	-999999	552122	0	2	Cue2BackPROC	""	1	2	2	SessionSelectionList									18	266690	-19	0																																													2												
WM080112	162733_fnca	1	1	1	-580398226	1	75.032	75.031	2.0.10.147	2.0.10.242	2.0.10.242	1.0.0.439	7	234	2	3	Verdana	1	80	0	0	0	WM Stimuli\	0.5	1186.6	0.9	865.888888888889	0.8	1046	0.7	832.428571428571	0.9	1076.88888888889	1	862.8	0.7	1325.42857142857	0.9	1020.55555555556	12	552119	3	552108	27	39	552146	-999999	552122	0	3	TrialsPROC	BP_002_BP10_BA.png	1	2	3	SessionSelectionList													1	nonlure	3	Body	2-Back	2	80	0	0	1	0	0	52	271301	3	14	77	269249	-1	0	0	0	""	3	2052	66	271315	-67	0																3												
WM080112	162733_fnca	1	1	1	-580398226	1	75.032	75.031	2.0.10.147	2.0.10.242	2.0.10.242	1.0.0.439	7	234	2	3	Verdana	1	80	0	0	0	WM Stimuli\	0.5	1186.6	0.9	865.888888888889	0.8	1046	0.7	832.428571428571	0.9	1076.88888888889	1	862.8	0.7	1325.42857142857	0.9	1020.55555555556	12	552119	3	552108	27	39	552146	-999999	552122	0	3	TrialsPROC	BP_001_BP1_BA.png	1	2	4	SessionSelectionList													2	nonlure	3	Body	2-Back	3	80	1	0	0	0	1	39	273860	3	14	72	271821	-1	273255	1	1434	3	3	2039	53	273874	-54	0																4												
WM080112	162733_fnca	1	1	1	-580398226	1	75.032	75.031	2.0.10.147	2.0.10.242	2.0.10.242	1.0.0.439	7	234	2	3	Verdana	1	80	0	0	0	WM Stimuli\	0.5	1186.6	0.9	865.888888888889	0.8	1046	0.7	832.428571428571	0.9	1076.88888888889	1	862.8	0.7	1325.42857142857	0.9	1020.55555555556	12	552119	3	552108	27	39	552146	-999999	552122	0	3	TrialsPROC	BP_006_BP2_BA.png	1	2	5	SessionSelectionList													3	nonlure	3	Body	2-Back	4	80	2	0	0	0	2	39	276419	2	14	59	274380	-1	275435	1	1055	3	3	2039	53	276433	-54	0																5												
WM080112	162733_fnca	1	1	1	-580398226	1	75.032	75.031	2.0.10.147	2.0.10.242	2.0.10.242	1.0.0.439	7	234	2	3	Verdana	1	80	0	0	0	WM Stimuli\	0.5	1186.6	0.9	865.888888888889	0.8	1046	0.7	832.428571428571	0.9	1076.88888888889	1	862.8	0.7	1325.42857142857	0.9	1020.55555555556	12	552119	3	552108	27	39	552146	-999999	552122	0	3	TrialsPROC	BP_001_BP1_BA.png	1	2	6	SessionSelectionList													4	target	2	Body	2-Back	5	80	2	0	1	0	2	39	278992	1	13	73	276953	-1	0	0	0	""	2	2039	52	279005	-53	0																6												
WM080112	162733_fnca	1	1	1	-580398226	1	75.032	75.031	2.0.10.147	2.0.10.242	2.0.10.242	1.0.0.439	7	234	2	3	Verdana	1	80	0	0	0	WM Stimuli\	0.5	1186.6	0.9	865.888888888889	0.8	1046	0.7	832.428571428571	0.9	1076.88888888889	1	862.8	0.7	1325.42857142857	0.9	1020.55555555556	12	552119	3	552108	27	39	552146	-999999	552122	0	3	TrialsPROC	BP_005_BP19_BA.png	1	2	7	SessionSelectionList													5	nonlure	3	Body	2-Back	6	80	3	0	0	0	1	39	281564	1	14	72	279525	-1	280915	1	1390	3	3	2039	53	281578	-54	0																7												
WM080112	162733_fnca	1	1	1	-580398226	1	75.032	75.031	2.0.10.147	2.0.10.242	2.0.10.242	1.0.0.439	7	234	2	3	Verdana	1	80	0	0	0	WM Stimuli\	0.5	1186.6	0.9	865.888888888889	0.8	1046	0.7	832.428571428571	0.9	1076.88888888889	1	862.8	0.7	1325.42857142857	0.9	1020.55555555556	12	552119	3	552108	27	39	552146	-999999	552122	0	3	TrialsPROC	BP_003_BP16_BA.png	1	2	8	SessionSelectionList													6	nonlure	3	Body	2-Back	7	80	4	0	0	0	2	39	284123	2	14	59	282084	-1	283452	1	1368	3	3	2039	53	284137	-54	0																8												
WM080112	162733_fnca	1	1	1	-580398226	1	75.032	75.031	2.0.10.147	2.0.10.242	2.0.10.242	1.0.0.439	7	234	2	3	Verdana	1	80	0	0	0	WM Stimuli\	0.5	1186.6	0.9	865.888888888889	0.8	1046	0.7	832.428571428571	0.9	1076.88888888889	1	862.8	0.7	1325.42857142857	0.9	1020.55555555556	12	552119	3	552108	27	39	552146	-999999	552122	0	3	TrialsPROC	BP_006_BP2_BA.png	1	2	9	SessionSelectionList													7	lure	3	Body	2-Back	8	80	5	0	0	0	1	39	286682	1	14	59	284643	-1	286144	0	1501	2	3	2039	53	286696	-54	0																9												
WM080112	162733_fnca	1	1	1	-580398226	1	75.032	75.031	2.0.10.147	2.0.10.242	2.0.10.242	1.0.0.439	7	234	2	3	Verdana	1	80	0	0	0	WM Stimuli\	0.5	1186.6	0.9	865.888888888889	0.8	1046	0.7	832.428571428571	0.9	1076.88888888889	1	862.8	0.7	1325.42857142857	0.9	1020.55555555556	12	552119	3	552108	27	39	552146	-999999	552122	0	3	TrialsPROC	BP_004_BP18_BA.png	1	2	10	SessionSelectionList													8	nonlure	3	Body	2-Back	9	80	6	0	0	0	1	39	289241	1	14	59	287202	-1	287888	1	686	3	3	2039	53	289255	-54	0																10												
WM080112	162733_fnca	1	1	1	-580398226	1	75.032	75.031	2.0.10.147	2.0.10.242	2.0.10.242	1.0.0.439	7	234	2	3	Verdana	1	80	0	0	0	WM Stimuli\	0.5	1186.6	0.9	865.888888888889	0.8	1046	0.7	832.428571428571	0.9	1076.88888888889	1	862.8	0.7	1325.42857142857	0.9	1020.55555555556	12	552119	3	552108	27	39	552146	-999999	552122	0	3	TrialsPROC	BP_005_BP19_BA.png	1	2	11	SessionSelectionList													9	lure	3	Body	2-Back	10	80	6	0	1	0	1	39	291800	1	13	59	289761	-1	0	0	0	""	3	2039	52	291813	-53	0																11												
WM080112	162733_fnca	1	1	1	-580398226	1	75.032	75.031	2.0.10.147	2.0.10.242	2.0.10.242	1.0.0.439	7	234	2	3	Verdana	1	80	0	0	0	WM Stimuli\	0.5	1186.6	0.9	865.888888888889	0.8	1046	0.7	832.428571428571	0.9	1076.88888888889	1	862.8	0.7	1325.42857142857	0.9	1020.55555555556	12	552119	3	552108	27	39	552146	-999999	552122	0	3	TrialsPROC	BP_004_BP18_BA.png	1	2	12	SessionSelectionList													10	target	2	Body	2-Back	11	80	7	0	0	0	1	39	294359	1	13	59	292320	-1	292961	0	641	3	2	2039	52	294372	-53	0																12												
WM080112	162733_fnca	1	1	1	-580398226	1	75.032	75.031	2.0.10.147	2.0.10.242	2.0.10.242	1.0.0.439	7	234	2	3	Verdana	1	80	0	0	0	WM Stimuli\	0.5	1186.6	0.9	865.888888888889	0.8	1046	0.7	832.428571428571	0.9	1076.88888888889	1	862.8	0.7	1325.42857142857	0.9	1020.55555555556	12	552119	3	552108	27	39	552146	-999999	552122	0	4	Cue0BackPROC	FC_001_M1.png	1	2	13	SessionSelectionList																																										18	294838	-19	0												13												
WM080112	162733_fnca	1	1	1	-580398226	1	75.032	75.031	2.0.10.147	2.0.10.242	2.0.10.242	1.0.0.439	7	234	2	3	Verdana	1	80	0	0	0	WM Stimuli\	0.5	1186.6	0.9	865.888888888889	0.8	1046	0.7	832.428571428571	0.9	1076.88888888889	1	862.8	0.7	1325.42857142857	0.9	1020.55555555556	12	552119	3	552108	27	39	552146	-999999	552122	0	5	TrialsPROC	FC_005_M3.png	1	2	14	SessionSelectionList														nonlure	3	Face	0-Back	12	80	8	0	0	100	2	39	299423	2	14	64	297384	-1	299085	1	1701	3	3	2039	53	299437	-54	0					1											14												
WM080112	162733_fnca	1	1	1	-580398226	1	75.032	75.031	2.0.10.147	2.0.10.242	2.0.10.242	1.0.0.439	7	234	2	3	Verdana	1	80	0	0	0	WM Stimuli\	0.5	1186.6	0.9	865.888888888889	0.8	1046	0.7	832.428571428571	0.9	1076.88888888889	1	862.8	0.7	1325.42857142857	0.9	1020.55555555556	12	552119	3	552108	27	39	552146	-999999	552122	0	5	TrialsPROC	FC_001_M1.png	1	2	15	SessionSelectionList														target	2	Face	0-Back	13	80	9	0	0	100	1	40	301996	1	13	72	299956	-1	300707	1	751	2	2	2040	53	302009	-54	0					2											15												
WM080112	162733_fnca	1	1	1	-580398226	1	75.032	75.031	2.0.10.147	2.0.10.242	2.0.10.242	1.0.0.439	7	234	2	3	Verdana	1	80	0	0	0	WM Stimuli\	0.5	1186.6	0.9	865.888888888889	0.8	1046	0.7	832.428571428571	0.9	1076.88888888889	1	862.8	0.7	1325.42857142857	0.9	1020.55555555556	12	552119	3	552108	27	39	552146	-999999	552122	0	5	TrialsPROC	FC_003_M2.png	1	2	16	SessionSelectionList														nonlure	3	Face	0-Back	14	80	10	0	0	67	2	39	304568	1	14	73	302529	-1	303614	0	1085	2	3	2039	53	304582	-54	0					3											16												
WM080112	162733_fnca	1	1	1	-580398226	1	75.032	75.031	2.0.10.147	2.0.10.242	2.0.10.242	1.0.0.439	7	234	2	3	Verdana	1	80	0	0	0	WM Stimuli\	0.5	1186.6	0.9	865.888888888889	0.8	1046	0.7	832.428571428571	0.9	1076.88888888889	1	862.8	0.7	1325.42857142857	0.9	1020.55555555556	12	552119	3	552108	27	39	552146	-999999	552122	0	5	TrialsPROC	FC_004_F2.png	1	2	17	SessionSelectionList														nonlure	3	Face	0-Back	15	80	11	0	0	75	1	39	307140	1	14	72	305101	-1	305871	1	770	3	3	2039	53	307154	-54	0					4											17												
WM080112	162733_fnca	1	1	1	-580398226	1	75.032	75.031	2.0.10.147	2.0.10.242	2.0.10.242	1.0.0.439	7	234	2	3	Verdana	1	80	0	0	0	WM Stimuli\	0.5	1186.6	0.9	865.888888888889	0.8	1046	0.7	832.428571428571	0.9	1076.88888888889	1	862.8	0.7	1325.42857142857	0.9	1020.55555555556	12	552119	3	552108	27	39	552146	-999999	552122	0	5	TrialsPROC	FC_004_F2.png	1	2	18	SessionSelectionList														lure	3	Face	0-Back	16	80	12	0	0	80	2	39	309712	2	14	72	307673	-1	308493	1	820	3	3	2039	53	309726	-54	0					5											18												
WM080112	162733_fnca	1	1	1	-580398226	1	75.032	75.031	2.0.10.147	2.0.10.242	2.0.10.242	1.0.0.439	7	234	2	3	Verdana	1	80	0	0	0	WM Stimuli\	0.5	1186.6	0.9	865.888888888889	0.8	1046	0.7	832.428571428571	0.9	1076.88888888889	1	862.8	0.7	1325.42857142857	0.9	1020.55555555556	12	552119	3	552108	27	39	552146	-999999	552122	0	5	TrialsPROC	FC_001_M1.png	1	2	19	SessionSelectionList														target	2	Face	0-Back	17	80	13	0	0	67	3	40	312285	1	13	72	310245	-1	311604	0	1359	3	2	2040	53	312298	-54	0					6											19												
WM080112	162733_fnca	1	1	1	-580398226	1	75.032	75.031	2.0.10.147	2.0.10.242	2.0.10.242	1.0.0.439	7	234	2	3	Verdana	1	80	0	0	0	WM Stimuli\	0.5	1186.6	0.9	865.888888888889	0.8	1046	0.7	832.428571428571	0.9	1076.88888888889	1	862.8	0.7	1325.42857142857	0.9	1020.55555555556	12	552119	3	552108	27	39	552146	-999999	552122	0	5	TrialsPROC	FC_006_F3.png	1	2	20	SessionSelectionList														nonlure	3	Face	0-Back	18	80	14	0	0	71	4	39	314857	1	14	73	312818	-1	313515	1	697	3	3	2039	53	314871	-54	0					7											20												
WM080112	162733_fnca	1	1	1	-580398226	1	75.032	75.031	2.0.10.147	2.0.10.242	2.0.10.242	1.0.0.439	7	234	2	3	Verdana	1	80	0	0	0	WM Stimuli\	0.5	1186.6	0.9	865.888888888889	0.8	1046	0.7	832.428571428571	0.9	1076.88888888889	1	862.8	0.7	1325.42857142857	0.9	1020.55555555556	12	552119	3	552108	27	39	552146	-999999	552122	0	5	TrialsPROC	FC_006_F3.png	1	2	21	SessionSelectionList														lure	3	Face	0-Back	19	80	15	0	0	75	5	39	317429	2	14	72	315390	-1	315886	1	496	3	3	2039	53	317443	-54	0					8											21												
WM080112	162733_fnca	1	1	1	-580398226	1	75.032	75.031	2.0.10.147	2.0.10.242	2.0.10.242	1.0.0.439	7	234	2	3	Verdana	1	80	0	0	0	WM Stimuli\	0.5	1186.6	0.9	865.888888888889	0.8	1046	0.7	832.428571428571	0.9	1076.88888888889	1	862.8	0.7	1325.42857142857	0.9	1020.55555555556	12	552119	3	552108	27	39	552146	-999999	552122	0	5	TrialsPROC	FC_003_M2.png	1	2	22	SessionSelectionList														lure	3	Face	0-Back	20	80	16	0	0	67	1	39	320001	2	14	72	317962	-1	318885	0	923	2	3	2039	53	320015	-54	0					9											22												
WM080112	162733_fnca	1	1	1	-580398226	1	75.032	75.031	2.0.10.147	2.0.10.242	2.0.10.242	1.0.0.439	7	234	2	3	Verdana	1	80	0	0	0	WM Stimuli\	0.5	1186.6	0.9	865.888888888889	0.8	1046	0.7	832.428571428571	0.9	1076.88888888889	1	862.8	0.7	1325.42857142857	0.9	1020.55555555556	12	552119	3	552108	27	39	552146	-999999	552122	0	5	TrialsPROC	FC_002_F1.png	1	2	23	SessionSelectionList														nonlure	3	Face	0-Back	21	80	17	0	0	70	1	39	322574	1	13	73	320535	-1	321127	1	592	3	3	2039	52	322587	-53	0					10											23												
WM080112	162733_fnca	1	1	1	-580398226	1	75.032	75.031	2.0.10.147	2.0.10.242	2.0.10.242	1.0.0.439	7	234	2	3	Verdana	1	80	0	0	0	WM Stimuli\	0.5	1186.6	0.9	865.888888888889	0.8	1046	0.7	832.428571428571	0.9	1076.88888888889	1	862.8	0.7	1325.42857142857	0.9	1020.55555555556	12	552119	3	552108	27	39	552146	-999999	552122	0	6	Fix15secPROC	""	1	2	24	SessionSelectionList																																															6	323041	-7	0							24												
WM080112	162733_fnca	1	1	1	-580398226	1	75.032	75.031	2.0.10.147	2.0.10.242	2.0.10.242	1.0.0.439	7	234	2	3	Verdana	1	80	0	0	0	WM Stimuli\	0.5	1186.6	0.9	865.888888888889	0.8	1046	0.7	832.428571428571	0.9	1076.88888888889	1	862.8	0.7	1325.42857142857	0.9	1020.55555555556	12	552119	3	552108	27	39	552146	-999999	552122	0	7	Cue2BackPROC	""	1	2	25	SessionSelectionList									12	338047	-13	0																																													25												
WM080112	162733_fnca	1	1	1	-580398226	1	75.032	75.031	2.0.10.147	2.0.10.242	2.0.10.242	1.0.0.439	7	234	2	3	Verdana	1	80	0	0	0	WM Stimuli\	0.5	1186.6	0.9	865.888888888889	0.8	1046	0.7	832.428571428571	0.9	1076.88888888889	1	862.8	0.7	1325.42857142857	0.9	1020.55555555556	12	552119	3	552108	27	39	552146	-999999	552122	0	8	TrialsPROC	TO_001_TOOL1_BA.png	1	2	26	SessionSelectionList														nonlure	3	Tools	2-Back	22	80	18	0	0	70	1	39	342632	2	14	58	340593	-1	342498	0	1905	2	3	2039	53	342646	-54	0										1						26												
WM080112	162733_fnca	1	1	1	-580398226	1	75.032	75.031	2.0.10.147	2.0.10.242	2.0.10.242	1.0.0.439	7	234	2	3	Verdana	1	80	0	0	0	WM Stimuli\	0.5	1186.6	0.9	865.888888888889	0.8	1046	0.7	832.428571428571	0.9	1076.88888888889	1	862.8	0.7	1325.42857142857	0.9	1020.55555555556	12	552119	3	552108	27	39	552146	-999999	552122	0	8	TrialsPROC	TO_002_TOOL2_BA.png	1	2	27	SessionSelectionList														nonlure	3	Tools	2-Back	23	80	19	0	0	70	1	39	345191	1	14	59	343152	-1	344423	1	1271	3	3	2039	53	345205	-54	0										2						27												
WM080112	162733_fnca	1	1	1	-580398226	1	75.032	75.031	2.0.10.147	2.0.10.242	2.0.10.242	1.0.0.439	7	234	2	3	Verdana	1	80	0	0	0	WM Stimuli\	0.5	1186.6	0.9	865.888888888889	0.8	1046	0.7	832.428571428571	0.9	1076.88888888889	1	862.8	0.7	1325.42857142857	0.9	1020.55555555556	12	552119	3	552108	27	39	552146	-999999	552122	0	8	TrialsPROC	TO_004_TOOL4_BA.png	1	2	28	SessionSelectionList														nonlure	3	Tools	2-Back	24	80	19	0	1	70	1	39	347750	1	14	59	345711	-1	0	0	0	""	3	2039	53	347764	-54	0										3						28												
WM080112	162733_fnca	1	1	1	-580398226	1	75.032	75.031	2.0.10.147	2.0.10.242	2.0.10.242	1.0.0.439	7	234	2	3	Verdana	1	80	0	0	0	WM Stimuli\	0.5	1186.6	0.9	865.888888888889	0.8	1046	0.7	832.428571428571	0.9	1076.88888888889	1	862.8	0.7	1325.42857142857	0.9	1020.55555555556	12	552119	3	552108	27	39	552146	-999999	552122	0	8	TrialsPROC	TO_002_TOOL2_BA.png	1	2	29	SessionSelectionList														target	2	Tools	2-Back	25	80	20	0	0	70	1	39	350309	1	14	59	348270	-1	349177	1	907	2	2	2039	53	350323	-54	0										4						29												
WM080112	162733_fnca	1	1	1	-580398226	1	75.032	75.031	2.0.10.147	2.0.10.242	2.0.10.242	1.0.0.439	7	234	2	3	Verdana	1	80	0	0	0	WM Stimuli\	0.5	1186.6	0.9	865.888888888889	0.8	1046	0.7	832.428571428571	0.9	1076.88888888889	1	862.8	0.7	1325.42857142857	0.9	1020.55555555556	12	552119	3	552108	27	39	552146	-999999	552122	0	8	TrialsPROC	TO_001_TOOL1_BA.png	1	2	30	SessionSelectionList														lure	3	Tools	2-Back	26	80	21	0	0	70	1	39	352868	1	14	59	350829	-1	352597	1	1768	3	3	2039	53	352882	-54	0										5						30												
WM080112	162733_fnca	1	1	1	-580398226	1	75.032	75.031	2.0.10.147	2.0.10.242	2.0.10.242	1.0.0.439	7	234	2	3	Verdana	1	80	0	0	0	WM Stimuli\	0.5	1186.6	0.9	865.888888888889	0.8	1046	0.7	832.428571428571	0.9	1076.88888888889	1	862.8	0.7	1325.42857142857	0.9	1020.55555555556	12	552119	3	552108	27	39	552146	-999999	552122	0	8	TrialsPROC	TO_004_TOOL4_BA.png	1	2	31	SessionSelectionList														lure	3	Tools	2-Back	27	80	22	0	0	70	2	39	355427	1	14	59	353388	-1	355016	1	1628	3	3	2039	53	355441	-54	0										6						31												
WM080112	162733_fnca	1	1	1	-580398226	1	75.032	75.031	2.0.10.147	2.0.10.242	2.0.10.242	1.0.0.439	7	234	2	3	Verdana	1	80	0	0	0	WM Stimuli\	0.5	1186.6	0.9	865.888888888889	0.8	1046	0.7	832.428571428571	0.9	1076.88888888889	1	862.8	0.7	1325.42857142857	0.9	1020.55555555556	12	552119	3	552108	27	39	552146	-999999	552122	0	8	TrialsPROC	TO_006_TOOL6_BA.png	1	2	32	SessionSelectionList														nonlure	3	Tools	2-Back	28	80	23	0	0	70	3	39	357986	1	14	59	355947	-1	357538	1	1591	3	3	2039	53	358000	-54	0										7						32												
WM080112	162733_fnca	1	1	1	-580398226	1	75.032	75.031	2.0.10.147	2.0.10.242	2.0.10.242	1.0.0.439	7	234	2	3	Verdana	1	80	0	0	0	WM Stimuli\	0.5	1186.6	0.9	865.888888888889	0.8	1046	0.7	832.428571428571	0.9	1076.88888888889	1	862.8	0.7	1325.42857142857	0.9	1020.55555555556	12	552119	3	552108	27	39	552146	-999999	552122	0	8	TrialsPROC	TO_005_TOOL5_BA.png	1	2	33	SessionSelectionList														nonlure	3	Tools	2-Back	29	80	24	0	0	70	4	39	360545	1	14	59	358506	-1	359753	1	1247	3	3	2039	53	360559	-54	0										8						33												
WM080112	162733_fnca	1	1	1	-580398226	1	75.032	75.031	2.0.10.147	2.0.10.242	2.0.10.242	1.0.0.439	7	234	2	3	Verdana	1	80	0	0	0	WM Stimuli\	0.5	1186.6	0.9	865.888888888889	0.8	1046	0.7	832.428571428571	0.9	1076.88888888889	1	862.8	0.7	1325.42857142857	0.9	1020.55555555556	12	552119	3	552108	27	39	552146	-999999	552122	0	8	TrialsPROC	TO_006_TOOL6_BA.png	1	2	34	SessionSelectionList														target	2	Tools	2-Back	30	80	24	0	1	70	4	39	363104	1	13	59	361065	-1	0	0	0	""	2	2039	52	363117	-53	0										9						34												
WM080112	162733_fnca	1	1	1	-580398226	1	75.032	75.031	2.0.10.147	2.0.10.242	2.0.10.242	1.0.0.439	7	234	2	3	Verdana	1	80	0	0	0	WM Stimuli\	0.5	1186.6	0.9	865.888888888889	0.8	1046	0.7	832.428571428571	0.9	1076.88888888889	1	862.8	0.7	1325.42857142857	0.9	1020.55555555556	12	552119	3	552108	27	39	552146	-999999	552122	0	8	TrialsPROC	TO_003_TOOL3_BA.png	1	2	35	SessionSelectionList														nonlure	3	Tools	2-Back	31	80	25	0	0	70	1	39	365663	1	13	59	363624	-1	364490	1	866	3	3	2039	52	365676	-53	0										10						35												
WM080112	162733_fnca	1	1	1	-580398226	1	75.032	75.031	2.0.10.147	2.0.10.242	2.0.10.242	1.0.0.439	7	234	2	3	Verdana	1	80	0	0	0	WM Stimuli\	0.5	1186.6	0.9	865.888888888889	0.8	1046	0.7	832.428571428571	0.9	1076.88888888889	1	862.8	0.7	1325.42857142857	0.9	1020.55555555556	12	552119	3	552108	27	39	552146	-999999	552122	0	9	Cue0BackPROC	BP_007_BP20_BA.png	1	2	36	SessionSelectionList																																										18	366142	-19	0												36												
WM080112	162733_fnca	1	1	1	-580398226	1	75.032	75.031	2.0.10.147	2.0.10.242	2.0.10.242	1.0.0.439	7	234	2	3	Verdana	1	80	0	0	0	WM Stimuli\	0.5	1186.6	0.9	865.888888888889	0.8	1046	0.7	832.428571428571	0.9	1076.88888888889	1	862.8	0.7	1325.42857142857	0.9	1020.55555555556	12	552119	3	552108	27	39	552146	-999999	552122	0	10	TrialsPROC	BP_007_BP20_BA.png	1	2	37	SessionSelectionList														target	2	Body	0-Back	32	80	25	0	1	64	1	39	370714	1	14	51	368675	-1	0	0	0	""	2	2039	53	370728	-54	0											1					37												
WM080112	162733_fnca	1	1	1	-580398226	1	75.032	75.031	2.0.10.147	2.0.10.242	2.0.10.242	1.0.0.439	7	234	2	3	Verdana	1	80	0	0	0	WM Stimuli\	0.5	1186.6	0.9	865.888888888889	0.8	1046	0.7	832.428571428571	0.9	1076.88888888889	1	862.8	0.7	1325.42857142857	0.9	1020.55555555556	12	552119	3	552108	27	39	552146	-999999	552122	0	10	TrialsPROC	BP_011_BP4_BA.png	1	2	38	SessionSelectionList														nonlure	3	Body	0-Back	33	80	26	0	0	67	1	39	373286	2	14	72	371247	-1	372836	1	1589	3	3	2039	53	373300	-54	0											2					38												
WM080112	162733_fnca	1	1	1	-580398226	1	75.032	75.031	2.0.10.147	2.0.10.242	2.0.10.242	1.0.0.439	7	234	2	3	Verdana	1	80	0	0	0	WM Stimuli\	0.5	1186.6	0.9	865.888888888889	0.8	1046	0.7	832.428571428571	0.9	1076.88888888889	1	862.8	0.7	1325.42857142857	0.9	1020.55555555556	12	552119	3	552108	27	39	552146	-999999	552122	0	10	TrialsPROC	BP_010_BP3_BA.png	1	2	39	SessionSelectionList														nonlure	3	Body	0-Back	34	80	27	0	0	69	2	39	375845	2	14	59	373806	-1	374665	1	859	3	3	2039	53	375859	-54	0											3					39												
WM080112	162733_fnca	1	1	1	-580398226	1	75.032	75.031	2.0.10.147	2.0.10.242	2.0.10.242	1.0.0.439	7	234	2	3	Verdana	1	80	0	0	0	WM Stimuli\	0.5	1186.6	0.9	865.888888888889	0.8	1046	0.7	832.428571428571	0.9	1076.88888888889	1	862.8	0.7	1325.42857142857	0.9	1020.55555555556	12	552119	3	552108	27	39	552146	-999999	552122	0	10	TrialsPROC	BP_008_BP21_BA.png	1	2	40	SessionSelectionList														nonlure	3	Body	0-Back	35	80	28	0	0	71	3	39	378404	1	14	59	376365	-1	377536	1	1171	3	3	2039	53	378418	-54	0											4					40												
WM080112	162733_fnca	1	1	1	-580398226	1	75.032	75.031	2.0.10.147	2.0.10.242	2.0.10.242	1.0.0.439	7	234	2	3	Verdana	1	80	0	0	0	WM Stimuli\	0.5	1186.6	0.9	865.888888888889	0.8	1046	0.7	832.428571428571	0.9	1076.88888888889	1	862.8	0.7	1325.42857142857	0.9	1020.55555555556	12	552119	3	552108	27	39	552146	-999999	552122	0	10	TrialsPROC	BP_011_BP4_BA.png	1	2	41	SessionSelectionList														lure	3	Body	0-Back	36	80	29	0	0	73	4	39	380976	2	14	72	378937	-1	379687	1	750	3	3	2039	53	380990	-54	0											5					41												
WM080112	162733_fnca	1	1	1	-580398226	1	75.032	75.031	2.0.10.147	2.0.10.242	2.0.10.242	1.0.0.439	7	234	2	3	Verdana	1	80	0	0	0	WM Stimuli\	0.5	1186.6	0.9	865.888888888889	0.8	1046	0.7	832.428571428571	0.9	1076.88888888889	1	862.8	0.7	1325.42857142857	0.9	1020.55555555556	12	552119	3	552108	27	39	552146	-999999	552122	0	10	TrialsPROC	BP_009_BP22_BA.png	1	2	42	SessionSelectionList														nonlure	3	Body	0-Back	37	80	30	0	0	75	5	39	383535	2	14	59	381496	-1	382288	1	792	3	3	2039	53	383549	-54	0											6					42												
WM080112	162733_fnca	1	1	1	-580398226	1	75.032	75.031	2.0.10.147	2.0.10.242	2.0.10.242	1.0.0.439	7	234	2	3	Verdana	1	80	0	0	0	WM Stimuli\	0.5	1186.6	0.9	865.888888888889	0.8	1046	0.7	832.428571428571	0.9	1076.88888888889	1	862.8	0.7	1325.42857142857	0.9	1020.55555555556	12	552119	3	552108	27	39	552146	-999999	552122	0	10	TrialsPROC	BP_009_BP22_BA.png	1	2	43	SessionSelectionList														lure	3	Body	0-Back	38	80	31	0	0	76	6	39	386094	2	14	59	384055	-1	384710	1	655	3	3	2039	53	386108	-54	0											7					43												
WM080112	162733_fnca	1	1	1	-580398226	1	75.032	75.031	2.0.10.147	2.0.10.242	2.0.10.242	1.0.0.439	7	234	2	3	Verdana	1	80	0	0	0	WM Stimuli\	0.5	1186.6	0.9	865.888888888889	0.8	1046	0.7	832.428571428571	0.9	1076.88888888889	1	862.8	0.7	1325.42857142857	0.9	1020.55555555556	12	552119	3	552108	27	39	552146	-999999	552122	0	10	TrialsPROC	BP_008_BP21_BA.png	1	2	44	SessionSelectionList														lure	3	Body	0-Back	39	80	32	0	0	78	7	39	388653	2	14	59	386614	-1	387218	1	604	3	3	2039	53	388667	-54	0											8					44												
WM080112	162733_fnca	1	1	1	-580398226	1	75.032	75.031	2.0.10.147	2.0.10.242	2.0.10.242	1.0.0.439	7	234	2	3	Verdana	1	80	0	0	0	WM Stimuli\	0.5	1186.6	0.9	865.888888888889	0.8	1046	0.7	832.428571428571	0.9	1076.88888888889	1	862.8	0.7	1325.42857142857	0.9	1020.55555555556	12	552119	3	552108	27	39	552146	-999999	552122	0	10	TrialsPROC	BP_007_BP20_BA.png	1	2	45	SessionSelectionList														target	2	Body	0-Back	40	80	33	0	0	79	1	39	391212	2	14	59	389173	-1	389916	1	743	2	2	2039	53	391226	-54	0											9					45												
WM080112	162733_fnca	1	1	1	-580398226	1	75.032	75.031	2.0.10.147	2.0.10.242	2.0.10.242	1.0.0.439	7	234	2	3	Verdana	1	80	0	0	0	WM Stimuli\	0.5	1186.6	0.9	865.888888888889	0.8	1046	0.7	832.428571428571	0.9	1076.88888888889	1	862.8	0.7	1325.42857142857	0.9	1020.55555555556	12	552119	3	552108	27	39	552146	-999999	552122	0	10	TrialsPROC	BP_012_BP5_BA.png	1	2	46	SessionSelectionList														nonlure	3	Body	0-Back	41	80	34	0	0	80	1	39	393771	1	14	59	391732	-1	392362	1	630	3	3	2039	53	393785	-54	0											10					46												
WM080112	162733_fnca	1	1	1	-580398226	1	75.032	75.031	2.0.10.147	2.0.10.242	2.0.10.242	1.0.0.439	7	234	2	3	Verdana	1	80	0	0	0	WM Stimuli\	0.5	1186.6	0.9	865.888888888889	0.8	1046	0.7	832.428571428571	0.9	1076.88888888889	1	862.8	0.7	1325.42857142857	0.9	1020.55555555556	12	552119	3	552108	27	39	552146	-999999	552122	0	11	Fix15secPROC	""	1	2	47	SessionSelectionList																																															6	394238	-7	0							47												
WM080112	162733_fnca	1	1	1	-580398226	1	75.032	75.031	2.0.10.147	2.0.10.242	2.0.10.242	1.0.0.439	7	234	2	3	Verdana	1	80	0	0	0	WM Stimuli\	0.5	1186.6	0.9	865.888888888889	0.8	1046	0.7	832.428571428571	0.9	1076.88888888889	1	862.8	0.7	1325.42857142857	0.9	1020.55555555556	12	552119	3	552108	27	39	552146	-999999	552122	0	12	Cue0BackPROC	PL_001_92012.png	1	2	48	SessionSelectionList																																										13	409245	-14	0												48												
WM080112	162733_fnca	1	1	1	-580398226	1	75.032	75.031	2.0.10.147	2.0.10.242	2.0.10.242	1.0.0.439	7	234	2	3	Verdana	1	80	0	0	0	WM Stimuli\	0.5	1186.6	0.9	865.888888888889	0.8	1046	0.7	832.428571428571	0.9	1076.88888888889	1	862.8	0.7	1325.42857142857	0.9	1020.55555555556	12	552119	3	552108	27	39	552146	-999999	552122	0	13	TrialsPROC	PL_003_92016.png	1	2	49	SessionSelectionList														nonlure	3	Place	0-Back	42	80	35	0	0	81	2	39	413843	1	14	72	411804	-1	412964	1	1160	3	3	2039	53	413857	-54	0												1				49												
WM080112	162733_fnca	1	1	1	-580398226	1	75.032	75.031	2.0.10.147	2.0.10.242	2.0.10.242	1.0.0.439	7	234	2	3	Verdana	1	80	0	0	0	WM Stimuli\	0.5	1186.6	0.9	865.888888888889	0.8	1046	0.7	832.428571428571	0.9	1076.88888888889	1	862.8	0.7	1325.42857142857	0.9	1020.55555555556	12	552119	3	552108	27	39	552146	-999999	552122	0	13	TrialsPROC	PL_003_92016.png	1	2	50	SessionSelectionList														lure	3	Place	0-Back	43	80	36	0	0	82	3	39	416415	3	14	72	414376	-1	415011	1	635	3	3	2039	53	416429	-54	0												2				50												
WM080112	162733_fnca	1	1	1	-580398226	1	75.032	75.031	2.0.10.147	2.0.10.242	2.0.10.242	1.0.0.439	7	234	2	3	Verdana	1	80	0	0	0	WM Stimuli\	0.5	1186.6	0.9	865.888888888889	0.8	1046	0.7	832.428571428571	0.9	1076.88888888889	1	862.8	0.7	1325.42857142857	0.9	1020.55555555556	12	552119	3	552108	27	39	552146	-999999	552122	0	13	TrialsPROC	PL_006_92025.png	1	2	51	SessionSelectionList														nonlure	3	Place	0-Back	44	80	37	0	0	83	4	39	418987	2	14	72	416948	-1	417569	1	621	3	3	2039	53	419001	-54	0												3				51												
WM080112	162733_fnca	1	1	1	-580398226	1	75.032	75.031	2.0.10.147	2.0.10.242	2.0.10.242	1.0.0.439	7	234	2	3	Verdana	1	80	0	0	0	WM Stimuli\	0.5	1186.6	0.9	865.888888888889	0.8	1046	0.7	832.428571428571	0.9	1076.88888888889	1	862.8	0.7	1325.42857142857	0.9	1020.55555555556	12	552119	3	552108	27	39	552146	-999999	552122	0	13	TrialsPROC	PL_001_92012.png	1	2	52	SessionSelectionList														target	2	Place	0-Back	45	80	38	0	0	83	1	40	421560	1	13	72	419520	-1	420372	1	852	2	2	2040	53	421573	-54	0												4				52												
WM080112	162733_fnca	1	1	1	-580398226	1	75.032	75.031	2.0.10.147	2.0.10.242	2.0.10.242	1.0.0.439	7	234	2	3	Verdana	1	80	0	0	0	WM Stimuli\	0.5	1186.6	0.9	865.888888888889	0.8	1046	0.7	832.428571428571	0.9	1076.88888888889	1	862.8	0.7	1325.42857142857	0.9	1020.55555555556	12	552119	3	552108	27	39	552146	-999999	552122	0	13	TrialsPROC	PL_004_92023.png	1	2	53	SessionSelectionList														nonlure	3	Place	0-Back	46	80	39	0	0	84	1	39	424132	1	14	73	422093	-1	422702	1	609	3	3	2039	53	424146	-54	0												5				53												
WM080112	162733_fnca	1	1	1	-580398226	1	75.032	75.031	2.0.10.147	2.0.10.242	2.0.10.242	1.0.0.439	7	234	2	3	Verdana	1	80	0	0	0	WM Stimuli\	0.5	1186.6	0.9	865.888888888889	0.8	1046	0.7	832.428571428571	0.9	1076.88888888889	1	862.8	0.7	1325.42857142857	0.9	1020.55555555556	12	552119	3	552108	27	39	552146	-999999	552122	0	13	TrialsPROC	PL_005_92024.png	1	2	54	SessionSelectionList														nonlure	3	Place	0-Back	47	80	40	0	0	85	2	39	426704	2	14	72	424665	-1	426020	1	1355	3	3	2039	53	426718	-54	0												6				54												
WM080112	162733_fnca	1	1	1	-580398226	1	75.032	75.031	2.0.10.147	2.0.10.242	2.0.10.242	1.0.0.439	7	234	2	3	Verdana	1	80	0	0	0	WM Stimuli\	0.5	1186.6	0.9	865.888888888889	0.8	1046	0.7	832.428571428571	0.9	1076.88888888889	1	862.8	0.7	1325.42857142857	0.9	1020.55555555556	12	552119	3	552108	27	39	552146	-999999	552122	0	13	TrialsPROC	PL_001_92012.png	1	2	55	SessionSelectionList														target	2	Place	0-Back	48	80	41	0	0	85	1	39	429276	2	14	72	427237	-1	427975	1	738	2	2	2039	53	429290	-54	0												7				55												
WM080112	162733_fnca	1	1	1	-580398226	1	75.032	75.031	2.0.10.147	2.0.10.242	2.0.10.242	1.0.0.439	7	234	2	3	Verdana	1	80	0	0	0	WM Stimuli\	0.5	1186.6	0.9	865.888888888889	0.8	1046	0.7	832.428571428571	0.9	1076.88888888889	1	862.8	0.7	1325.42857142857	0.9	1020.55555555556	12	552119	3	552108	27	39	552146	-999999	552122	0	13	TrialsPROC	PL_002_92014.png	1	2	56	SessionSelectionList														nonlure	3	Place	0-Back	49	80	42	0	0	86	1	39	431835	2	14	59	429796	-1	430516	1	720	3	3	2039	53	431849	-54	0												8				56												
WM080112	162733_fnca	1	1	1	-580398226	1	75.032	75.031	2.0.10.147	2.0.10.242	2.0.10.242	1.0.0.439	7	234	2	3	Verdana	1	80	0	0	0	WM Stimuli\	0.5	1186.6	0.9	865.888888888889	0.8	1046	0.7	832.428571428571	0.9	1076.88888888889	1	862.8	0.7	1325.42857142857	0.9	1020.55555555556	12	552119	3	552108	27	39	552146	-999999	552122	0	13	TrialsPROC	PL_004_92023.png	1	2	57	SessionSelectionList														lure	3	Place	0-Back	50	80	43	0	0	86	2	39	434408	1	13	73	432369	-1	433058	1	689	3	3	2039	52	434421	-53	0												9				57												
WM080112	162733_fnca	1	1	1	-580398226	1	75.032	75.031	2.0.10.147	2.0.10.242	2.0.10.242	1.0.0.439	7	234	2	3	Verdana	1	80	0	0	0	WM Stimuli\	0.5	1186.6	0.9	865.888888888889	0.8	1046	0.7	832.428571428571	0.9	1076.88888888889	1	862.8	0.7	1325.42857142857	0.9	1020.55555555556	12	552119	3	552108	27	39	552146	-999999	552122	0	13	TrialsPROC	PL_006_92025.png	1	2	58	SessionSelectionList														lure	3	Place	0-Back	51	80	44	0	0	87	3	39	436980	1	14	72	434941	-1	436190	1	1249	3	3	2039	53	436994	-54	0												10				58												
WM080112	162733_fnca	1	1	1	-580398226	1	75.032	75.031	2.0.10.147	2.0.10.242	2.0.10.242	1.0.0.439	7	234	2	3	Verdana	1	80	0	0	0	WM Stimuli\	0.5	1186.6	0.9	865.888888888889	0.8	1046	0.7	832.428571428571	0.9	1076.88888888889	1	862.8	0.7	1325.42857142857	0.9	1020.55555555556	12	552119	3	552108	27	39	552146	-999999	552122	0	14	Cue2BackPROC	""	1	2	59	SessionSelectionList									5	437446	-6	0																																													59												
WM080112	162733_fnca	1	1	1	-580398226	1	75.032	75.031	2.0.10.147	2.0.10.242	2.0.10.242	1.0.0.439	7	234	2	3	Verdana	1	80	0	0	0	WM Stimuli\	0.5	1186.6	0.9	865.888888888889	0.8	1046	0.7	832.428571428571	0.9	1076.88888888889	1	862.8	0.7	1325.42857142857	0.9	1020.55555555556	12	552119	3	552108	27	39	552146	-999999	552122	0	15	TrialsPROC	FC_010_F5.png	1	2	60	SessionSelectionList														nonlure	3	Face	2-Back	52	80	44	0	1	87	3	40	442045	1	13	64	440005	-1	0	0	0	""	3	2040	53	442058	-54	0													1			60												
WM080112	162733_fnca	1	1	1	-580398226	1	75.032	75.031	2.0.10.147	2.0.10.242	2.0.10.242	1.0.0.439	7	234	2	3	Verdana	1	80	0	0	0	WM Stimuli\	0.5	1186.6	0.9	865.888888888889	0.8	1046	0.7	832.428571428571	0.9	1076.88888888889	1	862.8	0.7	1325.42857142857	0.9	1020.55555555556	12	552119	3	552108	27	39	552146	-999999	552122	0	15	TrialsPROC	FC_012_F6.png	1	2	61	SessionSelectionList														nonlure	3	Face	2-Back	53	80	45	0	0	87	1	39	444617	1	14	73	442578	-1	443260	1	682	3	3	2039	53	444631	-54	0													2			61												
WM080112	162733_fnca	1	1	1	-580398226	1	75.032	75.031	2.0.10.147	2.0.10.242	2.0.10.242	1.0.0.439	7	234	2	3	Verdana	1	80	0	0	0	WM Stimuli\	0.5	1186.6	0.9	865.888888888889	0.8	1046	0.7	832.428571428571	0.9	1076.88888888889	1	862.8	0.7	1325.42857142857	0.9	1020.55555555556	12	552119	3	552108	27	39	552146	-999999	552122	0	15	TrialsPROC	FC_010_F5.png	1	2	62	SessionSelectionList														target	2	Face	2-Back	54	80	46	0	0	87	1	39	447189	2	14	72	445150	-1	445933	1	783	2	2	2039	53	447203	-54	0													3			62												
WM080112	162733_fnca	1	1	1	-580398226	1	75.032	75.031	2.0.10.147	2.0.10.242	2.0.10.242	1.0.0.439	7	234	2	3	Verdana	1	80	0	0	0	WM Stimuli\	0.5	1186.6	0.9	865.888888888889	0.8	1046	0.7	832.428571428571	0.9	1076.88888888889	1	862.8	0.7	1325.42857142857	0.9	1020.55555555556	12	552119	3	552108	27	39	552146	-999999	552122	0	15	TrialsPROC	FC_008_F4.png	1	2	63	SessionSelectionList														nonlure	3	Face	2-Back	55	80	47	0	0	87	1	39	449761	2	14	72	447722	-1	448498	1	776	3	3	2039	53	449775	-54	0													4			63												
WM080112	162733_fnca	1	1	1	-580398226	1	75.032	75.031	2.0.10.147	2.0.10.242	2.0.10.242	1.0.0.439	7	234	2	3	Verdana	1	80	0	0	0	WM Stimuli\	0.5	1186.6	0.9	865.888888888889	0.8	1046	0.7	832.428571428571	0.9	1076.88888888889	1	862.8	0.7	1325.42857142857	0.9	1020.55555555556	12	552119	3	552108	27	39	552146	-999999	552122	0	15	TrialsPROC	FC_012_F6.png	1	2	64	SessionSelectionList														lure	3	Face	2-Back	56	80	48	0	0	87	2	39	452334	1	13	73	450295	-1	452067	1	1772	3	3	2039	52	452347	-53	0													5			64												
WM080112	162733_fnca	1	1	1	-580398226	1	75.032	75.031	2.0.10.147	2.0.10.242	2.0.10.242	1.0.0.439	7	234	2	3	Verdana	1	80	0	0	0	WM Stimuli\	0.5	1186.6	0.9	865.888888888889	0.8	1046	0.7	832.428571428571	0.9	1076.88888888889	1	862.8	0.7	1325.42857142857	0.9	1020.55555555556	12	552119	3	552108	27	39	552146	-999999	552122	0	15	TrialsPROC	FC_008_F4.png	1	2	65	SessionSelectionList														target	2	Face	2-Back	57	80	49	0	0	87	1	39	454906	1	14	72	452867	-1	453635	1	768	2	2	2039	53	454920	-54	0													6			65												
WM080112	162733_fnca	1	1	1	-580398226	1	75.032	75.031	2.0.10.147	2.0.10.242	2.0.10.242	1.0.0.439	7	234	2	3	Verdana	1	80	0	0	0	WM Stimuli\	0.5	1186.6	0.9	865.888888888889	0.8	1046	0.7	832.428571428571	0.9	1076.88888888889	1	862.8	0.7	1325.42857142857	0.9	1020.55555555556	12	552119	3	552108	27	39	552146	-999999	552122	0	15	TrialsPROC	FC_007_M4.png	1	2	66	SessionSelectionList														nonlure	3	Face	2-Back	58	80	50	0	0	87	1	39	457478	3	14	72	455439	-1	456572	1	1133	3	3	2039	53	457492	-54	0													7			66												
WM080112	162733_fnca	1	1	1	-580398226	1	75.032	75.031	2.0.10.147	2.0.10.242	2.0.10.242	1.0.0.439	7	234	2	3	Verdana	1	80	0	0	0	WM Stimuli\	0.5	1186.6	0.9	865.888888888889	0.8	1046	0.7	832.428571428571	0.9	1076.88888888889	1	862.8	0.7	1325.42857142857	0.9	1020.55555555556	12	552119	3	552108	27	39	552146	-999999	552122	0	15	TrialsPROC	FC_007_M4.png	1	2	67	SessionSelectionList														lure	3	Face	2-Back	59	80	51	0	0	87	2	40	460051	1	13	72	458011	-1	459069	1	1058	3	3	2040	53	460064	-54	0													8			67												
WM080112	162733_fnca	1	1	1	-580398226	1	75.032	75.031	2.0.10.147	2.0.10.242	2.0.10.242	1.0.0.439	7	234	2	3	Verdana	1	80	0	0	0	WM Stimuli\	0.5	1186.6	0.9	865.888888888889	0.8	1046	0.7	832.428571428571	0.9	1076.88888888889	1	862.8	0.7	1325.42857142857	0.9	1020.55555555556	12	552119	3	552108	27	39	552146	-999999	552122	0	15	TrialsPROC	FC_009_M5.png	1	2	68	SessionSelectionList														nonlure	3	Face	2-Back	60	80	52	0	0	87	3	39	462623	1	14	73	460584	-1	461980	1	1396	3	3	2039	53	462637	-54	0													9			68												
WM080112	162733_fnca	1	1	1	-580398226	1	75.032	75.031	2.0.10.147	2.0.10.242	2.0.10.242	1.0.0.439	7	234	2	3	Verdana	1	80	0	0	0	WM Stimuli\	0.5	1186.6	0.9	865.888888888889	0.8	1046	0.7	832.428571428571	0.9	1076.88888888889	1	862.8	0.7	1325.42857142857	0.9	1020.55555555556	12	552119	3	552108	27	39	552146	-999999	552122	0	15	TrialsPROC	FC_011_M6.png	1	2	69	SessionSelectionList														nonlure	3	Face	2-Back	61	80	53	0	0	87	1	39	465208	2	14	85	463169	-1	464233	0	1064	2	3	2039	53	465222	-54	0													10			69												
WM080112	162733_fnca	1	1	1	-580398226	1	75.032	75.031	2.0.10.147	2.0.10.242	2.0.10.242	1.0.0.439	7	234	2	3	Verdana	1	80	0	0	0	WM Stimuli\	0.5	1186.6	0.9	865.888888888889	0.8	1046	0.7	832.428571428571	0.9	1076.88888888889	1	862.8	0.7	1325.42857142857	0.9	1020.55555555556	12	552119	3	552108	27	39	552146	-999999	552122	0	16	Fix15secPROC	""	1	2	70	SessionSelectionList																																															6	465675	-7	0							70												
WM080112	162733_fnca	1	1	1	-580398226	1	75.032	75.031	2.0.10.147	2.0.10.242	2.0.10.242	1.0.0.439	7	234	2	3	Verdana	1	80	0	0	0	WM Stimuli\	0.5	1186.6	0.9	865.888888888889	0.8	1046	0.7	832.428571428571	0.9	1076.88888888889	1	862.8	0.7	1325.42857142857	0.9	1020.55555555556	12	552119	3	552108	27	39	552146	-999999	552122	0	17	Cue0BackPROC	TO_007_TOOL7_BA.png	1	2	71	SessionSelectionList																																										26	480695	-27	0												71												
WM080112	162733_fnca	1	1	1	-580398226	1	75.032	75.031	2.0.10.147	2.0.10.242	2.0.10.242	1.0.0.439	7	234	2	3	Verdana	1	80	0	0	0	WM Stimuli\	0.5	1186.6	0.9	865.888888888889	0.8	1046	0.7	832.428571428571	0.9	1076.88888888889	1	862.8	0.7	1325.42857142857	0.9	1020.55555555556	12	552119	3	552108	27	39	552146	-999999	552122	0	18	TrialsPROC	TO_010_TOOL10_BA.png	1	2	72	SessionSelectionList														nonlure	3	Tools	0-Back	62	80	54	0	0	87	1	39	485280	1	14	72	483241	-1	484820	1	1579	3	3	2039	53	485294	-54	0														1		72												
WM080112	162733_fnca	1	1	1	-580398226	1	75.032	75.031	2.0.10.147	2.0.10.242	2.0.10.242	1.0.0.439	7	234	2	3	Verdana	1	80	0	0	0	WM Stimuli\	0.5	1186.6	0.9	865.888888888889	0.8	1046	0.7	832.428571428571	0.9	1076.88888888889	1	862.8	0.7	1325.42857142857	0.9	1020.55555555556	12	552119	3	552108	27	39	552146	-999999	552122	0	18	TrialsPROC	TO_009_TOOL9_BA.png	1	2	73	SessionSelectionList														nonlure	3	Tools	0-Back	63	80	55	0	0	88	2	39	487866	1	13	86	485827	-1	486906	1	1079	3	3	2039	52	487879	-53	0														2		73												
WM080112	162733_fnca	1	1	1	-580398226	1	75.032	75.031	2.0.10.147	2.0.10.242	2.0.10.242	1.0.0.439	7	234	2	3	Verdana	1	80	0	0	0	WM Stimuli\	0.5	1186.6	0.9	865.888888888889	0.8	1046	0.7	832.428571428571	0.9	1076.88888888889	1	862.8	0.7	1325.42857142857	0.9	1020.55555555556	12	552119	3	552108	27	39	552146	-999999	552122	0	18	TrialsPROC	TO_009_TOOL9_BA.png	1	2	74	SessionSelectionList														lure	3	Tools	0-Back	64	80	56	0	0	88	3	39	490425	1	13	59	488386	-1	489431	1	1045	3	3	2039	52	490438	-53	0														3		74												
WM080112	162733_fnca	1	1	1	-580398226	1	75.032	75.031	2.0.10.147	2.0.10.242	2.0.10.242	1.0.0.439	7	234	2	3	Verdana	1	80	0	0	0	WM Stimuli\	0.5	1186.6	0.9	865.888888888889	0.8	1046	0.7	832.428571428571	0.9	1076.88888888889	1	862.8	0.7	1325.42857142857	0.9	1020.55555555556	12	552119	3	552108	27	39	552146	-999999	552122	0	18	TrialsPROC	TO_008_TOOL8_BA.png	1	2	75	SessionSelectionList														nonlure	3	Tools	0-Back	65	80	57	0	0	88	4	39	493010	2	14	85	490971	-1	492356	1	1385	3	3	2039	53	493024	-54	0														4		75												
WM080112	162733_fnca	1	1	1	-580398226	1	75.032	75.031	2.0.10.147	2.0.10.242	2.0.10.242	1.0.0.439	7	234	2	3	Verdana	1	80	0	0	0	WM Stimuli\	0.5	1186.6	0.9	865.888888888889	0.8	1046	0.7	832.428571428571	0.9	1076.88888888889	1	862.8	0.7	1325.42857142857	0.9	1020.55555555556	12	552119	3	552108	27	39	552146	-999999	552122	0	18	TrialsPROC	TO_011_TOOL11_BA.png	1	2	76	SessionSelectionList														nonlure	3	Tools	0-Back	66	80	58	0	0	89	5	40	495583	1	13	72	493543	-1	494369	1	826	3	3	2040	53	495596	-54	0														5		76												
WM080112	162733_fnca	1	1	1	-580398226	1	75.032	75.031	2.0.10.147	2.0.10.242	2.0.10.242	1.0.0.439	7	234	2	3	Verdana	1	80	0	0	0	WM Stimuli\	0.5	1186.6	0.9	865.888888888889	0.8	1046	0.7	832.428571428571	0.9	1076.88888888889	1	862.8	0.7	1325.42857142857	0.9	1020.55555555556	12	552119	3	552108	27	39	552146	-999999	552122	0	18	TrialsPROC	TO_012_TOOL12_BA.png	1	2	77	SessionSelectionList														nonlure	3	Tools	0-Back	67	80	59	0	0	89	6	39	498168	2	14	86	496129	-1	496763	1	634	3	3	2039	53	498182	-54	0														6		77												
WM080112	162733_fnca	1	1	1	-580398226	1	75.032	75.031	2.0.10.147	2.0.10.242	2.0.10.242	1.0.0.439	7	234	2	3	Verdana	1	80	0	0	0	WM Stimuli\	0.5	1186.6	0.9	865.888888888889	0.8	1046	0.7	832.428571428571	0.9	1076.88888888889	1	862.8	0.7	1325.42857142857	0.9	1020.55555555556	12	552119	3	552108	27	39	552146	-999999	552122	0	18	TrialsPROC	TO_010_TOOL10_BA.png	1	2	78	SessionSelectionList														lure	3	Tools	0-Back	68	80	60	0	0	86	1	39	500727	2	14	59	498688	-1	499608	0	920	2	3	2039	53	500741	-54	0														7		78												
WM080112	162733_fnca	1	1	1	-580398226	1	75.032	75.031	2.0.10.147	2.0.10.242	2.0.10.242	1.0.0.439	7	234	2	3	Verdana	1	80	0	0	0	WM Stimuli\	0.5	1186.6	0.9	865.888888888889	0.8	1046	0.7	832.428571428571	0.9	1076.88888888889	1	862.8	0.7	1325.42857142857	0.9	1020.55555555556	12	552119	3	552108	27	39	552146	-999999	552122	0	18	TrialsPROC	TO_007_TOOL7_BA.png	1	2	79	SessionSelectionList														target	2	Tools	0-Back	69	80	61	0	0	87	2	39	503286	1	14	59	501247	-1	502323	1	1076	2	2	2039	53	503300	-54	0														8		79												
WM080112	162733_fnca	1	1	1	-580398226	1	75.032	75.031	2.0.10.147	2.0.10.242	2.0.10.242	1.0.0.439	7	234	2	3	Verdana	1	80	0	0	0	WM Stimuli\	0.5	1186.6	0.9	865.888888888889	0.8	1046	0.7	832.428571428571	0.9	1076.88888888889	1	862.8	0.7	1325.42857142857	0.9	1020.55555555556	12	552119	3	552108	27	39	552146	-999999	552122	0	18	TrialsPROC	TO_008_TOOL8_BA.png	1	2	80	SessionSelectionList														lure	3	Tools	0-Back	70	80	62	0	0	87	1	39	505845	1	14	59	503806	-1	504538	1	732	3	3	2039	53	505859	-54	0														9		80												
WM080112	162733_fnca	1	1	1	-580398226	1	75.032	75.031	2.0.10.147	2.0.10.242	2.0.10.242	1.0.0.439	7	234	2	3	Verdana	1	80	0	0	0	WM Stimuli\	0.5	1186.6	0.9	865.888888888889	0.8	1046	0.7	832.428571428571	0.9	1076.88888888889	1	862.8	0.7	1325.42857142857	0.9	1020.55555555556	12	552119	3	552108	27	39	552146	-999999	552122	0	18	TrialsPROC	TO_007_TOOL7_BA.png	1	2	81	SessionSelectionList														target	2	Tools	0-Back	71	80	63	0	0	88	1	39	508404	1	14	59	506365	-1	507194	1	829	2	2	2039	53	508418	-54	0														10		81												
WM080112	162733_fnca	1	1	1	-580398226	1	75.032	75.031	2.0.10.147	2.0.10.242	2.0.10.242	1.0.0.439	7	234	2	3	Verdana	1	80	0	0	0	WM Stimuli\	0.5	1186.6	0.9	865.888888888889	0.8	1046	0.7	832.428571428571	0.9	1076.88888888889	1	862.8	0.7	1325.42857142857	0.9	1020.55555555556	12	552119	3	552108	27	39	552146	-999999	552122	0	19	Cue2BackPROC	""	1	2	82	SessionSelectionList									5	508870	-6	0																																													82												
WM080112	162733_fnca	1	1	1	-580398226	1	75.032	75.031	2.0.10.147	2.0.10.242	2.0.10.242	1.0.0.439	7	234	2	3	Verdana	1	80	0	0	0	WM Stimuli\	0.5	1186.6	0.9	865.888888888889	0.8	1046	0.7	832.428571428571	0.9	1076.88888888889	1	862.8	0.7	1325.42857142857	0.9	1020.55555555556	12	552119	3	552108	27	39	552146	-999999	552122	0	20	TrialsPROC	PL_007_92026.png	1	2	83	SessionSelectionList														nonlure	3	Place	2-Back	72	80	63	0	1	88	1	39	513482	1	14	78	511443	-1	0	0	0	""	3	2039	53	513496	-54	0															1	83												
WM080112	162733_fnca	1	1	1	-580398226	1	75.032	75.031	2.0.10.147	2.0.10.242	2.0.10.242	1.0.0.439	7	234	2	3	Verdana	1	80	0	0	0	WM Stimuli\	0.5	1186.6	0.9	865.888888888889	0.8	1046	0.7	832.428571428571	0.9	1076.88888888889	1	862.8	0.7	1325.42857142857	0.9	1020.55555555556	12	552119	3	552108	27	39	552146	-999999	552122	0	20	TrialsPROC	PL_007_92026.png	1	2	84	SessionSelectionList														lure	3	Place	2-Back	73	80	64	0	0	88	1	39	516054	2	14	72	514015	-1	515257	1	1242	3	3	2039	53	516068	-54	0															2	84												
WM080112	162733_fnca	1	1	1	-580398226	1	75.032	75.031	2.0.10.147	2.0.10.242	2.0.10.242	1.0.0.439	7	234	2	3	Verdana	1	80	0	0	0	WM Stimuli\	0.5	1186.6	0.9	865.888888888889	0.8	1046	0.7	832.428571428571	0.9	1076.88888888889	1	862.8	0.7	1325.42857142857	0.9	1020.55555555556	12	552119	3	552108	27	39	552146	-999999	552122	0	20	TrialsPROC	PL_010_92038.png	1	2	85	SessionSelectionList														nonlure	3	Place	2-Back	74	80	65	0	0	88	2	39	518640	1	14	86	516601	-1	517681	1	1080	3	3	2039	53	518654	-54	0															3	85												
WM080112	162733_fnca	1	1	1	-580398226	1	75.032	75.031	2.0.10.147	2.0.10.242	2.0.10.242	1.0.0.439	7	234	2	3	Verdana	1	80	0	0	0	WM Stimuli\	0.5	1186.6	0.9	865.888888888889	0.8	1046	0.7	832.428571428571	0.9	1076.88888888889	1	862.8	0.7	1325.42857142857	0.9	1020.55555555556	12	552119	3	552108	27	39	552146	-999999	552122	0	20	TrialsPROC	PL_009_92037.png	1	2	86	SessionSelectionList														nonlure	3	Place	2-Back	75	80	66	0	0	88	3	39	521212	1	14	72	519173	-1	520096	1	923	3	3	2039	53	521226	-54	0															4	86												
WM080112	162733_fnca	1	1	1	-580398226	1	75.032	75.031	2.0.10.147	2.0.10.242	2.0.10.242	1.0.0.439	7	234	2	3	Verdana	1	80	0	0	0	WM Stimuli\	0.5	1186.6	0.9	865.888888888889	0.8	1046	0.7	832.428571428571	0.9	1076.88888888889	1	862.8	0.7	1325.42857142857	0.9	1020.55555555556	12	552119	3	552108	27	39	552146	-999999	552122	0	20	TrialsPROC	PL_010_92038.png	1	2	87	SessionSelectionList														target	2	Place	2-Back	76	80	67	0	0	88	1	39	523784	2	14	72	521745	-1	522981	1	1236	2	2	2039	53	523798	-54	0															5	87												
WM080112	162733_fnca	1	1	1	-580398226	1	75.032	75.031	2.0.10.147	2.0.10.242	2.0.10.242	1.0.0.439	7	234	2	3	Verdana	1	80	0	0	0	WM Stimuli\	0.5	1186.6	0.9	865.888888888889	0.8	1046	0.7	832.428571428571	0.9	1076.88888888889	1	862.8	0.7	1325.42857142857	0.9	1020.55555555556	12	552119	3	552108	27	39	552146	-999999	552122	0	20	TrialsPROC	PL_009_92037.png	1	2	88	SessionSelectionList														target	2	Place	2-Back	77	80	68	0	0	88	2	38	526343	2	14	60	524305	-1	525203	1	898	2	2	2038	52	526357	-53	0															6	88												
WM080112	162733_fnca	1	1	1	-580398226	1	75.032	75.031	2.0.10.147	2.0.10.242	2.0.10.242	1.0.0.439	7	234	2	3	Verdana	1	80	0	0	0	WM Stimuli\	0.5	1186.6	0.9	865.888888888889	0.8	1046	0.7	832.428571428571	0.9	1076.88888888889	1	862.8	0.7	1325.42857142857	0.9	1020.55555555556	12	552119	3	552108	27	39	552146	-999999	552122	0	20	TrialsPROC	PL_008_92033.png	1	2	89	SessionSelectionList														nonlure	3	Place	2-Back	78	80	69	0	0	88	1	39	528929	1	14	85	526890	-1	527937	1	1047	3	3	2039	53	528943	-54	0															7	89												
WM080112	162733_fnca	1	1	1	-580398226	1	75.032	75.031	2.0.10.147	2.0.10.242	2.0.10.242	1.0.0.439	7	234	2	3	Verdana	1	80	0	0	0	WM Stimuli\	0.5	1186.6	0.9	865.888888888889	0.8	1046	0.7	832.428571428571	0.9	1076.88888888889	1	862.8	0.7	1325.42857142857	0.9	1020.55555555556	12	552119	3	552108	27	39	552146	-999999	552122	0	20	TrialsPROC	PL_012_92047.png	1	2	90	SessionSelectionList														nonlure	3	Place	2-Back	79	80	70	0	0	88	2	39	531501	1	14	72	529462	-1	530562	1	1100	3	3	2039	53	531515	-54	0															8	90												
WM080112	162733_fnca	1	1	1	-580398226	1	75.032	75.031	2.0.10.147	2.0.10.242	2.0.10.242	1.0.0.439	7	234	2	3	Verdana	1	80	0	0	0	WM Stimuli\	0.5	1186.6	0.9	865.888888888889	0.8	1046	0.7	832.428571428571	0.9	1076.88888888889	1	862.8	0.7	1325.42857142857	0.9	1020.55555555556	12	552119	3	552108	27	39	552146	-999999	552122	0	20	TrialsPROC	PL_012_92047.png	1	2	91	SessionSelectionList														lure	3	Place	2-Back	80	80	71	0	0	88	3	39	534073	2	14	72	532034	-1	533189	1	1155	3	3	2039	53	534087	-54	0															9	91												
WM080112	162733_fnca	1	1	1	-580398226	1	75.032	75.031	2.0.10.147	2.0.10.242	2.0.10.242	1.0.0.439	7	234	2	3	Verdana	1	80	0	0	0	WM Stimuli\	0.5	1186.6	0.9	865.888888888889	0.8	1046	0.7	832.428571428571	0.9	1076.88888888889	1	862.8	0.7	1325.42857142857	0.9	1020.55555555556	12	552119	3	552108	27	39	552146	-999999	552122	0	20	TrialsPROC	PL_011_92044.png	1	2	92	SessionSelectionList														nonlure	3	Place	2-Back	80	80	72	0	0	88	4	39	536646	1	13	73	534607	-1	535618	1	1011	3	3	2039	52	536659	-53	0															10	92												
WM080112	162733_fnca	1	1	1	-580398226	1	75.032	75.031	2.0.10.147	2.0.10.242	2.0.10.242	1.0.0.439	7	234	2	3	Verdana	1	80	0	0	0	WM Stimuli\	0.5	1186.6	0.9	865.888888888889	0.8	1046	0.7	832.428571428571	0.9	1076.88888888889	1	862.8	0.7	1325.42857142857	0.9	1020.55555555556	12	552119	3	552108	27	39	552146	-999999	552122	0	21	Fix15secPROC	""	1	2	93	SessionSelectionList																																															6	537113	-7	0							93												
