ExperimentName	HCPID	RunNumber	Subject	Session	RandomSeed	Group	Laptop.RefreshRate	ScannerD2.RefreshRate	StudioVersion	RuntimeVersion	RuntimeVersionExpected	ExperimentVersion	triggercode	Allowed	Target	Nontarget	FontStyle	RunTrialNumber[Session]	TrialsPerRun[Session]	TotalRespGreater200[Session]	ConsecRTLess200[Session]	ConsecNonResp[Session]	StimuliDir	ACC_2_Back_Body	Avg_RT_For_Correct_Trials_2_Back_Body	ACC_0_Back_Body	Avg_RT_For_Correct_Trials_0_Back_Body	ACC_2_Back_Face	Avg_RT_For_Correct_Trials_2_Back_Face	ACC_0_Back_Face	Avg_RT_For_Correct_Trials_0_Back_Face	ACC_2_Back_Place	Avg_RT_For_Correct_Trials_2_Back_Place	ACC_0_Back_Place	Avg_RT_For_Correct_Trials_0_Back_Place	ACC_2_Back_Tools	Avg_RT_For_Correct_Trials_2_Back_Tools	ACC_0_Back_Tools	Avg_RT_For_Correct_Trials_0_Back_Tools	ExpInstrucFeelFreeToRest.OnsetDelay	ExpInstrucFeelFreeToRest.OnsetTime	ExpInstrucFeelFreeToRest.DurationError	ExpInstrucFeelFreeToRest.StartTime	ExpInstrucFeelFreeToRest.OnsetToOnsetTime	FeelFreeToRest.OnsetDelay	FeelFreeToRest.OnsetTime	FeelFreeToRest.DurationError	FeelFreeToRest.StartTime	FeelFreeToRest.OnsetToOnsetTime	SessionSelectionList	Procedure[Block]	Stimulus[Block]	RunNumberFilterValue	SessionSelectionList.Cycle	SessionSelectionList.Sample	Running[Block]	IntroButtonMap.OnsetDelay	IntroButtonMap.OnsetTime	IntroButtonMap.DurationError	IntroButtonMap.OnsetToOnsetTime	GetReady.OnsetDelay	GetReady.OnsetTime	GetReady.DurationError	GetReady.OnsetToOnsetTime	Cue2Back.OnsetDelay	Cue2Back.OnsetTime	Cue2Back.DurationError	Cue2Back.OnsetToOnsetTime	Run1Block1	TargetType	CorrectResponse	StimType	BlockType	RunTrialNumber[Block]	TrialsPerRun[Block]	TotalRespGreater200[Block]	ConsecRTLess200[Block]	ConsecNonResp[Block]	ControlAcc	ConsecSameResp	ExperimenterWindow.OnsetDelay	ExperimenterWindow.OnsetTime	ExperimenterWindow.DurationError	ExperimenterWindow.OnsetToOnsetTime	Stim.OnsetDelay	Stim.OnsetTime	Stim.DurationError	Stim.RTTime	Stim.ACC	Stim.RT	Stim.RESP	Stim.CRESP	Stim.OnsetToOnsetTime	Fix.OnsetDelay	Fix.OnsetTime	Fix.DurationError	Fix.OnsetToOnsetTime	CueTarget.OnsetDelay	CueTarget.OnsetTime	CueTarget.DurationError	CueTarget.OnsetToOnsetTime	Run1Block2	Fix15sec.OnsetDelay	Fix15sec.OnsetTime	Fix15sec.DurationError	Fix15sec.OnsetToOnsetTime	Run1Block3	Run1Block4	Run1Block5	Run1Block6	Run1Block7	Run1Block8	Block	Procedure[Trial]	Stimulus[Trial]	ReadyList	Running[Trial]	ReadyList.Cycle	ReadyList.Sample	SyncSlide.OnsetDelay	SyncSlide.OnsetTime	SyncSlide.DurationError	SyncSlide.FinishTime	SyncSlide.OnsetToOnsetTime	Trial
WM080112	153025_fnca	1	1	1	-1297836222	1	75.031	75.031	2.0.10.147	2.0.10.242	2.0.10.242	1.0.0.439	7	234	2	3	Verdana	1	80	0	0	0	WM Stimuli\	0.7	986.428571428571	0.6	946	0.5	846.6	0.9	587.444444444444	0.5	1154.4	1	678.5	0.9	867.555555555556	1	663.3	12	564998	3	564987	27	39	565025	-999999	565001	0	1	TRSyncPROC	""	1	2	1	SessionSelectionList	96	25260	-999999	0	28	259137	-999999	0																																																	1	InitialTR	4	1	ReadyList	1	1	8	271719	-9	273710	0	1
WM080112	153025_fnca	1	1	1	-1297836222	1	75.031	75.031	2.0.10.147	2.0.10.242	2.0.10.242	1.0.0.439	7	234	2	3	Verdana	1	80	0	0	0	WM Stimuli\	0.7	986.428571428571	0.6	946	0.5	846.6	0.9	587.444444444444	0.5	1154.4	1	678.5	0.9	867.555555555556	1	663.3	12	564998	3	564987	27	39	565025	-999999	565001	0	1	TRSyncPROC	""	1	2	1	SessionSelectionList	96	25260	-999999	0	28	259137	-999999	0																																																	1	InitialTR	3	2	ReadyList	1	2	7	273718	-8	275710	0	2
WM080112	153025_fnca	1	1	1	-1297836222	1	75.031	75.031	2.0.10.147	2.0.10.242	2.0.10.242	1.0.0.439	7	234	2	3	Verdana	1	80	0	0	0	WM Stimuli\	0.7	986.428571428571	0.6	946	0.5	846.6	0.9	587.444444444444	0.5	1154.4	1	678.5	0.9	867.555555555556	1	663.3	12	564998	3	564987	27	39	565025	-999999	565001	0	1	TRSyncPROC	""	1	2	1	SessionSelectionList	96	25260	-999999	0	28	259137	-999999	0																																																	1	InitialTR	2	3	ReadyList	1	3	6	275717	-7	277710	0	3
WM080112	153025_fnca	1	1	1	-1297836222	1	75.031	75.031	2.0.10.147	2.0.10.242	2.0.10.242	1.0.0.439	7	234	2	3	Verdana	1	80	0	0	0	WM Stimuli\	0.7	986.428571428571	0.6	946	0.5	846.6	0.9	587.444444444444	0.5	1154.4	1	678.5	0.9	867.555555555556	1	663.3	12	564998	3	564987	27	39	565025	-999999	565001	0	1	TRSyncPROC	""	1	2	1	SessionSelectionList	96	25260	-999999	0	28	259137	-999999	0																																																	1	InitialTR	1	4	ReadyList	1	4	5	277716	-6	279710	0	4
WM080112	153025_fnca	1	1	1	-1297836222	1	75.031	75.031	2.0.10.147	2.0.10.242	2.0.10.242	1.0.0.439	7	234	2	3	Verdana	1	80	0	0	0	WM Stimuli\	0.7	986.428571428571	0.6	946	0.5	846.6	0.9	587.444444444444	0.5	1154.4	1	678.5	0.9	867.555555555556	1	663.3	12	564998	3	564987	27	39	565025	-999999	565001	0	2	Cue2BackPROC	""	1	2	2	SessionSelectionList									18	279729	-19	0																																													2												
WM080112	153025_fnca	1	1	1	-1297836222	1	75.031	75.031	2.0.10.147	2.0.10.242	2.0.10.242	1.0.0.439	7	234	2	3	Verdana	1	80	0	0	0	WM Stimuli\	0.7	986.428571428571	0.6	946	0.5	846.6	0.9	587.444444444444	0.5	1154.4	1	678.5	0.9	867.555555555556	1	663.3	12	564998	3	564987	27	39	565025	-999999	565001	0	3	TrialsPROC	BP_002_BP10_BA.png	1	2	3	SessionSelectionList													1	nonlure	3	Body	2-Back	2	80	1	0	0	0	1	52	284340	3	14	77	282288	-1	283410	1	1122	3	3	2052	66	284354	-67	0																3												
WM080112	153025_fnca	1	1	1	-1297836222	1	75.031	75.031	2.0.10.147	2.0.10.242	2.0.10.242	1.0.0.439	7	234	2	3	Verdana	1	80	0	0	0	WM Stimuli\	0.7	986.428571428571	0.6	946	0.5	846.6	0.9	587.444444444444	0.5	1154.4	1	678.5	0.9	867.555555555556	1	663.3	12	564998	3	564987	27	39	565025	-999999	565001	0	3	TrialsPROC	BP_001_BP1_BA.png	1	2	4	SessionSelectionList													2	nonlure	3	Body	2-Back	3	80	2	0	0	0	2	39	286899	2	14	72	284860	-1	285954	1	1094	3	3	2039	53	286913	-54	0																4												
WM080112	153025_fnca	1	1	1	-1297836222	1	75.031	75.031	2.0.10.147	2.0.10.242	2.0.10.242	1.0.0.439	7	234	2	3	Verdana	1	80	0	0	0	WM Stimuli\	0.7	986.428571428571	0.6	946	0.5	846.6	0.9	587.444444444444	0.5	1154.4	1	678.5	0.9	867.555555555556	1	663.3	12	564998	3	564987	27	39	565025	-999999	565001	0	3	TrialsPROC	BP_006_BP2_BA.png	1	2	5	SessionSelectionList													3	nonlure	3	Body	2-Back	4	80	3	0	0	0	3	39	289458	1	14	59	287419	-1	288848	1	1429	3	3	2039	53	289472	-54	0																5												
WM080112	153025_fnca	1	1	1	-1297836222	1	75.031	75.031	2.0.10.147	2.0.10.242	2.0.10.242	1.0.0.439	7	234	2	3	Verdana	1	80	0	0	0	WM Stimuli\	0.7	986.428571428571	0.6	946	0.5	846.6	0.9	587.444444444444	0.5	1154.4	1	678.5	0.9	867.555555555556	1	663.3	12	564998	3	564987	27	39	565025	-999999	565001	0	3	TrialsPROC	BP_001_BP1_BA.png	1	2	6	SessionSelectionList													4	target	2	Body	2-Back	5	80	4	0	0	0	1	39	292030	2	14	72	289991	-1	290918	1	927	2	2	2039	53	292044	-54	0																6												
WM080112	153025_fnca	1	1	1	-1297836222	1	75.031	75.031	2.0.10.147	2.0.10.242	2.0.10.242	1.0.0.439	7	234	2	3	Verdana	1	80	0	0	0	WM Stimuli\	0.7	986.428571428571	0.6	946	0.5	846.6	0.9	587.444444444444	0.5	1154.4	1	678.5	0.9	867.555555555556	1	663.3	12	564998	3	564987	27	39	565025	-999999	565001	0	3	TrialsPROC	BP_005_BP19_BA.png	1	2	7	SessionSelectionList													5	nonlure	3	Body	2-Back	6	80	5	0	0	0	1	40	294603	1	13	72	292563	-1	293326	1	763	3	3	2040	53	294616	-54	0																7												
WM080112	153025_fnca	1	1	1	-1297836222	1	75.031	75.031	2.0.10.147	2.0.10.242	2.0.10.242	1.0.0.439	7	234	2	3	Verdana	1	80	0	0	0	WM Stimuli\	0.7	986.428571428571	0.6	946	0.5	846.6	0.9	587.444444444444	0.5	1154.4	1	678.5	0.9	867.555555555556	1	663.3	12	564998	3	564987	27	39	565025	-999999	565001	0	3	TrialsPROC	BP_003_BP16_BA.png	1	2	8	SessionSelectionList													6	nonlure	3	Body	2-Back	7	80	6	0	0	0	2	39	297161	2	14	59	295122	-1	295837	1	715	3	3	2039	53	297175	-54	0																8												
WM080112	153025_fnca	1	1	1	-1297836222	1	75.031	75.031	2.0.10.147	2.0.10.242	2.0.10.242	1.0.0.439	7	234	2	3	Verdana	1	80	0	0	0	WM Stimuli\	0.7	986.428571428571	0.6	946	0.5	846.6	0.9	587.444444444444	0.5	1154.4	1	678.5	0.9	867.555555555556	1	663.3	12	564998	3	564987	27	39	565025	-999999	565001	0	3	TrialsPROC	BP_006_BP2_BA.png	1	2	9	SessionSelectionList													7	lure	3	Body	2-Back	8	80	7	0	0	0	1	39	299720	2	14	59	297681	-1	298599	0	918	2	3	2039	53	299734	-54	0																9												
WM080112	153025_fnca	1	1	1	-1297836222	1	75.031	75.031	2.0.10.147	2.0.10.242	2.0.10.242	1.0.0.439	7	234	2	3	Verdana	1	80	0	0	0	WM Stimuli\	0.7	986.428571428571	0.6	946	0.5	846.6	0.9	587.444444444444	0.5	1154.4	1	678.5	0.9	867.555555555556	1	663.3	12	564998	3	564987	27	39	565025	-999999	565001	0	3	TrialsPROC	BP_004_BP18_BA.png	1	2	10	SessionSelectionList													8	nonlure	3	Body	2-Back	9	80	8	0	0	0	1	39	302279	2	14	59	300240	-1	301095	1	855	3	3	2039	53	302293	-54	0																10												
WM080112	153025_fnca	1	1	1	-1297836222	1	75.031	75.031	2.0.10.147	2.0.10.242	2.0.10.242	1.0.0.439	7	234	2	3	Verdana	1	80	0	0	0	WM Stimuli\	0.7	986.428571428571	0.6	946	0.5	846.6	0.9	587.444444444444	0.5	1154.4	1	678.5	0.9	867.555555555556	1	663.3	12	564998	3	564987	27	39	565025	-999999	565001	0	3	TrialsPROC	BP_005_BP19_BA.png	1	2	11	SessionSelectionList													9	lure	3	Body	2-Back	10	80	9	0	0	0	1	39	304838	2	14	59	302799	-1	303566	0	767	2	3	2039	53	304852	-54	0																11												
WM080112	153025_fnca	1	1	1	-1297836222	1	75.031	75.031	2.0.10.147	2.0.10.242	2.0.10.242	1.0.0.439	7	234	2	3	Verdana	1	80	0	0	0	WM Stimuli\	0.7	986.428571428571	0.6	946	0.5	846.6	0.9	587.444444444444	0.5	1154.4	1	678.5	0.9	867.555555555556	1	663.3	12	564998	3	564987	27	39	565025	-999999	565001	0	3	TrialsPROC	BP_004_BP18_BA.png	1	2	12	SessionSelectionList													10	target	2	Body	2-Back	11	80	10	0	0	0	1	39	307397	2	14	59	305358	-1	306425	0	1067	3	2	2039	53	307411	-54	0																12												
WM080112	153025_fnca	1	1	1	-1297836222	1	75.031	75.031	2.0.10.147	2.0.10.242	2.0.10.242	1.0.0.439	7	234	2	3	Verdana	1	80	0	0	0	WM Stimuli\	0.7	986.428571428571	0.6	946	0.5	846.6	0.9	587.444444444444	0.5	1154.4	1	678.5	0.9	867.555555555556	1	663.3	12	564998	3	564987	27	39	565025	-999999	565001	0	4	Cue0BackPROC	FC_001_M1.png	1	2	13	SessionSelectionList																																										19	307877	-20	0												13												
WM080112	153025_fnca	1	1	1	-1297836222	1	75.031	75.031	2.0.10.147	2.0.10.242	2.0.10.242	1.0.0.439	7	234	2	3	Verdana	1	80	0	0	0	WM Stimuli\	0.7	986.428571428571	0.6	946	0.5	846.6	0.9	587.444444444444	0.5	1154.4	1	678.5	0.9	867.555555555556	1	663.3	12	564998	3	564987	27	39	565025	-999999	565001	0	5	TrialsPROC	FC_005_M3.png	1	2	14	SessionSelectionList														nonlure	3	Face	0-Back	12	80	11	0	0	0	1	39	312462	1	14	65	310423	-1	311964	0	1541	2	3	2039	53	312476	-54	0					1											14												
WM080112	153025_fnca	1	1	1	-1297836222	1	75.031	75.031	2.0.10.147	2.0.10.242	2.0.10.242	1.0.0.439	7	234	2	3	Verdana	1	80	0	0	0	WM Stimuli\	0.7	986.428571428571	0.6	946	0.5	846.6	0.9	587.444444444444	0.5	1154.4	1	678.5	0.9	867.555555555556	1	663.3	12	564998	3	564987	27	39	565025	-999999	565001	0	5	TrialsPROC	FC_001_M1.png	1	2	15	SessionSelectionList														target	2	Face	0-Back	13	80	12	0	0	50	2	39	315034	2	14	72	312995	-1	313697	1	702	2	2	2039	53	315048	-54	0					2											15												
WM080112	153025_fnca	1	1	1	-1297836222	1	75.031	75.031	2.0.10.147	2.0.10.242	2.0.10.242	1.0.0.439	7	234	2	3	Verdana	1	80	0	0	0	WM Stimuli\	0.7	986.428571428571	0.6	946	0.5	846.6	0.9	587.444444444444	0.5	1154.4	1	678.5	0.9	867.555555555556	1	663.3	12	564998	3	564987	27	39	565025	-999999	565001	0	5	TrialsPROC	FC_003_M2.png	1	2	16	SessionSelectionList														nonlure	3	Face	0-Back	14	80	13	0	0	67	1	39	317606	2	14	72	315567	-1	316297	1	730	3	3	2039	53	317620	-54	0					3											16												
WM080112	153025_fnca	1	1	1	-1297836222	1	75.031	75.031	2.0.10.147	2.0.10.242	2.0.10.242	1.0.0.439	7	234	2	3	Verdana	1	80	0	0	0	WM Stimuli\	0.7	986.428571428571	0.6	946	0.5	846.6	0.9	587.444444444444	0.5	1154.4	1	678.5	0.9	867.555555555556	1	663.3	12	564998	3	564987	27	39	565025	-999999	565001	0	5	TrialsPROC	FC_004_F2.png	1	2	17	SessionSelectionList														nonlure	3	Face	0-Back	15	80	14	0	0	75	2	39	320179	1	13	73	318140	-1	318838	1	698	3	3	2039	52	320192	-53	0					4											17												
WM080112	153025_fnca	1	1	1	-1297836222	1	75.031	75.031	2.0.10.147	2.0.10.242	2.0.10.242	1.0.0.439	7	234	2	3	Verdana	1	80	0	0	0	WM Stimuli\	0.7	986.428571428571	0.6	946	0.5	846.6	0.9	587.444444444444	0.5	1154.4	1	678.5	0.9	867.555555555556	1	663.3	12	564998	3	564987	27	39	565025	-999999	565001	0	5	TrialsPROC	FC_004_F2.png	1	2	18	SessionSelectionList														lure	3	Face	0-Back	16	80	15	0	0	80	3	39	322751	1	14	72	320712	-1	321176	1	464	3	3	2039	53	322765	-54	0					5											18												
WM080112	153025_fnca	1	1	1	-1297836222	1	75.031	75.031	2.0.10.147	2.0.10.242	2.0.10.242	1.0.0.439	7	234	2	3	Verdana	1	80	0	0	0	WM Stimuli\	0.7	986.428571428571	0.6	946	0.5	846.6	0.9	587.444444444444	0.5	1154.4	1	678.5	0.9	867.555555555556	1	663.3	12	564998	3	564987	27	39	565025	-999999	565001	0	5	TrialsPROC	FC_001_M1.png	1	2	19	SessionSelectionList														target	2	Face	0-Back	17	80	16	0	0	83	1	39	325323	2	14	72	323284	-1	323677	1	393	2	2	2039	53	325337	-54	0					6											19												
WM080112	153025_fnca	1	1	1	-1297836222	1	75.031	75.031	2.0.10.147	2.0.10.242	2.0.10.242	1.0.0.439	7	234	2	3	Verdana	1	80	0	0	0	WM Stimuli\	0.7	986.428571428571	0.6	946	0.5	846.6	0.9	587.444444444444	0.5	1154.4	1	678.5	0.9	867.555555555556	1	663.3	12	564998	3	564987	27	39	565025	-999999	565001	0	5	TrialsPROC	FC_006_F3.png	1	2	20	SessionSelectionList														nonlure	3	Face	0-Back	18	80	17	0	0	86	1	40	327896	1	13	72	325856	-1	326528	1	672	3	3	2040	53	327909	-54	0					7											20												
WM080112	153025_fnca	1	1	1	-1297836222	1	75.031	75.031	2.0.10.147	2.0.10.242	2.0.10.242	1.0.0.439	7	234	2	3	Verdana	1	80	0	0	0	WM Stimuli\	0.7	986.428571428571	0.6	946	0.5	846.6	0.9	587.444444444444	0.5	1154.4	1	678.5	0.9	867.555555555556	1	663.3	12	564998	3	564987	27	39	565025	-999999	565001	0	5	TrialsPROC	FC_006_F3.png	1	2	21	SessionSelectionList														lure	3	Face	0-Back	19	80	18	0	0	88	2	39	330468	1	14	73	328429	-1	328849	1	420	3	3	2039	53	330482	-54	0					8											21												
WM080112	153025_fnca	1	1	1	-1297836222	1	75.031	75.031	2.0.10.147	2.0.10.242	2.0.10.242	1.0.0.439	7	234	2	3	Verdana	1	80	0	0	0	WM Stimuli\	0.7	986.428571428571	0.6	946	0.5	846.6	0.9	587.444444444444	0.5	1154.4	1	678.5	0.9	867.555555555556	1	663.3	12	564998	3	564987	27	39	565025	-999999	565001	0	5	TrialsPROC	FC_003_M2.png	1	2	22	SessionSelectionList														lure	3	Face	0-Back	20	80	19	0	0	89	3	39	333040	1	14	72	331001	-1	331557	1	556	3	3	2039	53	333054	-54	0					9											22												
WM080112	153025_fnca	1	1	1	-1297836222	1	75.031	75.031	2.0.10.147	2.0.10.242	2.0.10.242	1.0.0.439	7	234	2	3	Verdana	1	80	0	0	0	WM Stimuli\	0.7	986.428571428571	0.6	946	0.5	846.6	0.9	587.444444444444	0.5	1154.4	1	678.5	0.9	867.555555555556	1	663.3	12	564998	3	564987	27	39	565025	-999999	565001	0	5	TrialsPROC	FC_002_F1.png	1	2	23	SessionSelectionList														nonlure	3	Face	0-Back	21	80	20	0	0	90	4	39	335612	2	14	72	333573	-1	334225	1	652	3	3	2039	53	335626	-54	0					10											23												
WM080112	153025_fnca	1	1	1	-1297836222	1	75.031	75.031	2.0.10.147	2.0.10.242	2.0.10.242	1.0.0.439	7	234	2	3	Verdana	1	80	0	0	0	WM Stimuli\	0.7	986.428571428571	0.6	946	0.5	846.6	0.9	587.444444444444	0.5	1154.4	1	678.5	0.9	867.555555555556	1	663.3	12	564998	3	564987	27	39	565025	-999999	565001	0	6	Fix15secPROC	""	1	2	24	SessionSelectionList																																															6	336079	-7	0							24												
WM080112	153025_fnca	1	1	1	-1297836222	1	75.031	75.031	2.0.10.147	2.0.10.242	2.0.10.242	1.0.0.439	7	234	2	3	Verdana	1	80	0	0	0	WM Stimuli\	0.7	986.428571428571	0.6	946	0.5	846.6	0.9	587.444444444444	0.5	1154.4	1	678.5	0.9	867.555555555556	1	663.3	12	564998	3	564987	27	39	565025	-999999	565001	0	7	Cue2BackPROC	""	1	2	25	SessionSelectionList									13	351086	-14	0																																													25												
WM080112	153025_fnca	1	1	1	-1297836222	1	75.031	75.031	2.0.10.147	2.0.10.242	2.0.10.242	1.0.0.439	7	234	2	3	Verdana	1	80	0	0	0	WM Stimuli\	0.7	986.428571428571	0.6	946	0.5	846.6	0.9	587.444444444444	0.5	1154.4	1	678.5	0.9	867.555555555556	1	663.3	12	564998	3	564987	27	39	565025	-999999	565001	0	8	TrialsPROC	TO_001_TOOL1_BA.png	1	2	26	SessionSelectionList														nonlure	3	Tools	2-Back	22	80	21	0	0	90	5	39	355671	1	14	59	353632	-1	354781	1	1149	3	3	2039	53	355685	-54	0										1						26												
WM080112	153025_fnca	1	1	1	-1297836222	1	75.031	75.031	2.0.10.147	2.0.10.242	2.0.10.242	1.0.0.439	7	234	2	3	Verdana	1	80	0	0	0	WM Stimuli\	0.7	986.428571428571	0.6	946	0.5	846.6	0.9	587.444444444444	0.5	1154.4	1	678.5	0.9	867.555555555556	1	663.3	12	564998	3	564987	27	39	565025	-999999	565001	0	8	TrialsPROC	TO_002_TOOL2_BA.png	1	2	27	SessionSelectionList														nonlure	3	Tools	2-Back	23	80	22	0	0	90	6	39	358230	2	14	59	356191	-1	356955	1	764	3	3	2039	53	358244	-54	0										2						27												
WM080112	153025_fnca	1	1	1	-1297836222	1	75.031	75.031	2.0.10.147	2.0.10.242	2.0.10.242	1.0.0.439	7	234	2	3	Verdana	1	80	0	0	0	WM Stimuli\	0.7	986.428571428571	0.6	946	0.5	846.6	0.9	587.444444444444	0.5	1154.4	1	678.5	0.9	867.555555555556	1	663.3	12	564998	3	564987	27	39	565025	-999999	565001	0	8	TrialsPROC	TO_004_TOOL4_BA.png	1	2	28	SessionSelectionList														nonlure	3	Tools	2-Back	24	80	23	0	0	90	7	39	360789	1	13	59	358750	-1	359596	1	846	3	3	2039	52	360802	-53	0										3						28												
WM080112	153025_fnca	1	1	1	-1297836222	1	75.031	75.031	2.0.10.147	2.0.10.242	2.0.10.242	1.0.0.439	7	234	2	3	Verdana	1	80	0	0	0	WM Stimuli\	0.7	986.428571428571	0.6	946	0.5	846.6	0.9	587.444444444444	0.5	1154.4	1	678.5	0.9	867.555555555556	1	663.3	12	564998	3	564987	27	39	565025	-999999	565001	0	8	TrialsPROC	TO_002_TOOL2_BA.png	1	2	29	SessionSelectionList														target	2	Tools	2-Back	25	80	24	0	0	90	1	40	363348	1	13	58	361308	-1	362184	1	876	2	2	2040	53	363361	-54	0										4						29												
WM080112	153025_fnca	1	1	1	-1297836222	1	75.031	75.031	2.0.10.147	2.0.10.242	2.0.10.242	1.0.0.439	7	234	2	3	Verdana	1	80	0	0	0	WM Stimuli\	0.7	986.428571428571	0.6	946	0.5	846.6	0.9	587.444444444444	0.5	1154.4	1	678.5	0.9	867.555555555556	1	663.3	12	564998	3	564987	27	39	565025	-999999	565001	0	8	TrialsPROC	TO_001_TOOL1_BA.png	1	2	30	SessionSelectionList														lure	3	Tools	2-Back	26	80	25	0	0	90	1	40	365907	1	13	59	363867	-1	364899	1	1032	3	3	2040	53	365920	-54	0										5						30												
WM080112	153025_fnca	1	1	1	-1297836222	1	75.031	75.031	2.0.10.147	2.0.10.242	2.0.10.242	1.0.0.439	7	234	2	3	Verdana	1	80	0	0	0	WM Stimuli\	0.7	986.428571428571	0.6	946	0.5	846.6	0.9	587.444444444444	0.5	1154.4	1	678.5	0.9	867.555555555556	1	663.3	12	564998	3	564987	27	39	565025	-999999	565001	0	8	TrialsPROC	TO_004_TOOL4_BA.png	1	2	31	SessionSelectionList														lure	3	Tools	2-Back	27	80	26	0	0	90	1	40	368466	1	13	59	366426	-1	367242	0	816	2	3	2040	53	368479	-54	0										6						31												
WM080112	153025_fnca	1	1	1	-1297836222	1	75.031	75.031	2.0.10.147	2.0.10.242	2.0.10.242	1.0.0.439	7	234	2	3	Verdana	1	80	0	0	0	WM Stimuli\	0.7	986.428571428571	0.6	946	0.5	846.6	0.9	587.444444444444	0.5	1154.4	1	678.5	0.9	867.555555555556	1	663.3	12	564998	3	564987	27	39	565025	-999999	565001	0	8	TrialsPROC	TO_006_TOOL6_BA.png	1	2	32	SessionSelectionList														nonlure	3	Tools	2-Back	28	80	27	0	0	90	1	40	371025	1	13	59	368985	-1	369907	1	922	3	3	2040	53	371038	-54	0										7						32												
WM080112	153025_fnca	1	1	1	-1297836222	1	75.031	75.031	2.0.10.147	2.0.10.242	2.0.10.242	1.0.0.439	7	234	2	3	Verdana	1	80	0	0	0	WM Stimuli\	0.7	986.428571428571	0.6	946	0.5	846.6	0.9	587.444444444444	0.5	1154.4	1	678.5	0.9	867.555555555556	1	663.3	12	564998	3	564987	27	39	565025	-999999	565001	0	8	TrialsPROC	TO_005_TOOL5_BA.png	1	2	33	SessionSelectionList														nonlure	3	Tools	2-Back	29	80	28	0	0	90	2	39	373583	2	14	59	371544	-1	372325	1	781	3	3	2039	53	373597	-54	0										8						33												
WM080112	153025_fnca	1	1	1	-1297836222	1	75.031	75.031	2.0.10.147	2.0.10.242	2.0.10.242	1.0.0.439	7	234	2	3	Verdana	1	80	0	0	0	WM Stimuli\	0.7	986.428571428571	0.6	946	0.5	846.6	0.9	587.444444444444	0.5	1154.4	1	678.5	0.9	867.555555555556	1	663.3	12	564998	3	564987	27	39	565025	-999999	565001	0	8	TrialsPROC	TO_006_TOOL6_BA.png	1	2	34	SessionSelectionList														target	2	Tools	2-Back	30	80	29	0	0	90	1	39	376142	2	14	59	374103	-1	374870	1	767	2	2	2039	53	376156	-54	0										9						34												
WM080112	153025_fnca	1	1	1	-1297836222	1	75.031	75.031	2.0.10.147	2.0.10.242	2.0.10.242	1.0.0.439	7	234	2	3	Verdana	1	80	0	0	0	WM Stimuli\	0.7	986.428571428571	0.6	946	0.5	846.6	0.9	587.444444444444	0.5	1154.4	1	678.5	0.9	867.555555555556	1	663.3	12	564998	3	564987	27	39	565025	-999999	565001	0	8	TrialsPROC	TO_003_TOOL3_BA.png	1	2	35	SessionSelectionList														nonlure	3	Tools	2-Back	31	80	30	0	0	90	1	39	378701	2	14	59	376662	-1	377333	1	671	3	3	2039	53	378715	-54	0										10						35												
WM080112	153025_fnca	1	1	1	-1297836222	1	75.031	75.031	2.0.10.147	2.0.10.242	2.0.10.242	1.0.0.439	7	234	2	3	Verdana	1	80	0	0	0	WM Stimuli\	0.7	986.428571428571	0.6	946	0.5	846.6	0.9	587.444444444444	0.5	1154.4	1	678.5	0.9	867.555555555556	1	663.3	12	564998	3	564987	27	39	565025	-999999	565001	0	9	Cue0BackPROC	BP_007_BP20_BA.png	1	2	36	SessionSelectionList																																										19	379181	-20	0												36												
WM080112	153025_fnca	1	1	1	-1297836222	1	75.031	75.031	2.0.10.147	2.0.10.242	2.0.10.242	1.0.0.439	7	234	2	3	Verdana	1	80	0	0	0	WM Stimuli\	0.7	986.428571428571	0.6	946	0.5	846.6	0.9	587.444444444444	0.5	1154.4	1	678.5	0.9	867.555555555556	1	663.3	12	564998	3	564987	27	39	565025	-999999	565001	0	10	TrialsPROC	BP_007_BP20_BA.png	1	2	37	SessionSelectionList														target	2	Body	0-Back	32	80	31	0	0	91	1	39	383753	1	13	52	381714	-1	383095	1	1381	2	2	2039	52	383766	-53	0											1					37												
WM080112	153025_fnca	1	1	1	-1297836222	1	75.031	75.031	2.0.10.147	2.0.10.242	2.0.10.242	1.0.0.439	7	234	2	3	Verdana	1	80	0	0	0	WM Stimuli\	0.7	986.428571428571	0.6	946	0.5	846.6	0.9	587.444444444444	0.5	1154.4	1	678.5	0.9	867.555555555556	1	663.3	12	564998	3	564987	27	39	565025	-999999	565001	0	10	TrialsPROC	BP_011_BP4_BA.png	1	2	38	SessionSelectionList														nonlure	3	Body	0-Back	33	80	32	0	0	92	1	39	386325	1	14	72	384286	-1	385001	1	715	3	3	2039	53	386339	-54	0											2					38												
WM080112	153025_fnca	1	1	1	-1297836222	1	75.031	75.031	2.0.10.147	2.0.10.242	2.0.10.242	1.0.0.439	7	234	2	3	Verdana	1	80	0	0	0	WM Stimuli\	0.7	986.428571428571	0.6	946	0.5	846.6	0.9	587.444444444444	0.5	1154.4	1	678.5	0.9	867.555555555556	1	663.3	12	564998	3	564987	27	39	565025	-999999	565001	0	10	TrialsPROC	BP_010_BP3_BA.png	1	2	39	SessionSelectionList														nonlure	3	Body	0-Back	34	80	33	0	0	92	2	39	388884	1	14	59	386845	-1	387533	1	688	3	3	2039	53	388898	-54	0											3					39												
WM080112	153025_fnca	1	1	1	-1297836222	1	75.031	75.031	2.0.10.147	2.0.10.242	2.0.10.242	1.0.0.439	7	234	2	3	Verdana	1	80	0	0	0	WM Stimuli\	0.7	986.428571428571	0.6	946	0.5	846.6	0.9	587.444444444444	0.5	1154.4	1	678.5	0.9	867.555555555556	1	663.3	12	564998	3	564987	27	39	565025	-999999	565001	0	10	TrialsPROC	BP_008_BP21_BA.png	1	2	40	SessionSelectionList														nonlure	3	Body	0-Back	35	80	34	0	0	93	3	39	391443	1	14	59	389404	-1	389921	1	517	3	3	2039	53	391457	-54	0											4					40												
WM080112	153025_fnca	1	1	1	-1297836222	1	75.031	75.031	2.0.10.147	2.0.10.242	2.0.10.242	1.0.0.439	7	234	2	3	Verdana	1	80	0	0	0	WM Stimuli\	0.7	986.428571428571	0.6	946	0.5	846.6	0.9	587.444444444444	0.5	1154.4	1	678.5	0.9	867.555555555556	1	663.3	12	564998	3	564987	27	39	565025	-999999	565001	0	10	TrialsPROC	BP_011_BP4_BA.png	1	2	41	SessionSelectionList														lure	3	Body	0-Back	36	80	35	0	0	87	1	39	394015	2	14	72	391976	-1	393024	0	1048	2	3	2039	53	394029	-54	0											5					41												
WM080112	153025_fnca	1	1	1	-1297836222	1	75.031	75.031	2.0.10.147	2.0.10.242	2.0.10.242	1.0.0.439	7	234	2	3	Verdana	1	80	0	0	0	WM Stimuli\	0.7	986.428571428571	0.6	946	0.5	846.6	0.9	587.444444444444	0.5	1154.4	1	678.5	0.9	867.555555555556	1	663.3	12	564998	3	564987	27	39	565025	-999999	565001	0	10	TrialsPROC	BP_009_BP22_BA.png	1	2	42	SessionSelectionList														nonlure	3	Body	0-Back	37	80	36	0	0	88	1	39	396574	1	14	59	394535	-1	395599	1	1064	3	3	2039	53	396588	-54	0											6					42												
WM080112	153025_fnca	1	1	1	-1297836222	1	75.031	75.031	2.0.10.147	2.0.10.242	2.0.10.242	1.0.0.439	7	234	2	3	Verdana	1	80	0	0	0	WM Stimuli\	0.7	986.428571428571	0.6	946	0.5	846.6	0.9	587.444444444444	0.5	1154.4	1	678.5	0.9	867.555555555556	1	663.3	12	564998	3	564987	27	39	565025	-999999	565001	0	10	TrialsPROC	BP_009_BP22_BA.png	1	2	43	SessionSelectionList														lure	3	Body	0-Back	38	80	37	0	0	82	1	39	399133	1	14	59	397094	-1	398575	0	1481	2	3	2039	53	399147	-54	0											7					43												
WM080112	153025_fnca	1	1	1	-1297836222	1	75.031	75.031	2.0.10.147	2.0.10.242	2.0.10.242	1.0.0.439	7	234	2	3	Verdana	1	80	0	0	0	WM Stimuli\	0.7	986.428571428571	0.6	946	0.5	846.6	0.9	587.444444444444	0.5	1154.4	1	678.5	0.9	867.555555555556	1	663.3	12	564998	3	564987	27	39	565025	-999999	565001	0	10	TrialsPROC	BP_008_BP21_BA.png	1	2	44	SessionSelectionList														lure	3	Body	0-Back	39	80	38	0	0	83	1	39	401692	1	14	59	399653	-1	400964	1	1311	3	3	2039	53	401706	-54	0											8					44												
WM080112	153025_fnca	1	1	1	-1297836222	1	75.031	75.031	2.0.10.147	2.0.10.242	2.0.10.242	1.0.0.439	7	234	2	3	Verdana	1	80	0	0	0	WM Stimuli\	0.7	986.428571428571	0.6	946	0.5	846.6	0.9	587.444444444444	0.5	1154.4	1	678.5	0.9	867.555555555556	1	663.3	12	564998	3	564987	27	39	565025	-999999	565001	0	10	TrialsPROC	BP_007_BP20_BA.png	1	2	45	SessionSelectionList														target	2	Body	0-Back	40	80	39	0	0	79	2	39	404251	1	14	59	402212	-1	403743	0	1531	3	2	2039	53	404265	-54	0											9					45												
WM080112	153025_fnca	1	1	1	-1297836222	1	75.031	75.031	2.0.10.147	2.0.10.242	2.0.10.242	1.0.0.439	7	234	2	3	Verdana	1	80	0	0	0	WM Stimuli\	0.7	986.428571428571	0.6	946	0.5	846.6	0.9	587.444444444444	0.5	1154.4	1	678.5	0.9	867.555555555556	1	663.3	12	564998	3	564987	27	39	565025	-999999	565001	0	10	TrialsPROC	BP_012_BP5_BA.png	1	2	46	SessionSelectionList														nonlure	3	Body	0-Back	41	80	40	0	0	75	1	39	406810	1	14	59	404771	-1	406436	0	1665	2	3	2039	53	406824	-54	0											10					46												
WM080112	153025_fnca	1	1	1	-1297836222	1	75.031	75.031	2.0.10.147	2.0.10.242	2.0.10.242	1.0.0.439	7	234	2	3	Verdana	1	80	0	0	0	WM Stimuli\	0.7	986.428571428571	0.6	946	0.5	846.6	0.9	587.444444444444	0.5	1154.4	1	678.5	0.9	867.555555555556	1	663.3	12	564998	3	564987	27	39	565025	-999999	565001	0	11	Fix15secPROC	""	1	2	47	SessionSelectionList																																															6	407277	-7	0							47												
WM080112	153025_fnca	1	1	1	-1297836222	1	75.031	75.031	2.0.10.147	2.0.10.242	2.0.10.242	1.0.0.439	7	234	2	3	Verdana	1	80	0	0	0	WM Stimuli\	0.7	986.428571428571	0.6	946	0.5	846.6	0.9	587.444444444444	0.5	1154.4	1	678.5	0.9	867.555555555556	1	663.3	12	564998	3	564987	27	39	565025	-999999	565001	0	12	Cue0BackPROC	PL_001_92012.png	1	2	48	SessionSelectionList																																										13	422284	-14	0												48												
WM080112	153025_fnca	1	1	1	-1297836222	1	75.031	75.031	2.0.10.147	2.0.10.242	2.0.10.242	1.0.0.439	7	234	2	3	Verdana	1	80	0	0	0	WM Stimuli\	0.7	986.428571428571	0.6	946	0.5	846.6	0.9	587.444444444444	0.5	1154.4	1	678.5	0.9	867.555555555556	1	663.3	12	564998	3	564987	27	39	565025	-999999	565001	0	13	TrialsPROC	PL_003_92016.png	1	2	49	SessionSelectionList														nonlure	3	Place	0-Back	42	80	41	0	0	76	1	40	426882	1	13	71	424842	-1	426191	1	1349	3	3	2040	53	426895	-54	0												1				49												
WM080112	153025_fnca	1	1	1	-1297836222	1	75.031	75.031	2.0.10.147	2.0.10.242	2.0.10.242	1.0.0.439	7	234	2	3	Verdana	1	80	0	0	0	WM Stimuli\	0.7	986.428571428571	0.6	946	0.5	846.6	0.9	587.444444444444	0.5	1154.4	1	678.5	0.9	867.555555555556	1	663.3	12	564998	3	564987	27	39	565025	-999999	565001	0	13	TrialsPROC	PL_003_92016.png	1	2	50	SessionSelectionList														lure	3	Place	0-Back	43	80	42	0	0	77	2	40	429441	2	13	59	427401	-1	428436	1	1035	3	3	2040	53	429454	-54	0												2				50												
WM080112	153025_fnca	1	1	1	-1297836222	1	75.031	75.031	2.0.10.147	2.0.10.242	2.0.10.242	1.0.0.439	7	234	2	3	Verdana	1	80	0	0	0	WM Stimuli\	0.7	986.428571428571	0.6	946	0.5	846.6	0.9	587.444444444444	0.5	1154.4	1	678.5	0.9	867.555555555556	1	663.3	12	564998	3	564987	27	39	565025	-999999	565001	0	13	TrialsPROC	PL_006_92025.png	1	2	51	SessionSelectionList														nonlure	3	Place	0-Back	44	80	43	0	0	78	3	39	432013	2	14	73	429974	-1	430501	1	527	3	3	2039	53	432027	-54	0												3				51												
WM080112	153025_fnca	1	1	1	-1297836222	1	75.031	75.031	2.0.10.147	2.0.10.242	2.0.10.242	1.0.0.439	7	234	2	3	Verdana	1	80	0	0	0	WM Stimuli\	0.7	986.428571428571	0.6	946	0.5	846.6	0.9	587.444444444444	0.5	1154.4	1	678.5	0.9	867.555555555556	1	663.3	12	564998	3	564987	27	39	565025	-999999	565001	0	13	TrialsPROC	PL_001_92012.png	1	2	52	SessionSelectionList														target	2	Place	0-Back	45	80	44	0	0	79	1	39	434585	2	14	72	432546	-1	433073	1	527	2	2	2039	53	434599	-54	0												4				52												
WM080112	153025_fnca	1	1	1	-1297836222	1	75.031	75.031	2.0.10.147	2.0.10.242	2.0.10.242	1.0.0.439	7	234	2	3	Verdana	1	80	0	0	0	WM Stimuli\	0.7	986.428571428571	0.6	946	0.5	846.6	0.9	587.444444444444	0.5	1154.4	1	678.5	0.9	867.555555555556	1	663.3	12	564998	3	564987	27	39	565025	-999999	565001	0	13	TrialsPROC	PL_004_92023.png	1	2	53	SessionSelectionList														nonlure	3	Place	0-Back	46	80	45	0	0	80	1	39	437157	2	14	72	435118	-1	435725	1	607	3	3	2039	53	437171	-54	0												5				53												
WM080112	153025_fnca	1	1	1	-1297836222	1	75.031	75.031	2.0.10.147	2.0.10.242	2.0.10.242	1.0.0.439	7	234	2	3	Verdana	1	80	0	0	0	WM Stimuli\	0.7	986.428571428571	0.6	946	0.5	846.6	0.9	587.444444444444	0.5	1154.4	1	678.5	0.9	867.555555555556	1	663.3	12	564998	3	564987	27	39	565025	-999999	565001	0	13	TrialsPROC	PL_005_92024.png	1	2	54	SessionSelectionList														nonlure	3	Place	0-Back	47	80	46	0	0	81	2	39	439730	1	13	73	437691	-1	438274	1	583	3	3	2039	52	439743	-53	0												6				54												
WM080112	153025_fnca	1	1	1	-1297836222	1	75.031	75.031	2.0.10.147	2.0.10.242	2.0.10.242	1.0.0.439	7	234	2	3	Verdana	1	80	0	0	0	WM Stimuli\	0.7	986.428571428571	0.6	946	0.5	846.6	0.9	587.444444444444	0.5	1154.4	1	678.5	0.9	867.555555555556	1	663.3	12	564998	3	564987	27	39	565025	-999999	565001	0	13	TrialsPROC	PL_001_92012.png	1	2	55	SessionSelectionList														target	2	Place	0-Back	48	80	47	0	0	81	1	39	442302	1	14	72	440263	-1	440786	1	523	2	2	2039	53	442316	-54	0												7				55												
WM080112	153025_fnca	1	1	1	-1297836222	1	75.031	75.031	2.0.10.147	2.0.10.242	2.0.10.242	1.0.0.439	7	234	2	3	Verdana	1	80	0	0	0	WM Stimuli\	0.7	986.428571428571	0.6	946	0.5	846.6	0.9	587.444444444444	0.5	1154.4	1	678.5	0.9	867.555555555556	1	663.3	12	564998	3	564987	27	39	565025	-999999	565001	0	13	TrialsPROC	PL_002_92014.png	1	2	56	SessionSelectionList														nonlure	3	Place	0-Back	49	80	48	0	0	82	1	39	444874	2	14	72	442835	-1	443328	1	493	3	3	2039	53	444888	-54	0												8				56												
WM080112	153025_fnca	1	1	1	-1297836222	1	75.031	75.031	2.0.10.147	2.0.10.242	2.0.10.242	1.0.0.439	7	234	2	3	Verdana	1	80	0	0	0	WM Stimuli\	0.7	986.428571428571	0.6	946	0.5	846.6	0.9	587.444444444444	0.5	1154.4	1	678.5	0.9	867.555555555556	1	663.3	12	564998	3	564987	27	39	565025	-999999	565001	0	13	TrialsPROC	PL_004_92023.png	1	2	57	SessionSelectionList														lure	3	Place	0-Back	50	80	49	0	0	83	2	40	447447	1	13	72	445407	-1	445936	1	529	3	3	2040	53	447460	-54	0												9				57												
WM080112	153025_fnca	1	1	1	-1297836222	1	75.031	75.031	2.0.10.147	2.0.10.242	2.0.10.242	1.0.0.439	7	234	2	3	Verdana	1	80	0	0	0	WM Stimuli\	0.7	986.428571428571	0.6	946	0.5	846.6	0.9	587.444444444444	0.5	1154.4	1	678.5	0.9	867.555555555556	1	663.3	12	564998	3	564987	27	39	565025	-999999	565001	0	13	TrialsPROC	PL_006_92025.png	1	2	58	SessionSelectionList														lure	3	Place	0-Back	51	80	50	0	0	83	3	39	450019	1	14	73	447980	-1	448592	1	612	3	3	2039	53	450033	-54	0												10				58												
WM080112	153025_fnca	1	1	1	-1297836222	1	75.031	75.031	2.0.10.147	2.0.10.242	2.0.10.242	1.0.0.439	7	234	2	3	Verdana	1	80	0	0	0	WM Stimuli\	0.7	986.428571428571	0.6	946	0.5	846.6	0.9	587.444444444444	0.5	1154.4	1	678.5	0.9	867.555555555556	1	663.3	12	564998	3	564987	27	39	565025	-999999	565001	0	14	Cue2BackPROC	""	1	2	59	SessionSelectionList									5	450485	-6	0																																													59												
WM080112	153025_fnca	1	1	1	-1297836222	1	75.031	75.031	2.0.10.147	2.0.10.242	2.0.10.242	1.0.0.439	7	234	2	3	Verdana	1	80	0	0	0	WM Stimuli\	0.7	986.428571428571	0.6	946	0.5	846.6	0.9	587.444444444444	0.5	1154.4	1	678.5	0.9	867.555555555556	1	663.3	12	564998	3	564987	27	39	565025	-999999	565001	0	15	TrialsPROC	FC_010_F5.png	1	2	60	SessionSelectionList														nonlure	3	Face	2-Back	52	80	50	0	1	83	3	39	455083	2	14	64	453044	-1	0	0	0	""	3	2039	53	455097	-54	0													1			60												
WM080112	153025_fnca	1	1	1	-1297836222	1	75.031	75.031	2.0.10.147	2.0.10.242	2.0.10.242	1.0.0.439	7	234	2	3	Verdana	1	80	0	0	0	WM Stimuli\	0.7	986.428571428571	0.6	946	0.5	846.6	0.9	587.444444444444	0.5	1154.4	1	678.5	0.9	867.555555555556	1	663.3	12	564998	3	564987	27	39	565025	-999999	565001	0	15	TrialsPROC	FC_012_F6.png	1	2	61	SessionSelectionList														nonlure	3	Face	2-Back	53	80	50	0	2	83	3	39	457656	1	13	73	455617	-1	0	0	0	""	3	2039	52	457669	-53	0													2			61												
WM080112	153025_fnca	1	1	1	-1297836222	1	75.031	75.031	2.0.10.147	2.0.10.242	2.0.10.242	1.0.0.439	7	234	2	3	Verdana	1	80	0	0	0	WM Stimuli\	0.7	986.428571428571	0.6	946	0.5	846.6	0.9	587.444444444444	0.5	1154.4	1	678.5	0.9	867.555555555556	1	663.3	12	564998	3	564987	27	39	565025	-999999	565001	0	15	TrialsPROC	FC_010_F5.png	1	2	62	SessionSelectionList														target	2	Face	2-Back	54	80	51	0	0	83	1	39	460228	1	14	72	458189	-1	458904	1	715	2	2	2039	53	460242	-54	0													3			62												
WM080112	153025_fnca	1	1	1	-1297836222	1	75.031	75.031	2.0.10.147	2.0.10.242	2.0.10.242	1.0.0.439	7	234	2	3	Verdana	1	80	0	0	0	WM Stimuli\	0.7	986.428571428571	0.6	946	0.5	846.6	0.9	587.444444444444	0.5	1154.4	1	678.5	0.9	867.555555555556	1	663.3	12	564998	3	564987	27	39	565025	-999999	565001	0	15	TrialsPROC	FC_008_F4.png	1	2	63	SessionSelectionList														nonlure	3	Face	2-Back	55	80	52	0	0	83	2	39	462800	2	14	72	460761	-1	461964	0	1203	2	3	2039	53	462814	-54	0													4			63												
WM080112	153025_fnca	1	1	1	-1297836222	1	75.031	75.031	2.0.10.147	2.0.10.242	2.0.10.242	1.0.0.439	7	234	2	3	Verdana	1	80	0	0	0	WM Stimuli\	0.7	986.428571428571	0.6	946	0.5	846.6	0.9	587.444444444444	0.5	1154.4	1	678.5	0.9	867.555555555556	1	663.3	12	564998	3	564987	27	39	565025	-999999	565001	0	15	TrialsPROC	FC_012_F6.png	1	2	64	SessionSelectionList														lure	3	Face	2-Back	56	80	52	0	1	83	2	40	465373	1	13	72	463333	-1	0	0	0	""	3	2040	53	465386	-54	0													5			64												
WM080112	153025_fnca	1	1	1	-1297836222	1	75.031	75.031	2.0.10.147	2.0.10.242	2.0.10.242	1.0.0.439	7	234	2	3	Verdana	1	80	0	0	0	WM Stimuli\	0.7	986.428571428571	0.6	946	0.5	846.6	0.9	587.444444444444	0.5	1154.4	1	678.5	0.9	867.555555555556	1	663.3	12	564998	3	564987	27	39	565025	-999999	565001	0	15	TrialsPROC	FC_008_F4.png	1	2	65	SessionSelectionList														target	2	Face	2-Back	57	80	53	0	0	83	1	39	467945	1	14	73	465906	-1	466722	1	816	2	2	2039	53	467959	-54	0													6			65												
WM080112	153025_fnca	1	1	1	-1297836222	1	75.031	75.031	2.0.10.147	2.0.10.242	2.0.10.242	1.0.0.439	7	234	2	3	Verdana	1	80	0	0	0	WM Stimuli\	0.7	986.428571428571	0.6	946	0.5	846.6	0.9	587.444444444444	0.5	1154.4	1	678.5	0.9	867.555555555556	1	663.3	12	564998	3	564987	27	39	565025	-999999	565001	0	15	TrialsPROC	FC_007_M4.png	1	2	66	SessionSelectionList														nonlure	3	Face	2-Back	58	80	54	0	0	83	1	39	470517	2	14	72	468478	-1	469089	1	611	3	3	2039	53	470531	-54	0													7			66												
WM080112	153025_fnca	1	1	1	-1297836222	1	75.031	75.031	2.0.10.147	2.0.10.242	2.0.10.242	1.0.0.439	7	234	2	3	Verdana	1	80	0	0	0	WM Stimuli\	0.7	986.428571428571	0.6	946	0.5	846.6	0.9	587.444444444444	0.5	1154.4	1	678.5	0.9	867.555555555556	1	663.3	12	564998	3	564987	27	39	565025	-999999	565001	0	15	TrialsPROC	FC_007_M4.png	1	2	67	SessionSelectionList														lure	3	Face	2-Back	59	80	55	0	0	83	1	39	473089	2	14	72	471050	-1	472561	0	1511	2	3	2039	53	473103	-54	0													8			67												
WM080112	153025_fnca	1	1	1	-1297836222	1	75.031	75.031	2.0.10.147	2.0.10.242	2.0.10.242	1.0.0.439	7	234	2	3	Verdana	1	80	0	0	0	WM Stimuli\	0.7	986.428571428571	0.6	946	0.5	846.6	0.9	587.444444444444	0.5	1154.4	1	678.5	0.9	867.555555555556	1	663.3	12	564998	3	564987	27	39	565025	-999999	565001	0	15	TrialsPROC	FC_009_M5.png	1	2	68	SessionSelectionList														nonlure	3	Face	2-Back	60	80	56	0	0	83	1	40	475662	1	13	72	473622	-1	474899	1	1277	3	3	2040	53	475675	-54	0													9			68												
WM080112	153025_fnca	1	1	1	-1297836222	1	75.031	75.031	2.0.10.147	2.0.10.242	2.0.10.242	1.0.0.439	7	234	2	3	Verdana	1	80	0	0	0	WM Stimuli\	0.7	986.428571428571	0.6	946	0.5	846.6	0.9	587.444444444444	0.5	1154.4	1	678.5	0.9	867.555555555556	1	663.3	12	564998	3	564987	27	39	565025	-999999	565001	0	15	TrialsPROC	FC_011_M6.png	1	2	69	SessionSelectionList														nonlure	3	Face	2-Back	61	80	57	0	0	83	2	39	478234	1	14	73	476195	-1	477009	1	814	3	3	2039	53	478248	-54	0													10			69												
WM080112	153025_fnca	1	1	1	-1297836222	1	75.031	75.031	2.0.10.147	2.0.10.242	2.0.10.242	1.0.0.439	7	234	2	3	Verdana	1	80	0	0	0	WM Stimuli\	0.7	986.428571428571	0.6	946	0.5	846.6	0.9	587.444444444444	0.5	1154.4	1	678.5	0.9	867.555555555556	1	663.3	12	564998	3	564987	27	39	565025	-999999	565001	0	16	Fix15secPROC	""	1	2	70	SessionSelectionList																																															6	478701	-7	0							70												
WM080112	153025_fnca	1	1	1	-1297836222	1	75.031	75.031	2.0.10.147	2.0.10.242	2.0.10.242	1.0.0.439	7	234	2	3	Verdana	1	80	0	0	0	WM Stimuli\	0.7	986.428571428571	0.6	946	0.5	846.6	0.9	587.444444444444	0.5	1154.4	1	678.5	0.9	867.555555555556	1	663.3	12	564998	3	564987	27	39	565025	-999999	565001	0	17	Cue0BackPROC	TO_007_TOOL7_BA.png	1	2	71	SessionSelectionList																																										13	493708	-14	0												71												
WM080112	153025_fnca	1	1	1	-1297836222	1	75.031	75.031	2.0.10.147	2.0.10.242	2.0.10.242	1.0.0.439	7	234	2	3	Verdana	1	80	0	0	0	WM Stimuli\	0.7	986.428571428571	0.6	946	0.5	846.6	0.9	587.444444444444	0.5	1154.4	1	678.5	0.9	867.555555555556	1	663.3	12	564998	3	564987	27	39	565025	-999999	565001	0	18	TrialsPROC	TO_010_TOOL10_BA.png	1	2	72	SessionSelectionList														nonlure	3	Tools	0-Back	62	80	58	0	0	84	3	39	498292	2	14	58	496253	-1	497891	1	1638	3	3	2039	53	498306	-54	0														1		72												
WM080112	153025_fnca	1	1	1	-1297836222	1	75.031	75.031	2.0.10.147	2.0.10.242	2.0.10.242	1.0.0.439	7	234	2	3	Verdana	1	80	0	0	0	WM Stimuli\	0.7	986.428571428571	0.6	946	0.5	846.6	0.9	587.444444444444	0.5	1154.4	1	678.5	0.9	867.555555555556	1	663.3	12	564998	3	564987	27	39	565025	-999999	565001	0	18	TrialsPROC	TO_009_TOOL9_BA.png	1	2	73	SessionSelectionList														nonlure	3	Tools	0-Back	63	80	59	0	0	84	4	39	500851	2	14	59	498812	-1	499591	1	779	3	3	2039	53	500865	-54	0														2		73												
WM080112	153025_fnca	1	1	1	-1297836222	1	75.031	75.031	2.0.10.147	2.0.10.242	2.0.10.242	1.0.0.439	7	234	2	3	Verdana	1	80	0	0	0	WM Stimuli\	0.7	986.428571428571	0.6	946	0.5	846.6	0.9	587.444444444444	0.5	1154.4	1	678.5	0.9	867.555555555556	1	663.3	12	564998	3	564987	27	39	565025	-999999	565001	0	18	TrialsPROC	TO_009_TOOL9_BA.png	1	2	74	SessionSelectionList														lure	3	Tools	0-Back	64	80	60	0	0	85	5	39	503410	2	14	59	501371	-1	501829	1	458	3	3	2039	53	503424	-54	0														3		74												
WM080112	153025_fnca	1	1	1	-1297836222	1	75.031	75.031	2.0.10.147	2.0.10.242	2.0.10.242	1.0.0.439	7	234	2	3	Verdana	1	80	0	0	0	WM Stimuli\	0.7	986.428571428571	0.6	946	0.5	846.6	0.9	587.444444444444	0.5	1154.4	1	678.5	0.9	867.555555555556	1	663.3	12	564998	3	564987	27	39	565025	-999999	565001	0	18	TrialsPROC	TO_008_TOOL8_BA.png	1	2	75	SessionSelectionList														nonlure	3	Tools	0-Back	65	80	61	0	0	85	6	39	505969	2	14	59	503930	-1	504543	1	613	3	3	2039	53	505983	-54	0														4		75												
WM080112	153025_fnca	1	1	1	-1297836222	1	75.031	75.031	2.0.10.147	2.0.10.242	2.0.10.242	1.0.0.439	7	234	2	3	Verdana	1	80	0	0	0	WM Stimuli\	0.7	986.428571428571	0.6	946	0.5	846.6	0.9	587.444444444444	0.5	1154.4	1	678.5	0.9	867.555555555556	1	663.3	12	564998	3	564987	27	39	565025	-999999	565001	0	18	TrialsPROC	TO_011_TOOL11_BA.png	1	2	76	SessionSelectionList														nonlure	3	Tools	0-Back	66	80	62	0	0	86	7	39	508528	2	14	59	506489	-1	506897	1	408	3	3	2039	53	508542	-54	0														5		76												
WM080112	153025_fnca	1	1	1	-1297836222	1	75.031	75.031	2.0.10.147	2.0.10.242	2.0.10.242	1.0.0.439	7	234	2	3	Verdana	1	80	0	0	0	WM Stimuli\	0.7	986.428571428571	0.6	946	0.5	846.6	0.9	587.444444444444	0.5	1154.4	1	678.5	0.9	867.555555555556	1	663.3	12	564998	3	564987	27	39	565025	-999999	565001	0	18	TrialsPROC	TO_012_TOOL12_BA.png	1	2	77	SessionSelectionList														nonlure	3	Tools	0-Back	67	80	63	0	0	86	8	39	511087	2	14	59	509048	-1	509510	1	462	3	3	2039	53	511101	-54	0														6		77												
WM080112	153025_fnca	1	1	1	-1297836222	1	75.031	75.031	2.0.10.147	2.0.10.242	2.0.10.242	1.0.0.439	7	234	2	3	Verdana	1	80	0	0	0	WM Stimuli\	0.7	986.428571428571	0.6	946	0.5	846.6	0.9	587.444444444444	0.5	1154.4	1	678.5	0.9	867.555555555556	1	663.3	12	564998	3	564987	27	39	565025	-999999	565001	0	18	TrialsPROC	TO_010_TOOL10_BA.png	1	2	78	SessionSelectionList														lure	3	Tools	0-Back	68	80	64	0	0	86	9	39	513646	2	14	59	511607	-1	512154	1	547	3	3	2039	53	513660	-54	0														7		78												
WM080112	153025_fnca	1	1	1	-1297836222	1	75.031	75.031	2.0.10.147	2.0.10.242	2.0.10.242	1.0.0.439	7	234	2	3	Verdana	1	80	0	0	0	WM Stimuli\	0.7	986.428571428571	0.6	946	0.5	846.6	0.9	587.444444444444	0.5	1154.4	1	678.5	0.9	867.555555555556	1	663.3	12	564998	3	564987	27	39	565025	-999999	565001	0	18	TrialsPROC	TO_007_TOOL7_BA.png	1	2	79	SessionSelectionList														target	2	Tools	0-Back	69	80	65	0	0	87	1	39	516205	1	14	59	514166	-1	514626	1	460	2	2	2039	53	516219	-54	0														8		79												
WM080112	153025_fnca	1	1	1	-1297836222	1	75.031	75.031	2.0.10.147	2.0.10.242	2.0.10.242	1.0.0.439	7	234	2	3	Verdana	1	80	0	0	0	WM Stimuli\	0.7	986.428571428571	0.6	946	0.5	846.6	0.9	587.444444444444	0.5	1154.4	1	678.5	0.9	867.555555555556	1	663.3	12	564998	3	564987	27	39	565025	-999999	565001	0	18	TrialsPROC	TO_008_TOOL8_BA.png	1	2	80	SessionSelectionList														lure	3	Tools	0-Back	70	80	66	0	0	87	1	39	518764	1	14	59	516725	-1	517407	1	682	3	3	2039	53	518778	-54	0														9		80												
WM080112	153025_fnca	1	1	1	-1297836222	1	75.031	75.031	2.0.10.147	2.0.10.242	2.0.10.242	1.0.0.439	7	234	2	3	Verdana	1	80	0	0	0	WM Stimuli\	0.7	986.428571428571	0.6	946	0.5	846.6	0.9	587.444444444444	0.5	1154.4	1	678.5	0.9	867.555555555556	1	663.3	12	564998	3	564987	27	39	565025	-999999	565001	0	18	TrialsPROC	TO_007_TOOL7_BA.png	1	2	81	SessionSelectionList														target	2	Tools	0-Back	71	80	67	0	0	88	1	39	521323	1	14	59	519284	-1	519870	1	586	2	2	2039	53	521337	-54	0														10		81												
WM080112	153025_fnca	1	1	1	-1297836222	1	75.031	75.031	2.0.10.147	2.0.10.242	2.0.10.242	1.0.0.439	7	234	2	3	Verdana	1	80	0	0	0	WM Stimuli\	0.7	986.428571428571	0.6	946	0.5	846.6	0.9	587.444444444444	0.5	1154.4	1	678.5	0.9	867.555555555556	1	663.3	12	564998	3	564987	27	39	565025	-999999	565001	0	19	Cue2BackPROC	""	1	2	82	SessionSelectionList									5	521789	-6	0																																													82												
WM080112	153025_fnca	1	1	1	-1297836222	1	75.031	75.031	2.0.10.147	2.0.10.242	2.0.10.242	1.0.0.439	7	234	2	3	Verdana	1	80	0	0	0	WM Stimuli\	0.7	986.428571428571	0.6	946	0.5	846.6	0.9	587.444444444444	0.5	1154.4	1	678.5	0.9	867.555555555556	1	663.3	12	564998	3	564987	27	39	565025	-999999	565001	0	20	TrialsPROC	PL_007_92026.png	1	2	83	SessionSelectionList														nonlure	3	Place	2-Back	72	80	67	0	1	88	1	40	526388	1	13	64	524348	-1	0	0	0	""	3	2040	53	526401	-54	0															1	83												
WM080112	153025_fnca	1	1	1	-1297836222	1	75.031	75.031	2.0.10.147	2.0.10.242	2.0.10.242	1.0.0.439	7	234	2	3	Verdana	1	80	0	0	0	WM Stimuli\	0.7	986.428571428571	0.6	946	0.5	846.6	0.9	587.444444444444	0.5	1154.4	1	678.5	0.9	867.555555555556	1	663.3	12	564998	3	564987	27	39	565025	-999999	565001	0	20	TrialsPROC	PL_007_92026.png	1	2	84	SessionSelectionList														lure	3	Place	2-Back	73	80	68	0	0	88	1	39	528960	1	14	73	526921	-1	527975	0	1054	2	3	2039	53	528974	-54	0															2	84												
WM080112	153025_fnca	1	1	1	-1297836222	1	75.031	75.031	2.0.10.147	2.0.10.242	2.0.10.242	1.0.0.439	7	234	2	3	Verdana	1	80	0	0	0	WM Stimuli\	0.7	986.428571428571	0.6	946	0.5	846.6	0.9	587.444444444444	0.5	1154.4	1	678.5	0.9	867.555555555556	1	663.3	12	564998	3	564987	27	39	565025	-999999	565001	0	20	TrialsPROC	PL_010_92038.png	1	2	85	SessionSelectionList														nonlure	3	Place	2-Back	74	80	68	0	1	88	1	39	531532	1	14	72	529493	-1	0	0	0	""	3	2039	53	531546	-54	0															3	85												
WM080112	153025_fnca	1	1	1	-1297836222	1	75.031	75.031	2.0.10.147	2.0.10.242	2.0.10.242	1.0.0.439	7	234	2	3	Verdana	1	80	0	0	0	WM Stimuli\	0.7	986.428571428571	0.6	946	0.5	846.6	0.9	587.444444444444	0.5	1154.4	1	678.5	0.9	867.555555555556	1	663.3	12	564998	3	564987	27	39	565025	-999999	565001	0	20	TrialsPROC	PL_009_92037.png	1	2	86	SessionSelectionList														nonlure	3	Place	2-Back	75	80	69	0	0	88	1	39	534091	1	14	59	532052	-1	533637	1	1585	3	3	2039	53	534105	-54	0															4	86												
WM080112	153025_fnca	1	1	1	-1297836222	1	75.031	75.031	2.0.10.147	2.0.10.242	2.0.10.242	1.0.0.439	7	234	2	3	Verdana	1	80	0	0	0	WM Stimuli\	0.7	986.428571428571	0.6	946	0.5	846.6	0.9	587.444444444444	0.5	1154.4	1	678.5	0.9	867.555555555556	1	663.3	12	564998	3	564987	27	39	565025	-999999	565001	0	20	TrialsPROC	PL_010_92038.png	1	2	87	SessionSelectionList														target	2	Place	2-Back	76	80	70	0	0	88	1	39	536663	2	14	72	534624	-1	535673	1	1049	2	2	2039	53	536677	-54	0															5	87												
WM080112	153025_fnca	1	1	1	-1297836222	1	75.031	75.031	2.0.10.147	2.0.10.242	2.0.10.242	1.0.0.439	7	234	2	3	Verdana	1	80	0	0	0	WM Stimuli\	0.7	986.428571428571	0.6	946	0.5	846.6	0.9	587.444444444444	0.5	1154.4	1	678.5	0.9	867.555555555556	1	663.3	12	564998	3	564987	27	39	565025	-999999	565001	0	20	TrialsPROC	PL_009_92037.png	1	2	88	SessionSelectionList														target	2	Place	2-Back	77	80	71	0	0	88	1	40	539236	1	13	72	537196	-1	537791	0	595	3	2	2040	53	539249	-54	0															6	88												
WM080112	153025_fnca	1	1	1	-1297836222	1	75.031	75.031	2.0.10.147	2.0.10.242	2.0.10.242	1.0.0.439	7	234	2	3	Verdana	1	80	0	0	0	WM Stimuli\	0.7	986.428571428571	0.6	946	0.5	846.6	0.9	587.444444444444	0.5	1154.4	1	678.5	0.9	867.555555555556	1	663.3	12	564998	3	564987	27	39	565025	-999999	565001	0	20	TrialsPROC	PL_008_92033.png	1	2	89	SessionSelectionList														nonlure	3	Place	2-Back	78	80	72	0	0	88	2	39	541808	1	14	73	539769	-1	540863	1	1094	3	3	2039	53	541822	-54	0															7	89												
WM080112	153025_fnca	1	1	1	-1297836222	1	75.031	75.031	2.0.10.147	2.0.10.242	2.0.10.242	1.0.0.439	7	234	2	3	Verdana	1	80	0	0	0	WM Stimuli\	0.7	986.428571428571	0.6	946	0.5	846.6	0.9	587.444444444444	0.5	1154.4	1	678.5	0.9	867.555555555556	1	663.3	12	564998	3	564987	27	39	565025	-999999	565001	0	20	TrialsPROC	PL_012_92047.png	1	2	90	SessionSelectionList														nonlure	3	Place	2-Back	79	80	73	0	0	88	3	39	544380	2	14	72	542341	-1	543594	1	1253	3	3	2039	53	544394	-54	0															8	90												
WM080112	153025_fnca	1	1	1	-1297836222	1	75.031	75.031	2.0.10.147	2.0.10.242	2.0.10.242	1.0.0.439	7	234	2	3	Verdana	1	80	0	0	0	WM Stimuli\	0.7	986.428571428571	0.6	946	0.5	846.6	0.9	587.444444444444	0.5	1154.4	1	678.5	0.9	867.555555555556	1	663.3	12	564998	3	564987	27	39	565025	-999999	565001	0	20	TrialsPROC	PL_012_92047.png	1	2	91	SessionSelectionList														lure	3	Place	2-Back	80	80	74	0	0	88	1	39	546952	2	14	72	544913	-1	545929	0	1016	2	3	2039	53	546966	-54	0															9	91												
WM080112	153025_fnca	1	1	1	-1297836222	1	75.031	75.031	2.0.10.147	2.0.10.242	2.0.10.242	1.0.0.439	7	234	2	3	Verdana	1	80	0	0	0	WM Stimuli\	0.7	986.428571428571	0.6	946	0.5	846.6	0.9	587.444444444444	0.5	1154.4	1	678.5	0.9	867.555555555556	1	663.3	12	564998	3	564987	27	39	565025	-999999	565001	0	20	TrialsPROC	PL_011_92044.png	1	2	92	SessionSelectionList														nonlure	3	Place	2-Back	80	80	75	0	0	88	1	39	549525	1	13	73	547486	-1	548277	1	791	3	3	2039	52	549538	-53	0															10	92												
WM080112	153025_fnca	1	1	1	-1297836222	1	75.031	75.031	2.0.10.147	2.0.10.242	2.0.10.242	1.0.0.439	7	234	2	3	Verdana	1	80	0	0	0	WM Stimuli\	0.7	986.428571428571	0.6	946	0.5	846.6	0.9	587.444444444444	0.5	1154.4	1	678.5	0.9	867.555555555556	1	663.3	12	564998	3	564987	27	39	565025	-999999	565001	0	21	Fix15secPROC	""	1	2	93	SessionSelectionList																																															6	549992	-7	0							93												
