ExperimentName	HCPID	RunNumber	Subject	Session	RandomSeed	Group	Laptop.RefreshRate	ScannerD2.RefreshRate	StudioVersion	RuntimeVersion	RuntimeVersionExpected	ExperimentVersion	triggercode	Allowed	Target	Nontarget	FontStyle	RunTrialNumber[Session]	TrialsPerRun[Session]	TotalRespGreater200[Session]	ConsecRTLess200[Session]	ConsecNonResp[Session]	StimuliDir	ACC_2_Back_Body	Avg_RT_For_Correct_Trials_2_Back_Body	ACC_0_Back_Body	Avg_RT_For_Correct_Trials_0_Back_Body	ACC_2_Back_Face	Avg_RT_For_Correct_Trials_2_Back_Face	ACC_0_Back_Face	Avg_RT_For_Correct_Trials_0_Back_Face	ACC_2_Back_Place	Avg_RT_For_Correct_Trials_2_Back_Place	ACC_0_Back_Place	Avg_RT_For_Correct_Trials_0_Back_Place	ACC_2_Back_Tools	Avg_RT_For_Correct_Trials_2_Back_Tools	ACC_0_Back_Tools	Avg_RT_For_Correct_Trials_0_Back_Tools	ExpInstrucFeelFreeToRest.OnsetDelay	ExpInstrucFeelFreeToRest.OnsetTime	ExpInstrucFeelFreeToRest.DurationError	ExpInstrucFeelFreeToRest.StartTime	ExpInstrucFeelFreeToRest.OnsetToOnsetTime	FeelFreeToRest.OnsetDelay	FeelFreeToRest.OnsetTime	FeelFreeToRest.DurationError	FeelFreeToRest.StartTime	FeelFreeToRest.OnsetToOnsetTime	SessionSelectionList	Procedure[Block]	Stimulus[Block]	RunNumberFilterValue	SessionSelectionList.Cycle	SessionSelectionList.Sample	Running[Block]	IntroButtonMap.OnsetDelay	IntroButtonMap.OnsetTime	IntroButtonMap.DurationError	IntroButtonMap.OnsetToOnsetTime	GetReady.OnsetDelay	GetReady.OnsetTime	GetReady.DurationError	GetReady.OnsetToOnsetTime	Cue2Back.OnsetDelay	Cue2Back.OnsetTime	Cue2Back.DurationError	Cue2Back.OnsetToOnsetTime	Run1Block1	TargetType	CorrectResponse	StimType	BlockType	RunTrialNumber[Block]	TrialsPerRun[Block]	TotalRespGreater200[Block]	ConsecRTLess200[Block]	ConsecNonResp[Block]	ControlAcc	ConsecSameResp	ExperimenterWindow.OnsetDelay	ExperimenterWindow.OnsetTime	ExperimenterWindow.DurationError	ExperimenterWindow.OnsetToOnsetTime	Stim.OnsetDelay	Stim.OnsetTime	Stim.DurationError	Stim.RTTime	Stim.ACC	Stim.RT	Stim.RESP	Stim.CRESP	Stim.OnsetToOnsetTime	Fix.OnsetDelay	Fix.OnsetTime	Fix.DurationError	Fix.OnsetToOnsetTime	CueTarget.OnsetDelay	CueTarget.OnsetTime	CueTarget.DurationError	CueTarget.OnsetToOnsetTime	Run1Block2	Fix15sec.OnsetDelay	Fix15sec.OnsetTime	Fix15sec.DurationError	Fix15sec.OnsetToOnsetTime	Run1Block3	Run1Block4	Run1Block5	Run1Block6	Run1Block7	Run1Block8	Block	Procedure[Trial]	Stimulus[Trial]	ReadyList	Running[Trial]	ReadyList.Cycle	ReadyList.Sample	SyncSlide.OnsetDelay	SyncSlide.OnsetTime	SyncSlide.DurationError	SyncSlide.FinishTime	SyncSlide.OnsetToOnsetTime	Trial
WM080112	100307_fnca	1	1	1	83461355	1	75.031	75.031	2.0.10.147	2.0.10.242	2.0.10.242	1.0.0.439	7	234	2	3	Verdana	1	80	0	0	0	WM Stimuli\	0.6	1024	0.9	853.444444444444	1	811.3	1	728.4	0.9	935.555555555556	1	766.9	0.8	822	0.7	1068.28571428571	12	362403	3	362392	27	39	362430	-999999	362406	0	1	TRSyncPROC	""	1	2	1	SessionSelectionList	116	20968	-999999	0	38	55835	-999999	0																																																	1	InitialTR	4	1	ReadyList	1	1	13	69189	-14	71175	0	1
WM080112	100307_fnca	1	1	1	83461355	1	75.031	75.031	2.0.10.147	2.0.10.242	2.0.10.242	1.0.0.439	7	234	2	3	Verdana	1	80	0	0	0	WM Stimuli\	0.6	1024	0.9	853.444444444444	1	811.3	1	728.4	0.9	935.555555555556	1	766.9	0.8	822	0.7	1068.28571428571	12	362403	3	362392	27	39	362430	-999999	362406	0	1	TRSyncPROC	""	1	2	1	SessionSelectionList	116	20968	-999999	0	38	55835	-999999	0																																																	1	InitialTR	3	2	ReadyList	1	2	12	71188	-13	73175	0	2
WM080112	100307_fnca	1	1	1	83461355	1	75.031	75.031	2.0.10.147	2.0.10.242	2.0.10.242	1.0.0.439	7	234	2	3	Verdana	1	80	0	0	0	WM Stimuli\	0.6	1024	0.9	853.444444444444	1	811.3	1	728.4	0.9	935.555555555556	1	766.9	0.8	822	0.7	1068.28571428571	12	362403	3	362392	27	39	362430	-999999	362406	0	1	TRSyncPROC	""	1	2	1	SessionSelectionList	116	20968	-999999	0	38	55835	-999999	0																																																	1	InitialTR	2	3	ReadyList	1	3	11	73187	-12	75175	0	3
WM080112	100307_fnca	1	1	1	83461355	1	75.031	75.031	2.0.10.147	2.0.10.242	2.0.10.242	1.0.0.439	7	234	2	3	Verdana	1	80	0	0	0	WM Stimuli\	0.6	1024	0.9	853.444444444444	1	811.3	1	728.4	0.9	935.555555555556	1	766.9	0.8	822	0.7	1068.28571428571	12	362403	3	362392	27	39	362430	-999999	362406	0	1	TRSyncPROC	""	1	2	1	SessionSelectionList	116	20968	-999999	0	38	55835	-999999	0																																																	1	InitialTR	1	4	ReadyList	1	4	11	75187	-12	77175	0	4
WM080112	100307_fnca	1	1	1	83461355	1	75.031	75.031	2.0.10.147	2.0.10.242	2.0.10.242	1.0.0.439	7	234	2	3	Verdana	1	80	0	0	0	WM Stimuli\	0.6	1024	0.9	853.444444444444	1	811.3	1	728.4	0.9	935.555555555556	1	766.9	0.8	822	0.7	1068.28571428571	12	362403	3	362392	27	39	362430	-999999	362406	0	2	Cue2BackPROC	""	1	2	2	SessionSelectionList									10	77186	-11	0																																													2												
WM080112	100307_fnca	1	1	1	83461355	1	75.031	75.031	2.0.10.147	2.0.10.242	2.0.10.242	1.0.0.439	7	234	2	3	Verdana	1	80	0	0	0	WM Stimuli\	0.6	1024	0.9	853.444444444444	1	811.3	1	728.4	0.9	935.555555555556	1	766.9	0.8	822	0.7	1068.28571428571	12	362403	3	362392	27	39	362430	-999999	362406	0	3	TrialsPROC	BP_002_BP10_BA.png	1	2	3	SessionSelectionList													1	nonlure	3	Body	2-Back	2	80	1	0	0	0	1	52	81810	3	14	82	79758	-1	80248	1	490	3	3	2052	66	81824	-67	0																3												
WM080112	100307_fnca	1	1	1	83461355	1	75.031	75.031	2.0.10.147	2.0.10.242	2.0.10.242	1.0.0.439	7	234	2	3	Verdana	1	80	0	0	0	WM Stimuli\	0.6	1024	0.9	853.444444444444	1	811.3	1	728.4	0.9	935.555555555556	1	766.9	0.8	822	0.7	1068.28571428571	12	362403	3	362392	27	39	362430	-999999	362406	0	3	TrialsPROC	BP_001_BP1_BA.png	1	2	4	SessionSelectionList													2	nonlure	3	Body	2-Back	3	80	2	0	0	0	2	39	84369	3	14	72	82330	-1	83331	1	1001	3	3	2039	53	84383	-54	0																4												
WM080112	100307_fnca	1	1	1	83461355	1	75.031	75.031	2.0.10.147	2.0.10.242	2.0.10.242	1.0.0.439	7	234	2	3	Verdana	1	80	0	0	0	WM Stimuli\	0.6	1024	0.9	853.444444444444	1	811.3	1	728.4	0.9	935.555555555556	1	766.9	0.8	822	0.7	1068.28571428571	12	362403	3	362392	27	39	362430	-999999	362406	0	3	TrialsPROC	BP_006_BP2_BA.png	1	2	5	SessionSelectionList													3	nonlure	3	Body	2-Back	4	80	3	0	0	0	3	39	86928	2	14	59	84889	-1	86186	1	1297	3	3	2039	53	86942	-54	0																5												
WM080112	100307_fnca	1	1	1	83461355	1	75.031	75.031	2.0.10.147	2.0.10.242	2.0.10.242	1.0.0.439	7	234	2	3	Verdana	1	80	0	0	0	WM Stimuli\	0.6	1024	0.9	853.444444444444	1	811.3	1	728.4	0.9	935.555555555556	1	766.9	0.8	822	0.7	1068.28571428571	12	362403	3	362392	27	39	362430	-999999	362406	0	3	TrialsPROC	BP_001_BP1_BA.png	1	2	6	SessionSelectionList													4	target	2	Body	2-Back	5	80	4	0	0	0	4	39	89501	1	13	73	87462	-1	88956	0	1494	3	2	2039	52	89514	-53	0																6												
WM080112	100307_fnca	1	1	1	83461355	1	75.031	75.031	2.0.10.147	2.0.10.242	2.0.10.242	1.0.0.439	7	234	2	3	Verdana	1	80	0	0	0	WM Stimuli\	0.6	1024	0.9	853.444444444444	1	811.3	1	728.4	0.9	935.555555555556	1	766.9	0.8	822	0.7	1068.28571428571	12	362403	3	362392	27	39	362430	-999999	362406	0	3	TrialsPROC	BP_005_BP19_BA.png	1	2	7	SessionSelectionList													5	nonlure	3	Body	2-Back	6	80	5	0	0	0	5	39	92073	1	14	72	90034	-1	91146	1	1112	3	3	2039	53	92087	-54	0																7												
WM080112	100307_fnca	1	1	1	83461355	1	75.031	75.031	2.0.10.147	2.0.10.242	2.0.10.242	1.0.0.439	7	234	2	3	Verdana	1	80	0	0	0	WM Stimuli\	0.6	1024	0.9	853.444444444444	1	811.3	1	728.4	0.9	935.555555555556	1	766.9	0.8	822	0.7	1068.28571428571	12	362403	3	362392	27	39	362430	-999999	362406	0	3	TrialsPROC	BP_003_BP16_BA.png	1	2	8	SessionSelectionList													6	nonlure	3	Body	2-Back	7	80	6	0	0	0	6	39	94632	1	14	59	92593	-1	94038	1	1445	3	3	2039	53	94646	-54	0																8												
WM080112	100307_fnca	1	1	1	83461355	1	75.031	75.031	2.0.10.147	2.0.10.242	2.0.10.242	1.0.0.439	7	234	2	3	Verdana	1	80	0	0	0	WM Stimuli\	0.6	1024	0.9	853.444444444444	1	811.3	1	728.4	0.9	935.555555555556	1	766.9	0.8	822	0.7	1068.28571428571	12	362403	3	362392	27	39	362430	-999999	362406	0	3	TrialsPROC	BP_006_BP2_BA.png	1	2	9	SessionSelectionList													7	lure	3	Body	2-Back	8	80	7	0	0	0	1	39	97191	1	14	59	95152	-1	96474	0	1322	2	3	2039	53	97205	-54	0																9												
WM080112	100307_fnca	1	1	1	83461355	1	75.031	75.031	2.0.10.147	2.0.10.242	2.0.10.242	1.0.0.439	7	234	2	3	Verdana	1	80	0	0	0	WM Stimuli\	0.6	1024	0.9	853.444444444444	1	811.3	1	728.4	0.9	935.555555555556	1	766.9	0.8	822	0.7	1068.28571428571	12	362403	3	362392	27	39	362430	-999999	362406	0	3	TrialsPROC	BP_004_BP18_BA.png	1	2	10	SessionSelectionList													8	nonlure	3	Body	2-Back	9	80	8	0	0	0	1	39	99750	1	14	59	97711	-1	98510	1	799	3	3	2039	53	99764	-54	0																10												
WM080112	100307_fnca	1	1	1	83461355	1	75.031	75.031	2.0.10.147	2.0.10.242	2.0.10.242	1.0.0.439	7	234	2	3	Verdana	1	80	0	0	0	WM Stimuli\	0.6	1024	0.9	853.444444444444	1	811.3	1	728.4	0.9	935.555555555556	1	766.9	0.8	822	0.7	1068.28571428571	12	362403	3	362392	27	39	362430	-999999	362406	0	3	TrialsPROC	BP_005_BP19_BA.png	1	2	11	SessionSelectionList													9	lure	3	Body	2-Back	10	80	9	0	0	0	1	39	102309	1	14	59	100270	-1	101455	0	1185	2	3	2039	53	102323	-54	0																11												
WM080112	100307_fnca	1	1	1	83461355	1	75.031	75.031	2.0.10.147	2.0.10.242	2.0.10.242	1.0.0.439	7	234	2	3	Verdana	1	80	0	0	0	WM Stimuli\	0.6	1024	0.9	853.444444444444	1	811.3	1	728.4	0.9	935.555555555556	1	766.9	0.8	822	0.7	1068.28571428571	12	362403	3	362392	27	39	362430	-999999	362406	0	3	TrialsPROC	BP_004_BP18_BA.png	1	2	12	SessionSelectionList													10	target	2	Body	2-Back	11	80	10	0	0	0	1	39	104868	1	13	59	102829	-1	104110	0	1281	3	2	2039	52	104881	-53	0																12												
WM080112	100307_fnca	1	1	1	83461355	1	75.031	75.031	2.0.10.147	2.0.10.242	2.0.10.242	1.0.0.439	7	234	2	3	Verdana	1	80	0	0	0	WM Stimuli\	0.6	1024	0.9	853.444444444444	1	811.3	1	728.4	0.9	935.555555555556	1	766.9	0.8	822	0.7	1068.28571428571	12	362403	3	362392	27	39	362430	-999999	362406	0	4	Cue0BackPROC	FC_001_M1.png	1	2	13	SessionSelectionList																																										19	105348	-20	0												13												
WM080112	100307_fnca	1	1	1	83461355	1	75.031	75.031	2.0.10.147	2.0.10.242	2.0.10.242	1.0.0.439	7	234	2	3	Verdana	1	80	0	0	0	WM Stimuli\	0.6	1024	0.9	853.444444444444	1	811.3	1	728.4	0.9	935.555555555556	1	766.9	0.8	822	0.7	1068.28571428571	12	362403	3	362392	27	39	362430	-999999	362406	0	5	TrialsPROC	FC_005_M3.png	1	2	14	SessionSelectionList														nonlure	3	Face	0-Back	12	80	11	0	0	100	2	39	109932	2	14	64	107893	-1	108643	1	750	3	3	2039	53	109946	-54	0					1											14												
WM080112	100307_fnca	1	1	1	83461355	1	75.031	75.031	2.0.10.147	2.0.10.242	2.0.10.242	1.0.0.439	7	234	2	3	Verdana	1	80	0	0	0	WM Stimuli\	0.6	1024	0.9	853.444444444444	1	811.3	1	728.4	0.9	935.555555555556	1	766.9	0.8	822	0.7	1068.28571428571	12	362403	3	362392	27	39	362430	-999999	362406	0	5	TrialsPROC	FC_001_M1.png	1	2	15	SessionSelectionList														target	2	Face	0-Back	13	80	12	0	0	100	1	39	112505	1	13	73	110466	-1	111139	1	673	2	2	2039	52	112518	-53	0					2											15												
WM080112	100307_fnca	1	1	1	83461355	1	75.031	75.031	2.0.10.147	2.0.10.242	2.0.10.242	1.0.0.439	7	234	2	3	Verdana	1	80	0	0	0	WM Stimuli\	0.6	1024	0.9	853.444444444444	1	811.3	1	728.4	0.9	935.555555555556	1	766.9	0.8	822	0.7	1068.28571428571	12	362403	3	362392	27	39	362430	-999999	362406	0	5	TrialsPROC	FC_003_M2.png	1	2	16	SessionSelectionList														nonlure	3	Face	0-Back	14	80	13	0	0	100	1	39	115077	1	14	72	113038	-1	114217	1	1179	3	3	2039	53	115091	-54	0					3											16												
WM080112	100307_fnca	1	1	1	83461355	1	75.031	75.031	2.0.10.147	2.0.10.242	2.0.10.242	1.0.0.439	7	234	2	3	Verdana	1	80	0	0	0	WM Stimuli\	0.6	1024	0.9	853.444444444444	1	811.3	1	728.4	0.9	935.555555555556	1	766.9	0.8	822	0.7	1068.28571428571	12	362403	3	362392	27	39	362430	-999999	362406	0	5	TrialsPROC	FC_004_F2.png	1	2	17	SessionSelectionList														nonlure	3	Face	0-Back	15	80	14	0	0	100	2	39	117649	2	14	72	115610	-1	116358	1	748	3	3	2039	53	117663	-54	0					4											17												
WM080112	100307_fnca	1	1	1	83461355	1	75.031	75.031	2.0.10.147	2.0.10.242	2.0.10.242	1.0.0.439	7	234	2	3	Verdana	1	80	0	0	0	WM Stimuli\	0.6	1024	0.9	853.444444444444	1	811.3	1	728.4	0.9	935.555555555556	1	766.9	0.8	822	0.7	1068.28571428571	12	362403	3	362392	27	39	362430	-999999	362406	0	5	TrialsPROC	FC_004_F2.png	1	2	18	SessionSelectionList														lure	3	Face	0-Back	16	80	15	0	0	100	3	40	120222	1	13	72	118182	-1	118907	1	725	3	3	2040	53	120235	-54	0					5											18												
WM080112	100307_fnca	1	1	1	83461355	1	75.031	75.031	2.0.10.147	2.0.10.242	2.0.10.242	1.0.0.439	7	234	2	3	Verdana	1	80	0	0	0	WM Stimuli\	0.6	1024	0.9	853.444444444444	1	811.3	1	728.4	0.9	935.555555555556	1	766.9	0.8	822	0.7	1068.28571428571	12	362403	3	362392	27	39	362430	-999999	362406	0	5	TrialsPROC	FC_001_M1.png	1	2	19	SessionSelectionList														target	2	Face	0-Back	17	80	16	0	0	100	1	39	122794	1	14	73	120755	-1	121362	1	607	2	2	2039	53	122808	-54	0					6											19												
WM080112	100307_fnca	1	1	1	83461355	1	75.031	75.031	2.0.10.147	2.0.10.242	2.0.10.242	1.0.0.439	7	234	2	3	Verdana	1	80	0	0	0	WM Stimuli\	0.6	1024	0.9	853.444444444444	1	811.3	1	728.4	0.9	935.555555555556	1	766.9	0.8	822	0.7	1068.28571428571	12	362403	3	362392	27	39	362430	-999999	362406	0	5	TrialsPROC	FC_006_F3.png	1	2	20	SessionSelectionList														nonlure	3	Face	0-Back	18	80	17	0	0	100	1	39	125366	2	14	72	123327	-1	123957	1	630	3	3	2039	53	125380	-54	0					7											20												
WM080112	100307_fnca	1	1	1	83461355	1	75.031	75.031	2.0.10.147	2.0.10.242	2.0.10.242	1.0.0.439	7	234	2	3	Verdana	1	80	0	0	0	WM Stimuli\	0.6	1024	0.9	853.444444444444	1	811.3	1	728.4	0.9	935.555555555556	1	766.9	0.8	822	0.7	1068.28571428571	12	362403	3	362392	27	39	362430	-999999	362406	0	5	TrialsPROC	FC_006_F3.png	1	2	21	SessionSelectionList														lure	3	Face	0-Back	19	80	18	0	0	100	2	39	127938	2	14	72	125899	-1	126470	1	571	3	3	2039	53	127952	-54	0					8											21												
WM080112	100307_fnca	1	1	1	83461355	1	75.031	75.031	2.0.10.147	2.0.10.242	2.0.10.242	1.0.0.439	7	234	2	3	Verdana	1	80	0	0	0	WM Stimuli\	0.6	1024	0.9	853.444444444444	1	811.3	1	728.4	0.9	935.555555555556	1	766.9	0.8	822	0.7	1068.28571428571	12	362403	3	362392	27	39	362430	-999999	362406	0	5	TrialsPROC	FC_003_M2.png	1	2	22	SessionSelectionList														lure	3	Face	0-Back	20	80	19	0	0	100	3	39	130511	1	13	73	128472	-1	129224	1	752	3	3	2039	52	130524	-53	0					9											22												
WM080112	100307_fnca	1	1	1	83461355	1	75.031	75.031	2.0.10.147	2.0.10.242	2.0.10.242	1.0.0.439	7	234	2	3	Verdana	1	80	0	0	0	WM Stimuli\	0.6	1024	0.9	853.444444444444	1	811.3	1	728.4	0.9	935.555555555556	1	766.9	0.8	822	0.7	1068.28571428571	12	362403	3	362392	27	39	362430	-999999	362406	0	5	TrialsPROC	FC_002_F1.png	1	2	23	SessionSelectionList														nonlure	3	Face	0-Back	21	80	20	0	0	100	4	39	133083	2	14	72	131044	-1	131693	1	649	3	3	2039	53	133097	-54	0					10											23												
WM080112	100307_fnca	1	1	1	83461355	1	75.031	75.031	2.0.10.147	2.0.10.242	2.0.10.242	1.0.0.439	7	234	2	3	Verdana	1	80	0	0	0	WM Stimuli\	0.6	1024	0.9	853.444444444444	1	811.3	1	728.4	0.9	935.555555555556	1	766.9	0.8	822	0.7	1068.28571428571	12	362403	3	362392	27	39	362430	-999999	362406	0	6	Fix15secPROC	""	1	2	24	SessionSelectionList																																															6	133550	-7	0							24												
WM080112	100307_fnca	1	1	1	83461355	1	75.031	75.031	2.0.10.147	2.0.10.242	2.0.10.242	1.0.0.439	7	234	2	3	Verdana	1	80	0	0	0	WM Stimuli\	0.6	1024	0.9	853.444444444444	1	811.3	1	728.4	0.9	935.555555555556	1	766.9	0.8	822	0.7	1068.28571428571	12	362403	3	362392	27	39	362430	-999999	362406	0	7	Cue2BackPROC	""	1	2	25	SessionSelectionList									13	148557	-14	0																																													25												
WM080112	100307_fnca	1	1	1	83461355	1	75.031	75.031	2.0.10.147	2.0.10.242	2.0.10.242	1.0.0.439	7	234	2	3	Verdana	1	80	0	0	0	WM Stimuli\	0.6	1024	0.9	853.444444444444	1	811.3	1	728.4	0.9	935.555555555556	1	766.9	0.8	822	0.7	1068.28571428571	12	362403	3	362392	27	39	362430	-999999	362406	0	8	TrialsPROC	TO_001_TOOL1_BA.png	1	2	26	SessionSelectionList														nonlure	3	Tools	2-Back	22	80	21	0	0	100	5	40	153142	1	13	58	151102	-1	151652	1	550	3	3	2040	53	153155	-54	0										1						26												
WM080112	100307_fnca	1	1	1	83461355	1	75.031	75.031	2.0.10.147	2.0.10.242	2.0.10.242	1.0.0.439	7	234	2	3	Verdana	1	80	0	0	0	WM Stimuli\	0.6	1024	0.9	853.444444444444	1	811.3	1	728.4	0.9	935.555555555556	1	766.9	0.8	822	0.7	1068.28571428571	12	362403	3	362392	27	39	362430	-999999	362406	0	8	TrialsPROC	TO_002_TOOL2_BA.png	1	2	27	SessionSelectionList														nonlure	3	Tools	2-Back	23	80	22	0	0	100	6	40	155701	1	13	59	153661	-1	154263	1	602	3	3	2040	53	155714	-54	0										2						27												
WM080112	100307_fnca	1	1	1	83461355	1	75.031	75.031	2.0.10.147	2.0.10.242	2.0.10.242	1.0.0.439	7	234	2	3	Verdana	1	80	0	0	0	WM Stimuli\	0.6	1024	0.9	853.444444444444	1	811.3	1	728.4	0.9	935.555555555556	1	766.9	0.8	822	0.7	1068.28571428571	12	362403	3	362392	27	39	362430	-999999	362406	0	8	TrialsPROC	TO_004_TOOL4_BA.png	1	2	28	SessionSelectionList														nonlure	3	Tools	2-Back	24	80	23	0	0	100	7	39	158259	2	14	59	156220	-1	157196	1	976	3	3	2039	53	158273	-54	0										3						28												
WM080112	100307_fnca	1	1	1	83461355	1	75.031	75.031	2.0.10.147	2.0.10.242	2.0.10.242	1.0.0.439	7	234	2	3	Verdana	1	80	0	0	0	WM Stimuli\	0.6	1024	0.9	853.444444444444	1	811.3	1	728.4	0.9	935.555555555556	1	766.9	0.8	822	0.7	1068.28571428571	12	362403	3	362392	27	39	362430	-999999	362406	0	8	TrialsPROC	TO_002_TOOL2_BA.png	1	2	29	SessionSelectionList														target	2	Tools	2-Back	25	80	24	0	0	100	1	39	160818	2	14	59	158779	-1	159505	1	726	2	2	2039	53	160832	-54	0										4						29												
WM080112	100307_fnca	1	1	1	83461355	1	75.031	75.031	2.0.10.147	2.0.10.242	2.0.10.242	1.0.0.439	7	234	2	3	Verdana	1	80	0	0	0	WM Stimuli\	0.6	1024	0.9	853.444444444444	1	811.3	1	728.4	0.9	935.555555555556	1	766.9	0.8	822	0.7	1068.28571428571	12	362403	3	362392	27	39	362430	-999999	362406	0	8	TrialsPROC	TO_001_TOOL1_BA.png	1	2	30	SessionSelectionList														lure	3	Tools	2-Back	26	80	25	0	0	100	2	39	163377	2	14	59	161338	-1	162410	0	1072	2	3	2039	53	163391	-54	0										5						30												
WM080112	100307_fnca	1	1	1	83461355	1	75.031	75.031	2.0.10.147	2.0.10.242	2.0.10.242	1.0.0.439	7	234	2	3	Verdana	1	80	0	0	0	WM Stimuli\	0.6	1024	0.9	853.444444444444	1	811.3	1	728.4	0.9	935.555555555556	1	766.9	0.8	822	0.7	1068.28571428571	12	362403	3	362392	27	39	362430	-999999	362406	0	8	TrialsPROC	TO_004_TOOL4_BA.png	1	2	31	SessionSelectionList														lure	3	Tools	2-Back	27	80	25	0	1	100	2	39	165936	2	14	59	163897	-1	0	0	0	""	3	2039	53	165950	-54	0										6						31												
WM080112	100307_fnca	1	1	1	83461355	1	75.031	75.031	2.0.10.147	2.0.10.242	2.0.10.242	1.0.0.439	7	234	2	3	Verdana	1	80	0	0	0	WM Stimuli\	0.6	1024	0.9	853.444444444444	1	811.3	1	728.4	0.9	935.555555555556	1	766.9	0.8	822	0.7	1068.28571428571	12	362403	3	362392	27	39	362430	-999999	362406	0	8	TrialsPROC	TO_006_TOOL6_BA.png	1	2	32	SessionSelectionList														nonlure	3	Tools	2-Back	28	80	26	0	0	100	1	39	168495	2	14	59	166456	-1	167968	1	1512	3	3	2039	53	168509	-54	0										7						32												
WM080112	100307_fnca	1	1	1	83461355	1	75.031	75.031	2.0.10.147	2.0.10.242	2.0.10.242	1.0.0.439	7	234	2	3	Verdana	1	80	0	0	0	WM Stimuli\	0.6	1024	0.9	853.444444444444	1	811.3	1	728.4	0.9	935.555555555556	1	766.9	0.8	822	0.7	1068.28571428571	12	362403	3	362392	27	39	362430	-999999	362406	0	8	TrialsPROC	TO_005_TOOL5_BA.png	1	2	33	SessionSelectionList														nonlure	3	Tools	2-Back	29	80	27	0	0	100	2	39	171054	2	14	59	169015	-1	169851	1	836	3	3	2039	53	171068	-54	0										8						33												
WM080112	100307_fnca	1	1	1	83461355	1	75.031	75.031	2.0.10.147	2.0.10.242	2.0.10.242	1.0.0.439	7	234	2	3	Verdana	1	80	0	0	0	WM Stimuli\	0.6	1024	0.9	853.444444444444	1	811.3	1	728.4	0.9	935.555555555556	1	766.9	0.8	822	0.7	1068.28571428571	12	362403	3	362392	27	39	362430	-999999	362406	0	8	TrialsPROC	TO_006_TOOL6_BA.png	1	2	34	SessionSelectionList														target	2	Tools	2-Back	30	80	28	0	0	100	1	39	173613	2	14	59	171574	-1	172280	1	706	2	2	2039	53	173627	-54	0										9						34												
WM080112	100307_fnca	1	1	1	83461355	1	75.031	75.031	2.0.10.147	2.0.10.242	2.0.10.242	1.0.0.439	7	234	2	3	Verdana	1	80	0	0	0	WM Stimuli\	0.6	1024	0.9	853.444444444444	1	811.3	1	728.4	0.9	935.555555555556	1	766.9	0.8	822	0.7	1068.28571428571	12	362403	3	362392	27	39	362430	-999999	362406	0	8	TrialsPROC	TO_003_TOOL3_BA.png	1	2	35	SessionSelectionList														nonlure	3	Tools	2-Back	31	80	29	0	0	100	1	39	176172	2	14	59	174133	-1	174801	1	668	3	3	2039	53	176186	-54	0										10						35												
WM080112	100307_fnca	1	1	1	83461355	1	75.031	75.031	2.0.10.147	2.0.10.242	2.0.10.242	1.0.0.439	7	234	2	3	Verdana	1	80	0	0	0	WM Stimuli\	0.6	1024	0.9	853.444444444444	1	811.3	1	728.4	0.9	935.555555555556	1	766.9	0.8	822	0.7	1068.28571428571	12	362403	3	362392	27	39	362430	-999999	362406	0	9	Cue0BackPROC	BP_007_BP20_BA.png	1	2	36	SessionSelectionList																																										19	176652	-20	0												36												
WM080112	100307_fnca	1	1	1	83461355	1	75.031	75.031	2.0.10.147	2.0.10.242	2.0.10.242	1.0.0.439	7	234	2	3	Verdana	1	80	0	0	0	WM Stimuli\	0.6	1024	0.9	853.444444444444	1	811.3	1	728.4	0.9	935.555555555556	1	766.9	0.8	822	0.7	1068.28571428571	12	362403	3	362392	27	39	362430	-999999	362406	0	10	TrialsPROC	BP_007_BP20_BA.png	1	2	37	SessionSelectionList														target	2	Body	0-Back	32	80	30	0	0	100	1	40	181224	1	13	51	179184	-1	180277	1	1093	2	2	2040	53	181237	-54	0											1					37												
WM080112	100307_fnca	1	1	1	83461355	1	75.031	75.031	2.0.10.147	2.0.10.242	2.0.10.242	1.0.0.439	7	234	2	3	Verdana	1	80	0	0	0	WM Stimuli\	0.6	1024	0.9	853.444444444444	1	811.3	1	728.4	0.9	935.555555555556	1	766.9	0.8	822	0.7	1068.28571428571	12	362403	3	362392	27	39	362430	-999999	362406	0	10	TrialsPROC	BP_011_BP4_BA.png	1	2	38	SessionSelectionList														nonlure	3	Body	0-Back	33	80	31	0	0	100	1	39	183783	1	13	60	181744	-1	182315	1	571	3	3	2039	52	183796	-53	0											2					38												
WM080112	100307_fnca	1	1	1	83461355	1	75.031	75.031	2.0.10.147	2.0.10.242	2.0.10.242	1.0.0.439	7	234	2	3	Verdana	1	80	0	0	0	WM Stimuli\	0.6	1024	0.9	853.444444444444	1	811.3	1	728.4	0.9	935.555555555556	1	766.9	0.8	822	0.7	1068.28571428571	12	362403	3	362392	27	39	362430	-999999	362406	0	10	TrialsPROC	BP_010_BP3_BA.png	1	2	39	SessionSelectionList														nonlure	3	Body	0-Back	34	80	32	0	0	100	2	39	186341	2	14	58	184302	-1	185187	1	885	3	3	2039	53	186355	-54	0											3					39												
WM080112	100307_fnca	1	1	1	83461355	1	75.031	75.031	2.0.10.147	2.0.10.242	2.0.10.242	1.0.0.439	7	234	2	3	Verdana	1	80	0	0	0	WM Stimuli\	0.6	1024	0.9	853.444444444444	1	811.3	1	728.4	0.9	935.555555555556	1	766.9	0.8	822	0.7	1068.28571428571	12	362403	3	362392	27	39	362430	-999999	362406	0	10	TrialsPROC	BP_008_BP21_BA.png	1	2	40	SessionSelectionList														nonlure	3	Body	0-Back	35	80	33	0	0	100	3	39	188900	2	14	59	186861	-1	187759	1	898	3	3	2039	53	188914	-54	0											4					40												
WM080112	100307_fnca	1	1	1	83461355	1	75.031	75.031	2.0.10.147	2.0.10.242	2.0.10.242	1.0.0.439	7	234	2	3	Verdana	1	80	0	0	0	WM Stimuli\	0.6	1024	0.9	853.444444444444	1	811.3	1	728.4	0.9	935.555555555556	1	766.9	0.8	822	0.7	1068.28571428571	12	362403	3	362392	27	39	362430	-999999	362406	0	10	TrialsPROC	BP_011_BP4_BA.png	1	2	41	SessionSelectionList														lure	3	Body	0-Back	36	80	34	0	0	93	1	39	191459	2	14	59	189420	-1	190272	0	852	2	3	2039	53	191473	-54	0											5					41												
WM080112	100307_fnca	1	1	1	83461355	1	75.031	75.031	2.0.10.147	2.0.10.242	2.0.10.242	1.0.0.439	7	234	2	3	Verdana	1	80	0	0	0	WM Stimuli\	0.6	1024	0.9	853.444444444444	1	811.3	1	728.4	0.9	935.555555555556	1	766.9	0.8	822	0.7	1068.28571428571	12	362403	3	362392	27	39	362430	-999999	362406	0	10	TrialsPROC	BP_009_BP22_BA.png	1	2	42	SessionSelectionList														nonlure	3	Body	0-Back	37	80	35	0	0	94	1	39	194018	2	14	59	191979	-1	192753	1	774	3	3	2039	53	194032	-54	0											6					42												
WM080112	100307_fnca	1	1	1	83461355	1	75.031	75.031	2.0.10.147	2.0.10.242	2.0.10.242	1.0.0.439	7	234	2	3	Verdana	1	80	0	0	0	WM Stimuli\	0.6	1024	0.9	853.444444444444	1	811.3	1	728.4	0.9	935.555555555556	1	766.9	0.8	822	0.7	1068.28571428571	12	362403	3	362392	27	39	362430	-999999	362406	0	10	TrialsPROC	BP_009_BP22_BA.png	1	2	43	SessionSelectionList														lure	3	Body	0-Back	38	80	36	0	0	94	2	39	196577	2	14	59	194538	-1	195351	1	813	3	3	2039	53	196591	-54	0											7					43												
WM080112	100307_fnca	1	1	1	83461355	1	75.031	75.031	2.0.10.147	2.0.10.242	2.0.10.242	1.0.0.439	7	234	2	3	Verdana	1	80	0	0	0	WM Stimuli\	0.6	1024	0.9	853.444444444444	1	811.3	1	728.4	0.9	935.555555555556	1	766.9	0.8	822	0.7	1068.28571428571	12	362403	3	362392	27	39	362430	-999999	362406	0	10	TrialsPROC	BP_008_BP21_BA.png	1	2	44	SessionSelectionList														lure	3	Body	0-Back	39	80	37	0	0	94	3	39	199136	2	14	59	197097	-1	197901	1	804	3	3	2039	53	199150	-54	0											8					44												
WM080112	100307_fnca	1	1	1	83461355	1	75.031	75.031	2.0.10.147	2.0.10.242	2.0.10.242	1.0.0.439	7	234	2	3	Verdana	1	80	0	0	0	WM Stimuli\	0.6	1024	0.9	853.444444444444	1	811.3	1	728.4	0.9	935.555555555556	1	766.9	0.8	822	0.7	1068.28571428571	12	362403	3	362392	27	39	362430	-999999	362406	0	10	TrialsPROC	BP_007_BP20_BA.png	1	2	45	SessionSelectionList														target	2	Body	0-Back	40	80	38	0	0	95	1	39	201695	2	14	59	199656	-1	200660	1	1004	2	2	2039	53	201709	-54	0											9					45												
WM080112	100307_fnca	1	1	1	83461355	1	75.031	75.031	2.0.10.147	2.0.10.242	2.0.10.242	1.0.0.439	7	234	2	3	Verdana	1	80	0	0	0	WM Stimuli\	0.6	1024	0.9	853.444444444444	1	811.3	1	728.4	0.9	935.555555555556	1	766.9	0.8	822	0.7	1068.28571428571	12	362403	3	362392	27	39	362430	-999999	362406	0	10	TrialsPROC	BP_012_BP5_BA.png	1	2	46	SessionSelectionList														nonlure	3	Body	0-Back	41	80	39	0	0	95	1	39	204254	2	14	59	202215	-1	203054	1	839	3	3	2039	53	204268	-54	0											10					46												
WM080112	100307_fnca	1	1	1	83461355	1	75.031	75.031	2.0.10.147	2.0.10.242	2.0.10.242	1.0.0.439	7	234	2	3	Verdana	1	80	0	0	0	WM Stimuli\	0.6	1024	0.9	853.444444444444	1	811.3	1	728.4	0.9	935.555555555556	1	766.9	0.8	822	0.7	1068.28571428571	12	362403	3	362392	27	39	362430	-999999	362406	0	11	Fix15secPROC	""	1	2	47	SessionSelectionList																																															6	204721	-7	0							47												
WM080112	100307_fnca	1	1	1	83461355	1	75.031	75.031	2.0.10.147	2.0.10.242	2.0.10.242	1.0.0.439	7	234	2	3	Verdana	1	80	0	0	0	WM Stimuli\	0.6	1024	0.9	853.444444444444	1	811.3	1	728.4	0.9	935.555555555556	1	766.9	0.8	822	0.7	1068.28571428571	12	362403	3	362392	27	39	362430	-999999	362406	0	12	Cue0BackPROC	PL_001_92012.png	1	2	48	SessionSelectionList																																										13	219728	-14	0												48												
WM080112	100307_fnca	1	1	1	83461355	1	75.031	75.031	2.0.10.147	2.0.10.242	2.0.10.242	1.0.0.439	7	234	2	3	Verdana	1	80	0	0	0	WM Stimuli\	0.6	1024	0.9	853.444444444444	1	811.3	1	728.4	0.9	935.555555555556	1	766.9	0.8	822	0.7	1068.28571428571	12	362403	3	362392	27	39	362430	-999999	362406	0	13	TrialsPROC	PL_003_92016.png	1	2	49	SessionSelectionList														nonlure	3	Place	0-Back	42	80	40	0	0	95	2	39	224326	2	14	72	222287	-1	223075	1	788	3	3	2039	53	224340	-54	0												1				49												
WM080112	100307_fnca	1	1	1	83461355	1	75.031	75.031	2.0.10.147	2.0.10.242	2.0.10.242	1.0.0.439	7	234	2	3	Verdana	1	80	0	0	0	WM Stimuli\	0.6	1024	0.9	853.444444444444	1	811.3	1	728.4	0.9	935.555555555556	1	766.9	0.8	822	0.7	1068.28571428571	12	362403	3	362392	27	39	362430	-999999	362406	0	13	TrialsPROC	PL_003_92016.png	1	2	50	SessionSelectionList														lure	3	Place	0-Back	43	80	41	0	0	95	3	39	226898	2	14	72	224859	-1	225566	1	707	3	3	2039	53	226912	-54	0												2				50												
WM080112	100307_fnca	1	1	1	83461355	1	75.031	75.031	2.0.10.147	2.0.10.242	2.0.10.242	1.0.0.439	7	234	2	3	Verdana	1	80	0	0	0	WM Stimuli\	0.6	1024	0.9	853.444444444444	1	811.3	1	728.4	0.9	935.555555555556	1	766.9	0.8	822	0.7	1068.28571428571	12	362403	3	362392	27	39	362430	-999999	362406	0	13	TrialsPROC	PL_006_92025.png	1	2	51	SessionSelectionList														nonlure	3	Place	0-Back	44	80	42	0	0	96	4	40	229471	1	13	72	227431	-1	228288	1	857	3	3	2040	53	229484	-54	0												3				51												
WM080112	100307_fnca	1	1	1	83461355	1	75.031	75.031	2.0.10.147	2.0.10.242	2.0.10.242	1.0.0.439	7	234	2	3	Verdana	1	80	0	0	0	WM Stimuli\	0.6	1024	0.9	853.444444444444	1	811.3	1	728.4	0.9	935.555555555556	1	766.9	0.8	822	0.7	1068.28571428571	12	362403	3	362392	27	39	362430	-999999	362406	0	13	TrialsPROC	PL_001_92012.png	1	2	52	SessionSelectionList														target	2	Place	0-Back	45	80	43	0	0	96	1	39	232043	1	14	73	230004	-1	231033	1	1029	2	2	2039	53	232057	-54	0												4				52												
WM080112	100307_fnca	1	1	1	83461355	1	75.031	75.031	2.0.10.147	2.0.10.242	2.0.10.242	1.0.0.439	7	234	2	3	Verdana	1	80	0	0	0	WM Stimuli\	0.6	1024	0.9	853.444444444444	1	811.3	1	728.4	0.9	935.555555555556	1	766.9	0.8	822	0.7	1068.28571428571	12	362403	3	362392	27	39	362430	-999999	362406	0	13	TrialsPROC	PL_004_92023.png	1	2	53	SessionSelectionList														nonlure	3	Place	0-Back	46	80	44	0	0	96	1	39	234615	2	14	72	232576	-1	233225	1	649	3	3	2039	53	234629	-54	0												5				53												
WM080112	100307_fnca	1	1	1	83461355	1	75.031	75.031	2.0.10.147	2.0.10.242	2.0.10.242	1.0.0.439	7	234	2	3	Verdana	1	80	0	0	0	WM Stimuli\	0.6	1024	0.9	853.444444444444	1	811.3	1	728.4	0.9	935.555555555556	1	766.9	0.8	822	0.7	1068.28571428571	12	362403	3	362392	27	39	362430	-999999	362406	0	13	TrialsPROC	PL_005_92024.png	1	2	54	SessionSelectionList														nonlure	3	Place	0-Back	47	80	45	0	0	96	2	40	237188	1	13	72	235148	-1	236059	1	911	3	3	2040	53	237201	-54	0												6				54												
WM080112	100307_fnca	1	1	1	83461355	1	75.031	75.031	2.0.10.147	2.0.10.242	2.0.10.242	1.0.0.439	7	234	2	3	Verdana	1	80	0	0	0	WM Stimuli\	0.6	1024	0.9	853.444444444444	1	811.3	1	728.4	0.9	935.555555555556	1	766.9	0.8	822	0.7	1068.28571428571	12	362403	3	362392	27	39	362430	-999999	362406	0	13	TrialsPROC	PL_001_92012.png	1	2	55	SessionSelectionList														target	2	Place	0-Back	48	80	46	0	0	96	1	39	239760	1	14	73	237721	-1	238494	1	773	2	2	2039	53	239774	-54	0												7				55												
WM080112	100307_fnca	1	1	1	83461355	1	75.031	75.031	2.0.10.147	2.0.10.242	2.0.10.242	1.0.0.439	7	234	2	3	Verdana	1	80	0	0	0	WM Stimuli\	0.6	1024	0.9	853.444444444444	1	811.3	1	728.4	0.9	935.555555555556	1	766.9	0.8	822	0.7	1068.28571428571	12	362403	3	362392	27	39	362430	-999999	362406	0	13	TrialsPROC	PL_002_92014.png	1	2	56	SessionSelectionList														nonlure	3	Place	0-Back	49	80	47	0	0	96	1	39	242319	1	13	59	240280	-1	240869	1	589	3	3	2039	52	242332	-53	0												8				56												
WM080112	100307_fnca	1	1	1	83461355	1	75.031	75.031	2.0.10.147	2.0.10.242	2.0.10.242	1.0.0.439	7	234	2	3	Verdana	1	80	0	0	0	WM Stimuli\	0.6	1024	0.9	853.444444444444	1	811.3	1	728.4	0.9	935.555555555556	1	766.9	0.8	822	0.7	1068.28571428571	12	362403	3	362392	27	39	362430	-999999	362406	0	13	TrialsPROC	PL_004_92023.png	1	2	57	SessionSelectionList														lure	3	Place	0-Back	50	80	48	0	0	97	2	39	244878	1	13	59	242839	-1	243511	1	672	3	3	2039	52	244891	-53	0												9				57												
WM080112	100307_fnca	1	1	1	83461355	1	75.031	75.031	2.0.10.147	2.0.10.242	2.0.10.242	1.0.0.439	7	234	2	3	Verdana	1	80	0	0	0	WM Stimuli\	0.6	1024	0.9	853.444444444444	1	811.3	1	728.4	0.9	935.555555555556	1	766.9	0.8	822	0.7	1068.28571428571	12	362403	3	362392	27	39	362430	-999999	362406	0	13	TrialsPROC	PL_006_92025.png	1	2	58	SessionSelectionList														lure	3	Place	0-Back	51	80	49	0	0	97	3	39	247450	1	14	72	245411	-1	246105	1	694	3	3	2039	53	247464	-54	0												10				58												
WM080112	100307_fnca	1	1	1	83461355	1	75.031	75.031	2.0.10.147	2.0.10.242	2.0.10.242	1.0.0.439	7	234	2	3	Verdana	1	80	0	0	0	WM Stimuli\	0.6	1024	0.9	853.444444444444	1	811.3	1	728.4	0.9	935.555555555556	1	766.9	0.8	822	0.7	1068.28571428571	12	362403	3	362392	27	39	362430	-999999	362406	0	14	Cue2BackPROC	""	1	2	59	SessionSelectionList									6	247917	-7	0																																													59												
WM080112	100307_fnca	1	1	1	83461355	1	75.031	75.031	2.0.10.147	2.0.10.242	2.0.10.242	1.0.0.439	7	234	2	3	Verdana	1	80	0	0	0	WM Stimuli\	0.6	1024	0.9	853.444444444444	1	811.3	1	728.4	0.9	935.555555555556	1	766.9	0.8	822	0.7	1068.28571428571	12	362403	3	362392	27	39	362430	-999999	362406	0	15	TrialsPROC	FC_010_F5.png	1	2	60	SessionSelectionList														nonlure	3	Face	2-Back	52	80	50	0	0	97	4	40	252515	1	13	64	250475	-1	251786	1	1311	3	3	2040	53	252528	-54	0													1			60												
WM080112	100307_fnca	1	1	1	83461355	1	75.031	75.031	2.0.10.147	2.0.10.242	2.0.10.242	1.0.0.439	7	234	2	3	Verdana	1	80	0	0	0	WM Stimuli\	0.6	1024	0.9	853.444444444444	1	811.3	1	728.4	0.9	935.555555555556	1	766.9	0.8	822	0.7	1068.28571428571	12	362403	3	362392	27	39	362430	-999999	362406	0	15	TrialsPROC	FC_012_F6.png	1	2	61	SessionSelectionList														nonlure	3	Face	2-Back	53	80	51	0	0	97	5	39	255087	1	14	73	253048	-1	253690	1	642	3	3	2039	53	255101	-54	0													2			61												
WM080112	100307_fnca	1	1	1	83461355	1	75.031	75.031	2.0.10.147	2.0.10.242	2.0.10.242	1.0.0.439	7	234	2	3	Verdana	1	80	0	0	0	WM Stimuli\	0.6	1024	0.9	853.444444444444	1	811.3	1	728.4	0.9	935.555555555556	1	766.9	0.8	822	0.7	1068.28571428571	12	362403	3	362392	27	39	362430	-999999	362406	0	15	TrialsPROC	FC_010_F5.png	1	2	62	SessionSelectionList														target	2	Face	2-Back	54	80	52	0	0	97	1	39	257659	3	14	72	255620	-1	256447	1	827	2	2	2039	53	257673	-54	0													3			62												
WM080112	100307_fnca	1	1	1	83461355	1	75.031	75.031	2.0.10.147	2.0.10.242	2.0.10.242	1.0.0.439	7	234	2	3	Verdana	1	80	0	0	0	WM Stimuli\	0.6	1024	0.9	853.444444444444	1	811.3	1	728.4	0.9	935.555555555556	1	766.9	0.8	822	0.7	1068.28571428571	12	362403	3	362392	27	39	362430	-999999	362406	0	15	TrialsPROC	FC_008_F4.png	1	2	63	SessionSelectionList														nonlure	3	Face	2-Back	55	80	53	0	0	97	1	40	260232	1	13	72	258192	-1	258790	1	598	3	3	2040	53	260245	-54	0													4			63												
WM080112	100307_fnca	1	1	1	83461355	1	75.031	75.031	2.0.10.147	2.0.10.242	2.0.10.242	1.0.0.439	7	234	2	3	Verdana	1	80	0	0	0	WM Stimuli\	0.6	1024	0.9	853.444444444444	1	811.3	1	728.4	0.9	935.555555555556	1	766.9	0.8	822	0.7	1068.28571428571	12	362403	3	362392	27	39	362430	-999999	362406	0	15	TrialsPROC	FC_012_F6.png	1	2	64	SessionSelectionList														lure	3	Face	2-Back	56	80	54	0	0	97	2	39	262804	1	14	73	260765	-1	261302	1	537	3	3	2039	53	262818	-54	0													5			64												
WM080112	100307_fnca	1	1	1	83461355	1	75.031	75.031	2.0.10.147	2.0.10.242	2.0.10.242	1.0.0.439	7	234	2	3	Verdana	1	80	0	0	0	WM Stimuli\	0.6	1024	0.9	853.444444444444	1	811.3	1	728.4	0.9	935.555555555556	1	766.9	0.8	822	0.7	1068.28571428571	12	362403	3	362392	27	39	362430	-999999	362406	0	15	TrialsPROC	FC_008_F4.png	1	2	65	SessionSelectionList														target	2	Face	2-Back	57	80	55	0	0	97	1	39	265376	2	14	72	263337	-1	264019	1	682	2	2	2039	53	265390	-54	0													6			65												
WM080112	100307_fnca	1	1	1	83461355	1	75.031	75.031	2.0.10.147	2.0.10.242	2.0.10.242	1.0.0.439	7	234	2	3	Verdana	1	80	0	0	0	WM Stimuli\	0.6	1024	0.9	853.444444444444	1	811.3	1	728.4	0.9	935.555555555556	1	766.9	0.8	822	0.7	1068.28571428571	12	362403	3	362392	27	39	362430	-999999	362406	0	15	TrialsPROC	FC_007_M4.png	1	2	66	SessionSelectionList														nonlure	3	Face	2-Back	58	80	56	0	0	97	1	39	267948	2	14	72	265909	-1	266505	1	596	3	3	2039	53	267962	-54	0													7			66												
WM080112	100307_fnca	1	1	1	83461355	1	75.031	75.031	2.0.10.147	2.0.10.242	2.0.10.242	1.0.0.439	7	234	2	3	Verdana	1	80	0	0	0	WM Stimuli\	0.6	1024	0.9	853.444444444444	1	811.3	1	728.4	0.9	935.555555555556	1	766.9	0.8	822	0.7	1068.28571428571	12	362403	3	362392	27	39	362430	-999999	362406	0	15	TrialsPROC	FC_007_M4.png	1	2	67	SessionSelectionList														lure	3	Face	2-Back	59	80	57	0	0	97	2	39	270521	1	13	73	268482	-1	269359	1	877	3	3	2039	52	270534	-53	0													8			67												
WM080112	100307_fnca	1	1	1	83461355	1	75.031	75.031	2.0.10.147	2.0.10.242	2.0.10.242	1.0.0.439	7	234	2	3	Verdana	1	80	0	0	0	WM Stimuli\	0.6	1024	0.9	853.444444444444	1	811.3	1	728.4	0.9	935.555555555556	1	766.9	0.8	822	0.7	1068.28571428571	12	362403	3	362392	27	39	362430	-999999	362406	0	15	TrialsPROC	FC_009_M5.png	1	2	68	SessionSelectionList														nonlure	3	Face	2-Back	60	80	58	0	0	97	3	39	273093	1	14	72	271054	-1	272047	1	993	3	3	2039	53	273107	-54	0													9			68												
WM080112	100307_fnca	1	1	1	83461355	1	75.031	75.031	2.0.10.147	2.0.10.242	2.0.10.242	1.0.0.439	7	234	2	3	Verdana	1	80	0	0	0	WM Stimuli\	0.6	1024	0.9	853.444444444444	1	811.3	1	728.4	0.9	935.555555555556	1	766.9	0.8	822	0.7	1068.28571428571	12	362403	3	362392	27	39	362430	-999999	362406	0	15	TrialsPROC	FC_011_M6.png	1	2	69	SessionSelectionList														nonlure	3	Face	2-Back	61	80	59	0	0	97	4	39	275665	2	14	72	273626	-1	274676	1	1050	3	3	2039	53	275679	-54	0													10			69												
WM080112	100307_fnca	1	1	1	83461355	1	75.031	75.031	2.0.10.147	2.0.10.242	2.0.10.242	1.0.0.439	7	234	2	3	Verdana	1	80	0	0	0	WM Stimuli\	0.6	1024	0.9	853.444444444444	1	811.3	1	728.4	0.9	935.555555555556	1	766.9	0.8	822	0.7	1068.28571428571	12	362403	3	362392	27	39	362430	-999999	362406	0	16	Fix15secPROC	""	1	2	70	SessionSelectionList																																															6	276132	-7	0							70												
WM080112	100307_fnca	1	1	1	83461355	1	75.031	75.031	2.0.10.147	2.0.10.242	2.0.10.242	1.0.0.439	7	234	2	3	Verdana	1	80	0	0	0	WM Stimuli\	0.6	1024	0.9	853.444444444444	1	811.3	1	728.4	0.9	935.555555555556	1	766.9	0.8	822	0.7	1068.28571428571	12	362403	3	362392	27	39	362430	-999999	362406	0	17	Cue0BackPROC	TO_007_TOOL7_BA.png	1	2	71	SessionSelectionList																																										13	291139	-14	0												71												
WM080112	100307_fnca	1	1	1	83461355	1	75.031	75.031	2.0.10.147	2.0.10.242	2.0.10.242	1.0.0.439	7	234	2	3	Verdana	1	80	0	0	0	WM Stimuli\	0.6	1024	0.9	853.444444444444	1	811.3	1	728.4	0.9	935.555555555556	1	766.9	0.8	822	0.7	1068.28571428571	12	362403	3	362392	27	39	362430	-999999	362406	0	18	TrialsPROC	TO_010_TOOL10_BA.png	1	2	72	SessionSelectionList														nonlure	3	Tools	0-Back	62	80	60	0	0	97	5	39	295724	1	14	59	293685	-1	294660	1	975	3	3	2039	53	295738	-54	0														1		72												
WM080112	100307_fnca	1	1	1	83461355	1	75.031	75.031	2.0.10.147	2.0.10.242	2.0.10.242	1.0.0.439	7	234	2	3	Verdana	1	80	0	0	0	WM Stimuli\	0.6	1024	0.9	853.444444444444	1	811.3	1	728.4	0.9	935.555555555556	1	766.9	0.8	822	0.7	1068.28571428571	12	362403	3	362392	27	39	362430	-999999	362406	0	18	TrialsPROC	TO_009_TOOL9_BA.png	1	2	73	SessionSelectionList														nonlure	3	Tools	0-Back	63	80	61	0	0	97	6	39	298283	1	13	59	296244	-1	297538	1	1294	3	3	2039	52	298296	-53	0														2		73												
WM080112	100307_fnca	1	1	1	83461355	1	75.031	75.031	2.0.10.147	2.0.10.242	2.0.10.242	1.0.0.439	7	234	2	3	Verdana	1	80	0	0	0	WM Stimuli\	0.6	1024	0.9	853.444444444444	1	811.3	1	728.4	0.9	935.555555555556	1	766.9	0.8	822	0.7	1068.28571428571	12	362403	3	362392	27	39	362430	-999999	362406	0	18	TrialsPROC	TO_009_TOOL9_BA.png	1	2	74	SessionSelectionList														lure	3	Tools	0-Back	64	80	62	0	0	97	7	39	300842	1	13	59	298803	-1	300211	1	1408	3	3	2039	52	300855	-53	0														3		74												
WM080112	100307_fnca	1	1	1	83461355	1	75.031	75.031	2.0.10.147	2.0.10.242	2.0.10.242	1.0.0.439	7	234	2	3	Verdana	1	80	0	0	0	WM Stimuli\	0.6	1024	0.9	853.444444444444	1	811.3	1	728.4	0.9	935.555555555556	1	766.9	0.8	822	0.7	1068.28571428571	12	362403	3	362392	27	39	362430	-999999	362406	0	18	TrialsPROC	TO_008_TOOL8_BA.png	1	2	75	SessionSelectionList														nonlure	3	Tools	0-Back	65	80	63	0	0	94	1	39	303401	1	13	59	301362	-1	303148	0	1786	2	3	2039	52	303414	-53	0														4		75												
WM080112	100307_fnca	1	1	1	83461355	1	75.031	75.031	2.0.10.147	2.0.10.242	2.0.10.242	1.0.0.439	7	234	2	3	Verdana	1	80	0	0	0	WM Stimuli\	0.6	1024	0.9	853.444444444444	1	811.3	1	728.4	0.9	935.555555555556	1	766.9	0.8	822	0.7	1068.28571428571	12	362403	3	362392	27	39	362430	-999999	362406	0	18	TrialsPROC	TO_011_TOOL11_BA.png	1	2	76	SessionSelectionList														nonlure	3	Tools	0-Back	66	80	64	0	0	94	1	40	305960	1	13	58	303920	-1	304495	1	575	3	3	2040	53	305973	-54	0														5		76												
WM080112	100307_fnca	1	1	1	83461355	1	75.031	75.031	2.0.10.147	2.0.10.242	2.0.10.242	1.0.0.439	7	234	2	3	Verdana	1	80	0	0	0	WM Stimuli\	0.6	1024	0.9	853.444444444444	1	811.3	1	728.4	0.9	935.555555555556	1	766.9	0.8	822	0.7	1068.28571428571	12	362403	3	362392	27	39	362430	-999999	362406	0	18	TrialsPROC	TO_012_TOOL12_BA.png	1	2	77	SessionSelectionList														nonlure	3	Tools	0-Back	67	80	65	0	0	94	2	40	308519	1	13	59	306479	-1	307028	1	549	3	3	2040	53	308532	-54	0														6		77												
WM080112	100307_fnca	1	1	1	83461355	1	75.031	75.031	2.0.10.147	2.0.10.242	2.0.10.242	1.0.0.439	7	234	2	3	Verdana	1	80	0	0	0	WM Stimuli\	0.6	1024	0.9	853.444444444444	1	811.3	1	728.4	0.9	935.555555555556	1	766.9	0.8	822	0.7	1068.28571428571	12	362403	3	362392	27	39	362430	-999999	362406	0	18	TrialsPROC	TO_010_TOOL10_BA.png	1	2	78	SessionSelectionList														lure	3	Tools	0-Back	68	80	66	0	0	95	3	40	311078	1	13	59	309038	-1	310710	1	1672	3	3	2040	53	311091	-54	0														7		78												
WM080112	100307_fnca	1	1	1	83461355	1	75.031	75.031	2.0.10.147	2.0.10.242	2.0.10.242	1.0.0.439	7	234	2	3	Verdana	1	80	0	0	0	WM Stimuli\	0.6	1024	0.9	853.444444444444	1	811.3	1	728.4	0.9	935.555555555556	1	766.9	0.8	822	0.7	1068.28571428571	12	362403	3	362392	27	39	362430	-999999	362406	0	18	TrialsPROC	TO_007_TOOL7_BA.png	1	2	79	SessionSelectionList														target	2	Tools	0-Back	69	80	66	0	1	92	3	40	313637	1	13	59	311597	-1	0	0	0	""	2	2040	53	313650	-54	0														8		79												
WM080112	100307_fnca	1	1	1	83461355	1	75.031	75.031	2.0.10.147	2.0.10.242	2.0.10.242	1.0.0.439	7	234	2	3	Verdana	1	80	0	0	0	WM Stimuli\	0.6	1024	0.9	853.444444444444	1	811.3	1	728.4	0.9	935.555555555556	1	766.9	0.8	822	0.7	1068.28571428571	12	362403	3	362392	27	39	362430	-999999	362406	0	18	TrialsPROC	TO_008_TOOL8_BA.png	1	2	80	SessionSelectionList														lure	3	Tools	0-Back	70	80	67	0	0	92	1	40	316196	1	13	59	314156	-1	315161	1	1005	3	3	2040	53	316209	-54	0														9		80												
WM080112	100307_fnca	1	1	1	83461355	1	75.031	75.031	2.0.10.147	2.0.10.242	2.0.10.242	1.0.0.439	7	234	2	3	Verdana	1	80	0	0	0	WM Stimuli\	0.6	1024	0.9	853.444444444444	1	811.3	1	728.4	0.9	935.555555555556	1	766.9	0.8	822	0.7	1068.28571428571	12	362403	3	362392	27	39	362430	-999999	362406	0	18	TrialsPROC	TO_007_TOOL7_BA.png	1	2	81	SessionSelectionList														target	2	Tools	0-Back	71	80	68	0	0	90	2	39	318754	2	14	59	316715	-1	318419	0	1704	3	2	2039	53	318768	-54	0														10		81												
WM080112	100307_fnca	1	1	1	83461355	1	75.031	75.031	2.0.10.147	2.0.10.242	2.0.10.242	1.0.0.439	7	234	2	3	Verdana	1	80	0	0	0	WM Stimuli\	0.6	1024	0.9	853.444444444444	1	811.3	1	728.4	0.9	935.555555555556	1	766.9	0.8	822	0.7	1068.28571428571	12	362403	3	362392	27	39	362430	-999999	362406	0	19	Cue2BackPROC	""	1	2	82	SessionSelectionList									6	319221	-7	0																																													82												
WM080112	100307_fnca	1	1	1	83461355	1	75.031	75.031	2.0.10.147	2.0.10.242	2.0.10.242	1.0.0.439	7	234	2	3	Verdana	1	80	0	0	0	WM Stimuli\	0.6	1024	0.9	853.444444444444	1	811.3	1	728.4	0.9	935.555555555556	1	766.9	0.8	822	0.7	1068.28571428571	12	362403	3	362392	27	39	362430	-999999	362406	0	20	TrialsPROC	PL_007_92026.png	1	2	83	SessionSelectionList														nonlure	3	Place	2-Back	72	80	69	0	0	90	3	39	323819	2	14	65	321780	-1	323354	1	1574	3	3	2039	53	323833	-54	0															1	83												
WM080112	100307_fnca	1	1	1	83461355	1	75.031	75.031	2.0.10.147	2.0.10.242	2.0.10.242	1.0.0.439	7	234	2	3	Verdana	1	80	0	0	0	WM Stimuli\	0.6	1024	0.9	853.444444444444	1	811.3	1	728.4	0.9	935.555555555556	1	766.9	0.8	822	0.7	1068.28571428571	12	362403	3	362392	27	39	362430	-999999	362406	0	20	TrialsPROC	PL_007_92026.png	1	2	84	SessionSelectionList														lure	3	Place	2-Back	73	80	70	0	0	90	4	39	326391	2	14	72	324352	-1	325347	1	995	3	3	2039	53	326405	-54	0															2	84												
WM080112	100307_fnca	1	1	1	83461355	1	75.031	75.031	2.0.10.147	2.0.10.242	2.0.10.242	1.0.0.439	7	234	2	3	Verdana	1	80	0	0	0	WM Stimuli\	0.6	1024	0.9	853.444444444444	1	811.3	1	728.4	0.9	935.555555555556	1	766.9	0.8	822	0.7	1068.28571428571	12	362403	3	362392	27	39	362430	-999999	362406	0	20	TrialsPROC	PL_010_92038.png	1	2	85	SessionSelectionList														nonlure	3	Place	2-Back	74	80	71	0	0	90	5	39	328964	1	13	73	326925	-1	327550	1	625	3	3	2039	52	328977	-53	0															3	85												
WM080112	100307_fnca	1	1	1	83461355	1	75.031	75.031	2.0.10.147	2.0.10.242	2.0.10.242	1.0.0.439	7	234	2	3	Verdana	1	80	0	0	0	WM Stimuli\	0.6	1024	0.9	853.444444444444	1	811.3	1	728.4	0.9	935.555555555556	1	766.9	0.8	822	0.7	1068.28571428571	12	362403	3	362392	27	39	362430	-999999	362406	0	20	TrialsPROC	PL_009_92037.png	1	2	86	SessionSelectionList														nonlure	3	Place	2-Back	75	80	72	0	0	90	6	39	331523	1	13	59	329484	-1	330303	1	819	3	3	2039	52	331536	-53	0															4	86												
WM080112	100307_fnca	1	1	1	83461355	1	75.031	75.031	2.0.10.147	2.0.10.242	2.0.10.242	1.0.0.439	7	234	2	3	Verdana	1	80	0	0	0	WM Stimuli\	0.6	1024	0.9	853.444444444444	1	811.3	1	728.4	0.9	935.555555555556	1	766.9	0.8	822	0.7	1068.28571428571	12	362403	3	362392	27	39	362430	-999999	362406	0	20	TrialsPROC	PL_010_92038.png	1	2	87	SessionSelectionList														target	2	Place	2-Back	76	80	73	0	0	90	1	39	334082	1	13	59	332043	-1	333080	1	1037	2	2	2039	52	334095	-53	0															5	87												
WM080112	100307_fnca	1	1	1	83461355	1	75.031	75.031	2.0.10.147	2.0.10.242	2.0.10.242	1.0.0.439	7	234	2	3	Verdana	1	80	0	0	0	WM Stimuli\	0.6	1024	0.9	853.444444444444	1	811.3	1	728.4	0.9	935.555555555556	1	766.9	0.8	822	0.7	1068.28571428571	12	362403	3	362392	27	39	362430	-999999	362406	0	20	TrialsPROC	PL_009_92037.png	1	2	88	SessionSelectionList														target	2	Place	2-Back	77	80	74	0	0	90	1	39	336641	1	13	59	334602	-1	335687	0	1085	3	2	2039	52	336654	-53	0															6	88												
WM080112	100307_fnca	1	1	1	83461355	1	75.031	75.031	2.0.10.147	2.0.10.242	2.0.10.242	1.0.0.439	7	234	2	3	Verdana	1	80	0	0	0	WM Stimuli\	0.6	1024	0.9	853.444444444444	1	811.3	1	728.4	0.9	935.555555555556	1	766.9	0.8	822	0.7	1068.28571428571	12	362403	3	362392	27	39	362430	-999999	362406	0	20	TrialsPROC	PL_008_92033.png	1	2	89	SessionSelectionList														nonlure	3	Place	2-Back	78	80	75	0	0	90	2	39	339213	1	14	72	337174	-1	338214	1	1040	3	3	2039	53	339227	-54	0															7	89												
WM080112	100307_fnca	1	1	1	83461355	1	75.031	75.031	2.0.10.147	2.0.10.242	2.0.10.242	1.0.0.439	7	234	2	3	Verdana	1	80	0	0	0	WM Stimuli\	0.6	1024	0.9	853.444444444444	1	811.3	1	728.4	0.9	935.555555555556	1	766.9	0.8	822	0.7	1068.28571428571	12	362403	3	362392	27	39	362430	-999999	362406	0	20	TrialsPROC	PL_012_92047.png	1	2	90	SessionSelectionList														nonlure	3	Place	2-Back	79	80	76	0	0	90	3	39	341785	2	14	72	339746	-1	340386	1	640	3	3	2039	53	341799	-54	0															8	90												
WM080112	100307_fnca	1	1	1	83461355	1	75.031	75.031	2.0.10.147	2.0.10.242	2.0.10.242	1.0.0.439	7	234	2	3	Verdana	1	80	0	0	0	WM Stimuli\	0.6	1024	0.9	853.444444444444	1	811.3	1	728.4	0.9	935.555555555556	1	766.9	0.8	822	0.7	1068.28571428571	12	362403	3	362392	27	39	362430	-999999	362406	0	20	TrialsPROC	PL_012_92047.png	1	2	91	SessionSelectionList														lure	3	Place	2-Back	80	80	77	0	0	90	4	39	344357	2	14	72	342318	-1	343207	1	889	3	3	2039	53	344371	-54	0															9	91												
WM080112	100307_fnca	1	1	1	83461355	1	75.031	75.031	2.0.10.147	2.0.10.242	2.0.10.242	1.0.0.439	7	234	2	3	Verdana	1	80	0	0	0	WM Stimuli\	0.6	1024	0.9	853.444444444444	1	811.3	1	728.4	0.9	935.555555555556	1	766.9	0.8	822	0.7	1068.28571428571	12	362403	3	362392	27	39	362430	-999999	362406	0	20	TrialsPROC	PL_011_92044.png	1	2	92	SessionSelectionList														nonlure	3	Place	2-Back	80	80	78	0	0	90	5	39	346930	1	13	73	344891	-1	345692	1	801	3	3	2039	52	346943	-53	0															10	92												
WM080112	100307_fnca	1	1	1	83461355	1	75.031	75.031	2.0.10.147	2.0.10.242	2.0.10.242	1.0.0.439	7	234	2	3	Verdana	1	80	0	0	0	WM Stimuli\	0.6	1024	0.9	853.444444444444	1	811.3	1	728.4	0.9	935.555555555556	1	766.9	0.8	822	0.7	1068.28571428571	12	362403	3	362392	27	39	362430	-999999	362406	0	21	Fix15secPROC	""	1	2	93	SessionSelectionList																																															6	347397	-7	0							93												
