ExperimentName	HCPID	RunNumber	Subject	Session	RandomSeed	Group	Laptop.RefreshRate	ScannerD2.RefreshRate	StudioVersion	RuntimeVersion	RuntimeVersionExpected	ExperimentVersion	triggercode	Allowed	Target	Nontarget	FontStyle	RunTrialNumber[Session]	TrialsPerRun[Session]	TotalRespGreater200[Session]	ConsecRTLess200[Session]	ConsecNonResp[Session]	StimuliDir	ACC_2_Back_Body	Avg_RT_For_Correct_Trials_2_Back_Body	ACC_0_Back_Body	Avg_RT_For_Correct_Trials_0_Back_Body	ACC_2_Back_Face	Avg_RT_For_Correct_Trials_2_Back_Face	ACC_0_Back_Face	Avg_RT_For_Correct_Trials_0_Back_Face	ACC_2_Back_Place	Avg_RT_For_Correct_Trials_2_Back_Place	ACC_0_Back_Place	Avg_RT_For_Correct_Trials_0_Back_Place	ACC_2_Back_Tools	Avg_RT_For_Correct_Trials_2_Back_Tools	ACC_0_Back_Tools	Avg_RT_For_Correct_Trials_0_Back_Tools	ExpInstrucFeelFreeToRest.OnsetDelay	ExpInstrucFeelFreeToRest.OnsetTime	ExpInstrucFeelFreeToRest.DurationError	ExpInstrucFeelFreeToRest.StartTime	ExpInstrucFeelFreeToRest.OnsetToOnsetTime	FeelFreeToRest.OnsetDelay	FeelFreeToRest.OnsetTime	FeelFreeToRest.DurationError	FeelFreeToRest.StartTime	FeelFreeToRest.OnsetToOnsetTime	SessionSelectionList	Procedure[Block]	Stimulus[Block]	RunNumberFilterValue	SessionSelectionList.Cycle	SessionSelectionList.Sample	Running[Block]	IntroButtonMap.OnsetDelay	IntroButtonMap.OnsetTime	IntroButtonMap.DurationError	IntroButtonMap.OnsetToOnsetTime	GetReady.OnsetDelay	GetReady.OnsetTime	GetReady.DurationError	GetReady.OnsetToOnsetTime	Cue2Back.OnsetDelay	Cue2Back.OnsetTime	Cue2Back.DurationError	Cue2Back.OnsetToOnsetTime	Run1Block1	TargetType	CorrectResponse	StimType	BlockType	RunTrialNumber[Block]	TrialsPerRun[Block]	TotalRespGreater200[Block]	ConsecRTLess200[Block]	ConsecNonResp[Block]	ControlAcc	ConsecSameResp	ExperimenterWindow.OnsetDelay	ExperimenterWindow.OnsetTime	ExperimenterWindow.DurationError	ExperimenterWindow.OnsetToOnsetTime	Stim.OnsetDelay	Stim.OnsetTime	Stim.DurationError	Stim.RTTime	Stim.ACC	Stim.RT	Stim.RESP	Stim.CRESP	Stim.OnsetToOnsetTime	Fix.OnsetDelay	Fix.OnsetTime	Fix.DurationError	Fix.OnsetToOnsetTime	CueTarget.OnsetDelay	CueTarget.OnsetTime	CueTarget.DurationError	CueTarget.OnsetToOnsetTime	Run1Block2	Fix15sec.OnsetDelay	Fix15sec.OnsetTime	Fix15sec.DurationError	Fix15sec.OnsetToOnsetTime	Run1Block3	Run1Block4	Run1Block5	Run1Block6	Run1Block7	Run1Block8	Block	Procedure[Trial]	Stimulus[Trial]	ReadyList	Running[Trial]	ReadyList.Cycle	ReadyList.Sample	SyncSlide.OnsetDelay	SyncSlide.OnsetTime	SyncSlide.DurationError	SyncSlide.FinishTime	SyncSlide.OnsetToOnsetTime	Trial
WM080112	114419_fnca	2	1	1	1646432681	1	75.032	75.032	2.0.10.147	2.0.10.242	2.0.10.242	1.0.0.439	7	234	2	3	Verdana	1	80	0	0	0	WM Stimuli\	0.9	830.333333333333	1	849	0.9	928.666666666667	1	817.9	0.8	1002.5	1	997.9	0.6	862.833333333333	0.6	900.666666666667	12	319692	2	319681	27	39	319719	-999999	319695	0	22	TRSyncPROC	""	2	2	1	SessionSelectionList	101	9181	-999999	0	36	11860	-999999	0																																																	1	InitialTR	4	1	ReadyList	1	1	14	25947	-15	27932	0	1
WM080112	114419_fnca	2	1	1	1646432681	1	75.032	75.032	2.0.10.147	2.0.10.242	2.0.10.242	1.0.0.439	7	234	2	3	Verdana	1	80	0	0	0	WM Stimuli\	0.9	830.333333333333	1	849	0.9	928.666666666667	1	817.9	0.8	1002.5	1	997.9	0.6	862.833333333333	0.6	900.666666666667	12	319692	2	319681	27	39	319719	-999999	319695	0	22	TRSyncPROC	""	2	2	1	SessionSelectionList	101	9181	-999999	0	36	11860	-999999	0																																																	1	InitialTR	3	2	ReadyList	1	2	13	27946	-14	29932	0	2
WM080112	114419_fnca	2	1	1	1646432681	1	75.032	75.032	2.0.10.147	2.0.10.242	2.0.10.242	1.0.0.439	7	234	2	3	Verdana	1	80	0	0	0	WM Stimuli\	0.9	830.333333333333	1	849	0.9	928.666666666667	1	817.9	0.8	1002.5	1	997.9	0.6	862.833333333333	0.6	900.666666666667	12	319692	2	319681	27	39	319719	-999999	319695	0	22	TRSyncPROC	""	2	2	1	SessionSelectionList	101	9181	-999999	0	36	11860	-999999	0																																																	1	InitialTR	2	3	ReadyList	1	3	13	29946	-14	31932	0	3
WM080112	114419_fnca	2	1	1	1646432681	1	75.032	75.032	2.0.10.147	2.0.10.242	2.0.10.242	1.0.0.439	7	234	2	3	Verdana	1	80	0	0	0	WM Stimuli\	0.9	830.333333333333	1	849	0.9	928.666666666667	1	817.9	0.8	1002.5	1	997.9	0.6	862.833333333333	0.6	900.666666666667	12	319692	2	319681	27	39	319719	-999999	319695	0	22	TRSyncPROC	""	2	2	1	SessionSelectionList	101	9181	-999999	0	36	11860	-999999	0																																																	1	InitialTR	1	4	ReadyList	1	4	12	31945	-13	33932	0	4
WM080112	114419_fnca	2	1	1	1646432681	1	75.032	75.032	2.0.10.147	2.0.10.242	2.0.10.242	1.0.0.439	7	234	2	3	Verdana	1	80	0	0	0	WM Stimuli\	0.9	830.333333333333	1	849	0.9	928.666666666667	1	817.9	0.8	1002.5	1	997.9	0.6	862.833333333333	0.6	900.666666666667	12	319692	2	319681	27	39	319719	-999999	319695	0	23	Cue2BackPROC	""	2	2	2	SessionSelectionList									11	33944	-12	0																																													2												
WM080112	114419_fnca	2	1	1	1646432681	1	75.032	75.032	2.0.10.147	2.0.10.242	2.0.10.242	1.0.0.439	7	234	2	3	Verdana	1	80	0	0	0	WM Stimuli\	0.9	830.333333333333	1	849	0.9	928.666666666667	1	817.9	0.8	1002.5	1	997.9	0.6	862.833333333333	0.6	900.666666666667	12	319692	2	319681	27	39	319719	-999999	319695	0	24	TrialsPROC	TO_014_TOOL14_BA.png	2	2	3	SessionSelectionList														nonlure	3	Tools	2-Back	2	80	0	0	1	0	0	52	38582	3	14	97	36530	-1	0	0	0	""	3	2052	66	38596	-67	0																3												
WM080112	114419_fnca	2	1	1	1646432681	1	75.032	75.032	2.0.10.147	2.0.10.242	2.0.10.242	1.0.0.439	7	234	2	3	Verdana	1	80	0	0	0	WM Stimuli\	0.9	830.333333333333	1	849	0.9	928.666666666667	1	817.9	0.8	1002.5	1	997.9	0.6	862.833333333333	0.6	900.666666666667	12	319692	2	319681	27	39	319719	-999999	319695	0	24	TrialsPROC	TO_013_TOOL13_BA.png	2	2	4	SessionSelectionList														nonlure	3	Tools	2-Back	3	80	1	0	0	0	1	39	41154	3	14	85	39115	-1	40067	1	952	3	3	2039	53	41168	-54	0																4												
WM080112	114419_fnca	2	1	1	1646432681	1	75.032	75.032	2.0.10.147	2.0.10.242	2.0.10.242	1.0.0.439	7	234	2	3	Verdana	1	80	0	0	0	WM Stimuli\	0.9	830.333333333333	1	849	0.9	928.666666666667	1	817.9	0.8	1002.5	1	997.9	0.6	862.833333333333	0.6	900.666666666667	12	319692	2	319681	27	39	319719	-999999	319695	0	24	TrialsPROC	TO_016_TOOL16_BA.png	2	2	5	SessionSelectionList														nonlure	3	Tools	2-Back	4	80	2	0	0	0	2	40	43727	1	13	72	41687	-1	42442	1	755	3	3	2040	53	43740	-54	0																5												
WM080112	114419_fnca	2	1	1	1646432681	1	75.032	75.032	2.0.10.147	2.0.10.242	2.0.10.242	1.0.0.439	7	234	2	3	Verdana	1	80	0	0	0	WM Stimuli\	0.9	830.333333333333	1	849	0.9	928.666666666667	1	817.9	0.8	1002.5	1	997.9	0.6	862.833333333333	0.6	900.666666666667	12	319692	2	319681	27	39	319719	-999999	319695	0	24	TrialsPROC	TO_014_TOOL14_BA.png	2	2	6	SessionSelectionList														lure	3	Tools	2-Back	5	80	3	0	0	0	1	39	46299	1	13	73	44260	-1	44895	0	635	2	3	2039	52	46312	-53	0																6												
WM080112	114419_fnca	2	1	1	1646432681	1	75.032	75.032	2.0.10.147	2.0.10.242	2.0.10.242	1.0.0.439	7	234	2	3	Verdana	1	80	0	0	0	WM Stimuli\	0.9	830.333333333333	1	849	0.9	928.666666666667	1	817.9	0.8	1002.5	1	997.9	0.6	862.833333333333	0.6	900.666666666667	12	319692	2	319681	27	39	319719	-999999	319695	0	24	TrialsPROC	TO_016_TOOL16_BA.png	2	2	7	SessionSelectionList														target	2	Tools	2-Back	6	80	4	0	0	0	1	39	48858	1	13	59	46819	-1	47731	0	912	3	2	2039	52	48871	-53	0																7												
WM080112	114419_fnca	2	1	1	1646432681	1	75.032	75.032	2.0.10.147	2.0.10.242	2.0.10.242	1.0.0.439	7	234	2	3	Verdana	1	80	0	0	0	WM Stimuli\	0.9	830.333333333333	1	849	0.9	928.666666666667	1	817.9	0.8	1002.5	1	997.9	0.6	862.833333333333	0.6	900.666666666667	12	319692	2	319681	27	39	319719	-999999	319695	0	24	TrialsPROC	TO_018_TOOL18_BA.png	2	2	8	SessionSelectionList														nonlure	3	Tools	2-Back	7	80	5	0	0	0	2	39	51430	1	14	72	49391	-1	50204	1	813	3	3	2039	53	51444	-54	0																8												
WM080112	114419_fnca	2	1	1	1646432681	1	75.032	75.032	2.0.10.147	2.0.10.242	2.0.10.242	1.0.0.439	7	234	2	3	Verdana	1	80	0	0	0	WM Stimuli\	0.9	830.333333333333	1	849	0.9	928.666666666667	1	817.9	0.8	1002.5	1	997.9	0.6	862.833333333333	0.6	900.666666666667	12	319692	2	319681	27	39	319719	-999999	319695	0	24	TrialsPROC	TO_017_TOOL17_BA.png	2	2	9	SessionSelectionList														nonlure	3	Tools	2-Back	8	80	6	0	0	0	3	39	53989	1	13	59	51950	-1	52722	1	772	3	3	2039	52	54002	-53	0																9												
WM080112	114419_fnca	2	1	1	1646432681	1	75.032	75.032	2.0.10.147	2.0.10.242	2.0.10.242	1.0.0.439	7	234	2	3	Verdana	1	80	0	0	0	WM Stimuli\	0.9	830.333333333333	1	849	0.9	928.666666666667	1	817.9	0.8	1002.5	1	997.9	0.6	862.833333333333	0.6	900.666666666667	12	319692	2	319681	27	39	319719	-999999	319695	0	24	TrialsPROC	TO_018_TOOL18_BA.png	2	2	10	SessionSelectionList														target	2	Tools	2-Back	9	80	7	0	0	0	4	39	56548	1	13	59	54509	-1	55472	0	963	3	2	2039	52	56561	-53	0																10												
WM080112	114419_fnca	2	1	1	1646432681	1	75.032	75.032	2.0.10.147	2.0.10.242	2.0.10.242	1.0.0.439	7	234	2	3	Verdana	1	80	0	0	0	WM Stimuli\	0.9	830.333333333333	1	849	0.9	928.666666666667	1	817.9	0.8	1002.5	1	997.9	0.6	862.833333333333	0.6	900.666666666667	12	319692	2	319681	27	39	319719	-999999	319695	0	24	TrialsPROC	TO_015_TOOL15_BA.png	2	2	11	SessionSelectionList														nonlure	3	Tools	2-Back	10	80	8	0	0	0	5	39	59120	2	14	72	57081	-1	57922	1	841	3	3	2039	53	59134	-54	0																11												
WM080112	114419_fnca	2	1	1	1646432681	1	75.032	75.032	2.0.10.147	2.0.10.242	2.0.10.242	1.0.0.439	7	234	2	3	Verdana	1	80	0	0	0	WM Stimuli\	0.9	830.333333333333	1	849	0.9	928.666666666667	1	817.9	0.8	1002.5	1	997.9	0.6	862.833333333333	0.6	900.666666666667	12	319692	2	319681	27	39	319719	-999999	319695	0	24	TrialsPROC	TO_017_TOOL17_BA.png	2	2	12	SessionSelectionList														lure	3	Tools	2-Back	11	80	9	0	0	0	6	39	61679	2	14	59	59640	-1	60684	1	1044	3	3	2039	53	61693	-54	0																12												
WM080112	114419_fnca	2	1	1	1646432681	1	75.032	75.032	2.0.10.147	2.0.10.242	2.0.10.242	1.0.0.439	7	234	2	3	Verdana	1	80	0	0	0	WM Stimuli\	0.9	830.333333333333	1	849	0.9	928.666666666667	1	817.9	0.8	1002.5	1	997.9	0.6	862.833333333333	0.6	900.666666666667	12	319692	2	319681	27	39	319719	-999999	319695	0	25	Cue0BackPROC	BP_013_BP7_BA.png	2	2	13	SessionSelectionList																																										19	62159	-20	0												13												
WM080112	114419_fnca	2	1	1	1646432681	1	75.032	75.032	2.0.10.147	2.0.10.242	2.0.10.242	1.0.0.439	7	234	2	3	Verdana	1	80	0	0	0	WM Stimuli\	0.9	830.333333333333	1	849	0.9	928.666666666667	1	817.9	0.8	1002.5	1	997.9	0.6	862.833333333333	0.6	900.666666666667	12	319692	2	319681	27	39	319719	-999999	319695	0	26	TrialsPROC	BP_015_H10-T_BA.png	2	2	14	SessionSelectionList														nonlure	3	Body	0-Back	12	80	10	0	0	100	7	39	66730	3	14	51	64691	-1	65633	1	942	3	3	2039	53	66744	-54	0																14												
WM080112	114419_fnca	2	1	1	1646432681	1	75.032	75.032	2.0.10.147	2.0.10.242	2.0.10.242	1.0.0.439	7	234	2	3	Verdana	1	80	0	0	0	WM Stimuli\	0.9	830.333333333333	1	849	0.9	928.666666666667	1	817.9	0.8	1002.5	1	997.9	0.6	862.833333333333	0.6	900.666666666667	12	319692	2	319681	27	39	319719	-999999	319695	0	26	TrialsPROC	BP_018_H13-T_BA.png	2	2	15	SessionSelectionList														nonlure	3	Body	0-Back	13	80	11	0	0	100	8	39	69289	2	14	59	67250	-1	68167	1	917	3	3	2039	53	69303	-54	0																15												
WM080112	114419_fnca	2	1	1	1646432681	1	75.032	75.032	2.0.10.147	2.0.10.242	2.0.10.242	1.0.0.439	7	234	2	3	Verdana	1	80	0	0	0	WM Stimuli\	0.9	830.333333333333	1	849	0.9	928.666666666667	1	817.9	0.8	1002.5	1	997.9	0.6	862.833333333333	0.6	900.666666666667	12	319692	2	319681	27	39	319719	-999999	319695	0	26	TrialsPROC	BP_014_BP9_BA.png	2	2	16	SessionSelectionList														nonlure	3	Body	0-Back	14	80	12	0	0	100	9	40	71862	1	13	72	69822	-1	70645	1	823	3	3	2040	53	71875	-54	0																16												
WM080112	114419_fnca	2	1	1	1646432681	1	75.032	75.032	2.0.10.147	2.0.10.242	2.0.10.242	1.0.0.439	7	234	2	3	Verdana	1	80	0	0	0	WM Stimuli\	0.9	830.333333333333	1	849	0.9	928.666666666667	1	817.9	0.8	1002.5	1	997.9	0.6	862.833333333333	0.6	900.666666666667	12	319692	2	319681	27	39	319719	-999999	319695	0	26	TrialsPROC	BP_018_H13-T_BA.png	2	2	17	SessionSelectionList														lure	3	Body	0-Back	15	80	13	0	0	100	10	39	74421	1	13	60	72382	-1	73382	1	1000	3	3	2039	52	74434	-53	0																17												
WM080112	114419_fnca	2	1	1	1646432681	1	75.032	75.032	2.0.10.147	2.0.10.242	2.0.10.242	1.0.0.439	7	234	2	3	Verdana	1	80	0	0	0	WM Stimuli\	0.9	830.333333333333	1	849	0.9	928.666666666667	1	817.9	0.8	1002.5	1	997.9	0.6	862.833333333333	0.6	900.666666666667	12	319692	2	319681	27	39	319719	-999999	319695	0	26	TrialsPROC	BP_013_BP7_BA.png	2	2	18	SessionSelectionList														target	2	Body	0-Back	16	80	14	0	0	100	1	39	76980	1	13	59	74941	-1	75516	1	575	2	2	2039	52	76993	-53	0																18												
WM080112	114419_fnca	2	1	1	1646432681	1	75.032	75.032	2.0.10.147	2.0.10.242	2.0.10.242	1.0.0.439	7	234	2	3	Verdana	1	80	0	0	0	WM Stimuli\	0.9	830.333333333333	1	849	0.9	928.666666666667	1	817.9	0.8	1002.5	1	997.9	0.6	862.833333333333	0.6	900.666666666667	12	319692	2	319681	27	39	319719	-999999	319695	0	26	TrialsPROC	BP_015_H10-T_BA.png	2	2	19	SessionSelectionList														lure	3	Body	0-Back	17	80	15	0	0	100	1	39	79538	2	14	58	77499	-1	78109	1	610	3	3	2039	53	79552	-54	0																19												
WM080112	114419_fnca	2	1	1	1646432681	1	75.032	75.032	2.0.10.147	2.0.10.242	2.0.10.242	1.0.0.439	7	234	2	3	Verdana	1	80	0	0	0	WM Stimuli\	0.9	830.333333333333	1	849	0.9	928.666666666667	1	817.9	0.8	1002.5	1	997.9	0.6	862.833333333333	0.6	900.666666666667	12	319692	2	319681	27	39	319719	-999999	319695	0	26	TrialsPROC	BP_016_H11-T_BA.png	2	2	20	SessionSelectionList														nonlure	3	Body	0-Back	18	80	16	0	0	100	2	39	82111	1	13	73	80072	-1	81301	1	1229	3	3	2039	52	82124	-53	0																20												
WM080112	114419_fnca	2	1	1	1646432681	1	75.032	75.032	2.0.10.147	2.0.10.242	2.0.10.242	1.0.0.439	7	234	2	3	Verdana	1	80	0	0	0	WM Stimuli\	0.9	830.333333333333	1	849	0.9	928.666666666667	1	817.9	0.8	1002.5	1	997.9	0.6	862.833333333333	0.6	900.666666666667	12	319692	2	319681	27	39	319719	-999999	319695	0	26	TrialsPROC	BP_013_BP7_BA.png	2	2	21	SessionSelectionList														target	2	Body	0-Back	19	80	17	0	0	100	1	39	84670	1	13	59	82631	-1	83280	1	649	2	2	2039	52	84683	-53	0																21												
WM080112	114419_fnca	2	1	1	1646432681	1	75.032	75.032	2.0.10.147	2.0.10.242	2.0.10.242	1.0.0.439	7	234	2	3	Verdana	1	80	0	0	0	WM Stimuli\	0.9	830.333333333333	1	849	0.9	928.666666666667	1	817.9	0.8	1002.5	1	997.9	0.6	862.833333333333	0.6	900.666666666667	12	319692	2	319681	27	39	319719	-999999	319695	0	26	TrialsPROC	BP_017_H12-T_BA.png	2	2	22	SessionSelectionList														nonlure	3	Body	0-Back	20	80	18	0	0	100	1	40	87229	1	13	58	85189	-1	85979	1	790	3	3	2040	53	87242	-54	0																22												
WM080112	114419_fnca	2	1	1	1646432681	1	75.032	75.032	2.0.10.147	2.0.10.242	2.0.10.242	1.0.0.439	7	234	2	3	Verdana	1	80	0	0	0	WM Stimuli\	0.9	830.333333333333	1	849	0.9	928.666666666667	1	817.9	0.8	1002.5	1	997.9	0.6	862.833333333333	0.6	900.666666666667	12	319692	2	319681	27	39	319719	-999999	319695	0	26	TrialsPROC	BP_014_BP9_BA.png	2	2	23	SessionSelectionList														lure	3	Body	0-Back	21	80	19	0	0	100	2	39	89788	1	13	60	87749	-1	88704	1	955	3	3	2039	52	89801	-53	0																23												
WM080112	114419_fnca	2	1	1	1646432681	1	75.032	75.032	2.0.10.147	2.0.10.242	2.0.10.242	1.0.0.439	7	234	2	3	Verdana	1	80	0	0	0	WM Stimuli\	0.9	830.333333333333	1	849	0.9	928.666666666667	1	817.9	0.8	1002.5	1	997.9	0.6	862.833333333333	0.6	900.666666666667	12	319692	2	319681	27	39	319719	-999999	319695	0	27	Fix15secPROC	""	2	2	24	SessionSelectionList																																															5	90254	-6	0							24												
WM080112	114419_fnca	2	1	1	1646432681	1	75.032	75.032	2.0.10.147	2.0.10.242	2.0.10.242	1.0.0.439	7	234	2	3	Verdana	1	80	0	0	0	WM Stimuli\	0.9	830.333333333333	1	849	0.9	928.666666666667	1	817.9	0.8	1002.5	1	997.9	0.6	862.833333333333	0.6	900.666666666667	12	319692	2	319681	27	39	319719	-999999	319695	0	28	Cue2BackPROC	""	2	2	25	SessionSelectionList									12	105261	-13	0																																													25												
WM080112	114419_fnca	2	1	1	1646432681	1	75.032	75.032	2.0.10.147	2.0.10.242	2.0.10.242	1.0.0.439	7	234	2	3	Verdana	1	80	0	0	0	WM Stimuli\	0.9	830.333333333333	1	849	0.9	928.666666666667	1	817.9	0.8	1002.5	1	997.9	0.6	862.833333333333	0.6	900.666666666667	12	319692	2	319681	27	39	319719	-999999	319695	0	29	TrialsPROC	FC_015_M8.png	2	2	26	SessionSelectionList														nonlure	3	Face	2-Back	22	80	20	0	0	100	3	40	109873	1	13	84	107833	-1	109009	1	1176	3	3	2040	53	109886	-54	0																26												
WM080112	114419_fnca	2	1	1	1646432681	1	75.032	75.032	2.0.10.147	2.0.10.242	2.0.10.242	1.0.0.439	7	234	2	3	Verdana	1	80	0	0	0	WM Stimuli\	0.9	830.333333333333	1	849	0.9	928.666666666667	1	817.9	0.8	1002.5	1	997.9	0.6	862.833333333333	0.6	900.666666666667	12	319692	2	319681	27	39	319719	-999999	319695	0	29	TrialsPROC	FC_018_F9.png	2	2	27	SessionSelectionList														nonlure	3	Face	2-Back	23	80	21	0	0	100	4	40	112472	1	13	99	110432	-1	111549	1	1117	3	3	2040	53	112485	-54	0																27												
WM080112	114419_fnca	2	1	1	1646432681	1	75.032	75.032	2.0.10.147	2.0.10.242	2.0.10.242	1.0.0.439	7	234	2	3	Verdana	1	80	0	0	0	WM Stimuli\	0.9	830.333333333333	1	849	0.9	928.666666666667	1	817.9	0.8	1002.5	1	997.9	0.6	862.833333333333	0.6	900.666666666667	12	319692	2	319681	27	39	319719	-999999	319695	0	29	TrialsPROC	FC_018_F9.png	2	2	28	SessionSelectionList														lure	3	Face	2-Back	24	80	22	0	0	100	5	39	115044	1	13	73	113005	-1	113896	1	891	3	3	2039	52	115057	-53	0																28												
WM080112	114419_fnca	2	1	1	1646432681	1	75.032	75.032	2.0.10.147	2.0.10.242	2.0.10.242	1.0.0.439	7	234	2	3	Verdana	1	80	0	0	0	WM Stimuli\	0.9	830.333333333333	1	849	0.9	928.666666666667	1	817.9	0.8	1002.5	1	997.9	0.6	862.833333333333	0.6	900.666666666667	12	319692	2	319681	27	39	319719	-999999	319695	0	29	TrialsPROC	FC_017_M9.png	2	2	29	SessionSelectionList														nonlure	3	Face	2-Back	25	80	23	0	0	100	6	39	117616	1	13	72	115577	-1	116608	1	1031	3	3	2039	52	117629	-53	0																29												
WM080112	114419_fnca	2	1	1	1646432681	1	75.032	75.032	2.0.10.147	2.0.10.242	2.0.10.242	1.0.0.439	7	234	2	3	Verdana	1	80	0	0	0	WM Stimuli\	0.9	830.333333333333	1	849	0.9	928.666666666667	1	817.9	0.8	1002.5	1	997.9	0.6	862.833333333333	0.6	900.666666666667	12	319692	2	319681	27	39	319719	-999999	319695	0	29	TrialsPROC	FC_017_M9.png	2	2	30	SessionSelectionList														lure	3	Face	2-Back	26	80	24	0	0	100	7	39	120188	2	14	72	118149	-1	118812	1	663	3	3	2039	53	120202	-54	0																30												
WM080112	114419_fnca	2	1	1	1646432681	1	75.032	75.032	2.0.10.147	2.0.10.242	2.0.10.242	1.0.0.439	7	234	2	3	Verdana	1	80	0	0	0	WM Stimuli\	0.9	830.333333333333	1	849	0.9	928.666666666667	1	817.9	0.8	1002.5	1	997.9	0.6	862.833333333333	0.6	900.666666666667	12	319692	2	319681	27	39	319719	-999999	319695	0	29	TrialsPROC	FC_016_F8.png	2	2	31	SessionSelectionList														nonlure	3	Face	2-Back	27	80	25	0	0	100	8	40	122761	1	13	72	120721	-1	121629	1	908	3	3	2040	53	122774	-54	0																31												
WM080112	114419_fnca	2	1	1	1646432681	1	75.032	75.032	2.0.10.147	2.0.10.242	2.0.10.242	1.0.0.439	7	234	2	3	Verdana	1	80	0	0	0	WM Stimuli\	0.9	830.333333333333	1	849	0.9	928.666666666667	1	817.9	0.8	1002.5	1	997.9	0.6	862.833333333333	0.6	900.666666666667	12	319692	2	319681	27	39	319719	-999999	319695	0	29	TrialsPROC	FC_013_M7.png	2	2	32	SessionSelectionList														nonlure	3	Face	2-Back	28	80	26	0	0	100	9	39	125346	2	14	86	123307	-1	124158	1	851	3	3	2039	53	125360	-54	0																32												
WM080112	114419_fnca	2	1	1	1646432681	1	75.032	75.032	2.0.10.147	2.0.10.242	2.0.10.242	1.0.0.439	7	234	2	3	Verdana	1	80	0	0	0	WM Stimuli\	0.9	830.333333333333	1	849	0.9	928.666666666667	1	817.9	0.8	1002.5	1	997.9	0.6	862.833333333333	0.6	900.666666666667	12	319692	2	319681	27	39	319719	-999999	319695	0	29	TrialsPROC	FC_014_F7.png	2	2	33	SessionSelectionList														nonlure	3	Face	2-Back	29	80	27	0	0	100	10	39	127918	2	14	72	125879	-1	126681	1	802	3	3	2039	53	127932	-54	0																33												
WM080112	114419_fnca	2	1	1	1646432681	1	75.032	75.032	2.0.10.147	2.0.10.242	2.0.10.242	1.0.0.439	7	234	2	3	Verdana	1	80	0	0	0	WM Stimuli\	0.9	830.333333333333	1	849	0.9	928.666666666667	1	817.9	0.8	1002.5	1	997.9	0.6	862.833333333333	0.6	900.666666666667	12	319692	2	319681	27	39	319719	-999999	319695	0	29	TrialsPROC	FC_013_M7.png	2	2	34	SessionSelectionList														target	2	Face	2-Back	30	80	28	0	0	100	1	39	130491	1	13	73	128452	-1	129371	1	919	2	2	2039	52	130504	-53	0																34												
WM080112	114419_fnca	2	1	1	1646432681	1	75.032	75.032	2.0.10.147	2.0.10.242	2.0.10.242	1.0.0.439	7	234	2	3	Verdana	1	80	0	0	0	WM Stimuli\	0.9	830.333333333333	1	849	0.9	928.666666666667	1	817.9	0.8	1002.5	1	997.9	0.6	862.833333333333	0.6	900.666666666667	12	319692	2	319681	27	39	319719	-999999	319695	0	29	TrialsPROC	FC_014_F7.png	2	2	35	SessionSelectionList														target	2	Face	2-Back	31	80	29	0	0	100	1	39	133063	1	13	72	131024	-1	131933	0	909	3	2	2039	52	133076	-53	0																35												
WM080112	114419_fnca	2	1	1	1646432681	1	75.032	75.032	2.0.10.147	2.0.10.242	2.0.10.242	1.0.0.439	7	234	2	3	Verdana	1	80	0	0	0	WM Stimuli\	0.9	830.333333333333	1	849	0.9	928.666666666667	1	817.9	0.8	1002.5	1	997.9	0.6	862.833333333333	0.6	900.666666666667	12	319692	2	319681	27	39	319719	-999999	319695	0	30	Cue0BackPROC	TO_019_TOOL19_BA.png	2	2	36	SessionSelectionList																																										19	133543	-20	0												36												
WM080112	114419_fnca	2	1	1	1646432681	1	75.032	75.032	2.0.10.147	2.0.10.242	2.0.10.242	1.0.0.439	7	234	2	3	Verdana	1	80	0	0	0	WM Stimuli\	0.9	830.333333333333	1	849	0.9	928.666666666667	1	817.9	0.8	1002.5	1	997.9	0.6	862.833333333333	0.6	900.666666666667	12	319692	2	319681	27	39	319719	-999999	319695	0	31	TrialsPROC	TO_019_TOOL19_BA.png	2	2	37	SessionSelectionList														target	2	Tools	0-Back	32	80	29	0	1	91	1	39	138114	2	14	51	136075	-1	0	0	0	""	2	2039	53	138128	-54	0																37												
WM080112	114419_fnca	2	1	1	1646432681	1	75.032	75.032	2.0.10.147	2.0.10.242	2.0.10.242	1.0.0.439	7	234	2	3	Verdana	1	80	0	0	0	WM Stimuli\	0.9	830.333333333333	1	849	0.9	928.666666666667	1	817.9	0.8	1002.5	1	997.9	0.6	862.833333333333	0.6	900.666666666667	12	319692	2	319681	27	39	319719	-999999	319695	0	31	TrialsPROC	TO_024_TOOL24_BA.png	2	2	38	SessionSelectionList														nonlure	3	Tools	0-Back	33	80	30	0	0	92	1	39	140700	1	13	86	138661	-1	139327	1	666	3	3	2039	52	140713	-53	0																38												
WM080112	114419_fnca	2	1	1	1646432681	1	75.032	75.032	2.0.10.147	2.0.10.242	2.0.10.242	1.0.0.439	7	234	2	3	Verdana	1	80	0	0	0	WM Stimuli\	0.9	830.333333333333	1	849	0.9	928.666666666667	1	817.9	0.8	1002.5	1	997.9	0.6	862.833333333333	0.6	900.666666666667	12	319692	2	319681	27	39	319719	-999999	319695	0	31	TrialsPROC	TO_019_TOOL19_BA.png	2	2	39	SessionSelectionList														target	2	Tools	0-Back	34	80	31	0	0	85	2	39	143259	1	13	59	141220	-1	142169	0	949	3	2	2039	52	143272	-53	0																39												
WM080112	114419_fnca	2	1	1	1646432681	1	75.032	75.032	2.0.10.147	2.0.10.242	2.0.10.242	1.0.0.439	7	234	2	3	Verdana	1	80	0	0	0	WM Stimuli\	0.9	830.333333333333	1	849	0.9	928.666666666667	1	817.9	0.8	1002.5	1	997.9	0.6	862.833333333333	0.6	900.666666666667	12	319692	2	319681	27	39	319719	-999999	319695	0	31	TrialsPROC	TO_023_TOOL23_BA.png	2	2	40	SessionSelectionList														nonlure	3	Tools	0-Back	35	80	32	0	0	86	3	39	145831	2	14	72	143792	-1	144665	1	873	3	3	2039	53	145845	-54	0																40												
WM080112	114419_fnca	2	1	1	1646432681	1	75.032	75.032	2.0.10.147	2.0.10.242	2.0.10.242	1.0.0.439	7	234	2	3	Verdana	1	80	0	0	0	WM Stimuli\	0.9	830.333333333333	1	849	0.9	928.666666666667	1	817.9	0.8	1002.5	1	997.9	0.6	862.833333333333	0.6	900.666666666667	12	319692	2	319681	27	39	319719	-999999	319695	0	31	TrialsPROC	TO_020_TOOL20_BA.png	2	2	41	SessionSelectionList														nonlure	3	Tools	0-Back	36	80	33	0	0	87	4	39	148390	1	13	59	146351	-1	147217	1	866	3	3	2039	52	148403	-53	0																41												
WM080112	114419_fnca	2	1	1	1646432681	1	75.032	75.032	2.0.10.147	2.0.10.242	2.0.10.242	1.0.0.439	7	234	2	3	Verdana	1	80	0	0	0	WM Stimuli\	0.9	830.333333333333	1	849	0.9	928.666666666667	1	817.9	0.8	1002.5	1	997.9	0.6	862.833333333333	0.6	900.666666666667	12	319692	2	319681	27	39	319719	-999999	319695	0	31	TrialsPROC	TO_020_TOOL20_BA.png	2	2	42	SessionSelectionList														lure	3	Tools	0-Back	37	80	34	0	0	88	5	39	150949	1	13	59	148910	-1	149719	1	809	3	3	2039	52	150962	-53	0																42												
WM080112	114419_fnca	2	1	1	1646432681	1	75.032	75.032	2.0.10.147	2.0.10.242	2.0.10.242	1.0.0.439	7	234	2	3	Verdana	1	80	0	0	0	WM Stimuli\	0.9	830.333333333333	1	849	0.9	928.666666666667	1	817.9	0.8	1002.5	1	997.9	0.6	862.833333333333	0.6	900.666666666667	12	319692	2	319681	27	39	319719	-999999	319695	0	31	TrialsPROC	TO_022_TOOL22_BA.png	2	2	43	SessionSelectionList														nonlure	3	Tools	0-Back	38	80	35	0	0	82	1	40	153535	1	13	85	151495	-1	152284	0	789	2	3	2040	53	153548	-54	0																43												
WM080112	114419_fnca	2	1	1	1646432681	1	75.032	75.032	2.0.10.147	2.0.10.242	2.0.10.242	1.0.0.439	7	234	2	3	Verdana	1	80	0	0	0	WM Stimuli\	0.9	830.333333333333	1	849	0.9	928.666666666667	1	817.9	0.8	1002.5	1	997.9	0.6	862.833333333333	0.6	900.666666666667	12	319692	2	319681	27	39	319719	-999999	319695	0	31	TrialsPROC	TO_022_TOOL22_BA.png	2	2	44	SessionSelectionList														lure	3	Tools	0-Back	39	80	36	0	0	78	2	39	156093	2	14	59	154054	-1	155050	0	996	2	3	2039	53	156107	-54	0																44												
WM080112	114419_fnca	2	1	1	1646432681	1	75.032	75.032	2.0.10.147	2.0.10.242	2.0.10.242	1.0.0.439	7	234	2	3	Verdana	1	80	0	0	0	WM Stimuli\	0.9	830.333333333333	1	849	0.9	928.666666666667	1	817.9	0.8	1002.5	1	997.9	0.6	862.833333333333	0.6	900.666666666667	12	319692	2	319681	27	39	319719	-999999	319695	0	31	TrialsPROC	TO_021_TOOL21_BA.png	2	2	45	SessionSelectionList														nonlure	3	Tools	0-Back	40	80	37	0	0	79	1	39	158652	2	14	59	156613	-1	158025	1	1412	3	3	2039	53	158666	-54	0																45												
WM080112	114419_fnca	2	1	1	1646432681	1	75.032	75.032	2.0.10.147	2.0.10.242	2.0.10.242	1.0.0.439	7	234	2	3	Verdana	1	80	0	0	0	WM Stimuli\	0.9	830.333333333333	1	849	0.9	928.666666666667	1	817.9	0.8	1002.5	1	997.9	0.6	862.833333333333	0.6	900.666666666667	12	319692	2	319681	27	39	319719	-999999	319695	0	31	TrialsPROC	TO_021_TOOL21_BA.png	2	2	46	SessionSelectionList														lure	3	Tools	0-Back	41	80	38	0	0	80	2	39	161211	2	14	59	159172	-1	159950	1	778	3	3	2039	53	161225	-54	0																46												
WM080112	114419_fnca	2	1	1	1646432681	1	75.032	75.032	2.0.10.147	2.0.10.242	2.0.10.242	1.0.0.439	7	234	2	3	Verdana	1	80	0	0	0	WM Stimuli\	0.9	830.333333333333	1	849	0.9	928.666666666667	1	817.9	0.8	1002.5	1	997.9	0.6	862.833333333333	0.6	900.666666666667	12	319692	2	319681	27	39	319719	-999999	319695	0	32	Fix15secPROC	""	2	2	47	SessionSelectionList																																															6	161678	-7	0							47												
WM080112	114419_fnca	2	1	1	1646432681	1	75.032	75.032	2.0.10.147	2.0.10.242	2.0.10.242	1.0.0.439	7	234	2	3	Verdana	1	80	0	0	0	WM Stimuli\	0.9	830.333333333333	1	849	0.9	928.666666666667	1	817.9	0.8	1002.5	1	997.9	0.6	862.833333333333	0.6	900.666666666667	12	319692	2	319681	27	39	319719	-999999	319695	0	33	Cue2BackPROC	""	2	2	48	SessionSelectionList									13	176685	-14	0																																													48												
WM080112	114419_fnca	2	1	1	1646432681	1	75.032	75.032	2.0.10.147	2.0.10.242	2.0.10.242	1.0.0.439	7	234	2	3	Verdana	1	80	0	0	0	WM Stimuli\	0.9	830.333333333333	1	849	0.9	928.666666666667	1	817.9	0.8	1002.5	1	997.9	0.6	862.833333333333	0.6	900.666666666667	12	319692	2	319681	27	39	319719	-999999	319695	0	34	TrialsPROC	BP_020_H17-T_BA.png	2	2	49	SessionSelectionList														nonlure	3	Body	2-Back	42	80	39	0	0	80	3	39	181296	2	14	85	179257	-1	180180	1	923	3	3	2039	53	181310	-54	0																49												
WM080112	114419_fnca	2	1	1	1646432681	1	75.032	75.032	2.0.10.147	2.0.10.242	2.0.10.242	1.0.0.439	7	234	2	3	Verdana	1	80	0	0	0	WM Stimuli\	0.9	830.333333333333	1	849	0.9	928.666666666667	1	817.9	0.8	1002.5	1	997.9	0.6	862.833333333333	0.6	900.666666666667	12	319692	2	319681	27	39	319719	-999999	319695	0	34	TrialsPROC	BP_019_H14-T_BA.png	2	2	50	SessionSelectionList														nonlure	3	Body	2-Back	43	80	40	0	0	80	4	39	183895	2	14	99	181856	-1	182619	1	763	3	3	2039	53	183909	-54	0																50												
WM080112	114419_fnca	2	1	1	1646432681	1	75.032	75.032	2.0.10.147	2.0.10.242	2.0.10.242	1.0.0.439	7	234	2	3	Verdana	1	80	0	0	0	WM Stimuli\	0.9	830.333333333333	1	849	0.9	928.666666666667	1	817.9	0.8	1002.5	1	997.9	0.6	862.833333333333	0.6	900.666666666667	12	319692	2	319681	27	39	319719	-999999	319695	0	34	TrialsPROC	BP_020_H17-T_BA.png	2	2	51	SessionSelectionList														target	2	Body	2-Back	44	80	41	0	0	80	1	39	186454	2	14	59	184415	-1	185272	1	857	2	2	2039	53	186468	-54	0																51												
WM080112	114419_fnca	2	1	1	1646432681	1	75.032	75.032	2.0.10.147	2.0.10.242	2.0.10.242	1.0.0.439	7	234	2	3	Verdana	1	80	0	0	0	WM Stimuli\	0.9	830.333333333333	1	849	0.9	928.666666666667	1	817.9	0.8	1002.5	1	997.9	0.6	862.833333333333	0.6	900.666666666667	12	319692	2	319681	27	39	319719	-999999	319695	0	34	TrialsPROC	BP_019_H14-T_BA.png	2	2	52	SessionSelectionList														target	2	Body	2-Back	45	80	42	0	0	80	1	39	189013	2	14	59	186974	-1	187652	0	678	3	2	2039	53	189027	-54	0																52												
WM080112	114419_fnca	2	1	1	1646432681	1	75.032	75.032	2.0.10.147	2.0.10.242	2.0.10.242	1.0.0.439	7	234	2	3	Verdana	1	80	0	0	0	WM Stimuli\	0.9	830.333333333333	1	849	0.9	928.666666666667	1	817.9	0.8	1002.5	1	997.9	0.6	862.833333333333	0.6	900.666666666667	12	319692	2	319681	27	39	319719	-999999	319695	0	34	TrialsPROC	BP_024_H3-T_BA.png	2	2	53	SessionSelectionList														nonlure	3	Body	2-Back	46	80	43	0	0	80	2	39	191585	2	14	72	189546	-1	190280	1	734	3	3	2039	53	191599	-54	0																53												
WM080112	114419_fnca	2	1	1	1646432681	1	75.032	75.032	2.0.10.147	2.0.10.242	2.0.10.242	1.0.0.439	7	234	2	3	Verdana	1	80	0	0	0	WM Stimuli\	0.9	830.333333333333	1	849	0.9	928.666666666667	1	817.9	0.8	1002.5	1	997.9	0.6	862.833333333333	0.6	900.666666666667	12	319692	2	319681	27	39	319719	-999999	319695	0	34	TrialsPROC	BP_024_H3-T_BA.png	2	2	54	SessionSelectionList														lure	3	Body	2-Back	47	80	44	0	0	80	3	39	194145	1	13	60	192106	-1	192822	1	716	3	3	2039	52	194158	-53	0																54												
WM080112	114419_fnca	2	1	1	1646432681	1	75.032	75.032	2.0.10.147	2.0.10.242	2.0.10.242	1.0.0.439	7	234	2	3	Verdana	1	80	0	0	0	WM Stimuli\	0.9	830.333333333333	1	849	0.9	928.666666666667	1	817.9	0.8	1002.5	1	997.9	0.6	862.833333333333	0.6	900.666666666667	12	319692	2	319681	27	39	319719	-999999	319695	0	34	TrialsPROC	BP_025_H5-T_BA.png	2	2	55	SessionSelectionList														nonlure	3	Body	2-Back	48	80	45	0	0	80	4	39	196717	1	13	72	194678	-1	195640	1	962	3	3	2039	52	196730	-53	0																55												
WM080112	114419_fnca	2	1	1	1646432681	1	75.032	75.032	2.0.10.147	2.0.10.242	2.0.10.242	1.0.0.439	7	234	2	3	Verdana	1	80	0	0	0	WM Stimuli\	0.9	830.333333333333	1	849	0.9	928.666666666667	1	817.9	0.8	1002.5	1	997.9	0.6	862.833333333333	0.6	900.666666666667	12	319692	2	319681	27	39	319719	-999999	319695	0	34	TrialsPROC	BP_023_H25-T_BA.png	2	2	56	SessionSelectionList														nonlure	3	Body	2-Back	49	80	46	0	0	80	5	39	199289	1	13	72	197250	-1	198429	1	1179	3	3	2039	52	199302	-53	0																56												
WM080112	114419_fnca	2	1	1	1646432681	1	75.032	75.032	2.0.10.147	2.0.10.242	2.0.10.242	1.0.0.439	7	234	2	3	Verdana	1	80	0	0	0	WM Stimuli\	0.9	830.333333333333	1	849	0.9	928.666666666667	1	817.9	0.8	1002.5	1	997.9	0.6	862.833333333333	0.6	900.666666666667	12	319692	2	319681	27	39	319719	-999999	319695	0	34	TrialsPROC	BP_022_H24-T_BA.png	2	2	57	SessionSelectionList														nonlure	3	Body	2-Back	50	80	47	0	0	80	6	39	201848	1	13	59	199809	-1	200554	1	745	3	3	2039	52	201861	-53	0																57												
WM080112	114419_fnca	2	1	1	1646432681	1	75.032	75.032	2.0.10.147	2.0.10.242	2.0.10.242	1.0.0.439	7	234	2	3	Verdana	1	80	0	0	0	WM Stimuli\	0.9	830.333333333333	1	849	0.9	928.666666666667	1	817.9	0.8	1002.5	1	997.9	0.6	862.833333333333	0.6	900.666666666667	12	319692	2	319681	27	39	319719	-999999	319695	0	34	TrialsPROC	BP_022_H24-T_BA.png	2	2	58	SessionSelectionList														lure	3	Body	2-Back	51	80	48	0	0	80	7	39	204407	1	13	59	202368	-1	202962	1	594	3	3	2039	52	204420	-53	0																58												
WM080112	114419_fnca	2	1	1	1646432681	1	75.032	75.032	2.0.10.147	2.0.10.242	2.0.10.242	1.0.0.439	7	234	2	3	Verdana	1	80	0	0	0	WM Stimuli\	0.9	830.333333333333	1	849	0.9	928.666666666667	1	817.9	0.8	1002.5	1	997.9	0.6	862.833333333333	0.6	900.666666666667	12	319692	2	319681	27	39	319719	-999999	319695	0	35	Cue2BackPROC	""	2	2	59	SessionSelectionList									5	204873	-6	0																																													59												
WM080112	114419_fnca	2	1	1	1646432681	1	75.032	75.032	2.0.10.147	2.0.10.242	2.0.10.242	1.0.0.439	7	234	2	3	Verdana	1	80	0	0	0	WM Stimuli\	0.9	830.333333333333	1	849	0.9	928.666666666667	1	817.9	0.8	1002.5	1	997.9	0.6	862.833333333333	0.6	900.666666666667	12	319692	2	319681	27	39	319719	-999999	319695	0	36	TrialsPROC	PL_019_SCENE_05.png	2	2	60	SessionSelectionList														nonlure	3	Place	2-Back	52	80	49	0	0	80	8	39	209485	1	13	78	207446	-1	208838	1	1392	3	3	2039	52	209498	-53	0																60												
WM080112	114419_fnca	2	1	1	1646432681	1	75.032	75.032	2.0.10.147	2.0.10.242	2.0.10.242	1.0.0.439	7	234	2	3	Verdana	1	80	0	0	0	WM Stimuli\	0.9	830.333333333333	1	849	0.9	928.666666666667	1	817.9	0.8	1002.5	1	997.9	0.6	862.833333333333	0.6	900.666666666667	12	319692	2	319681	27	39	319719	-999999	319695	0	36	TrialsPROC	PL_017_SCENE_03.png	2	2	61	SessionSelectionList														nonlure	3	Place	2-Back	53	80	50	0	0	80	9	39	212057	1	13	72	210018	-1	210911	1	893	3	3	2039	52	212070	-53	0																61												
WM080112	114419_fnca	2	1	1	1646432681	1	75.032	75.032	2.0.10.147	2.0.10.242	2.0.10.242	1.0.0.439	7	234	2	3	Verdana	1	80	0	0	0	WM Stimuli\	0.9	830.333333333333	1	849	0.9	928.666666666667	1	817.9	0.8	1002.5	1	997.9	0.6	862.833333333333	0.6	900.666666666667	12	319692	2	319681	27	39	319719	-999999	319695	0	36	TrialsPROC	PL_017_SCENE_03.png	2	2	62	SessionSelectionList														lure	3	Place	2-Back	54	80	51	0	0	80	10	39	214629	2	14	72	212590	-1	213558	1	968	3	3	2039	53	214643	-54	0																62												
WM080112	114419_fnca	2	1	1	1646432681	1	75.032	75.032	2.0.10.147	2.0.10.242	2.0.10.242	1.0.0.439	7	234	2	3	Verdana	1	80	0	0	0	WM Stimuli\	0.9	830.333333333333	1	849	0.9	928.666666666667	1	817.9	0.8	1002.5	1	997.9	0.6	862.833333333333	0.6	900.666666666667	12	319692	2	319681	27	39	319719	-999999	319695	0	36	TrialsPROC	PL_016_SCENE_02.png	2	2	63	SessionSelectionList														nonlure	3	Place	2-Back	55	80	52	0	0	80	11	39	217215	1	13	86	215176	-1	216123	1	947	3	3	2039	52	217228	-53	0																63												
WM080112	114419_fnca	2	1	1	1646432681	1	75.032	75.032	2.0.10.147	2.0.10.242	2.0.10.242	1.0.0.439	7	234	2	3	Verdana	1	80	0	0	0	WM Stimuli\	0.9	830.333333333333	1	849	0.9	928.666666666667	1	817.9	0.8	1002.5	1	997.9	0.6	862.833333333333	0.6	900.666666666667	12	319692	2	319681	27	39	319719	-999999	319695	0	36	TrialsPROC	PL_015_SCENE_01.png	2	2	64	SessionSelectionList														nonlure	3	Place	2-Back	56	80	53	0	0	80	12	38	219800	2	14	86	217762	-1	218874	1	1112	3	3	2038	52	219814	-53	0																64												
WM080112	114419_fnca	2	1	1	1646432681	1	75.032	75.032	2.0.10.147	2.0.10.242	2.0.10.242	1.0.0.439	7	234	2	3	Verdana	1	80	0	0	0	WM Stimuli\	0.9	830.333333333333	1	849	0.9	928.666666666667	1	817.9	0.8	1002.5	1	997.9	0.6	862.833333333333	0.6	900.666666666667	12	319692	2	319681	27	39	319719	-999999	319695	0	36	TrialsPROC	PL_016_SCENE_02.png	2	2	65	SessionSelectionList														target	2	Place	2-Back	57	80	54	0	0	80	13	39	222373	1	13	72	220334	-1	221035	0	701	3	2	2039	52	222386	-53	0																65												
WM080112	114419_fnca	2	1	1	1646432681	1	75.032	75.032	2.0.10.147	2.0.10.242	2.0.10.242	1.0.0.439	7	234	2	3	Verdana	1	80	0	0	0	WM Stimuli\	0.9	830.333333333333	1	849	0.9	928.666666666667	1	817.9	0.8	1002.5	1	997.9	0.6	862.833333333333	0.6	900.666666666667	12	319692	2	319681	27	39	319719	-999999	319695	0	36	TrialsPROC	PL_015_SCENE_01.png	2	2	66	SessionSelectionList														target	2	Place	2-Back	58	80	55	0	0	80	14	39	224945	1	13	72	222906	-1	223913	0	1007	3	2	2039	52	224958	-53	0																66												
WM080112	114419_fnca	2	1	1	1646432681	1	75.032	75.032	2.0.10.147	2.0.10.242	2.0.10.242	1.0.0.439	7	234	2	3	Verdana	1	80	0	0	0	WM Stimuli\	0.9	830.333333333333	1	849	0.9	928.666666666667	1	817.9	0.8	1002.5	1	997.9	0.6	862.833333333333	0.6	900.666666666667	12	319692	2	319681	27	39	319719	-999999	319695	0	36	TrialsPROC	PL_020_SCENE_06.png	2	2	67	SessionSelectionList														nonlure	3	Place	2-Back	59	80	56	0	0	80	15	39	227517	2	14	72	225478	-1	226652	1	1174	3	3	2039	53	227531	-54	0																67												
WM080112	114419_fnca	2	1	1	1646432681	1	75.032	75.032	2.0.10.147	2.0.10.242	2.0.10.242	1.0.0.439	7	234	2	3	Verdana	1	80	0	0	0	WM Stimuli\	0.9	830.333333333333	1	849	0.9	928.666666666667	1	817.9	0.8	1002.5	1	997.9	0.6	862.833333333333	0.6	900.666666666667	12	319692	2	319681	27	39	319719	-999999	319695	0	36	TrialsPROC	PL_020_SCENE_06.png	2	2	68	SessionSelectionList														lure	3	Place	2-Back	60	80	57	0	0	80	16	40	230090	1	13	72	228050	-1	228745	1	695	3	3	2040	53	230103	-54	0																68												
WM080112	114419_fnca	2	1	1	1646432681	1	75.032	75.032	2.0.10.147	2.0.10.242	2.0.10.242	1.0.0.439	7	234	2	3	Verdana	1	80	0	0	0	WM Stimuli\	0.9	830.333333333333	1	849	0.9	928.666666666667	1	817.9	0.8	1002.5	1	997.9	0.6	862.833333333333	0.6	900.666666666667	12	319692	2	319681	27	39	319719	-999999	319695	0	36	TrialsPROC	PL_018_SCENE_04.png	2	2	69	SessionSelectionList														nonlure	3	Place	2-Back	61	80	58	0	0	80	17	39	232688	2	14	99	230649	-1	231488	1	839	3	3	2039	53	232702	-54	0																69												
WM080112	114419_fnca	2	1	1	1646432681	1	75.032	75.032	2.0.10.147	2.0.10.242	2.0.10.242	1.0.0.439	7	234	2	3	Verdana	1	80	0	0	0	WM Stimuli\	0.9	830.333333333333	1	849	0.9	928.666666666667	1	817.9	0.8	1002.5	1	997.9	0.6	862.833333333333	0.6	900.666666666667	12	319692	2	319681	27	39	319719	-999999	319695	0	37	Fix15secPROC	""	2	2	70	SessionSelectionList																																															6	233155	-7	0							70												
WM080112	114419_fnca	2	1	1	1646432681	1	75.032	75.032	2.0.10.147	2.0.10.242	2.0.10.242	1.0.0.439	7	234	2	3	Verdana	1	80	0	0	0	WM Stimuli\	0.9	830.333333333333	1	849	0.9	928.666666666667	1	817.9	0.8	1002.5	1	997.9	0.6	862.833333333333	0.6	900.666666666667	12	319692	2	319681	27	39	319719	-999999	319695	0	38	Cue0BackPROC	FC_020_F10.png	2	2	71	SessionSelectionList																																										40	248189	-41	0												71												
WM080112	114419_fnca	2	1	1	1646432681	1	75.032	75.032	2.0.10.147	2.0.10.242	2.0.10.242	1.0.0.439	7	234	2	3	Verdana	1	80	0	0	0	WM Stimuli\	0.9	830.333333333333	1	849	0.9	928.666666666667	1	817.9	0.8	1002.5	1	997.9	0.6	862.833333333333	0.6	900.666666666667	12	319692	2	319681	27	39	319719	-999999	319695	0	39	TrialsPROC	FC_024_F12.png	2	2	72	SessionSelectionList														nonlure	3	Face	0-Back	62	80	59	0	0	81	18	39	252760	2	14	72	250721	-1	251475	1	754	3	3	2039	53	252774	-54	0																72												
WM080112	114419_fnca	2	1	1	1646432681	1	75.032	75.032	2.0.10.147	2.0.10.242	2.0.10.242	1.0.0.439	7	234	2	3	Verdana	1	80	0	0	0	WM Stimuli\	0.9	830.333333333333	1	849	0.9	928.666666666667	1	817.9	0.8	1002.5	1	997.9	0.6	862.833333333333	0.6	900.666666666667	12	319692	2	319681	27	39	319719	-999999	319695	0	39	TrialsPROC	FC_023_M12.png	2	2	73	SessionSelectionList														nonlure	3	Face	0-Back	63	80	60	0	0	82	19	39	255346	1	13	86	253307	-1	254367	1	1060	3	3	2039	52	255359	-53	0																73												
WM080112	114419_fnca	2	1	1	1646432681	1	75.032	75.032	2.0.10.147	2.0.10.242	2.0.10.242	1.0.0.439	7	234	2	3	Verdana	1	80	0	0	0	WM Stimuli\	0.9	830.333333333333	1	849	0.9	928.666666666667	1	817.9	0.8	1002.5	1	997.9	0.6	862.833333333333	0.6	900.666666666667	12	319692	2	319681	27	39	319719	-999999	319695	0	39	TrialsPROC	FC_020_F10.png	2	2	74	SessionSelectionList														target	2	Face	0-Back	64	80	61	0	0	83	1	39	257918	1	13	72	255879	-1	256574	1	695	2	2	2039	52	257931	-53	0																74												
WM080112	114419_fnca	2	1	1	1646432681	1	75.032	75.032	2.0.10.147	2.0.10.242	2.0.10.242	1.0.0.439	7	234	2	3	Verdana	1	80	0	0	0	WM Stimuli\	0.9	830.333333333333	1	849	0.9	928.666666666667	1	817.9	0.8	1002.5	1	997.9	0.6	862.833333333333	0.6	900.666666666667	12	319692	2	319681	27	39	319719	-999999	319695	0	39	TrialsPROC	FC_024_F12.png	2	2	75	SessionSelectionList														lure	3	Face	0-Back	65	80	62	0	0	83	1	39	260490	2	14	72	258451	-1	259094	1	643	3	3	2039	53	260504	-54	0																75												
WM080112	114419_fnca	2	1	1	1646432681	1	75.032	75.032	2.0.10.147	2.0.10.242	2.0.10.242	1.0.0.439	7	234	2	3	Verdana	1	80	0	0	0	WM Stimuli\	0.9	830.333333333333	1	849	0.9	928.666666666667	1	817.9	0.8	1002.5	1	997.9	0.6	862.833333333333	0.6	900.666666666667	12	319692	2	319681	27	39	319719	-999999	319695	0	39	TrialsPROC	FC_020_F10.png	2	2	76	SessionSelectionList														target	2	Face	0-Back	66	80	63	0	0	84	1	40	263063	1	13	72	261023	-1	261726	1	703	2	2	2040	53	263076	-54	0																76												
WM080112	114419_fnca	2	1	1	1646432681	1	75.032	75.032	2.0.10.147	2.0.10.242	2.0.10.242	1.0.0.439	7	234	2	3	Verdana	1	80	0	0	0	WM Stimuli\	0.9	830.333333333333	1	849	0.9	928.666666666667	1	817.9	0.8	1002.5	1	997.9	0.6	862.833333333333	0.6	900.666666666667	12	319692	2	319681	27	39	319719	-999999	319695	0	39	TrialsPROC	FC_022_F11.png	2	2	77	SessionSelectionList														nonlure	3	Face	0-Back	67	80	64	0	0	85	1	39	265635	1	13	73	263596	-1	264507	1	911	3	3	2039	52	265648	-53	0																77												
WM080112	114419_fnca	2	1	1	1646432681	1	75.032	75.032	2.0.10.147	2.0.10.242	2.0.10.242	1.0.0.439	7	234	2	3	Verdana	1	80	0	0	0	WM Stimuli\	0.9	830.333333333333	1	849	0.9	928.666666666667	1	817.9	0.8	1002.5	1	997.9	0.6	862.833333333333	0.6	900.666666666667	12	319692	2	319681	27	39	319719	-999999	319695	0	39	TrialsPROC	FC_023_M12.png	2	2	78	SessionSelectionList														lure	3	Face	0-Back	68	80	65	0	0	85	2	39	268207	1	14	72	266168	-1	267071	1	903	3	3	2039	53	268221	-54	0																78												
WM080112	114419_fnca	2	1	1	1646432681	1	75.032	75.032	2.0.10.147	2.0.10.242	2.0.10.242	1.0.0.439	7	234	2	3	Verdana	1	80	0	0	0	WM Stimuli\	0.9	830.333333333333	1	849	0.9	928.666666666667	1	817.9	0.8	1002.5	1	997.9	0.6	862.833333333333	0.6	900.666666666667	12	319692	2	319681	27	39	319719	-999999	319695	0	39	TrialsPROC	FC_021_M11.png	2	2	79	SessionSelectionList														nonlure	3	Face	0-Back	69	80	66	0	0	86	3	39	270793	1	13	86	268754	-1	269620	1	866	3	3	2039	52	270806	-53	0																79												
WM080112	114419_fnca	2	1	1	1646432681	1	75.032	75.032	2.0.10.147	2.0.10.242	2.0.10.242	1.0.0.439	7	234	2	3	Verdana	1	80	0	0	0	WM Stimuli\	0.9	830.333333333333	1	849	0.9	928.666666666667	1	817.9	0.8	1002.5	1	997.9	0.6	862.833333333333	0.6	900.666666666667	12	319692	2	319681	27	39	319719	-999999	319695	0	39	TrialsPROC	FC_021_M11.png	2	2	80	SessionSelectionList														lure	3	Face	0-Back	70	80	67	0	0	86	4	39	273365	1	13	72	271326	-1	272027	1	701	3	3	2039	52	273378	-53	0																80												
WM080112	114419_fnca	2	1	1	1646432681	1	75.032	75.032	2.0.10.147	2.0.10.242	2.0.10.242	1.0.0.439	7	234	2	3	Verdana	1	80	0	0	0	WM Stimuli\	0.9	830.333333333333	1	849	0.9	928.666666666667	1	817.9	0.8	1002.5	1	997.9	0.6	862.833333333333	0.6	900.666666666667	12	319692	2	319681	27	39	319719	-999999	319695	0	39	TrialsPROC	FC_019_M10.png	2	2	81	SessionSelectionList														nonlure	3	Face	0-Back	71	80	68	0	0	87	5	40	275951	1	13	85	273911	-1	274854	1	943	3	3	2040	53	275964	-54	0																81												
WM080112	114419_fnca	2	1	1	1646432681	1	75.032	75.032	2.0.10.147	2.0.10.242	2.0.10.242	1.0.0.439	7	234	2	3	Verdana	1	80	0	0	0	WM Stimuli\	0.9	830.333333333333	1	849	0.9	928.666666666667	1	817.9	0.8	1002.5	1	997.9	0.6	862.833333333333	0.6	900.666666666667	12	319692	2	319681	27	39	319719	-999999	319695	0	40	Cue0BackPROC	PL_021_SCENE_07.png	2	2	82	SessionSelectionList																																										46	276457	-47	0												82												
WM080112	114419_fnca	2	1	1	1646432681	1	75.032	75.032	2.0.10.147	2.0.10.242	2.0.10.242	1.0.0.439	7	234	2	3	Verdana	1	80	0	0	0	WM Stimuli\	0.9	830.333333333333	1	849	0.9	928.666666666667	1	817.9	0.8	1002.5	1	997.9	0.6	862.833333333333	0.6	900.666666666667	12	319692	2	319681	27	39	319719	-999999	319695	0	41	TrialsPROC	PL_025_SCENE_18.png	2	2	83	SessionSelectionList														nonlure	3	Place	0-Back	72	80	69	0	0	87	6	39	281028	2	14	78	278989	-1	279822	1	833	3	3	2039	53	281042	-54	0																83												
WM080112	114419_fnca	2	1	1	1646432681	1	75.032	75.032	2.0.10.147	2.0.10.242	2.0.10.242	1.0.0.439	7	234	2	3	Verdana	1	80	0	0	0	WM Stimuli\	0.9	830.333333333333	1	849	0.9	928.666666666667	1	817.9	0.8	1002.5	1	997.9	0.6	862.833333333333	0.6	900.666666666667	12	319692	2	319681	27	39	319719	-999999	319695	0	41	TrialsPROC	PL_026_SCENE_24.png	2	2	84	SessionSelectionList														nonlure	3	Place	0-Back	73	80	70	0	0	88	7	39	283614	1	14	86	281575	-1	282537	1	962	3	3	2039	53	283628	-54	0																84												
WM080112	114419_fnca	2	1	1	1646432681	1	75.032	75.032	2.0.10.147	2.0.10.242	2.0.10.242	1.0.0.439	7	234	2	3	Verdana	1	80	0	0	0	WM Stimuli\	0.9	830.333333333333	1	849	0.9	928.666666666667	1	817.9	0.8	1002.5	1	997.9	0.6	862.833333333333	0.6	900.666666666667	12	319692	2	319681	27	39	319719	-999999	319695	0	41	TrialsPROC	PL_025_SCENE_18.png	2	2	85	SessionSelectionList														lure	3	Place	0-Back	74	80	71	0	0	88	8	39	286186	2	14	72	284147	-1	285103	1	956	3	3	2039	53	286200	-54	0																85												
WM080112	114419_fnca	2	1	1	1646432681	1	75.032	75.032	2.0.10.147	2.0.10.242	2.0.10.242	1.0.0.439	7	234	2	3	Verdana	1	80	0	0	0	WM Stimuli\	0.9	830.333333333333	1	849	0.9	928.666666666667	1	817.9	0.8	1002.5	1	997.9	0.6	862.833333333333	0.6	900.666666666667	12	319692	2	319681	27	39	319719	-999999	319695	0	41	TrialsPROC	PL_022_SCENE_08.png	2	2	86	SessionSelectionList														nonlure	3	Place	0-Back	75	80	72	0	0	88	9	39	288772	2	13	86	286733	-1	287870	1	1137	3	3	2039	52	288785	-53	0																86												
WM080112	114419_fnca	2	1	1	1646432681	1	75.032	75.032	2.0.10.147	2.0.10.242	2.0.10.242	1.0.0.439	7	234	2	3	Verdana	1	80	0	0	0	WM Stimuli\	0.9	830.333333333333	1	849	0.9	928.666666666667	1	817.9	0.8	1002.5	1	997.9	0.6	862.833333333333	0.6	900.666666666667	12	319692	2	319681	27	39	319719	-999999	319695	0	41	TrialsPROC	PL_026_SCENE_24.png	2	2	87	SessionSelectionList														lure	3	Place	0-Back	76	80	73	0	0	89	10	39	291344	2	14	72	289305	-1	290167	1	862	3	3	2039	53	291358	-54	0																87												
WM080112	114419_fnca	2	1	1	1646432681	1	75.032	75.032	2.0.10.147	2.0.10.242	2.0.10.242	1.0.0.439	7	234	2	3	Verdana	1	80	0	0	0	WM Stimuli\	0.9	830.333333333333	1	849	0.9	928.666666666667	1	817.9	0.8	1002.5	1	997.9	0.6	862.833333333333	0.6	900.666666666667	12	319692	2	319681	27	39	319719	-999999	319695	0	41	TrialsPROC	PL_021_SCENE_07.png	2	2	88	SessionSelectionList														target	2	Place	0-Back	77	80	74	0	0	89	1	39	293916	2	14	72	291877	-1	292560	1	683	2	2	2039	53	293930	-54	0																88												
WM080112	114419_fnca	2	1	1	1646432681	1	75.032	75.032	2.0.10.147	2.0.10.242	2.0.10.242	1.0.0.439	7	234	2	3	Verdana	1	80	0	0	0	WM Stimuli\	0.9	830.333333333333	1	849	0.9	928.666666666667	1	817.9	0.8	1002.5	1	997.9	0.6	862.833333333333	0.6	900.666666666667	12	319692	2	319681	27	39	319719	-999999	319695	0	41	TrialsPROC	PL_021_SCENE_07.png	2	2	89	SessionSelectionList														target	2	Place	0-Back	78	80	75	0	0	89	2	39	296489	1	13	73	294450	-1	295734	1	1284	2	2	2039	52	296502	-53	0																89												
WM080112	114419_fnca	2	1	1	1646432681	1	75.032	75.032	2.0.10.147	2.0.10.242	2.0.10.242	1.0.0.439	7	234	2	3	Verdana	1	80	0	0	0	WM Stimuli\	0.9	830.333333333333	1	849	0.9	928.666666666667	1	817.9	0.8	1002.5	1	997.9	0.6	862.833333333333	0.6	900.666666666667	12	319692	2	319681	27	39	319719	-999999	319695	0	41	TrialsPROC	PL_023_SCENE_09.png	2	2	90	SessionSelectionList														nonlure	3	Place	0-Back	79	80	76	0	0	89	1	39	299061	1	13	72	297022	-1	298126	1	1104	3	3	2039	52	299074	-53	0																90												
WM080112	114419_fnca	2	1	1	1646432681	1	75.032	75.032	2.0.10.147	2.0.10.242	2.0.10.242	1.0.0.439	7	234	2	3	Verdana	1	80	0	0	0	WM Stimuli\	0.9	830.333333333333	1	849	0.9	928.666666666667	1	817.9	0.8	1002.5	1	997.9	0.6	862.833333333333	0.6	900.666666666667	12	319692	2	319681	27	39	319719	-999999	319695	0	41	TrialsPROC	PL_024_SCENE_10.png	2	2	91	SessionSelectionList														nonlure	3	Place	0-Back	80	80	77	0	0	90	2	40	301647	1	13	85	299607	-1	300637	1	1030	3	3	2040	53	301660	-54	0																91												
WM080112	114419_fnca	2	1	1	1646432681	1	75.032	75.032	2.0.10.147	2.0.10.242	2.0.10.242	1.0.0.439	7	234	2	3	Verdana	1	80	0	0	0	WM Stimuli\	0.9	830.333333333333	1	849	0.9	928.666666666667	1	817.9	0.8	1002.5	1	997.9	0.6	862.833333333333	0.6	900.666666666667	12	319692	2	319681	27	39	319719	-999999	319695	0	41	TrialsPROC	PL_022_SCENE_08.png	2	2	92	SessionSelectionList														lure	3	Place	0-Back	80	80	78	0	0	90	3	39	304219	1	13	73	302180	-1	303308	1	1128	3	3	2039	52	304232	-53	0																92												
WM080112	114419_fnca	2	1	1	1646432681	1	75.032	75.032	2.0.10.147	2.0.10.242	2.0.10.242	1.0.0.439	7	234	2	3	Verdana	1	80	0	0	0	WM Stimuli\	0.9	830.333333333333	1	849	0.9	928.666666666667	1	817.9	0.8	1002.5	1	997.9	0.6	862.833333333333	0.6	900.666666666667	12	319692	2	319681	27	39	319719	-999999	319695	0	42	Fix15secPROC	""	2	2	93	SessionSelectionList																																															5	304685	-6	0							93												
