ExperimentName	HCPID	RunNumber	Subject	Session	RandomSeed	Group	Laptop.RefreshRate	ScannerD2.RefreshRate	StudioVersion	RuntimeVersion	RuntimeVersionExpected	ExperimentVersion	triggercode	Allowed	Target	Nontarget	FontStyle	RunTrialNumber[Session]	TrialsPerRun[Session]	TotalRespGreater200[Session]	ConsecRTLess200[Session]	ConsecNonResp[Session]	StimuliDir	ACC_2_Back_Body	Avg_RT_For_Correct_Trials_2_Back_Body	ACC_0_Back_Body	Avg_RT_For_Correct_Trials_0_Back_Body	ACC_2_Back_Face	Avg_RT_For_Correct_Trials_2_Back_Face	ACC_0_Back_Face	Avg_RT_For_Correct_Trials_0_Back_Face	ACC_2_Back_Place	Avg_RT_For_Correct_Trials_2_Back_Place	ACC_0_Back_Place	Avg_RT_For_Correct_Trials_0_Back_Place	ACC_2_Back_Tools	Avg_RT_For_Correct_Trials_2_Back_Tools	ACC_0_Back_Tools	Avg_RT_For_Correct_Trials_0_Back_Tools	ExpInstrucFeelFreeToRest.OnsetDelay	ExpInstrucFeelFreeToRest.OnsetTime	ExpInstrucFeelFreeToRest.DurationError	ExpInstrucFeelFreeToRest.StartTime	ExpInstrucFeelFreeToRest.OnsetToOnsetTime	FeelFreeToRest.OnsetDelay	FeelFreeToRest.OnsetTime	FeelFreeToRest.DurationError	FeelFreeToRest.StartTime	FeelFreeToRest.OnsetToOnsetTime	SessionSelectionList	Procedure[Block]	Stimulus[Block]	RunNumberFilterValue	SessionSelectionList.Cycle	SessionSelectionList.Sample	Running[Block]	IntroButtonMap.OnsetDelay	IntroButtonMap.OnsetTime	IntroButtonMap.DurationError	IntroButtonMap.OnsetToOnsetTime	GetReady.OnsetDelay	GetReady.OnsetTime	GetReady.DurationError	GetReady.OnsetToOnsetTime	Cue2Back.OnsetDelay	Cue2Back.OnsetTime	Cue2Back.DurationError	Cue2Back.OnsetToOnsetTime	Run1Block1	TargetType	CorrectResponse	StimType	BlockType	RunTrialNumber[Block]	TrialsPerRun[Block]	TotalRespGreater200[Block]	ConsecRTLess200[Block]	ConsecNonResp[Block]	ControlAcc	ConsecSameResp	ExperimenterWindow.OnsetDelay	ExperimenterWindow.OnsetTime	ExperimenterWindow.DurationError	ExperimenterWindow.OnsetToOnsetTime	Stim.OnsetDelay	Stim.OnsetTime	Stim.DurationError	Stim.RTTime	Stim.ACC	Stim.RT	Stim.RESP	Stim.CRESP	Stim.OnsetToOnsetTime	Fix.OnsetDelay	Fix.OnsetTime	Fix.DurationError	Fix.OnsetToOnsetTime	CueTarget.OnsetDelay	CueTarget.OnsetTime	CueTarget.DurationError	CueTarget.OnsetToOnsetTime	Run1Block2	Fix15sec.OnsetDelay	Fix15sec.OnsetTime	Fix15sec.DurationError	Fix15sec.OnsetToOnsetTime	Run1Block3	Run1Block4	Run1Block5	Run1Block6	Run1Block7	Run1Block8	Block	Procedure[Trial]	Stimulus[Trial]	ReadyList	Running[Trial]	ReadyList.Cycle	ReadyList.Sample	SyncSlide.OnsetDelay	SyncSlide.OnsetTime	SyncSlide.DurationError	SyncSlide.FinishTime	SyncSlide.OnsetToOnsetTime	Trial
WM080112	178950_fnca	1	1	1	-217357444	1	75.031	75.031	2.0.10.147	2.0.10.242	2.0.10.242	1.0.0.439	7	234	2	3	Verdana	1	80	0	0	0	WM Stimuli\	0.9	943.333333333333	0.9	794.555555555556	0.9	809.555555555556	1	708.6	1	980	1	734.5	1	810.4	1	760.8	13	511104	2	511092	14	27	511118	-999999	511107	0	1	TRSyncPROC	""	1	2	1	SessionSelectionList	101	18904	-999999	0	32	203922	-999999	0																																																	1	InitialTR	4	1	ReadyList	1	1	15	217823	-16	219807	0	1
WM080112	178950_fnca	1	1	1	-217357444	1	75.031	75.031	2.0.10.147	2.0.10.242	2.0.10.242	1.0.0.439	7	234	2	3	Verdana	1	80	0	0	0	WM Stimuli\	0.9	943.333333333333	0.9	794.555555555556	0.9	809.555555555556	1	708.6	1	980	1	734.5	1	810.4	1	760.8	13	511104	2	511092	14	27	511118	-999999	511107	0	1	TRSyncPROC	""	1	2	1	SessionSelectionList	101	18904	-999999	0	32	203922	-999999	0																																																	1	InitialTR	3	2	ReadyList	1	2	14	219822	-15	221807	0	2
WM080112	178950_fnca	1	1	1	-217357444	1	75.031	75.031	2.0.10.147	2.0.10.242	2.0.10.242	1.0.0.439	7	234	2	3	Verdana	1	80	0	0	0	WM Stimuli\	0.9	943.333333333333	0.9	794.555555555556	0.9	809.555555555556	1	708.6	1	980	1	734.5	1	810.4	1	760.8	13	511104	2	511092	14	27	511118	-999999	511107	0	1	TRSyncPROC	""	1	2	1	SessionSelectionList	101	18904	-999999	0	32	203922	-999999	0																																																	1	InitialTR	2	3	ReadyList	1	3	13	221821	-14	223807	0	3
WM080112	178950_fnca	1	1	1	-217357444	1	75.031	75.031	2.0.10.147	2.0.10.242	2.0.10.242	1.0.0.439	7	234	2	3	Verdana	1	80	0	0	0	WM Stimuli\	0.9	943.333333333333	0.9	794.555555555556	0.9	809.555555555556	1	708.6	1	980	1	734.5	1	810.4	1	760.8	13	511104	2	511092	14	27	511118	-999999	511107	0	1	TRSyncPROC	""	1	2	1	SessionSelectionList	101	18904	-999999	0	32	203922	-999999	0																																																	1	InitialTR	1	4	ReadyList	1	4	12	223820	-13	225807	0	4
WM080112	178950_fnca	1	1	1	-217357444	1	75.031	75.031	2.0.10.147	2.0.10.242	2.0.10.242	1.0.0.439	7	234	2	3	Verdana	1	80	0	0	0	WM Stimuli\	0.9	943.333333333333	0.9	794.555555555556	0.9	809.555555555556	1	708.6	1	980	1	734.5	1	810.4	1	760.8	13	511104	2	511092	14	27	511118	-999999	511107	0	2	Cue2BackPROC	""	1	2	2	SessionSelectionList									11	225819	-12	0																																													2												
WM080112	178950_fnca	1	1	1	-217357444	1	75.031	75.031	2.0.10.147	2.0.10.242	2.0.10.242	1.0.0.439	7	234	2	3	Verdana	1	80	0	0	0	WM Stimuli\	0.9	943.333333333333	0.9	794.555555555556	0.9	809.555555555556	1	708.6	1	980	1	734.5	1	810.4	1	760.8	13	511104	2	511092	14	27	511118	-999999	511107	0	3	TrialsPROC	BP_002_BP10_BA.png	1	2	3	SessionSelectionList													1	nonlure	3	Body	2-Back	2	80	1	0	0	0	1	52	230444	3	14	84	228392	-1	229418	1	1026	3	3	2052	66	230458	-67	0																3												
WM080112	178950_fnca	1	1	1	-217357444	1	75.031	75.031	2.0.10.147	2.0.10.242	2.0.10.242	1.0.0.439	7	234	2	3	Verdana	1	80	0	0	0	WM Stimuli\	0.9	943.333333333333	0.9	794.555555555556	0.9	809.555555555556	1	708.6	1	980	1	734.5	1	810.4	1	760.8	13	511104	2	511092	14	27	511118	-999999	511107	0	3	TrialsPROC	BP_001_BP1_BA.png	1	2	4	SessionSelectionList													2	nonlure	3	Body	2-Back	3	80	2	0	0	0	2	39	233003	3	14	72	230964	-1	231958	1	994	3	3	2039	53	233017	-54	0																4												
WM080112	178950_fnca	1	1	1	-217357444	1	75.031	75.031	2.0.10.147	2.0.10.242	2.0.10.242	1.0.0.439	7	234	2	3	Verdana	1	80	0	0	0	WM Stimuli\	0.9	943.333333333333	0.9	794.555555555556	0.9	809.555555555556	1	708.6	1	980	1	734.5	1	810.4	1	760.8	13	511104	2	511092	14	27	511118	-999999	511107	0	3	TrialsPROC	BP_006_BP2_BA.png	1	2	5	SessionSelectionList													3	nonlure	3	Body	2-Back	4	80	3	0	0	0	1	39	235562	2	14	59	233523	-1	234320	0	797	2	3	2039	53	235576	-54	0																5												
WM080112	178950_fnca	1	1	1	-217357444	1	75.031	75.031	2.0.10.147	2.0.10.242	2.0.10.242	1.0.0.439	7	234	2	3	Verdana	1	80	0	0	0	WM Stimuli\	0.9	943.333333333333	0.9	794.555555555556	0.9	809.555555555556	1	708.6	1	980	1	734.5	1	810.4	1	760.8	13	511104	2	511092	14	27	511118	-999999	511107	0	3	TrialsPROC	BP_001_BP1_BA.png	1	2	6	SessionSelectionList													4	target	2	Body	2-Back	5	80	4	0	0	0	2	39	238134	2	14	72	236095	-1	237104	1	1009	2	2	2039	53	238148	-54	0																6												
WM080112	178950_fnca	1	1	1	-217357444	1	75.031	75.031	2.0.10.147	2.0.10.242	2.0.10.242	1.0.0.439	7	234	2	3	Verdana	1	80	0	0	0	WM Stimuli\	0.9	943.333333333333	0.9	794.555555555556	0.9	809.555555555556	1	708.6	1	980	1	734.5	1	810.4	1	760.8	13	511104	2	511092	14	27	511118	-999999	511107	0	3	TrialsPROC	BP_005_BP19_BA.png	1	2	7	SessionSelectionList													5	nonlure	3	Body	2-Back	6	80	5	0	0	0	1	39	240707	1	14	73	238668	-1	239724	1	1056	3	3	2039	53	240721	-54	0																7												
WM080112	178950_fnca	1	1	1	-217357444	1	75.031	75.031	2.0.10.147	2.0.10.242	2.0.10.242	1.0.0.439	7	234	2	3	Verdana	1	80	0	0	0	WM Stimuli\	0.9	943.333333333333	0.9	794.555555555556	0.9	809.555555555556	1	708.6	1	980	1	734.5	1	810.4	1	760.8	13	511104	2	511092	14	27	511118	-999999	511107	0	3	TrialsPROC	BP_003_BP16_BA.png	1	2	8	SessionSelectionList													6	nonlure	3	Body	2-Back	7	80	6	0	0	0	2	39	243266	1	13	59	241227	-1	242056	1	829	3	3	2039	52	243279	-53	0																8												
WM080112	178950_fnca	1	1	1	-217357444	1	75.031	75.031	2.0.10.147	2.0.10.242	2.0.10.242	1.0.0.439	7	234	2	3	Verdana	1	80	0	0	0	WM Stimuli\	0.9	943.333333333333	0.9	794.555555555556	0.9	809.555555555556	1	708.6	1	980	1	734.5	1	810.4	1	760.8	13	511104	2	511092	14	27	511118	-999999	511107	0	3	TrialsPROC	BP_006_BP2_BA.png	1	2	9	SessionSelectionList													7	lure	3	Body	2-Back	8	80	7	0	0	0	3	40	245825	1	13	58	243785	-1	244643	1	858	3	3	2040	53	245838	-54	0																9												
WM080112	178950_fnca	1	1	1	-217357444	1	75.031	75.031	2.0.10.147	2.0.10.242	2.0.10.242	1.0.0.439	7	234	2	3	Verdana	1	80	0	0	0	WM Stimuli\	0.9	943.333333333333	0.9	794.555555555556	0.9	809.555555555556	1	708.6	1	980	1	734.5	1	810.4	1	760.8	13	511104	2	511092	14	27	511118	-999999	511107	0	3	TrialsPROC	BP_004_BP18_BA.png	1	2	10	SessionSelectionList													8	nonlure	3	Body	2-Back	9	80	8	0	0	0	4	40	248384	1	13	59	246344	-1	247162	1	818	3	3	2040	53	248397	-54	0																10												
WM080112	178950_fnca	1	1	1	-217357444	1	75.031	75.031	2.0.10.147	2.0.10.242	2.0.10.242	1.0.0.439	7	234	2	3	Verdana	1	80	0	0	0	WM Stimuli\	0.9	943.333333333333	0.9	794.555555555556	0.9	809.555555555556	1	708.6	1	980	1	734.5	1	810.4	1	760.8	13	511104	2	511092	14	27	511118	-999999	511107	0	3	TrialsPROC	BP_005_BP19_BA.png	1	2	11	SessionSelectionList													9	lure	3	Body	2-Back	10	80	9	0	0	0	5	39	250943	1	13	60	248904	-1	249926	1	1022	3	3	2039	52	250956	-53	0																11												
WM080112	178950_fnca	1	1	1	-217357444	1	75.031	75.031	2.0.10.147	2.0.10.242	2.0.10.242	1.0.0.439	7	234	2	3	Verdana	1	80	0	0	0	WM Stimuli\	0.9	943.333333333333	0.9	794.555555555556	0.9	809.555555555556	1	708.6	1	980	1	734.5	1	810.4	1	760.8	13	511104	2	511092	14	27	511118	-999999	511107	0	3	TrialsPROC	BP_004_BP18_BA.png	1	2	12	SessionSelectionList													10	target	2	Body	2-Back	11	80	10	0	0	0	1	40	253502	1	13	58	251462	-1	252340	1	878	2	2	2040	53	253515	-54	0																12												
WM080112	178950_fnca	1	1	1	-217357444	1	75.031	75.031	2.0.10.147	2.0.10.242	2.0.10.242	1.0.0.439	7	234	2	3	Verdana	1	80	0	0	0	WM Stimuli\	0.9	943.333333333333	0.9	794.555555555556	0.9	809.555555555556	1	708.6	1	980	1	734.5	1	810.4	1	760.8	13	511104	2	511092	14	27	511118	-999999	511107	0	4	Cue0BackPROC	FC_001_M1.png	1	2	13	SessionSelectionList																																										19	253981	-20	0												13												
WM080112	178950_fnca	1	1	1	-217357444	1	75.031	75.031	2.0.10.147	2.0.10.242	2.0.10.242	1.0.0.439	7	234	2	3	Verdana	1	80	0	0	0	WM Stimuli\	0.9	943.333333333333	0.9	794.555555555556	0.9	809.555555555556	1	708.6	1	980	1	734.5	1	810.4	1	760.8	13	511104	2	511092	14	27	511118	-999999	511107	0	5	TrialsPROC	FC_005_M3.png	1	2	14	SessionSelectionList														nonlure	3	Face	0-Back	12	80	11	0	0	100	1	39	258566	2	14	65	256527	-1	257316	1	789	3	3	2039	53	258580	-54	0					1											14												
WM080112	178950_fnca	1	1	1	-217357444	1	75.031	75.031	2.0.10.147	2.0.10.242	2.0.10.242	1.0.0.439	7	234	2	3	Verdana	1	80	0	0	0	WM Stimuli\	0.9	943.333333333333	0.9	794.555555555556	0.9	809.555555555556	1	708.6	1	980	1	734.5	1	810.4	1	760.8	13	511104	2	511092	14	27	511118	-999999	511107	0	5	TrialsPROC	FC_001_M1.png	1	2	15	SessionSelectionList														target	2	Face	0-Back	13	80	12	0	0	100	1	39	261138	2	14	72	259099	-1	259904	1	805	2	2	2039	53	261152	-54	0					2											15												
WM080112	178950_fnca	1	1	1	-217357444	1	75.031	75.031	2.0.10.147	2.0.10.242	2.0.10.242	1.0.0.439	7	234	2	3	Verdana	1	80	0	0	0	WM Stimuli\	0.9	943.333333333333	0.9	794.555555555556	0.9	809.555555555556	1	708.6	1	980	1	734.5	1	810.4	1	760.8	13	511104	2	511092	14	27	511118	-999999	511107	0	5	TrialsPROC	FC_003_M2.png	1	2	16	SessionSelectionList														nonlure	3	Face	0-Back	14	80	13	0	0	100	1	39	263711	1	13	73	261672	-1	262299	1	627	3	3	2039	52	263724	-53	0					3											16												
WM080112	178950_fnca	1	1	1	-217357444	1	75.031	75.031	2.0.10.147	2.0.10.242	2.0.10.242	1.0.0.439	7	234	2	3	Verdana	1	80	0	0	0	WM Stimuli\	0.9	943.333333333333	0.9	794.555555555556	0.9	809.555555555556	1	708.6	1	980	1	734.5	1	810.4	1	760.8	13	511104	2	511092	14	27	511118	-999999	511107	0	5	TrialsPROC	FC_004_F2.png	1	2	17	SessionSelectionList														nonlure	3	Face	0-Back	15	80	14	0	0	100	2	39	266283	1	14	72	264244	-1	265008	1	764	3	3	2039	53	266297	-54	0					4											17												
WM080112	178950_fnca	1	1	1	-217357444	1	75.031	75.031	2.0.10.147	2.0.10.242	2.0.10.242	1.0.0.439	7	234	2	3	Verdana	1	80	0	0	0	WM Stimuli\	0.9	943.333333333333	0.9	794.555555555556	0.9	809.555555555556	1	708.6	1	980	1	734.5	1	810.4	1	760.8	13	511104	2	511092	14	27	511118	-999999	511107	0	5	TrialsPROC	FC_004_F2.png	1	2	18	SessionSelectionList														lure	3	Face	0-Back	16	80	15	0	0	100	3	39	268855	3	14	72	266816	-1	267513	1	697	3	3	2039	53	268869	-54	0					5											18												
WM080112	178950_fnca	1	1	1	-217357444	1	75.031	75.031	2.0.10.147	2.0.10.242	2.0.10.242	1.0.0.439	7	234	2	3	Verdana	1	80	0	0	0	WM Stimuli\	0.9	943.333333333333	0.9	794.555555555556	0.9	809.555555555556	1	708.6	1	980	1	734.5	1	810.4	1	760.8	13	511104	2	511092	14	27	511118	-999999	511107	0	5	TrialsPROC	FC_001_M1.png	1	2	19	SessionSelectionList														target	2	Face	0-Back	17	80	16	0	0	100	1	40	271428	1	13	72	269388	-1	269973	1	585	2	2	2040	53	271441	-54	0					6											19												
WM080112	178950_fnca	1	1	1	-217357444	1	75.031	75.031	2.0.10.147	2.0.10.242	2.0.10.242	1.0.0.439	7	234	2	3	Verdana	1	80	0	0	0	WM Stimuli\	0.9	943.333333333333	0.9	794.555555555556	0.9	809.555555555556	1	708.6	1	980	1	734.5	1	810.4	1	760.8	13	511104	2	511092	14	27	511118	-999999	511107	0	5	TrialsPROC	FC_006_F3.png	1	2	20	SessionSelectionList														nonlure	3	Face	0-Back	18	80	17	0	0	100	1	39	274000	1	14	73	271961	-1	272605	1	644	3	3	2039	53	274014	-54	0					7											20												
WM080112	178950_fnca	1	1	1	-217357444	1	75.031	75.031	2.0.10.147	2.0.10.242	2.0.10.242	1.0.0.439	7	234	2	3	Verdana	1	80	0	0	0	WM Stimuli\	0.9	943.333333333333	0.9	794.555555555556	0.9	809.555555555556	1	708.6	1	980	1	734.5	1	810.4	1	760.8	13	511104	2	511092	14	27	511118	-999999	511107	0	5	TrialsPROC	FC_006_F3.png	1	2	21	SessionSelectionList														lure	3	Face	0-Back	19	80	18	0	0	100	2	39	276572	2	14	72	274533	-1	275174	1	641	3	3	2039	53	276586	-54	0					8											21												
WM080112	178950_fnca	1	1	1	-217357444	1	75.031	75.031	2.0.10.147	2.0.10.242	2.0.10.242	1.0.0.439	7	234	2	3	Verdana	1	80	0	0	0	WM Stimuli\	0.9	943.333333333333	0.9	794.555555555556	0.9	809.555555555556	1	708.6	1	980	1	734.5	1	810.4	1	760.8	13	511104	2	511092	14	27	511118	-999999	511107	0	5	TrialsPROC	FC_003_M2.png	1	2	22	SessionSelectionList														lure	3	Face	0-Back	20	80	19	0	0	100	3	39	279144	2	14	72	277105	-1	277837	1	732	3	3	2039	53	279158	-54	0					9											22												
WM080112	178950_fnca	1	1	1	-217357444	1	75.031	75.031	2.0.10.147	2.0.10.242	2.0.10.242	1.0.0.439	7	234	2	3	Verdana	1	80	0	0	0	WM Stimuli\	0.9	943.333333333333	0.9	794.555555555556	0.9	809.555555555556	1	708.6	1	980	1	734.5	1	810.4	1	760.8	13	511104	2	511092	14	27	511118	-999999	511107	0	5	TrialsPROC	FC_002_F1.png	1	2	23	SessionSelectionList														nonlure	3	Face	0-Back	21	80	20	0	0	100	4	39	281717	1	14	73	279678	-1	280480	1	802	3	3	2039	53	281731	-54	0					10											23												
WM080112	178950_fnca	1	1	1	-217357444	1	75.031	75.031	2.0.10.147	2.0.10.242	2.0.10.242	1.0.0.439	7	234	2	3	Verdana	1	80	0	0	0	WM Stimuli\	0.9	943.333333333333	0.9	794.555555555556	0.9	809.555555555556	1	708.6	1	980	1	734.5	1	810.4	1	760.8	13	511104	2	511092	14	27	511118	-999999	511107	0	6	Fix15secPROC	""	1	2	24	SessionSelectionList																																															6	282184	-7	0							24												
WM080112	178950_fnca	1	1	1	-217357444	1	75.031	75.031	2.0.10.147	2.0.10.242	2.0.10.242	1.0.0.439	7	234	2	3	Verdana	1	80	0	0	0	WM Stimuli\	0.9	943.333333333333	0.9	794.555555555556	0.9	809.555555555556	1	708.6	1	980	1	734.5	1	810.4	1	760.8	13	511104	2	511092	14	27	511118	-999999	511107	0	7	Cue2BackPROC	""	1	2	25	SessionSelectionList									12	297190	-13	0																																													25												
WM080112	178950_fnca	1	1	1	-217357444	1	75.031	75.031	2.0.10.147	2.0.10.242	2.0.10.242	1.0.0.439	7	234	2	3	Verdana	1	80	0	0	0	WM Stimuli\	0.9	943.333333333333	0.9	794.555555555556	0.9	809.555555555556	1	708.6	1	980	1	734.5	1	810.4	1	760.8	13	511104	2	511092	14	27	511118	-999999	511107	0	8	TrialsPROC	TO_001_TOOL1_BA.png	1	2	26	SessionSelectionList														nonlure	3	Tools	2-Back	22	80	21	0	0	100	5	39	301775	2	14	58	299736	-1	300391	1	655	3	3	2039	53	301789	-54	0										1						26												
WM080112	178950_fnca	1	1	1	-217357444	1	75.031	75.031	2.0.10.147	2.0.10.242	2.0.10.242	1.0.0.439	7	234	2	3	Verdana	1	80	0	0	0	WM Stimuli\	0.9	943.333333333333	0.9	794.555555555556	0.9	809.555555555556	1	708.6	1	980	1	734.5	1	810.4	1	760.8	13	511104	2	511092	14	27	511118	-999999	511107	0	8	TrialsPROC	TO_002_TOOL2_BA.png	1	2	27	SessionSelectionList														nonlure	3	Tools	2-Back	23	80	22	0	0	100	6	39	304334	2	14	59	302295	-1	303218	1	923	3	3	2039	53	304348	-54	0										2						27												
WM080112	178950_fnca	1	1	1	-217357444	1	75.031	75.031	2.0.10.147	2.0.10.242	2.0.10.242	1.0.0.439	7	234	2	3	Verdana	1	80	0	0	0	WM Stimuli\	0.9	943.333333333333	0.9	794.555555555556	0.9	809.555555555556	1	708.6	1	980	1	734.5	1	810.4	1	760.8	13	511104	2	511092	14	27	511118	-999999	511107	0	8	TrialsPROC	TO_004_TOOL4_BA.png	1	2	28	SessionSelectionList														nonlure	3	Tools	2-Back	24	80	23	0	0	100	7	39	306893	2	14	59	304854	-1	305663	1	809	3	3	2039	53	306907	-54	0										3						28												
WM080112	178950_fnca	1	1	1	-217357444	1	75.031	75.031	2.0.10.147	2.0.10.242	2.0.10.242	1.0.0.439	7	234	2	3	Verdana	1	80	0	0	0	WM Stimuli\	0.9	943.333333333333	0.9	794.555555555556	0.9	809.555555555556	1	708.6	1	980	1	734.5	1	810.4	1	760.8	13	511104	2	511092	14	27	511118	-999999	511107	0	8	TrialsPROC	TO_002_TOOL2_BA.png	1	2	29	SessionSelectionList														target	2	Tools	2-Back	25	80	24	0	0	100	1	39	309452	2	14	59	307413	-1	308202	1	789	2	2	2039	53	309466	-54	0										4						29												
WM080112	178950_fnca	1	1	1	-217357444	1	75.031	75.031	2.0.10.147	2.0.10.242	2.0.10.242	1.0.0.439	7	234	2	3	Verdana	1	80	0	0	0	WM Stimuli\	0.9	943.333333333333	0.9	794.555555555556	0.9	809.555555555556	1	708.6	1	980	1	734.5	1	810.4	1	760.8	13	511104	2	511092	14	27	511118	-999999	511107	0	8	TrialsPROC	TO_001_TOOL1_BA.png	1	2	30	SessionSelectionList														lure	3	Tools	2-Back	26	80	25	0	0	100	1	39	312011	2	14	59	309972	-1	310704	1	732	3	3	2039	53	312025	-54	0										5						30												
WM080112	178950_fnca	1	1	1	-217357444	1	75.031	75.031	2.0.10.147	2.0.10.242	2.0.10.242	1.0.0.439	7	234	2	3	Verdana	1	80	0	0	0	WM Stimuli\	0.9	943.333333333333	0.9	794.555555555556	0.9	809.555555555556	1	708.6	1	980	1	734.5	1	810.4	1	760.8	13	511104	2	511092	14	27	511118	-999999	511107	0	8	TrialsPROC	TO_004_TOOL4_BA.png	1	2	31	SessionSelectionList														lure	3	Tools	2-Back	27	80	26	0	0	100	2	39	314570	1	14	59	312531	-1	313423	1	892	3	3	2039	53	314584	-54	0										6						31												
WM080112	178950_fnca	1	1	1	-217357444	1	75.031	75.031	2.0.10.147	2.0.10.242	2.0.10.242	1.0.0.439	7	234	2	3	Verdana	1	80	0	0	0	WM Stimuli\	0.9	943.333333333333	0.9	794.555555555556	0.9	809.555555555556	1	708.6	1	980	1	734.5	1	810.4	1	760.8	13	511104	2	511092	14	27	511118	-999999	511107	0	8	TrialsPROC	TO_006_TOOL6_BA.png	1	2	32	SessionSelectionList														nonlure	3	Tools	2-Back	28	80	27	0	0	100	3	39	317129	1	14	59	315090	-1	315803	1	713	3	3	2039	53	317143	-54	0										7						32												
WM080112	178950_fnca	1	1	1	-217357444	1	75.031	75.031	2.0.10.147	2.0.10.242	2.0.10.242	1.0.0.439	7	234	2	3	Verdana	1	80	0	0	0	WM Stimuli\	0.9	943.333333333333	0.9	794.555555555556	0.9	809.555555555556	1	708.6	1	980	1	734.5	1	810.4	1	760.8	13	511104	2	511092	14	27	511118	-999999	511107	0	8	TrialsPROC	TO_005_TOOL5_BA.png	1	2	33	SessionSelectionList														nonlure	3	Tools	2-Back	29	80	28	0	0	100	4	39	319688	1	14	59	317649	-1	318587	1	938	3	3	2039	53	319702	-54	0										8						33												
WM080112	178950_fnca	1	1	1	-217357444	1	75.031	75.031	2.0.10.147	2.0.10.242	2.0.10.242	1.0.0.439	7	234	2	3	Verdana	1	80	0	0	0	WM Stimuli\	0.9	943.333333333333	0.9	794.555555555556	0.9	809.555555555556	1	708.6	1	980	1	734.5	1	810.4	1	760.8	13	511104	2	511092	14	27	511118	-999999	511107	0	8	TrialsPROC	TO_006_TOOL6_BA.png	1	2	34	SessionSelectionList														target	2	Tools	2-Back	30	80	29	0	0	100	1	39	322247	1	14	59	320208	-1	320889	1	681	2	2	2039	53	322261	-54	0										9						34												
WM080112	178950_fnca	1	1	1	-217357444	1	75.031	75.031	2.0.10.147	2.0.10.242	2.0.10.242	1.0.0.439	7	234	2	3	Verdana	1	80	0	0	0	WM Stimuli\	0.9	943.333333333333	0.9	794.555555555556	0.9	809.555555555556	1	708.6	1	980	1	734.5	1	810.4	1	760.8	13	511104	2	511092	14	27	511118	-999999	511107	0	8	TrialsPROC	TO_003_TOOL3_BA.png	1	2	35	SessionSelectionList														nonlure	3	Tools	2-Back	31	80	30	0	0	100	1	39	324806	2	14	59	322767	-1	323739	1	972	3	3	2039	53	324820	-54	0										10						35												
WM080112	178950_fnca	1	1	1	-217357444	1	75.031	75.031	2.0.10.147	2.0.10.242	2.0.10.242	1.0.0.439	7	234	2	3	Verdana	1	80	0	0	0	WM Stimuli\	0.9	943.333333333333	0.9	794.555555555556	0.9	809.555555555556	1	708.6	1	980	1	734.5	1	810.4	1	760.8	13	511104	2	511092	14	27	511118	-999999	511107	0	9	Cue0BackPROC	BP_007_BP20_BA.png	1	2	36	SessionSelectionList																																										19	325286	-20	0												36												
WM080112	178950_fnca	1	1	1	-217357444	1	75.031	75.031	2.0.10.147	2.0.10.242	2.0.10.242	1.0.0.439	7	234	2	3	Verdana	1	80	0	0	0	WM Stimuli\	0.9	943.333333333333	0.9	794.555555555556	0.9	809.555555555556	1	708.6	1	980	1	734.5	1	810.4	1	760.8	13	511104	2	511092	14	27	511118	-999999	511107	0	10	TrialsPROC	BP_007_BP20_BA.png	1	2	37	SessionSelectionList														target	2	Body	0-Back	32	80	31	0	0	91	2	39	329857	2	14	51	327818	-1	329002	0	1184	3	2	2039	53	329871	-54	0											1					37												
WM080112	178950_fnca	1	1	1	-217357444	1	75.031	75.031	2.0.10.147	2.0.10.242	2.0.10.242	1.0.0.439	7	234	2	3	Verdana	1	80	0	0	0	WM Stimuli\	0.9	943.333333333333	0.9	794.555555555556	0.9	809.555555555556	1	708.6	1	980	1	734.5	1	810.4	1	760.8	13	511104	2	511092	14	27	511118	-999999	511107	0	10	TrialsPROC	BP_011_BP4_BA.png	1	2	38	SessionSelectionList														nonlure	3	Body	0-Back	33	80	32	0	0	92	3	40	332430	1	13	72	330390	-1	331212	1	822	3	3	2040	53	332443	-54	0											2					38												
WM080112	178950_fnca	1	1	1	-217357444	1	75.031	75.031	2.0.10.147	2.0.10.242	2.0.10.242	1.0.0.439	7	234	2	3	Verdana	1	80	0	0	0	WM Stimuli\	0.9	943.333333333333	0.9	794.555555555556	0.9	809.555555555556	1	708.6	1	980	1	734.5	1	810.4	1	760.8	13	511104	2	511092	14	27	511118	-999999	511107	0	10	TrialsPROC	BP_010_BP3_BA.png	1	2	39	SessionSelectionList														nonlure	3	Body	0-Back	34	80	33	0	0	92	4	39	334988	2	14	59	332949	-1	333614	1	665	3	3	2039	53	335002	-54	0											3					39												
WM080112	178950_fnca	1	1	1	-217357444	1	75.031	75.031	2.0.10.147	2.0.10.242	2.0.10.242	1.0.0.439	7	234	2	3	Verdana	1	80	0	0	0	WM Stimuli\	0.9	943.333333333333	0.9	794.555555555556	0.9	809.555555555556	1	708.6	1	980	1	734.5	1	810.4	1	760.8	13	511104	2	511092	14	27	511118	-999999	511107	0	10	TrialsPROC	BP_008_BP21_BA.png	1	2	40	SessionSelectionList														nonlure	3	Body	0-Back	35	80	34	0	0	93	5	39	337547	2	14	59	335508	-1	336206	1	698	3	3	2039	53	337561	-54	0											4					40												
WM080112	178950_fnca	1	1	1	-217357444	1	75.031	75.031	2.0.10.147	2.0.10.242	2.0.10.242	1.0.0.439	7	234	2	3	Verdana	1	80	0	0	0	WM Stimuli\	0.9	943.333333333333	0.9	794.555555555556	0.9	809.555555555556	1	708.6	1	980	1	734.5	1	810.4	1	760.8	13	511104	2	511092	14	27	511118	-999999	511107	0	10	TrialsPROC	BP_011_BP4_BA.png	1	2	41	SessionSelectionList														lure	3	Body	0-Back	36	80	35	0	0	93	6	39	340120	1	14	73	338081	-1	338842	1	761	3	3	2039	53	340134	-54	0											5					41												
WM080112	178950_fnca	1	1	1	-217357444	1	75.031	75.031	2.0.10.147	2.0.10.242	2.0.10.242	1.0.0.439	7	234	2	3	Verdana	1	80	0	0	0	WM Stimuli\	0.9	943.333333333333	0.9	794.555555555556	0.9	809.555555555556	1	708.6	1	980	1	734.5	1	810.4	1	760.8	13	511104	2	511092	14	27	511118	-999999	511107	0	10	TrialsPROC	BP_009_BP22_BA.png	1	2	42	SessionSelectionList														nonlure	3	Body	0-Back	37	80	36	0	0	94	7	39	342679	1	13	59	340640	-1	341450	1	810	3	3	2039	52	342692	-53	0											6					42												
WM080112	178950_fnca	1	1	1	-217357444	1	75.031	75.031	2.0.10.147	2.0.10.242	2.0.10.242	1.0.0.439	7	234	2	3	Verdana	1	80	0	0	0	WM Stimuli\	0.9	943.333333333333	0.9	794.555555555556	0.9	809.555555555556	1	708.6	1	980	1	734.5	1	810.4	1	760.8	13	511104	2	511092	14	27	511118	-999999	511107	0	10	TrialsPROC	BP_009_BP22_BA.png	1	2	43	SessionSelectionList														lure	3	Body	0-Back	38	80	37	0	0	94	8	40	345238	1	13	58	343198	-1	343933	1	735	3	3	2040	53	345251	-54	0											7					43												
WM080112	178950_fnca	1	1	1	-217357444	1	75.031	75.031	2.0.10.147	2.0.10.242	2.0.10.242	1.0.0.439	7	234	2	3	Verdana	1	80	0	0	0	WM Stimuli\	0.9	943.333333333333	0.9	794.555555555556	0.9	809.555555555556	1	708.6	1	980	1	734.5	1	810.4	1	760.8	13	511104	2	511092	14	27	511118	-999999	511107	0	10	TrialsPROC	BP_008_BP21_BA.png	1	2	44	SessionSelectionList														lure	3	Body	0-Back	39	80	38	0	0	94	9	40	347797	1	13	59	345757	-1	346969	1	1212	3	3	2040	53	347810	-54	0											8					44												
WM080112	178950_fnca	1	1	1	-217357444	1	75.031	75.031	2.0.10.147	2.0.10.242	2.0.10.242	1.0.0.439	7	234	2	3	Verdana	1	80	0	0	0	WM Stimuli\	0.9	943.333333333333	0.9	794.555555555556	0.9	809.555555555556	1	708.6	1	980	1	734.5	1	810.4	1	760.8	13	511104	2	511092	14	27	511118	-999999	511107	0	10	TrialsPROC	BP_007_BP20_BA.png	1	2	45	SessionSelectionList														target	2	Body	0-Back	40	80	39	0	0	95	1	40	350356	1	13	59	348316	-1	349070	1	754	2	2	2040	53	350369	-54	0											9					45												
WM080112	178950_fnca	1	1	1	-217357444	1	75.031	75.031	2.0.10.147	2.0.10.242	2.0.10.242	1.0.0.439	7	234	2	3	Verdana	1	80	0	0	0	WM Stimuli\	0.9	943.333333333333	0.9	794.555555555556	0.9	809.555555555556	1	708.6	1	980	1	734.5	1	810.4	1	760.8	13	511104	2	511092	14	27	511118	-999999	511107	0	10	TrialsPROC	BP_012_BP5_BA.png	1	2	46	SessionSelectionList														nonlure	3	Body	0-Back	41	80	40	0	0	95	1	39	352915	1	13	60	350876	-1	351570	1	694	3	3	2039	52	352928	-53	0											10					46												
WM080112	178950_fnca	1	1	1	-217357444	1	75.031	75.031	2.0.10.147	2.0.10.242	2.0.10.242	1.0.0.439	7	234	2	3	Verdana	1	80	0	0	0	WM Stimuli\	0.9	943.333333333333	0.9	794.555555555556	0.9	809.555555555556	1	708.6	1	980	1	734.5	1	810.4	1	760.8	13	511104	2	511092	14	27	511118	-999999	511107	0	11	Fix15secPROC	""	1	2	47	SessionSelectionList																																															5	353381	-6	0							47												
WM080112	178950_fnca	1	1	1	-217357444	1	75.031	75.031	2.0.10.147	2.0.10.242	2.0.10.242	1.0.0.439	7	234	2	3	Verdana	1	80	0	0	0	WM Stimuli\	0.9	943.333333333333	0.9	794.555555555556	0.9	809.555555555556	1	708.6	1	980	1	734.5	1	810.4	1	760.8	13	511104	2	511092	14	27	511118	-999999	511107	0	12	Cue0BackPROC	PL_001_92012.png	1	2	48	SessionSelectionList																																										12	368388	-13	0												48												
WM080112	178950_fnca	1	1	1	-217357444	1	75.031	75.031	2.0.10.147	2.0.10.242	2.0.10.242	1.0.0.439	7	234	2	3	Verdana	1	80	0	0	0	WM Stimuli\	0.9	943.333333333333	0.9	794.555555555556	0.9	809.555555555556	1	708.6	1	980	1	734.5	1	810.4	1	760.8	13	511104	2	511092	14	27	511118	-999999	511107	0	13	TrialsPROC	PL_003_92016.png	1	2	49	SessionSelectionList														nonlure	3	Place	0-Back	42	80	41	0	0	95	2	39	372986	2	14	71	370947	-1	371694	1	747	3	3	2039	53	373000	-54	0												1				49												
WM080112	178950_fnca	1	1	1	-217357444	1	75.031	75.031	2.0.10.147	2.0.10.242	2.0.10.242	1.0.0.439	7	234	2	3	Verdana	1	80	0	0	0	WM Stimuli\	0.9	943.333333333333	0.9	794.555555555556	0.9	809.555555555556	1	708.6	1	980	1	734.5	1	810.4	1	760.8	13	511104	2	511092	14	27	511118	-999999	511107	0	13	TrialsPROC	PL_003_92016.png	1	2	50	SessionSelectionList														lure	3	Place	0-Back	43	80	42	0	0	95	3	40	375559	1	13	72	373519	-1	374226	1	707	3	3	2040	53	375572	-54	0												2				50												
WM080112	178950_fnca	1	1	1	-217357444	1	75.031	75.031	2.0.10.147	2.0.10.242	2.0.10.242	1.0.0.439	7	234	2	3	Verdana	1	80	0	0	0	WM Stimuli\	0.9	943.333333333333	0.9	794.555555555556	0.9	809.555555555556	1	708.6	1	980	1	734.5	1	810.4	1	760.8	13	511104	2	511092	14	27	511118	-999999	511107	0	13	TrialsPROC	PL_006_92025.png	1	2	51	SessionSelectionList														nonlure	3	Place	0-Back	44	80	43	0	0	96	4	39	378131	2	14	73	376092	-1	376893	1	801	3	3	2039	53	378145	-54	0												3				51												
WM080112	178950_fnca	1	1	1	-217357444	1	75.031	75.031	2.0.10.147	2.0.10.242	2.0.10.242	1.0.0.439	7	234	2	3	Verdana	1	80	0	0	0	WM Stimuli\	0.9	943.333333333333	0.9	794.555555555556	0.9	809.555555555556	1	708.6	1	980	1	734.5	1	810.4	1	760.8	13	511104	2	511092	14	27	511118	-999999	511107	0	13	TrialsPROC	PL_001_92012.png	1	2	52	SessionSelectionList														target	2	Place	0-Back	45	80	44	0	0	96	1	39	380703	2	14	72	378664	-1	379489	1	825	2	2	2039	53	380717	-54	0												4				52												
WM080112	178950_fnca	1	1	1	-217357444	1	75.031	75.031	2.0.10.147	2.0.10.242	2.0.10.242	1.0.0.439	7	234	2	3	Verdana	1	80	0	0	0	WM Stimuli\	0.9	943.333333333333	0.9	794.555555555556	0.9	809.555555555556	1	708.6	1	980	1	734.5	1	810.4	1	760.8	13	511104	2	511092	14	27	511118	-999999	511107	0	13	TrialsPROC	PL_004_92023.png	1	2	53	SessionSelectionList														nonlure	3	Place	0-Back	46	80	45	0	0	96	1	40	383276	1	13	72	381236	-1	381927	1	691	3	3	2040	53	383289	-54	0												5				53												
WM080112	178950_fnca	1	1	1	-217357444	1	75.031	75.031	2.0.10.147	2.0.10.242	2.0.10.242	1.0.0.439	7	234	2	3	Verdana	1	80	0	0	0	WM Stimuli\	0.9	943.333333333333	0.9	794.555555555556	0.9	809.555555555556	1	708.6	1	980	1	734.5	1	810.4	1	760.8	13	511104	2	511092	14	27	511118	-999999	511107	0	13	TrialsPROC	PL_005_92024.png	1	2	54	SessionSelectionList														nonlure	3	Place	0-Back	47	80	46	0	0	96	2	40	385835	1	13	59	383795	-1	384593	1	798	3	3	2040	53	385848	-54	0												6				54												
WM080112	178950_fnca	1	1	1	-217357444	1	75.031	75.031	2.0.10.147	2.0.10.242	2.0.10.242	1.0.0.439	7	234	2	3	Verdana	1	80	0	0	0	WM Stimuli\	0.9	943.333333333333	0.9	794.555555555556	0.9	809.555555555556	1	708.6	1	980	1	734.5	1	810.4	1	760.8	13	511104	2	511092	14	27	511118	-999999	511107	0	13	TrialsPROC	PL_001_92012.png	1	2	55	SessionSelectionList														target	2	Place	0-Back	48	80	47	0	0	96	1	39	388407	1	14	73	386368	-1	387078	1	710	2	2	2039	53	388421	-54	0												7				55												
WM080112	178950_fnca	1	1	1	-217357444	1	75.031	75.031	2.0.10.147	2.0.10.242	2.0.10.242	1.0.0.439	7	234	2	3	Verdana	1	80	0	0	0	WM Stimuli\	0.9	943.333333333333	0.9	794.555555555556	0.9	809.555555555556	1	708.6	1	980	1	734.5	1	810.4	1	760.8	13	511104	2	511092	14	27	511118	-999999	511107	0	13	TrialsPROC	PL_002_92014.png	1	2	56	SessionSelectionList														nonlure	3	Place	0-Back	49	80	48	0	0	96	1	39	390979	2	14	72	388940	-1	389637	1	697	3	3	2039	53	390993	-54	0												8				56												
WM080112	178950_fnca	1	1	1	-217357444	1	75.031	75.031	2.0.10.147	2.0.10.242	2.0.10.242	1.0.0.439	7	234	2	3	Verdana	1	80	0	0	0	WM Stimuli\	0.9	943.333333333333	0.9	794.555555555556	0.9	809.555555555556	1	708.6	1	980	1	734.5	1	810.4	1	760.8	13	511104	2	511092	14	27	511118	-999999	511107	0	13	TrialsPROC	PL_004_92023.png	1	2	57	SessionSelectionList														lure	3	Place	0-Back	50	80	49	0	0	97	2	39	393551	2	14	72	391512	-1	392235	1	723	3	3	2039	53	393565	-54	0												9				57												
WM080112	178950_fnca	1	1	1	-217357444	1	75.031	75.031	2.0.10.147	2.0.10.242	2.0.10.242	1.0.0.439	7	234	2	3	Verdana	1	80	0	0	0	WM Stimuli\	0.9	943.333333333333	0.9	794.555555555556	0.9	809.555555555556	1	708.6	1	980	1	734.5	1	810.4	1	760.8	13	511104	2	511092	14	27	511118	-999999	511107	0	13	TrialsPROC	PL_006_92025.png	1	2	58	SessionSelectionList														lure	3	Place	0-Back	51	80	50	0	0	97	3	40	396124	1	13	72	394084	-1	394730	1	646	3	3	2040	53	396137	-54	0												10				58												
WM080112	178950_fnca	1	1	1	-217357444	1	75.031	75.031	2.0.10.147	2.0.10.242	2.0.10.242	1.0.0.439	7	234	2	3	Verdana	1	80	0	0	0	WM Stimuli\	0.9	943.333333333333	0.9	794.555555555556	0.9	809.555555555556	1	708.6	1	980	1	734.5	1	810.4	1	760.8	13	511104	2	511092	14	27	511118	-999999	511107	0	14	Cue2BackPROC	""	1	2	59	SessionSelectionList									6	396590	-7	0																																													59												
WM080112	178950_fnca	1	1	1	-217357444	1	75.031	75.031	2.0.10.147	2.0.10.242	2.0.10.242	1.0.0.439	7	234	2	3	Verdana	1	80	0	0	0	WM Stimuli\	0.9	943.333333333333	0.9	794.555555555556	0.9	809.555555555556	1	708.6	1	980	1	734.5	1	810.4	1	760.8	13	511104	2	511092	14	27	511118	-999999	511107	0	15	TrialsPROC	FC_010_F5.png	1	2	60	SessionSelectionList														nonlure	3	Face	2-Back	52	80	50	0	1	97	3	39	401188	2	14	65	399149	-1	0	0	0	""	3	2039	53	401202	-54	0													1			60												
WM080112	178950_fnca	1	1	1	-217357444	1	75.031	75.031	2.0.10.147	2.0.10.242	2.0.10.242	1.0.0.439	7	234	2	3	Verdana	1	80	0	0	0	WM Stimuli\	0.9	943.333333333333	0.9	794.555555555556	0.9	809.555555555556	1	708.6	1	980	1	734.5	1	810.4	1	760.8	13	511104	2	511092	14	27	511118	-999999	511107	0	15	TrialsPROC	FC_012_F6.png	1	2	61	SessionSelectionList														nonlure	3	Face	2-Back	53	80	51	0	0	97	1	40	403761	1	13	72	401721	-1	402377	1	656	3	3	2040	53	403774	-54	0													2			61												
WM080112	178950_fnca	1	1	1	-217357444	1	75.031	75.031	2.0.10.147	2.0.10.242	2.0.10.242	1.0.0.439	7	234	2	3	Verdana	1	80	0	0	0	WM Stimuli\	0.9	943.333333333333	0.9	794.555555555556	0.9	809.555555555556	1	708.6	1	980	1	734.5	1	810.4	1	760.8	13	511104	2	511092	14	27	511118	-999999	511107	0	15	TrialsPROC	FC_010_F5.png	1	2	62	SessionSelectionList														target	2	Face	2-Back	54	80	52	0	0	97	1	39	406333	1	14	73	404294	-1	405026	1	732	2	2	2039	53	406347	-54	0													3			62												
WM080112	178950_fnca	1	1	1	-217357444	1	75.031	75.031	2.0.10.147	2.0.10.242	2.0.10.242	1.0.0.439	7	234	2	3	Verdana	1	80	0	0	0	WM Stimuli\	0.9	943.333333333333	0.9	794.555555555556	0.9	809.555555555556	1	708.6	1	980	1	734.5	1	810.4	1	760.8	13	511104	2	511092	14	27	511118	-999999	511107	0	15	TrialsPROC	FC_008_F4.png	1	2	63	SessionSelectionList														nonlure	3	Face	2-Back	55	80	53	0	0	97	1	39	408905	2	14	72	406866	-1	407563	1	697	3	3	2039	53	408919	-54	0													4			63												
WM080112	178950_fnca	1	1	1	-217357444	1	75.031	75.031	2.0.10.147	2.0.10.242	2.0.10.242	1.0.0.439	7	234	2	3	Verdana	1	80	0	0	0	WM Stimuli\	0.9	943.333333333333	0.9	794.555555555556	0.9	809.555555555556	1	708.6	1	980	1	734.5	1	810.4	1	760.8	13	511104	2	511092	14	27	511118	-999999	511107	0	15	TrialsPROC	FC_012_F6.png	1	2	64	SessionSelectionList														lure	3	Face	2-Back	56	80	54	0	0	97	2	39	411477	2	14	72	409438	-1	410338	1	900	3	3	2039	53	411491	-54	0													5			64												
WM080112	178950_fnca	1	1	1	-217357444	1	75.031	75.031	2.0.10.147	2.0.10.242	2.0.10.242	1.0.0.439	7	234	2	3	Verdana	1	80	0	0	0	WM Stimuli\	0.9	943.333333333333	0.9	794.555555555556	0.9	809.555555555556	1	708.6	1	980	1	734.5	1	810.4	1	760.8	13	511104	2	511092	14	27	511118	-999999	511107	0	15	TrialsPROC	FC_008_F4.png	1	2	65	SessionSelectionList														target	2	Face	2-Back	57	80	55	0	0	97	1	39	414050	1	14	73	412011	-1	412595	1	584	2	2	2039	53	414064	-54	0													6			65												
WM080112	178950_fnca	1	1	1	-217357444	1	75.031	75.031	2.0.10.147	2.0.10.242	2.0.10.242	1.0.0.439	7	234	2	3	Verdana	1	80	0	0	0	WM Stimuli\	0.9	943.333333333333	0.9	794.555555555556	0.9	809.555555555556	1	708.6	1	980	1	734.5	1	810.4	1	760.8	13	511104	2	511092	14	27	511118	-999999	511107	0	15	TrialsPROC	FC_007_M4.png	1	2	66	SessionSelectionList														nonlure	3	Face	2-Back	58	80	56	0	0	97	1	39	416622	1	14	72	414583	-1	415451	1	868	3	3	2039	53	416636	-54	0													7			66												
WM080112	178950_fnca	1	1	1	-217357444	1	75.031	75.031	2.0.10.147	2.0.10.242	2.0.10.242	1.0.0.439	7	234	2	3	Verdana	1	80	0	0	0	WM Stimuli\	0.9	943.333333333333	0.9	794.555555555556	0.9	809.555555555556	1	708.6	1	980	1	734.5	1	810.4	1	760.8	13	511104	2	511092	14	27	511118	-999999	511107	0	15	TrialsPROC	FC_007_M4.png	1	2	67	SessionSelectionList														lure	3	Face	2-Back	59	80	57	0	0	97	2	39	419194	2	14	72	417155	-1	417855	1	700	3	3	2039	53	419208	-54	0													8			67												
WM080112	178950_fnca	1	1	1	-217357444	1	75.031	75.031	2.0.10.147	2.0.10.242	2.0.10.242	1.0.0.439	7	234	2	3	Verdana	1	80	0	0	0	WM Stimuli\	0.9	943.333333333333	0.9	794.555555555556	0.9	809.555555555556	1	708.6	1	980	1	734.5	1	810.4	1	760.8	13	511104	2	511092	14	27	511118	-999999	511107	0	15	TrialsPROC	FC_009_M5.png	1	2	68	SessionSelectionList														nonlure	3	Face	2-Back	60	80	58	0	0	97	3	40	421767	1	13	72	419727	-1	420441	1	714	3	3	2040	53	421780	-54	0													9			68												
WM080112	178950_fnca	1	1	1	-217357444	1	75.031	75.031	2.0.10.147	2.0.10.242	2.0.10.242	1.0.0.439	7	234	2	3	Verdana	1	80	0	0	0	WM Stimuli\	0.9	943.333333333333	0.9	794.555555555556	0.9	809.555555555556	1	708.6	1	980	1	734.5	1	810.4	1	760.8	13	511104	2	511092	14	27	511118	-999999	511107	0	15	TrialsPROC	FC_011_M6.png	1	2	69	SessionSelectionList														nonlure	3	Face	2-Back	61	80	59	0	0	97	4	39	424339	1	14	73	422300	-1	423735	1	1435	3	3	2039	53	424353	-54	0													10			69												
WM080112	178950_fnca	1	1	1	-217357444	1	75.031	75.031	2.0.10.147	2.0.10.242	2.0.10.242	1.0.0.439	7	234	2	3	Verdana	1	80	0	0	0	WM Stimuli\	0.9	943.333333333333	0.9	794.555555555556	0.9	809.555555555556	1	708.6	1	980	1	734.5	1	810.4	1	760.8	13	511104	2	511092	14	27	511118	-999999	511107	0	16	Fix15secPROC	""	1	2	70	SessionSelectionList																																															6	424806	-7	0							70												
WM080112	178950_fnca	1	1	1	-217357444	1	75.031	75.031	2.0.10.147	2.0.10.242	2.0.10.242	1.0.0.439	7	234	2	3	Verdana	1	80	0	0	0	WM Stimuli\	0.9	943.333333333333	0.9	794.555555555556	0.9	809.555555555556	1	708.6	1	980	1	734.5	1	810.4	1	760.8	13	511104	2	511092	14	27	511118	-999999	511107	0	17	Cue0BackPROC	TO_007_TOOL7_BA.png	1	2	71	SessionSelectionList																																										13	439813	-14	0												71												
WM080112	178950_fnca	1	1	1	-217357444	1	75.031	75.031	2.0.10.147	2.0.10.242	2.0.10.242	1.0.0.439	7	234	2	3	Verdana	1	80	0	0	0	WM Stimuli\	0.9	943.333333333333	0.9	794.555555555556	0.9	809.555555555556	1	708.6	1	980	1	734.5	1	810.4	1	760.8	13	511104	2	511092	14	27	511118	-999999	511107	0	18	TrialsPROC	TO_010_TOOL10_BA.png	1	2	72	SessionSelectionList														nonlure	3	Tools	0-Back	62	80	60	0	0	97	5	39	444397	2	14	58	442358	-1	443973	1	1615	3	3	2039	53	444411	-54	0														1		72												
WM080112	178950_fnca	1	1	1	-217357444	1	75.031	75.031	2.0.10.147	2.0.10.242	2.0.10.242	1.0.0.439	7	234	2	3	Verdana	1	80	0	0	0	WM Stimuli\	0.9	943.333333333333	0.9	794.555555555556	0.9	809.555555555556	1	708.6	1	980	1	734.5	1	810.4	1	760.8	13	511104	2	511092	14	27	511118	-999999	511107	0	18	TrialsPROC	TO_009_TOOL9_BA.png	1	2	73	SessionSelectionList														nonlure	3	Tools	0-Back	63	80	61	0	0	97	6	39	446956	2	14	59	444917	-1	445668	1	751	3	3	2039	53	446970	-54	0														2		73												
WM080112	178950_fnca	1	1	1	-217357444	1	75.031	75.031	2.0.10.147	2.0.10.242	2.0.10.242	1.0.0.439	7	234	2	3	Verdana	1	80	0	0	0	WM Stimuli\	0.9	943.333333333333	0.9	794.555555555556	0.9	809.555555555556	1	708.6	1	980	1	734.5	1	810.4	1	760.8	13	511104	2	511092	14	27	511118	-999999	511107	0	18	TrialsPROC	TO_009_TOOL9_BA.png	1	2	74	SessionSelectionList														lure	3	Tools	0-Back	64	80	62	0	0	97	7	39	449515	2	14	59	447476	-1	448077	1	601	3	3	2039	53	449529	-54	0														3		74												
WM080112	178950_fnca	1	1	1	-217357444	1	75.031	75.031	2.0.10.147	2.0.10.242	2.0.10.242	1.0.0.439	7	234	2	3	Verdana	1	80	0	0	0	WM Stimuli\	0.9	943.333333333333	0.9	794.555555555556	0.9	809.555555555556	1	708.6	1	980	1	734.5	1	810.4	1	760.8	13	511104	2	511092	14	27	511118	-999999	511107	0	18	TrialsPROC	TO_008_TOOL8_BA.png	1	2	75	SessionSelectionList														nonlure	3	Tools	0-Back	65	80	63	0	0	97	8	39	452074	2	14	59	450035	-1	450753	1	718	3	3	2039	53	452088	-54	0														4		75												
WM080112	178950_fnca	1	1	1	-217357444	1	75.031	75.031	2.0.10.147	2.0.10.242	2.0.10.242	1.0.0.439	7	234	2	3	Verdana	1	80	0	0	0	WM Stimuli\	0.9	943.333333333333	0.9	794.555555555556	0.9	809.555555555556	1	708.6	1	980	1	734.5	1	810.4	1	760.8	13	511104	2	511092	14	27	511118	-999999	511107	0	18	TrialsPROC	TO_011_TOOL11_BA.png	1	2	76	SessionSelectionList														nonlure	3	Tools	0-Back	66	80	64	0	0	97	9	39	454633	2	14	59	452594	-1	453270	1	676	3	3	2039	53	454647	-54	0														5		76												
WM080112	178950_fnca	1	1	1	-217357444	1	75.031	75.031	2.0.10.147	2.0.10.242	2.0.10.242	1.0.0.439	7	234	2	3	Verdana	1	80	0	0	0	WM Stimuli\	0.9	943.333333333333	0.9	794.555555555556	0.9	809.555555555556	1	708.6	1	980	1	734.5	1	810.4	1	760.8	13	511104	2	511092	14	27	511118	-999999	511107	0	18	TrialsPROC	TO_012_TOOL12_BA.png	1	2	77	SessionSelectionList														nonlure	3	Tools	0-Back	67	80	65	0	0	97	10	39	457192	2	14	59	455153	-1	455756	1	603	3	3	2039	53	457206	-54	0														6		77												
WM080112	178950_fnca	1	1	1	-217357444	1	75.031	75.031	2.0.10.147	2.0.10.242	2.0.10.242	1.0.0.439	7	234	2	3	Verdana	1	80	0	0	0	WM Stimuli\	0.9	943.333333333333	0.9	794.555555555556	0.9	809.555555555556	1	708.6	1	980	1	734.5	1	810.4	1	760.8	13	511104	2	511092	14	27	511118	-999999	511107	0	18	TrialsPROC	TO_010_TOOL10_BA.png	1	2	78	SessionSelectionList														lure	3	Tools	0-Back	68	80	66	0	0	97	11	39	459751	2	14	59	457712	-1	458297	1	585	3	3	2039	53	459765	-54	0														7		78												
WM080112	178950_fnca	1	1	1	-217357444	1	75.031	75.031	2.0.10.147	2.0.10.242	2.0.10.242	1.0.0.439	7	234	2	3	Verdana	1	80	0	0	0	WM Stimuli\	0.9	943.333333333333	0.9	794.555555555556	0.9	809.555555555556	1	708.6	1	980	1	734.5	1	810.4	1	760.8	13	511104	2	511092	14	27	511118	-999999	511107	0	18	TrialsPROC	TO_007_TOOL7_BA.png	1	2	79	SessionSelectionList														target	2	Tools	0-Back	69	80	67	0	0	97	1	39	462310	2	14	59	460271	-1	460956	1	685	2	2	2039	53	462324	-54	0														8		79												
WM080112	178950_fnca	1	1	1	-217357444	1	75.031	75.031	2.0.10.147	2.0.10.242	2.0.10.242	1.0.0.439	7	234	2	3	Verdana	1	80	0	0	0	WM Stimuli\	0.9	943.333333333333	0.9	794.555555555556	0.9	809.555555555556	1	708.6	1	980	1	734.5	1	810.4	1	760.8	13	511104	2	511092	14	27	511118	-999999	511107	0	18	TrialsPROC	TO_008_TOOL8_BA.png	1	2	80	SessionSelectionList														lure	3	Tools	0-Back	70	80	68	0	0	97	1	39	464869	2	14	59	462830	-1	463505	1	675	3	3	2039	53	464883	-54	0														9		80												
WM080112	178950_fnca	1	1	1	-217357444	1	75.031	75.031	2.0.10.147	2.0.10.242	2.0.10.242	1.0.0.439	7	234	2	3	Verdana	1	80	0	0	0	WM Stimuli\	0.9	943.333333333333	0.9	794.555555555556	0.9	809.555555555556	1	708.6	1	980	1	734.5	1	810.4	1	760.8	13	511104	2	511092	14	27	511118	-999999	511107	0	18	TrialsPROC	TO_007_TOOL7_BA.png	1	2	81	SessionSelectionList														target	2	Tools	0-Back	71	80	69	0	0	98	1	39	467428	2	14	59	465389	-1	466088	1	699	2	2	2039	53	467442	-54	0														10		81												
WM080112	178950_fnca	1	1	1	-217357444	1	75.031	75.031	2.0.10.147	2.0.10.242	2.0.10.242	1.0.0.439	7	234	2	3	Verdana	1	80	0	0	0	WM Stimuli\	0.9	943.333333333333	0.9	794.555555555556	0.9	809.555555555556	1	708.6	1	980	1	734.5	1	810.4	1	760.8	13	511104	2	511092	14	27	511118	-999999	511107	0	19	Cue2BackPROC	""	1	2	82	SessionSelectionList									6	467895	-7	0																																													82												
WM080112	178950_fnca	1	1	1	-217357444	1	75.031	75.031	2.0.10.147	2.0.10.242	2.0.10.242	1.0.0.439	7	234	2	3	Verdana	1	80	0	0	0	WM Stimuli\	0.9	943.333333333333	0.9	794.555555555556	0.9	809.555555555556	1	708.6	1	980	1	734.5	1	810.4	1	760.8	13	511104	2	511092	14	27	511118	-999999	511107	0	20	TrialsPROC	PL_007_92026.png	1	2	83	SessionSelectionList														nonlure	3	Place	2-Back	72	80	70	0	0	98	1	39	472493	1	13	65	470454	-1	472181	1	1727	3	3	2039	52	472506	-53	0															1	83												
WM080112	178950_fnca	1	1	1	-217357444	1	75.031	75.031	2.0.10.147	2.0.10.242	2.0.10.242	1.0.0.439	7	234	2	3	Verdana	1	80	0	0	0	WM Stimuli\	0.9	943.333333333333	0.9	794.555555555556	0.9	809.555555555556	1	708.6	1	980	1	734.5	1	810.4	1	760.8	13	511104	2	511092	14	27	511118	-999999	511107	0	20	TrialsPROC	PL_007_92026.png	1	2	84	SessionSelectionList														lure	3	Place	2-Back	73	80	71	0	0	98	2	39	475065	1	14	72	473026	-1	474160	1	1134	3	3	2039	53	475079	-54	0															2	84												
WM080112	178950_fnca	1	1	1	-217357444	1	75.031	75.031	2.0.10.147	2.0.10.242	2.0.10.242	1.0.0.439	7	234	2	3	Verdana	1	80	0	0	0	WM Stimuli\	0.9	943.333333333333	0.9	794.555555555556	0.9	809.555555555556	1	708.6	1	980	1	734.5	1	810.4	1	760.8	13	511104	2	511092	14	27	511118	-999999	511107	0	20	TrialsPROC	PL_010_92038.png	1	2	85	SessionSelectionList														nonlure	3	Place	2-Back	74	80	72	0	0	98	3	39	477637	2	14	72	475598	-1	476639	1	1041	3	3	2039	53	477651	-54	0															3	85												
WM080112	178950_fnca	1	1	1	-217357444	1	75.031	75.031	2.0.10.147	2.0.10.242	2.0.10.242	1.0.0.439	7	234	2	3	Verdana	1	80	0	0	0	WM Stimuli\	0.9	943.333333333333	0.9	794.555555555556	0.9	809.555555555556	1	708.6	1	980	1	734.5	1	810.4	1	760.8	13	511104	2	511092	14	27	511118	-999999	511107	0	20	TrialsPROC	PL_009_92037.png	1	2	86	SessionSelectionList														nonlure	3	Place	2-Back	75	80	73	0	0	98	4	40	480210	1	13	72	478170	-1	478972	1	802	3	3	2040	53	480223	-54	0															4	86												
WM080112	178950_fnca	1	1	1	-217357444	1	75.031	75.031	2.0.10.147	2.0.10.242	2.0.10.242	1.0.0.439	7	234	2	3	Verdana	1	80	0	0	0	WM Stimuli\	0.9	943.333333333333	0.9	794.555555555556	0.9	809.555555555556	1	708.6	1	980	1	734.5	1	810.4	1	760.8	13	511104	2	511092	14	27	511118	-999999	511107	0	20	TrialsPROC	PL_010_92038.png	1	2	87	SessionSelectionList														target	2	Place	2-Back	76	80	74	0	0	98	1	39	482782	1	14	73	480743	-1	481478	1	735	2	2	2039	53	482796	-54	0															5	87												
WM080112	178950_fnca	1	1	1	-217357444	1	75.031	75.031	2.0.10.147	2.0.10.242	2.0.10.242	1.0.0.439	7	234	2	3	Verdana	1	80	0	0	0	WM Stimuli\	0.9	943.333333333333	0.9	794.555555555556	0.9	809.555555555556	1	708.6	1	980	1	734.5	1	810.4	1	760.8	13	511104	2	511092	14	27	511118	-999999	511107	0	20	TrialsPROC	PL_009_92037.png	1	2	88	SessionSelectionList														target	2	Place	2-Back	77	80	75	0	0	98	2	39	485341	1	14	59	483302	-1	484288	1	986	2	2	2039	53	485355	-54	0															6	88												
WM080112	178950_fnca	1	1	1	-217357444	1	75.031	75.031	2.0.10.147	2.0.10.242	2.0.10.242	1.0.0.439	7	234	2	3	Verdana	1	80	0	0	0	WM Stimuli\	0.9	943.333333333333	0.9	794.555555555556	0.9	809.555555555556	1	708.6	1	980	1	734.5	1	810.4	1	760.8	13	511104	2	511092	14	27	511118	-999999	511107	0	20	TrialsPROC	PL_008_92033.png	1	2	89	SessionSelectionList														nonlure	3	Place	2-Back	78	80	76	0	0	98	1	39	487913	2	14	72	485874	-1	486763	1	889	3	3	2039	53	487927	-54	0															7	89												
WM080112	178950_fnca	1	1	1	-217357444	1	75.031	75.031	2.0.10.147	2.0.10.242	2.0.10.242	1.0.0.439	7	234	2	3	Verdana	1	80	0	0	0	WM Stimuli\	0.9	943.333333333333	0.9	794.555555555556	0.9	809.555555555556	1	708.6	1	980	1	734.5	1	810.4	1	760.8	13	511104	2	511092	14	27	511118	-999999	511107	0	20	TrialsPROC	PL_012_92047.png	1	2	90	SessionSelectionList														nonlure	3	Place	2-Back	79	80	77	0	0	98	2	39	490485	2	14	72	488446	-1	489200	1	754	3	3	2039	53	490499	-54	0															8	90												
WM080112	178950_fnca	1	1	1	-217357444	1	75.031	75.031	2.0.10.147	2.0.10.242	2.0.10.242	1.0.0.439	7	234	2	3	Verdana	1	80	0	0	0	WM Stimuli\	0.9	943.333333333333	0.9	794.555555555556	0.9	809.555555555556	1	708.6	1	980	1	734.5	1	810.4	1	760.8	13	511104	2	511092	14	27	511118	-999999	511107	0	20	TrialsPROC	PL_012_92047.png	1	2	91	SessionSelectionList														lure	3	Place	2-Back	80	80	78	0	0	98	3	40	493058	1	13	72	491018	-1	491979	1	961	3	3	2040	53	493071	-54	0															9	91												
WM080112	178950_fnca	1	1	1	-217357444	1	75.031	75.031	2.0.10.147	2.0.10.242	2.0.10.242	1.0.0.439	7	234	2	3	Verdana	1	80	0	0	0	WM Stimuli\	0.9	943.333333333333	0.9	794.555555555556	0.9	809.555555555556	1	708.6	1	980	1	734.5	1	810.4	1	760.8	13	511104	2	511092	14	27	511118	-999999	511107	0	20	TrialsPROC	PL_011_92044.png	1	2	92	SessionSelectionList														nonlure	3	Place	2-Back	80	80	79	0	0	98	4	39	495630	1	14	73	493591	-1	494362	1	771	3	3	2039	53	495644	-54	0															10	92												
WM080112	178950_fnca	1	1	1	-217357444	1	75.031	75.031	2.0.10.147	2.0.10.242	2.0.10.242	1.0.0.439	7	234	2	3	Verdana	1	80	0	0	0	WM Stimuli\	0.9	943.333333333333	0.9	794.555555555556	0.9	809.555555555556	1	708.6	1	980	1	734.5	1	810.4	1	760.8	13	511104	2	511092	14	27	511118	-999999	511107	0	21	Fix15secPROC	""	1	2	93	SessionSelectionList																																															6	496097	-7	0							93												
