ExperimentName	HCPID	RunNumber	Subject	Session	RandomSeed	Group	Laptop.RefreshRate	ScannerD2.RefreshRate	StudioVersion	RuntimeVersion	RuntimeVersionExpected	ExperimentVersion	triggercode	Allowed	Target	Nontarget	FontStyle	RunTrialNumber[Session]	TrialsPerRun[Session]	TotalRespGreater200[Session]	ConsecRTLess200[Session]	ConsecNonResp[Session]	StimuliDir	ACC_2_Back_Body	Avg_RT_For_Correct_Trials_2_Back_Body	ACC_0_Back_Body	Avg_RT_For_Correct_Trials_0_Back_Body	ACC_2_Back_Face	Avg_RT_For_Correct_Trials_2_Back_Face	ACC_0_Back_Face	Avg_RT_For_Correct_Trials_0_Back_Face	ACC_2_Back_Place	Avg_RT_For_Correct_Trials_2_Back_Place	ACC_0_Back_Place	Avg_RT_For_Correct_Trials_0_Back_Place	ACC_2_Back_Tools	Avg_RT_For_Correct_Trials_2_Back_Tools	ACC_0_Back_Tools	Avg_RT_For_Correct_Trials_0_Back_Tools	ExpInstrucFeelFreeToRest.OnsetDelay	ExpInstrucFeelFreeToRest.OnsetTime	ExpInstrucFeelFreeToRest.DurationError	ExpInstrucFeelFreeToRest.StartTime	ExpInstrucFeelFreeToRest.OnsetToOnsetTime	FeelFreeToRest.OnsetDelay	FeelFreeToRest.OnsetTime	FeelFreeToRest.DurationError	FeelFreeToRest.StartTime	FeelFreeToRest.OnsetToOnsetTime	SessionSelectionList	Procedure[Block]	Stimulus[Block]	RunNumberFilterValue	SessionSelectionList.Cycle	SessionSelectionList.Sample	Running[Block]	IntroButtonMap.OnsetDelay	IntroButtonMap.OnsetTime	IntroButtonMap.DurationError	IntroButtonMap.OnsetToOnsetTime	GetReady.OnsetDelay	GetReady.OnsetTime	GetReady.DurationError	GetReady.OnsetToOnsetTime	Cue2Back.OnsetDelay	Cue2Back.OnsetTime	Cue2Back.DurationError	Cue2Back.OnsetToOnsetTime	Run1Block1	TargetType	CorrectResponse	StimType	BlockType	RunTrialNumber[Block]	TrialsPerRun[Block]	TotalRespGreater200[Block]	ConsecRTLess200[Block]	ConsecNonResp[Block]	ControlAcc	ConsecSameResp	ExperimenterWindow.OnsetDelay	ExperimenterWindow.OnsetTime	ExperimenterWindow.DurationError	ExperimenterWindow.OnsetToOnsetTime	Stim.OnsetDelay	Stim.OnsetTime	Stim.DurationError	Stim.RTTime	Stim.ACC	Stim.RT	Stim.RESP	Stim.CRESP	Stim.OnsetToOnsetTime	Fix.OnsetDelay	Fix.OnsetTime	Fix.DurationError	Fix.OnsetToOnsetTime	CueTarget.OnsetDelay	CueTarget.OnsetTime	CueTarget.DurationError	CueTarget.OnsetToOnsetTime	Run1Block2	Fix15sec.OnsetDelay	Fix15sec.OnsetTime	Fix15sec.DurationError	Fix15sec.OnsetToOnsetTime	Run1Block3	Run1Block4	Run1Block5	Run1Block6	Run1Block7	Run1Block8	Block	Procedure[Trial]	Stimulus[Trial]	ReadyList	Running[Trial]	ReadyList.Cycle	ReadyList.Sample	SyncSlide.OnsetDelay	SyncSlide.OnsetTime	SyncSlide.DurationError	SyncSlide.FinishTime	SyncSlide.OnsetToOnsetTime	Trial
WM080112	144832_fnca	1	1	1	-1474666559	1	75.031	75.031	2.0.10.147	2.0.10.242	2.0.10.242	1.0.0.439	7	234	2	3	Verdana	1	80	0	0	0	WM Stimuli\	0.8	1159	0.5	1250.2	1	762	1	668.3	0.9	916.555555555556	1	747.5	0.9	1199.77777777778	1	665.5	13	555147	2	555135	27	40	555174	-999999	555150	0	1	TRSyncPROC	""	1	2	1	SessionSelectionList	117	174661	-999999	0	30	243260	-999999	0																																																	1	InitialTR	4	1	ReadyList	1	1	18	261293	-19	263274	0	1
WM080112	144832_fnca	1	1	1	-1474666559	1	75.031	75.031	2.0.10.147	2.0.10.242	2.0.10.242	1.0.0.439	7	234	2	3	Verdana	1	80	0	0	0	WM Stimuli\	0.8	1159	0.5	1250.2	1	762	1	668.3	0.9	916.555555555556	1	747.5	0.9	1199.77777777778	1	665.5	13	555147	2	555135	27	40	555174	-999999	555150	0	1	TRSyncPROC	""	1	2	1	SessionSelectionList	117	174661	-999999	0	30	243260	-999999	0																																																	1	InitialTR	3	2	ReadyList	1	2	17	263292	-18	265274	0	2
WM080112	144832_fnca	1	1	1	-1474666559	1	75.031	75.031	2.0.10.147	2.0.10.242	2.0.10.242	1.0.0.439	7	234	2	3	Verdana	1	80	0	0	0	WM Stimuli\	0.8	1159	0.5	1250.2	1	762	1	668.3	0.9	916.555555555556	1	747.5	0.9	1199.77777777778	1	665.5	13	555147	2	555135	27	40	555174	-999999	555150	0	1	TRSyncPROC	""	1	2	1	SessionSelectionList	117	174661	-999999	0	30	243260	-999999	0																																																	1	InitialTR	2	3	ReadyList	1	3	16	265291	-17	267274	0	3
WM080112	144832_fnca	1	1	1	-1474666559	1	75.031	75.031	2.0.10.147	2.0.10.242	2.0.10.242	1.0.0.439	7	234	2	3	Verdana	1	80	0	0	0	WM Stimuli\	0.8	1159	0.5	1250.2	1	762	1	668.3	0.9	916.555555555556	1	747.5	0.9	1199.77777777778	1	665.5	13	555147	2	555135	27	40	555174	-999999	555150	0	1	TRSyncPROC	""	1	2	1	SessionSelectionList	117	174661	-999999	0	30	243260	-999999	0																																																	1	InitialTR	1	4	ReadyList	1	4	15	267290	-16	269274	0	4
WM080112	144832_fnca	1	1	1	-1474666559	1	75.031	75.031	2.0.10.147	2.0.10.242	2.0.10.242	1.0.0.439	7	234	2	3	Verdana	1	80	0	0	0	WM Stimuli\	0.8	1159	0.5	1250.2	1	762	1	668.3	0.9	916.555555555556	1	747.5	0.9	1199.77777777778	1	665.5	13	555147	2	555135	27	40	555174	-999999	555150	0	2	Cue2BackPROC	""	1	2	2	SessionSelectionList									14	269289	-15	0																																													2												
WM080112	144832_fnca	1	1	1	-1474666559	1	75.031	75.031	2.0.10.147	2.0.10.242	2.0.10.242	1.0.0.439	7	234	2	3	Verdana	1	80	0	0	0	WM Stimuli\	0.8	1159	0.5	1250.2	1	762	1	668.3	0.9	916.555555555556	1	747.5	0.9	1199.77777777778	1	665.5	13	555147	2	555135	27	40	555174	-999999	555150	0	3	TrialsPROC	BP_002_BP10_BA.png	1	2	3	SessionSelectionList													1	nonlure	3	Body	2-Back	2	80	1	0	0	0	1	52	273927	3	14	100	271875	-1	272938	1	1063	3	3	2052	66	273941	-67	0																3												
WM080112	144832_fnca	1	1	1	-1474666559	1	75.031	75.031	2.0.10.147	2.0.10.242	2.0.10.242	1.0.0.439	7	234	2	3	Verdana	1	80	0	0	0	WM Stimuli\	0.8	1159	0.5	1250.2	1	762	1	668.3	0.9	916.555555555556	1	747.5	0.9	1199.77777777778	1	665.5	13	555147	2	555135	27	40	555174	-999999	555150	0	3	TrialsPROC	BP_001_BP1_BA.png	1	2	4	SessionSelectionList													2	nonlure	3	Body	2-Back	3	80	2	0	0	0	2	39	276486	3	14	72	274447	-1	275296	1	849	3	3	2039	53	276500	-54	0																4												
WM080112	144832_fnca	1	1	1	-1474666559	1	75.031	75.031	2.0.10.147	2.0.10.242	2.0.10.242	1.0.0.439	7	234	2	3	Verdana	1	80	0	0	0	WM Stimuli\	0.8	1159	0.5	1250.2	1	762	1	668.3	0.9	916.555555555556	1	747.5	0.9	1199.77777777778	1	665.5	13	555147	2	555135	27	40	555174	-999999	555150	0	3	TrialsPROC	BP_006_BP2_BA.png	1	2	5	SessionSelectionList													3	nonlure	3	Body	2-Back	4	80	3	0	0	0	1	39	279045	2	14	59	277006	-1	277523	0	517	2	3	2039	53	279059	-54	0																5												
WM080112	144832_fnca	1	1	1	-1474666559	1	75.031	75.031	2.0.10.147	2.0.10.242	2.0.10.242	1.0.0.439	7	234	2	3	Verdana	1	80	0	0	0	WM Stimuli\	0.8	1159	0.5	1250.2	1	762	1	668.3	0.9	916.555555555556	1	747.5	0.9	1199.77777777778	1	665.5	13	555147	2	555135	27	40	555174	-999999	555150	0	3	TrialsPROC	BP_001_BP1_BA.png	1	2	6	SessionSelectionList													4	target	2	Body	2-Back	5	80	4	0	0	0	2	40	281618	1	13	72	279578	-1	280551	1	973	2	2	2040	53	281631	-54	0																6												
WM080112	144832_fnca	1	1	1	-1474666559	1	75.031	75.031	2.0.10.147	2.0.10.242	2.0.10.242	1.0.0.439	7	234	2	3	Verdana	1	80	0	0	0	WM Stimuli\	0.8	1159	0.5	1250.2	1	762	1	668.3	0.9	916.555555555556	1	747.5	0.9	1199.77777777778	1	665.5	13	555147	2	555135	27	40	555174	-999999	555150	0	3	TrialsPROC	BP_005_BP19_BA.png	1	2	7	SessionSelectionList													5	nonlure	3	Body	2-Back	6	80	5	0	0	0	1	40	284217	1	13	99	282177	-1	283211	1	1034	3	3	2040	53	284230	-54	0																7												
WM080112	144832_fnca	1	1	1	-1474666559	1	75.031	75.031	2.0.10.147	2.0.10.242	2.0.10.242	1.0.0.439	7	234	2	3	Verdana	1	80	0	0	0	WM Stimuli\	0.8	1159	0.5	1250.2	1	762	1	668.3	0.9	916.555555555556	1	747.5	0.9	1199.77777777778	1	665.5	13	555147	2	555135	27	40	555174	-999999	555150	0	3	TrialsPROC	BP_003_BP16_BA.png	1	2	8	SessionSelectionList													6	nonlure	3	Body	2-Back	7	80	6	0	0	0	2	40	286776	1	13	59	284736	-1	285733	1	997	3	3	2040	53	286789	-54	0																8												
WM080112	144832_fnca	1	1	1	-1474666559	1	75.031	75.031	2.0.10.147	2.0.10.242	2.0.10.242	1.0.0.439	7	234	2	3	Verdana	1	80	0	0	0	WM Stimuli\	0.8	1159	0.5	1250.2	1	762	1	668.3	0.9	916.555555555556	1	747.5	0.9	1199.77777777778	1	665.5	13	555147	2	555135	27	40	555174	-999999	555150	0	3	TrialsPROC	BP_006_BP2_BA.png	1	2	9	SessionSelectionList													7	lure	3	Body	2-Back	8	80	7	0	0	0	3	40	289335	1	13	59	287295	-1	288388	1	1093	3	3	2040	53	289348	-54	0																9												
WM080112	144832_fnca	1	1	1	-1474666559	1	75.031	75.031	2.0.10.147	2.0.10.242	2.0.10.242	1.0.0.439	7	234	2	3	Verdana	1	80	0	0	0	WM Stimuli\	0.8	1159	0.5	1250.2	1	762	1	668.3	0.9	916.555555555556	1	747.5	0.9	1199.77777777778	1	665.5	13	555147	2	555135	27	40	555174	-999999	555150	0	3	TrialsPROC	BP_004_BP18_BA.png	1	2	10	SessionSelectionList													8	nonlure	3	Body	2-Back	9	80	8	0	0	0	4	39	291893	2	14	59	289854	-1	291251	1	1397	3	3	2039	53	291907	-54	0																10												
WM080112	144832_fnca	1	1	1	-1474666559	1	75.031	75.031	2.0.10.147	2.0.10.242	2.0.10.242	1.0.0.439	7	234	2	3	Verdana	1	80	0	0	0	WM Stimuli\	0.8	1159	0.5	1250.2	1	762	1	668.3	0.9	916.555555555556	1	747.5	0.9	1199.77777777778	1	665.5	13	555147	2	555135	27	40	555174	-999999	555150	0	3	TrialsPROC	BP_005_BP19_BA.png	1	2	11	SessionSelectionList													9	lure	3	Body	2-Back	10	80	9	0	0	0	1	38	294452	2	14	60	292414	-1	293238	0	824	2	3	2038	52	294466	-53	0																11												
WM080112	144832_fnca	1	1	1	-1474666559	1	75.031	75.031	2.0.10.147	2.0.10.242	2.0.10.242	1.0.0.439	7	234	2	3	Verdana	1	80	0	0	0	WM Stimuli\	0.8	1159	0.5	1250.2	1	762	1	668.3	0.9	916.555555555556	1	747.5	0.9	1199.77777777778	1	665.5	13	555147	2	555135	27	40	555174	-999999	555150	0	3	TrialsPROC	BP_004_BP18_BA.png	1	2	12	SessionSelectionList													10	target	2	Body	2-Back	11	80	10	0	0	0	2	39	297011	2	14	58	294972	-1	296838	1	1866	2	2	2039	53	297025	-54	0																12												
WM080112	144832_fnca	1	1	1	-1474666559	1	75.031	75.031	2.0.10.147	2.0.10.242	2.0.10.242	1.0.0.439	7	234	2	3	Verdana	1	80	0	0	0	WM Stimuli\	0.8	1159	0.5	1250.2	1	762	1	668.3	0.9	916.555555555556	1	747.5	0.9	1199.77777777778	1	665.5	13	555147	2	555135	27	40	555174	-999999	555150	0	4	Cue0BackPROC	FC_001_M1.png	1	2	13	SessionSelectionList																																										46	297518	-47	0												13												
WM080112	144832_fnca	1	1	1	-1474666559	1	75.031	75.031	2.0.10.147	2.0.10.242	2.0.10.242	1.0.0.439	7	234	2	3	Verdana	1	80	0	0	0	WM Stimuli\	0.8	1159	0.5	1250.2	1	762	1	668.3	0.9	916.555555555556	1	747.5	0.9	1199.77777777778	1	665.5	13	555147	2	555135	27	40	555174	-999999	555150	0	5	TrialsPROC	FC_005_M3.png	1	2	14	SessionSelectionList														nonlure	3	Face	0-Back	12	80	11	0	0	100	1	39	302103	1	13	92	300064	-1	300757	1	693	3	3	2039	52	302116	-53	0					1											14												
WM080112	144832_fnca	1	1	1	-1474666559	1	75.031	75.031	2.0.10.147	2.0.10.242	2.0.10.242	1.0.0.439	7	234	2	3	Verdana	1	80	0	0	0	WM Stimuli\	0.8	1159	0.5	1250.2	1	762	1	668.3	0.9	916.555555555556	1	747.5	0.9	1199.77777777778	1	665.5	13	555147	2	555135	27	40	555174	-999999	555150	0	5	TrialsPROC	FC_001_M1.png	1	2	15	SessionSelectionList														target	2	Face	0-Back	13	80	12	0	0	100	1	39	304675	1	14	72	302636	-1	303192	1	556	2	2	2039	53	304689	-54	0					2											15												
WM080112	144832_fnca	1	1	1	-1474666559	1	75.031	75.031	2.0.10.147	2.0.10.242	2.0.10.242	1.0.0.439	7	234	2	3	Verdana	1	80	0	0	0	WM Stimuli\	0.8	1159	0.5	1250.2	1	762	1	668.3	0.9	916.555555555556	1	747.5	0.9	1199.77777777778	1	665.5	13	555147	2	555135	27	40	555174	-999999	555150	0	5	TrialsPROC	FC_003_M2.png	1	2	16	SessionSelectionList														nonlure	3	Face	0-Back	14	80	13	0	0	100	1	39	307247	2	14	72	305208	-1	305842	1	634	3	3	2039	53	307261	-54	0					3											16												
WM080112	144832_fnca	1	1	1	-1474666559	1	75.031	75.031	2.0.10.147	2.0.10.242	2.0.10.242	1.0.0.439	7	234	2	3	Verdana	1	80	0	0	0	WM Stimuli\	0.8	1159	0.5	1250.2	1	762	1	668.3	0.9	916.555555555556	1	747.5	0.9	1199.77777777778	1	665.5	13	555147	2	555135	27	40	555174	-999999	555150	0	5	TrialsPROC	FC_004_F2.png	1	2	17	SessionSelectionList														nonlure	3	Face	0-Back	15	80	14	0	0	100	2	40	309820	1	13	72	307780	-1	308458	1	678	3	3	2040	53	309833	-54	0					4											17												
WM080112	144832_fnca	1	1	1	-1474666559	1	75.031	75.031	2.0.10.147	2.0.10.242	2.0.10.242	1.0.0.439	7	234	2	3	Verdana	1	80	0	0	0	WM Stimuli\	0.8	1159	0.5	1250.2	1	762	1	668.3	0.9	916.555555555556	1	747.5	0.9	1199.77777777778	1	665.5	13	555147	2	555135	27	40	555174	-999999	555150	0	5	TrialsPROC	FC_004_F2.png	1	2	18	SessionSelectionList														lure	3	Face	0-Back	16	80	15	0	0	100	3	39	312392	1	14	73	310353	-1	311146	1	793	3	3	2039	53	312406	-54	0					5											18												
WM080112	144832_fnca	1	1	1	-1474666559	1	75.031	75.031	2.0.10.147	2.0.10.242	2.0.10.242	1.0.0.439	7	234	2	3	Verdana	1	80	0	0	0	WM Stimuli\	0.8	1159	0.5	1250.2	1	762	1	668.3	0.9	916.555555555556	1	747.5	0.9	1199.77777777778	1	665.5	13	555147	2	555135	27	40	555174	-999999	555150	0	5	TrialsPROC	FC_001_M1.png	1	2	19	SessionSelectionList														target	2	Face	0-Back	17	80	16	0	0	100	1	39	314964	2	14	72	312925	-1	313486	1	561	2	2	2039	53	314978	-54	0					6											19												
WM080112	144832_fnca	1	1	1	-1474666559	1	75.031	75.031	2.0.10.147	2.0.10.242	2.0.10.242	1.0.0.439	7	234	2	3	Verdana	1	80	0	0	0	WM Stimuli\	0.8	1159	0.5	1250.2	1	762	1	668.3	0.9	916.555555555556	1	747.5	0.9	1199.77777777778	1	665.5	13	555147	2	555135	27	40	555174	-999999	555150	0	5	TrialsPROC	FC_006_F3.png	1	2	20	SessionSelectionList														nonlure	3	Face	0-Back	18	80	17	0	0	100	1	39	317536	2	14	72	315497	-1	316020	1	523	3	3	2039	53	317550	-54	0					7											20												
WM080112	144832_fnca	1	1	1	-1474666559	1	75.031	75.031	2.0.10.147	2.0.10.242	2.0.10.242	1.0.0.439	7	234	2	3	Verdana	1	80	0	0	0	WM Stimuli\	0.8	1159	0.5	1250.2	1	762	1	668.3	0.9	916.555555555556	1	747.5	0.9	1199.77777777778	1	665.5	13	555147	2	555135	27	40	555174	-999999	555150	0	5	TrialsPROC	FC_006_F3.png	1	2	21	SessionSelectionList														lure	3	Face	0-Back	19	80	18	0	0	100	2	39	320109	1	13	73	318070	-1	318687	1	617	3	3	2039	52	320122	-53	0					8											21												
WM080112	144832_fnca	1	1	1	-1474666559	1	75.031	75.031	2.0.10.147	2.0.10.242	2.0.10.242	1.0.0.439	7	234	2	3	Verdana	1	80	0	0	0	WM Stimuli\	0.8	1159	0.5	1250.2	1	762	1	668.3	0.9	916.555555555556	1	747.5	0.9	1199.77777777778	1	665.5	13	555147	2	555135	27	40	555174	-999999	555150	0	5	TrialsPROC	FC_003_M2.png	1	2	22	SessionSelectionList														lure	3	Face	0-Back	20	80	19	0	0	100	3	39	322681	1	14	72	320642	-1	321387	1	745	3	3	2039	53	322695	-54	0					9											22												
WM080112	144832_fnca	1	1	1	-1474666559	1	75.031	75.031	2.0.10.147	2.0.10.242	2.0.10.242	1.0.0.439	7	234	2	3	Verdana	1	80	0	0	0	WM Stimuli\	0.8	1159	0.5	1250.2	1	762	1	668.3	0.9	916.555555555556	1	747.5	0.9	1199.77777777778	1	665.5	13	555147	2	555135	27	40	555174	-999999	555150	0	5	TrialsPROC	FC_002_F1.png	1	2	23	SessionSelectionList														nonlure	3	Face	0-Back	21	80	20	0	0	100	4	40	325267	1	13	85	323227	-1	324110	1	883	3	3	2040	53	325280	-54	0					10											23												
WM080112	144832_fnca	1	1	1	-1474666559	1	75.031	75.031	2.0.10.147	2.0.10.242	2.0.10.242	1.0.0.439	7	234	2	3	Verdana	1	80	0	0	0	WM Stimuli\	0.8	1159	0.5	1250.2	1	762	1	668.3	0.9	916.555555555556	1	747.5	0.9	1199.77777777778	1	665.5	13	555147	2	555135	27	40	555174	-999999	555150	0	6	Fix15secPROC	""	1	2	24	SessionSelectionList																																															7	325734	-8	0							24												
WM080112	144832_fnca	1	1	1	-1474666559	1	75.031	75.031	2.0.10.147	2.0.10.242	2.0.10.242	1.0.0.439	7	234	2	3	Verdana	1	80	0	0	0	WM Stimuli\	0.8	1159	0.5	1250.2	1	762	1	668.3	0.9	916.555555555556	1	747.5	0.9	1199.77777777778	1	665.5	13	555147	2	555135	27	40	555174	-999999	555150	0	7	Cue2BackPROC	""	1	2	25	SessionSelectionList									13	340740	-14	0																																													25												
WM080112	144832_fnca	1	1	1	-1474666559	1	75.031	75.031	2.0.10.147	2.0.10.242	2.0.10.242	1.0.0.439	7	234	2	3	Verdana	1	80	0	0	0	WM Stimuli\	0.8	1159	0.5	1250.2	1	762	1	668.3	0.9	916.555555555556	1	747.5	0.9	1199.77777777778	1	665.5	13	555147	2	555135	27	40	555174	-999999	555150	0	8	TrialsPROC	TO_001_TOOL1_BA.png	1	2	26	SessionSelectionList														nonlure	3	Tools	2-Back	22	80	21	0	0	100	5	39	345352	1	14	86	343313	-1	344062	1	749	3	3	2039	53	345366	-54	0										1						26												
WM080112	144832_fnca	1	1	1	-1474666559	1	75.031	75.031	2.0.10.147	2.0.10.242	2.0.10.242	1.0.0.439	7	234	2	3	Verdana	1	80	0	0	0	WM Stimuli\	0.8	1159	0.5	1250.2	1	762	1	668.3	0.9	916.555555555556	1	747.5	0.9	1199.77777777778	1	665.5	13	555147	2	555135	27	40	555174	-999999	555150	0	8	TrialsPROC	TO_002_TOOL2_BA.png	1	2	27	SessionSelectionList														nonlure	3	Tools	2-Back	23	80	22	0	0	100	6	39	347911	1	14	59	345872	-1	346997	1	1125	3	3	2039	53	347925	-54	0										2						27												
WM080112	144832_fnca	1	1	1	-1474666559	1	75.031	75.031	2.0.10.147	2.0.10.242	2.0.10.242	1.0.0.439	7	234	2	3	Verdana	1	80	0	0	0	WM Stimuli\	0.8	1159	0.5	1250.2	1	762	1	668.3	0.9	916.555555555556	1	747.5	0.9	1199.77777777778	1	665.5	13	555147	2	555135	27	40	555174	-999999	555150	0	8	TrialsPROC	TO_004_TOOL4_BA.png	1	2	28	SessionSelectionList														nonlure	3	Tools	2-Back	24	80	23	0	0	100	7	39	350510	1	14	99	348471	-1	350376	1	1905	3	3	2039	53	350524	-54	0										3						28												
WM080112	144832_fnca	1	1	1	-1474666559	1	75.031	75.031	2.0.10.147	2.0.10.242	2.0.10.242	1.0.0.439	7	234	2	3	Verdana	1	80	0	0	0	WM Stimuli\	0.8	1159	0.5	1250.2	1	762	1	668.3	0.9	916.555555555556	1	747.5	0.9	1199.77777777778	1	665.5	13	555147	2	555135	27	40	555174	-999999	555150	0	8	TrialsPROC	TO_002_TOOL2_BA.png	1	2	29	SessionSelectionList														target	2	Tools	2-Back	25	80	24	0	0	100	1	39	353069	1	13	59	351030	-1	352032	1	1002	2	2	2039	52	353082	-53	0										4						29												
WM080112	144832_fnca	1	1	1	-1474666559	1	75.031	75.031	2.0.10.147	2.0.10.242	2.0.10.242	1.0.0.439	7	234	2	3	Verdana	1	80	0	0	0	WM Stimuli\	0.8	1159	0.5	1250.2	1	762	1	668.3	0.9	916.555555555556	1	747.5	0.9	1199.77777777778	1	665.5	13	555147	2	555135	27	40	555174	-999999	555150	0	8	TrialsPROC	TO_001_TOOL1_BA.png	1	2	30	SessionSelectionList														lure	3	Tools	2-Back	26	80	25	0	0	100	1	39	355628	1	13	59	353589	-1	354695	1	1106	3	3	2039	52	355641	-53	0										5						30												
WM080112	144832_fnca	1	1	1	-1474666559	1	75.031	75.031	2.0.10.147	2.0.10.242	2.0.10.242	1.0.0.439	7	234	2	3	Verdana	1	80	0	0	0	WM Stimuli\	0.8	1159	0.5	1250.2	1	762	1	668.3	0.9	916.555555555556	1	747.5	0.9	1199.77777777778	1	665.5	13	555147	2	555135	27	40	555174	-999999	555150	0	8	TrialsPROC	TO_004_TOOL4_BA.png	1	2	31	SessionSelectionList														lure	3	Tools	2-Back	27	80	26	0	0	100	1	39	358187	1	13	59	356148	-1	357875	0	1727	2	3	2039	52	358200	-53	0										6						31												
WM080112	144832_fnca	1	1	1	-1474666559	1	75.031	75.031	2.0.10.147	2.0.10.242	2.0.10.242	1.0.0.439	7	234	2	3	Verdana	1	80	0	0	0	WM Stimuli\	0.8	1159	0.5	1250.2	1	762	1	668.3	0.9	916.555555555556	1	747.5	0.9	1199.77777777778	1	665.5	13	555147	2	555135	27	40	555174	-999999	555150	0	8	TrialsPROC	TO_006_TOOL6_BA.png	1	2	32	SessionSelectionList														nonlure	3	Tools	2-Back	28	80	27	0	0	100	1	39	360746	1	13	59	358707	-1	360688	1	1981	3	3	2039	52	360759	-53	0										7						32												
WM080112	144832_fnca	1	1	1	-1474666559	1	75.031	75.031	2.0.10.147	2.0.10.242	2.0.10.242	1.0.0.439	7	234	2	3	Verdana	1	80	0	0	0	WM Stimuli\	0.8	1159	0.5	1250.2	1	762	1	668.3	0.9	916.555555555556	1	747.5	0.9	1199.77777777778	1	665.5	13	555147	2	555135	27	40	555174	-999999	555150	0	8	TrialsPROC	TO_005_TOOL5_BA.png	1	2	33	SessionSelectionList														nonlure	3	Tools	2-Back	29	80	28	0	0	100	2	40	363345	1	13	98	361305	-1	362257	1	952	3	3	2040	53	363358	-54	0										8						33												
WM080112	144832_fnca	1	1	1	-1474666559	1	75.031	75.031	2.0.10.147	2.0.10.242	2.0.10.242	1.0.0.439	7	234	2	3	Verdana	1	80	0	0	0	WM Stimuli\	0.8	1159	0.5	1250.2	1	762	1	668.3	0.9	916.555555555556	1	747.5	0.9	1199.77777777778	1	665.5	13	555147	2	555135	27	40	555174	-999999	555150	0	8	TrialsPROC	TO_006_TOOL6_BA.png	1	2	34	SessionSelectionList														target	2	Tools	2-Back	30	80	29	0	0	100	1	40	365904	1	13	59	363864	-1	364769	1	905	2	2	2040	53	365917	-54	0										9						34												
WM080112	144832_fnca	1	1	1	-1474666559	1	75.031	75.031	2.0.10.147	2.0.10.242	2.0.10.242	1.0.0.439	7	234	2	3	Verdana	1	80	0	0	0	WM Stimuli\	0.8	1159	0.5	1250.2	1	762	1	668.3	0.9	916.555555555556	1	747.5	0.9	1199.77777777778	1	665.5	13	555147	2	555135	27	40	555174	-999999	555150	0	8	TrialsPROC	TO_003_TOOL3_BA.png	1	2	35	SessionSelectionList														nonlure	3	Tools	2-Back	31	80	30	0	0	100	1	39	368476	1	14	73	366437	-1	367510	1	1073	3	3	2039	53	368490	-54	0										10						35												
WM080112	144832_fnca	1	1	1	-1474666559	1	75.031	75.031	2.0.10.147	2.0.10.242	2.0.10.242	1.0.0.439	7	234	2	3	Verdana	1	80	0	0	0	WM Stimuli\	0.8	1159	0.5	1250.2	1	762	1	668.3	0.9	916.555555555556	1	747.5	0.9	1199.77777777778	1	665.5	13	555147	2	555135	27	40	555174	-999999	555150	0	9	Cue0BackPROC	BP_007_BP20_BA.png	1	2	36	SessionSelectionList																																										32	368969	-33	0												36												
WM080112	144832_fnca	1	1	1	-1474666559	1	75.031	75.031	2.0.10.147	2.0.10.242	2.0.10.242	1.0.0.439	7	234	2	3	Verdana	1	80	0	0	0	WM Stimuli\	0.8	1159	0.5	1250.2	1	762	1	668.3	0.9	916.555555555556	1	747.5	0.9	1199.77777777778	1	665.5	13	555147	2	555135	27	40	555174	-999999	555150	0	10	TrialsPROC	BP_007_BP20_BA.png	1	2	37	SessionSelectionList														target	2	Body	0-Back	32	80	31	0	0	91	2	39	373527	2	14	51	371488	-1	372548	0	1060	3	2	2039	53	373541	-54	0											1					37												
WM080112	144832_fnca	1	1	1	-1474666559	1	75.031	75.031	2.0.10.147	2.0.10.242	2.0.10.242	1.0.0.439	7	234	2	3	Verdana	1	80	0	0	0	WM Stimuli\	0.8	1159	0.5	1250.2	1	762	1	668.3	0.9	916.555555555556	1	747.5	0.9	1199.77777777778	1	665.5	13	555147	2	555135	27	40	555174	-999999	555150	0	10	TrialsPROC	BP_011_BP4_BA.png	1	2	38	SessionSelectionList														nonlure	3	Body	0-Back	33	80	31	0	1	83	2	39	376099	2	14	72	374060	-1	0	0	0	""	3	2039	53	376113	-54	0											2					38												
WM080112	144832_fnca	1	1	1	-1474666559	1	75.031	75.031	2.0.10.147	2.0.10.242	2.0.10.242	1.0.0.439	7	234	2	3	Verdana	1	80	0	0	0	WM Stimuli\	0.8	1159	0.5	1250.2	1	762	1	668.3	0.9	916.555555555556	1	747.5	0.9	1199.77777777778	1	665.5	13	555147	2	555135	27	40	555174	-999999	555150	0	10	TrialsPROC	BP_010_BP3_BA.png	1	2	39	SessionSelectionList														nonlure	3	Body	0-Back	34	80	32	0	0	77	1	39	378672	1	13	73	376633	-1	377721	0	1088	2	3	2039	52	378685	-53	0											3					39												
WM080112	144832_fnca	1	1	1	-1474666559	1	75.031	75.031	2.0.10.147	2.0.10.242	2.0.10.242	1.0.0.439	7	234	2	3	Verdana	1	80	0	0	0	WM Stimuli\	0.8	1159	0.5	1250.2	1	762	1	668.3	0.9	916.555555555556	1	747.5	0.9	1199.77777777778	1	665.5	13	555147	2	555135	27	40	555174	-999999	555150	0	10	TrialsPROC	BP_008_BP21_BA.png	1	2	40	SessionSelectionList														nonlure	3	Body	0-Back	35	80	33	0	0	79	1	40	381231	1	13	58	379191	-1	380517	1	1326	3	3	2040	53	381244	-54	0											4					40												
WM080112	144832_fnca	1	1	1	-1474666559	1	75.031	75.031	2.0.10.147	2.0.10.242	2.0.10.242	1.0.0.439	7	234	2	3	Verdana	1	80	0	0	0	WM Stimuli\	0.8	1159	0.5	1250.2	1	762	1	668.3	0.9	916.555555555556	1	747.5	0.9	1199.77777777778	1	665.5	13	555147	2	555135	27	40	555174	-999999	555150	0	10	TrialsPROC	BP_011_BP4_BA.png	1	2	41	SessionSelectionList														lure	3	Body	0-Back	36	80	34	0	0	73	1	39	383790	1	13	60	381751	-1	382572	0	821	2	3	2039	52	383803	-53	0											5					41												
WM080112	144832_fnca	1	1	1	-1474666559	1	75.031	75.031	2.0.10.147	2.0.10.242	2.0.10.242	1.0.0.439	7	234	2	3	Verdana	1	80	0	0	0	WM Stimuli\	0.8	1159	0.5	1250.2	1	762	1	668.3	0.9	916.555555555556	1	747.5	0.9	1199.77777777778	1	665.5	13	555147	2	555135	27	40	555174	-999999	555150	0	10	TrialsPROC	BP_009_BP22_BA.png	1	2	42	SessionSelectionList														nonlure	3	Body	0-Back	37	80	35	0	0	75	1	40	386349	1	13	58	384309	-1	385187	1	878	3	3	2040	53	386362	-54	0											6					42												
WM080112	144832_fnca	1	1	1	-1474666559	1	75.031	75.031	2.0.10.147	2.0.10.242	2.0.10.242	1.0.0.439	7	234	2	3	Verdana	1	80	0	0	0	WM Stimuli\	0.8	1159	0.5	1250.2	1	762	1	668.3	0.9	916.555555555556	1	747.5	0.9	1199.77777777778	1	665.5	13	555147	2	555135	27	40	555174	-999999	555150	0	10	TrialsPROC	BP_009_BP22_BA.png	1	2	43	SessionSelectionList														lure	3	Body	0-Back	38	80	36	0	0	76	2	40	388908	1	13	59	386868	-1	387779	1	911	3	3	2040	53	388921	-54	0											7					43												
WM080112	144832_fnca	1	1	1	-1474666559	1	75.031	75.031	2.0.10.147	2.0.10.242	2.0.10.242	1.0.0.439	7	234	2	3	Verdana	1	80	0	0	0	WM Stimuli\	0.8	1159	0.5	1250.2	1	762	1	668.3	0.9	916.555555555556	1	747.5	0.9	1199.77777777778	1	665.5	13	555147	2	555135	27	40	555174	-999999	555150	0	10	TrialsPROC	BP_008_BP21_BA.png	1	2	44	SessionSelectionList														lure	3	Body	0-Back	39	80	37	0	0	78	3	40	391467	1	13	59	389427	-1	391199	1	1772	3	3	2040	53	391480	-54	0											8					44												
WM080112	144832_fnca	1	1	1	-1474666559	1	75.031	75.031	2.0.10.147	2.0.10.242	2.0.10.242	1.0.0.439	7	234	2	3	Verdana	1	80	0	0	0	WM Stimuli\	0.8	1159	0.5	1250.2	1	762	1	668.3	0.9	916.555555555556	1	747.5	0.9	1199.77777777778	1	665.5	13	555147	2	555135	27	40	555174	-999999	555150	0	10	TrialsPROC	BP_007_BP20_BA.png	1	2	45	SessionSelectionList														target	2	Body	0-Back	40	80	38	0	0	74	4	39	394025	2	14	59	391986	-1	393217	0	1231	3	2	2039	53	394039	-54	0											9					45												
WM080112	144832_fnca	1	1	1	-1474666559	1	75.031	75.031	2.0.10.147	2.0.10.242	2.0.10.242	1.0.0.439	7	234	2	3	Verdana	1	80	0	0	0	WM Stimuli\	0.8	1159	0.5	1250.2	1	762	1	668.3	0.9	916.555555555556	1	747.5	0.9	1199.77777777778	1	665.5	13	555147	2	555135	27	40	555174	-999999	555150	0	10	TrialsPROC	BP_012_BP5_BA.png	1	2	46	SessionSelectionList														nonlure	3	Body	0-Back	41	80	39	0	0	75	5	39	396598	1	14	73	394559	-1	395923	1	1364	3	3	2039	53	396612	-54	0											10					46												
WM080112	144832_fnca	1	1	1	-1474666559	1	75.031	75.031	2.0.10.147	2.0.10.242	2.0.10.242	1.0.0.439	7	234	2	3	Verdana	1	80	0	0	0	WM Stimuli\	0.8	1159	0.5	1250.2	1	762	1	668.3	0.9	916.555555555556	1	747.5	0.9	1199.77777777778	1	665.5	13	555147	2	555135	27	40	555174	-999999	555150	0	11	Fix15secPROC	""	1	2	47	SessionSelectionList																																															6	397065	-7	0							47												
WM080112	144832_fnca	1	1	1	-1474666559	1	75.031	75.031	2.0.10.147	2.0.10.242	2.0.10.242	1.0.0.439	7	234	2	3	Verdana	1	80	0	0	0	WM Stimuli\	0.8	1159	0.5	1250.2	1	762	1	668.3	0.9	916.555555555556	1	747.5	0.9	1199.77777777778	1	665.5	13	555147	2	555135	27	40	555174	-999999	555150	0	12	Cue0BackPROC	PL_001_92012.png	1	2	48	SessionSelectionList																																										39	412098	-40	0												48												
WM080112	144832_fnca	1	1	1	-1474666559	1	75.031	75.031	2.0.10.147	2.0.10.242	2.0.10.242	1.0.0.439	7	234	2	3	Verdana	1	80	0	0	0	WM Stimuli\	0.8	1159	0.5	1250.2	1	762	1	668.3	0.9	916.555555555556	1	747.5	0.9	1199.77777777778	1	665.5	13	555147	2	555135	27	40	555174	-999999	555150	0	13	TrialsPROC	PL_003_92016.png	1	2	49	SessionSelectionList														nonlure	3	Place	0-Back	42	80	40	0	0	76	6	40	416710	1	13	111	414670	-1	415498	1	828	3	3	2040	53	416723	-54	0												1				49												
WM080112	144832_fnca	1	1	1	-1474666559	1	75.031	75.031	2.0.10.147	2.0.10.242	2.0.10.242	1.0.0.439	7	234	2	3	Verdana	1	80	0	0	0	WM Stimuli\	0.8	1159	0.5	1250.2	1	762	1	668.3	0.9	916.555555555556	1	747.5	0.9	1199.77777777778	1	665.5	13	555147	2	555135	27	40	555174	-999999	555150	0	13	TrialsPROC	PL_003_92016.png	1	2	50	SessionSelectionList														lure	3	Place	0-Back	43	80	41	0	0	77	7	39	419282	1	14	73	417243	-1	418249	1	1006	3	3	2039	53	419296	-54	0												2				50												
WM080112	144832_fnca	1	1	1	-1474666559	1	75.031	75.031	2.0.10.147	2.0.10.242	2.0.10.242	1.0.0.439	7	234	2	3	Verdana	1	80	0	0	0	WM Stimuli\	0.8	1159	0.5	1250.2	1	762	1	668.3	0.9	916.555555555556	1	747.5	0.9	1199.77777777778	1	665.5	13	555147	2	555135	27	40	555174	-999999	555150	0	13	TrialsPROC	PL_006_92025.png	1	2	51	SessionSelectionList														nonlure	3	Place	0-Back	44	80	42	0	0	78	8	39	421854	2	14	72	419815	-1	420684	1	869	3	3	2039	53	421868	-54	0												3				51												
WM080112	144832_fnca	1	1	1	-1474666559	1	75.031	75.031	2.0.10.147	2.0.10.242	2.0.10.242	1.0.0.439	7	234	2	3	Verdana	1	80	0	0	0	WM Stimuli\	0.8	1159	0.5	1250.2	1	762	1	668.3	0.9	916.555555555556	1	747.5	0.9	1199.77777777778	1	665.5	13	555147	2	555135	27	40	555174	-999999	555150	0	13	TrialsPROC	PL_001_92012.png	1	2	52	SessionSelectionList														target	2	Place	0-Back	45	80	43	0	0	79	1	40	424427	1	13	72	422387	-1	423026	1	639	2	2	2040	53	424440	-54	0												4				52												
WM080112	144832_fnca	1	1	1	-1474666559	1	75.031	75.031	2.0.10.147	2.0.10.242	2.0.10.242	1.0.0.439	7	234	2	3	Verdana	1	80	0	0	0	WM Stimuli\	0.8	1159	0.5	1250.2	1	762	1	668.3	0.9	916.555555555556	1	747.5	0.9	1199.77777777778	1	665.5	13	555147	2	555135	27	40	555174	-999999	555150	0	13	TrialsPROC	PL_004_92023.png	1	2	53	SessionSelectionList														nonlure	3	Place	0-Back	46	80	44	0	0	80	1	39	426999	1	14	73	424960	-1	425694	1	734	3	3	2039	53	427013	-54	0												5				53												
WM080112	144832_fnca	1	1	1	-1474666559	1	75.031	75.031	2.0.10.147	2.0.10.242	2.0.10.242	1.0.0.439	7	234	2	3	Verdana	1	80	0	0	0	WM Stimuli\	0.8	1159	0.5	1250.2	1	762	1	668.3	0.9	916.555555555556	1	747.5	0.9	1199.77777777778	1	665.5	13	555147	2	555135	27	40	555174	-999999	555150	0	13	TrialsPROC	PL_005_92024.png	1	2	54	SessionSelectionList														nonlure	3	Place	0-Back	47	80	45	0	0	81	2	39	429598	1	14	99	427559	-1	428530	1	971	3	3	2039	53	429612	-54	0												6				54												
WM080112	144832_fnca	1	1	1	-1474666559	1	75.031	75.031	2.0.10.147	2.0.10.242	2.0.10.242	1.0.0.439	7	234	2	3	Verdana	1	80	0	0	0	WM Stimuli\	0.8	1159	0.5	1250.2	1	762	1	668.3	0.9	916.555555555556	1	747.5	0.9	1199.77777777778	1	665.5	13	555147	2	555135	27	40	555174	-999999	555150	0	13	TrialsPROC	PL_001_92012.png	1	2	55	SessionSelectionList														target	2	Place	0-Back	48	80	46	0	0	81	1	39	432157	1	14	59	430118	-1	430748	1	630	2	2	2039	53	432171	-54	0												7				55												
WM080112	144832_fnca	1	1	1	-1474666559	1	75.031	75.031	2.0.10.147	2.0.10.242	2.0.10.242	1.0.0.439	7	234	2	3	Verdana	1	80	0	0	0	WM Stimuli\	0.8	1159	0.5	1250.2	1	762	1	668.3	0.9	916.555555555556	1	747.5	0.9	1199.77777777778	1	665.5	13	555147	2	555135	27	40	555174	-999999	555150	0	13	TrialsPROC	PL_002_92014.png	1	2	56	SessionSelectionList														nonlure	3	Place	0-Back	49	80	47	0	0	82	1	39	434729	1	14	72	432690	-1	433261	1	571	3	3	2039	53	434743	-54	0												8				56												
WM080112	144832_fnca	1	1	1	-1474666559	1	75.031	75.031	2.0.10.147	2.0.10.242	2.0.10.242	1.0.0.439	7	234	2	3	Verdana	1	80	0	0	0	WM Stimuli\	0.8	1159	0.5	1250.2	1	762	1	668.3	0.9	916.555555555556	1	747.5	0.9	1199.77777777778	1	665.5	13	555147	2	555135	27	40	555174	-999999	555150	0	13	TrialsPROC	PL_004_92023.png	1	2	57	SessionSelectionList														lure	3	Place	0-Back	50	80	48	0	0	83	2	39	437301	2	14	72	435262	-1	435839	1	577	3	3	2039	53	437315	-54	0												9				57												
WM080112	144832_fnca	1	1	1	-1474666559	1	75.031	75.031	2.0.10.147	2.0.10.242	2.0.10.242	1.0.0.439	7	234	2	3	Verdana	1	80	0	0	0	WM Stimuli\	0.8	1159	0.5	1250.2	1	762	1	668.3	0.9	916.555555555556	1	747.5	0.9	1199.77777777778	1	665.5	13	555147	2	555135	27	40	555174	-999999	555150	0	13	TrialsPROC	PL_006_92025.png	1	2	58	SessionSelectionList														lure	3	Place	0-Back	51	80	49	0	0	83	3	40	439874	1	13	72	437834	-1	438484	1	650	3	3	2040	53	439887	-54	0												10				58												
WM080112	144832_fnca	1	1	1	-1474666559	1	75.031	75.031	2.0.10.147	2.0.10.242	2.0.10.242	1.0.0.439	7	234	2	3	Verdana	1	80	0	0	0	WM Stimuli\	0.8	1159	0.5	1250.2	1	762	1	668.3	0.9	916.555555555556	1	747.5	0.9	1199.77777777778	1	665.5	13	555147	2	555135	27	40	555174	-999999	555150	0	14	Cue2BackPROC	""	1	2	59	SessionSelectionList									6	440340	-7	0																																													59												
WM080112	144832_fnca	1	1	1	-1474666559	1	75.031	75.031	2.0.10.147	2.0.10.242	2.0.10.242	1.0.0.439	7	234	2	3	Verdana	1	80	0	0	0	WM Stimuli\	0.8	1159	0.5	1250.2	1	762	1	668.3	0.9	916.555555555556	1	747.5	0.9	1199.77777777778	1	665.5	13	555147	2	555135	27	40	555174	-999999	555150	0	15	TrialsPROC	FC_010_F5.png	1	2	60	SessionSelectionList														nonlure	3	Face	2-Back	52	80	50	0	0	83	4	40	444952	1	13	78	442912	-1	444213	1	1301	3	3	2040	53	444965	-54	0													1			60												
WM080112	144832_fnca	1	1	1	-1474666559	1	75.031	75.031	2.0.10.147	2.0.10.242	2.0.10.242	1.0.0.439	7	234	2	3	Verdana	1	80	0	0	0	WM Stimuli\	0.8	1159	0.5	1250.2	1	762	1	668.3	0.9	916.555555555556	1	747.5	0.9	1199.77777777778	1	665.5	13	555147	2	555135	27	40	555174	-999999	555150	0	15	TrialsPROC	FC_012_F6.png	1	2	61	SessionSelectionList														nonlure	3	Face	2-Back	53	80	51	0	0	83	5	39	447524	1	14	73	445485	-1	446386	1	901	3	3	2039	53	447538	-54	0													2			61												
WM080112	144832_fnca	1	1	1	-1474666559	1	75.031	75.031	2.0.10.147	2.0.10.242	2.0.10.242	1.0.0.439	7	234	2	3	Verdana	1	80	0	0	0	WM Stimuli\	0.8	1159	0.5	1250.2	1	762	1	668.3	0.9	916.555555555556	1	747.5	0.9	1199.77777777778	1	665.5	13	555147	2	555135	27	40	555174	-999999	555150	0	15	TrialsPROC	FC_010_F5.png	1	2	62	SessionSelectionList														target	2	Face	2-Back	54	80	52	0	0	83	1	39	450096	2	14	72	448057	-1	448550	1	493	2	2	2039	53	450110	-54	0													3			62												
WM080112	144832_fnca	1	1	1	-1474666559	1	75.031	75.031	2.0.10.147	2.0.10.242	2.0.10.242	1.0.0.439	7	234	2	3	Verdana	1	80	0	0	0	WM Stimuli\	0.8	1159	0.5	1250.2	1	762	1	668.3	0.9	916.555555555556	1	747.5	0.9	1199.77777777778	1	665.5	13	555147	2	555135	27	40	555174	-999999	555150	0	15	TrialsPROC	FC_008_F4.png	1	2	63	SessionSelectionList														nonlure	3	Face	2-Back	55	80	53	0	0	83	1	39	452695	1	14	99	450656	-1	451285	1	629	3	3	2039	53	452709	-54	0													4			63												
WM080112	144832_fnca	1	1	1	-1474666559	1	75.031	75.031	2.0.10.147	2.0.10.242	2.0.10.242	1.0.0.439	7	234	2	3	Verdana	1	80	0	0	0	WM Stimuli\	0.8	1159	0.5	1250.2	1	762	1	668.3	0.9	916.555555555556	1	747.5	0.9	1199.77777777778	1	665.5	13	555147	2	555135	27	40	555174	-999999	555150	0	15	TrialsPROC	FC_012_F6.png	1	2	64	SessionSelectionList														lure	3	Face	2-Back	56	80	54	0	0	83	2	39	455267	2	14	72	453228	-1	453988	1	760	3	3	2039	53	455281	-54	0													5			64												
WM080112	144832_fnca	1	1	1	-1474666559	1	75.031	75.031	2.0.10.147	2.0.10.242	2.0.10.242	1.0.0.439	7	234	2	3	Verdana	1	80	0	0	0	WM Stimuli\	0.8	1159	0.5	1250.2	1	762	1	668.3	0.9	916.555555555556	1	747.5	0.9	1199.77777777778	1	665.5	13	555147	2	555135	27	40	555174	-999999	555150	0	15	TrialsPROC	FC_008_F4.png	1	2	65	SessionSelectionList														target	2	Face	2-Back	57	80	55	0	0	83	1	40	457840	1	13	72	455800	-1	456244	1	444	2	2	2040	53	457853	-54	0													6			65												
WM080112	144832_fnca	1	1	1	-1474666559	1	75.031	75.031	2.0.10.147	2.0.10.242	2.0.10.242	1.0.0.439	7	234	2	3	Verdana	1	80	0	0	0	WM Stimuli\	0.8	1159	0.5	1250.2	1	762	1	668.3	0.9	916.555555555556	1	747.5	0.9	1199.77777777778	1	665.5	13	555147	2	555135	27	40	555174	-999999	555150	0	15	TrialsPROC	FC_007_M4.png	1	2	66	SessionSelectionList														nonlure	3	Face	2-Back	58	80	56	0	0	83	1	40	460439	1	13	99	458399	-1	459153	1	754	3	3	2040	53	460452	-54	0													7			66												
WM080112	144832_fnca	1	1	1	-1474666559	1	75.031	75.031	2.0.10.147	2.0.10.242	2.0.10.242	1.0.0.439	7	234	2	3	Verdana	1	80	0	0	0	WM Stimuli\	0.8	1159	0.5	1250.2	1	762	1	668.3	0.9	916.555555555556	1	747.5	0.9	1199.77777777778	1	665.5	13	555147	2	555135	27	40	555174	-999999	555150	0	15	TrialsPROC	FC_007_M4.png	1	2	67	SessionSelectionList														lure	3	Face	2-Back	59	80	57	0	0	83	2	39	463011	1	14	73	460972	-1	461738	1	766	3	3	2039	53	463025	-54	0													8			67												
WM080112	144832_fnca	1	1	1	-1474666559	1	75.031	75.031	2.0.10.147	2.0.10.242	2.0.10.242	1.0.0.439	7	234	2	3	Verdana	1	80	0	0	0	WM Stimuli\	0.8	1159	0.5	1250.2	1	762	1	668.3	0.9	916.555555555556	1	747.5	0.9	1199.77777777778	1	665.5	13	555147	2	555135	27	40	555174	-999999	555150	0	15	TrialsPROC	FC_009_M5.png	1	2	68	SessionSelectionList														nonlure	3	Face	2-Back	60	80	58	0	0	83	3	39	465583	2	14	72	463544	-1	464348	1	804	3	3	2039	53	465597	-54	0													9			68												
WM080112	144832_fnca	1	1	1	-1474666559	1	75.031	75.031	2.0.10.147	2.0.10.242	2.0.10.242	1.0.0.439	7	234	2	3	Verdana	1	80	0	0	0	WM Stimuli\	0.8	1159	0.5	1250.2	1	762	1	668.3	0.9	916.555555555556	1	747.5	0.9	1199.77777777778	1	665.5	13	555147	2	555135	27	40	555174	-999999	555150	0	15	TrialsPROC	FC_011_M6.png	1	2	69	SessionSelectionList														nonlure	3	Face	2-Back	61	80	59	0	0	83	4	39	468195	2	14	112	466156	-1	466924	1	768	3	3	2039	53	468209	-54	0													10			69												
WM080112	144832_fnca	1	1	1	-1474666559	1	75.031	75.031	2.0.10.147	2.0.10.242	2.0.10.242	1.0.0.439	7	234	2	3	Verdana	1	80	0	0	0	WM Stimuli\	0.8	1159	0.5	1250.2	1	762	1	668.3	0.9	916.555555555556	1	747.5	0.9	1199.77777777778	1	665.5	13	555147	2	555135	27	40	555174	-999999	555150	0	16	Fix15secPROC	""	1	2	70	SessionSelectionList																																															6	468662	-7	0							70												
WM080112	144832_fnca	1	1	1	-1474666559	1	75.031	75.031	2.0.10.147	2.0.10.242	2.0.10.242	1.0.0.439	7	234	2	3	Verdana	1	80	0	0	0	WM Stimuli\	0.8	1159	0.5	1250.2	1	762	1	668.3	0.9	916.555555555556	1	747.5	0.9	1199.77777777778	1	665.5	13	555147	2	555135	27	40	555174	-999999	555150	0	17	Cue0BackPROC	TO_007_TOOL7_BA.png	1	2	71	SessionSelectionList																																										27	483683	-28	0												71												
WM080112	144832_fnca	1	1	1	-1474666559	1	75.031	75.031	2.0.10.147	2.0.10.242	2.0.10.242	1.0.0.439	7	234	2	3	Verdana	1	80	0	0	0	WM Stimuli\	0.8	1159	0.5	1250.2	1	762	1	668.3	0.9	916.555555555556	1	747.5	0.9	1199.77777777778	1	665.5	13	555147	2	555135	27	40	555174	-999999	555150	0	18	TrialsPROC	TO_010_TOOL10_BA.png	1	2	72	SessionSelectionList														nonlure	3	Tools	0-Back	62	80	60	0	0	84	5	40	488281	1	13	85	486241	-1	486932	1	691	3	3	2040	53	488294	-54	0														1		72												
WM080112	144832_fnca	1	1	1	-1474666559	1	75.031	75.031	2.0.10.147	2.0.10.242	2.0.10.242	1.0.0.439	7	234	2	3	Verdana	1	80	0	0	0	WM Stimuli\	0.8	1159	0.5	1250.2	1	762	1	668.3	0.9	916.555555555556	1	747.5	0.9	1199.77777777778	1	665.5	13	555147	2	555135	27	40	555174	-999999	555150	0	18	TrialsPROC	TO_009_TOOL9_BA.png	1	2	73	SessionSelectionList														nonlure	3	Tools	0-Back	63	80	61	0	0	84	6	40	490880	1	13	99	488840	-1	489411	1	571	3	3	2040	53	490893	-54	0														2		73												
WM080112	144832_fnca	1	1	1	-1474666559	1	75.031	75.031	2.0.10.147	2.0.10.242	2.0.10.242	1.0.0.439	7	234	2	3	Verdana	1	80	0	0	0	WM Stimuli\	0.8	1159	0.5	1250.2	1	762	1	668.3	0.9	916.555555555556	1	747.5	0.9	1199.77777777778	1	665.5	13	555147	2	555135	27	40	555174	-999999	555150	0	18	TrialsPROC	TO_009_TOOL9_BA.png	1	2	74	SessionSelectionList														lure	3	Tools	0-Back	64	80	62	0	0	85	7	40	493439	1	13	59	491399	-1	492036	1	637	3	3	2040	53	493452	-54	0														3		74												
WM080112	144832_fnca	1	1	1	-1474666559	1	75.031	75.031	2.0.10.147	2.0.10.242	2.0.10.242	1.0.0.439	7	234	2	3	Verdana	1	80	0	0	0	WM Stimuli\	0.8	1159	0.5	1250.2	1	762	1	668.3	0.9	916.555555555556	1	747.5	0.9	1199.77777777778	1	665.5	13	555147	2	555135	27	40	555174	-999999	555150	0	18	TrialsPROC	TO_008_TOOL8_BA.png	1	2	75	SessionSelectionList														nonlure	3	Tools	0-Back	65	80	63	0	0	85	8	39	496024	2	14	86	493985	-1	494683	1	698	3	3	2039	53	496038	-54	0														4		75												
WM080112	144832_fnca	1	1	1	-1474666559	1	75.031	75.031	2.0.10.147	2.0.10.242	2.0.10.242	1.0.0.439	7	234	2	3	Verdana	1	80	0	0	0	WM Stimuli\	0.8	1159	0.5	1250.2	1	762	1	668.3	0.9	916.555555555556	1	747.5	0.9	1199.77777777778	1	665.5	13	555147	2	555135	27	40	555174	-999999	555150	0	18	TrialsPROC	TO_011_TOOL11_BA.png	1	2	76	SessionSelectionList														nonlure	3	Tools	0-Back	66	80	64	0	0	86	9	39	498610	1	14	86	496571	-1	497392	1	821	3	3	2039	53	498624	-54	0														5		76												
WM080112	144832_fnca	1	1	1	-1474666559	1	75.031	75.031	2.0.10.147	2.0.10.242	2.0.10.242	1.0.0.439	7	234	2	3	Verdana	1	80	0	0	0	WM Stimuli\	0.8	1159	0.5	1250.2	1	762	1	668.3	0.9	916.555555555556	1	747.5	0.9	1199.77777777778	1	665.5	13	555147	2	555135	27	40	555174	-999999	555150	0	18	TrialsPROC	TO_012_TOOL12_BA.png	1	2	77	SessionSelectionList														nonlure	3	Tools	0-Back	67	80	65	0	0	86	10	39	501182	2	14	72	499143	-1	499923	1	780	3	3	2039	53	501196	-54	0														6		77												
WM080112	144832_fnca	1	1	1	-1474666559	1	75.031	75.031	2.0.10.147	2.0.10.242	2.0.10.242	1.0.0.439	7	234	2	3	Verdana	1	80	0	0	0	WM Stimuli\	0.8	1159	0.5	1250.2	1	762	1	668.3	0.9	916.555555555556	1	747.5	0.9	1199.77777777778	1	665.5	13	555147	2	555135	27	40	555174	-999999	555150	0	18	TrialsPROC	TO_010_TOOL10_BA.png	1	2	78	SessionSelectionList														lure	3	Tools	0-Back	68	80	66	0	0	86	11	39	503741	1	14	59	501702	-1	502529	1	827	3	3	2039	53	503755	-54	0														7		78												
WM080112	144832_fnca	1	1	1	-1474666559	1	75.031	75.031	2.0.10.147	2.0.10.242	2.0.10.242	1.0.0.439	7	234	2	3	Verdana	1	80	0	0	0	WM Stimuli\	0.8	1159	0.5	1250.2	1	762	1	668.3	0.9	916.555555555556	1	747.5	0.9	1199.77777777778	1	665.5	13	555147	2	555135	27	40	555174	-999999	555150	0	18	TrialsPROC	TO_007_TOOL7_BA.png	1	2	79	SessionSelectionList														target	2	Tools	0-Back	69	80	67	0	0	87	1	39	506300	1	14	59	504261	-1	504783	1	522	2	2	2039	53	506314	-54	0														8		79												
WM080112	144832_fnca	1	1	1	-1474666559	1	75.031	75.031	2.0.10.147	2.0.10.242	2.0.10.242	1.0.0.439	7	234	2	3	Verdana	1	80	0	0	0	WM Stimuli\	0.8	1159	0.5	1250.2	1	762	1	668.3	0.9	916.555555555556	1	747.5	0.9	1199.77777777778	1	665.5	13	555147	2	555135	27	40	555174	-999999	555150	0	18	TrialsPROC	TO_008_TOOL8_BA.png	1	2	80	SessionSelectionList														lure	3	Tools	0-Back	70	80	68	0	0	87	1	39	508859	1	14	59	506820	-1	507412	1	592	3	3	2039	53	508873	-54	0														9		80												
WM080112	144832_fnca	1	1	1	-1474666559	1	75.031	75.031	2.0.10.147	2.0.10.242	2.0.10.242	1.0.0.439	7	234	2	3	Verdana	1	80	0	0	0	WM Stimuli\	0.8	1159	0.5	1250.2	1	762	1	668.3	0.9	916.555555555556	1	747.5	0.9	1199.77777777778	1	665.5	13	555147	2	555135	27	40	555174	-999999	555150	0	18	TrialsPROC	TO_007_TOOL7_BA.png	1	2	81	SessionSelectionList														target	2	Tools	0-Back	71	80	69	0	0	88	1	39	511418	1	14	59	509379	-1	509895	1	516	2	2	2039	53	511432	-54	0														10		81												
WM080112	144832_fnca	1	1	1	-1474666559	1	75.031	75.031	2.0.10.147	2.0.10.242	2.0.10.242	1.0.0.439	7	234	2	3	Verdana	1	80	0	0	0	WM Stimuli\	0.8	1159	0.5	1250.2	1	762	1	668.3	0.9	916.555555555556	1	747.5	0.9	1199.77777777778	1	665.5	13	555147	2	555135	27	40	555174	-999999	555150	0	19	Cue2BackPROC	""	1	2	82	SessionSelectionList									5	511884	-6	0																																													82												
WM080112	144832_fnca	1	1	1	-1474666559	1	75.031	75.031	2.0.10.147	2.0.10.242	2.0.10.242	1.0.0.439	7	234	2	3	Verdana	1	80	0	0	0	WM Stimuli\	0.8	1159	0.5	1250.2	1	762	1	668.3	0.9	916.555555555556	1	747.5	0.9	1199.77777777778	1	665.5	13	555147	2	555135	27	40	555174	-999999	555150	0	20	TrialsPROC	PL_007_92026.png	1	2	83	SessionSelectionList														nonlure	3	Place	2-Back	72	80	70	0	0	88	1	39	516509	2	14	91	514470	-1	515634	1	1164	3	3	2039	53	516523	-54	0															1	83												
WM080112	144832_fnca	1	1	1	-1474666559	1	75.031	75.031	2.0.10.147	2.0.10.242	2.0.10.242	1.0.0.439	7	234	2	3	Verdana	1	80	0	0	0	WM Stimuli\	0.8	1159	0.5	1250.2	1	762	1	668.3	0.9	916.555555555556	1	747.5	0.9	1199.77777777778	1	665.5	13	555147	2	555135	27	40	555174	-999999	555150	0	20	TrialsPROC	PL_007_92026.png	1	2	84	SessionSelectionList														lure	3	Place	2-Back	73	80	71	0	0	88	2	39	519068	2	14	59	517029	-1	517864	1	835	3	3	2039	53	519082	-54	0															2	84												
WM080112	144832_fnca	1	1	1	-1474666559	1	75.031	75.031	2.0.10.147	2.0.10.242	2.0.10.242	1.0.0.439	7	234	2	3	Verdana	1	80	0	0	0	WM Stimuli\	0.8	1159	0.5	1250.2	1	762	1	668.3	0.9	916.555555555556	1	747.5	0.9	1199.77777777778	1	665.5	13	555147	2	555135	27	40	555174	-999999	555150	0	20	TrialsPROC	PL_010_92038.png	1	2	85	SessionSelectionList														nonlure	3	Place	2-Back	74	80	72	0	0	88	3	39	521667	2	14	99	519628	-1	520573	1	945	3	3	2039	53	521681	-54	0															3	85												
WM080112	144832_fnca	1	1	1	-1474666559	1	75.031	75.031	2.0.10.147	2.0.10.242	2.0.10.242	1.0.0.439	7	234	2	3	Verdana	1	80	0	0	0	WM Stimuli\	0.8	1159	0.5	1250.2	1	762	1	668.3	0.9	916.555555555556	1	747.5	0.9	1199.77777777778	1	665.5	13	555147	2	555135	27	40	555174	-999999	555150	0	20	TrialsPROC	PL_009_92037.png	1	2	86	SessionSelectionList														nonlure	3	Place	2-Back	75	80	73	0	0	88	4	39	524253	1	14	86	522214	-1	523009	1	795	3	3	2039	53	524267	-54	0															4	86												
WM080112	144832_fnca	1	1	1	-1474666559	1	75.031	75.031	2.0.10.147	2.0.10.242	2.0.10.242	1.0.0.439	7	234	2	3	Verdana	1	80	0	0	0	WM Stimuli\	0.8	1159	0.5	1250.2	1	762	1	668.3	0.9	916.555555555556	1	747.5	0.9	1199.77777777778	1	665.5	13	555147	2	555135	27	40	555174	-999999	555150	0	20	TrialsPROC	PL_010_92038.png	1	2	87	SessionSelectionList														target	2	Place	2-Back	76	80	74	0	0	88	1	39	526825	1	14	72	524786	-1	525700	1	914	2	2	2039	53	526839	-54	0															5	87												
WM080112	144832_fnca	1	1	1	-1474666559	1	75.031	75.031	2.0.10.147	2.0.10.242	2.0.10.242	1.0.0.439	7	234	2	3	Verdana	1	80	0	0	0	WM Stimuli\	0.8	1159	0.5	1250.2	1	762	1	668.3	0.9	916.555555555556	1	747.5	0.9	1199.77777777778	1	665.5	13	555147	2	555135	27	40	555174	-999999	555150	0	20	TrialsPROC	PL_009_92037.png	1	2	88	SessionSelectionList														target	2	Place	2-Back	77	80	75	0	0	88	1	39	529384	1	14	59	527345	-1	528762	0	1417	3	2	2039	53	529398	-54	0															6	88												
WM080112	144832_fnca	1	1	1	-1474666559	1	75.031	75.031	2.0.10.147	2.0.10.242	2.0.10.242	1.0.0.439	7	234	2	3	Verdana	1	80	0	0	0	WM Stimuli\	0.8	1159	0.5	1250.2	1	762	1	668.3	0.9	916.555555555556	1	747.5	0.9	1199.77777777778	1	665.5	13	555147	2	555135	27	40	555174	-999999	555150	0	20	TrialsPROC	PL_008_92033.png	1	2	89	SessionSelectionList														nonlure	3	Place	2-Back	78	80	76	0	0	88	2	39	531956	2	14	72	529917	-1	530764	1	847	3	3	2039	53	531970	-54	0															7	89												
WM080112	144832_fnca	1	1	1	-1474666559	1	75.031	75.031	2.0.10.147	2.0.10.242	2.0.10.242	1.0.0.439	7	234	2	3	Verdana	1	80	0	0	0	WM Stimuli\	0.8	1159	0.5	1250.2	1	762	1	668.3	0.9	916.555555555556	1	747.5	0.9	1199.77777777778	1	665.5	13	555147	2	555135	27	40	555174	-999999	555150	0	20	TrialsPROC	PL_012_92047.png	1	2	90	SessionSelectionList														nonlure	3	Place	2-Back	79	80	77	0	0	88	3	40	534529	1	13	72	532489	-1	533463	1	974	3	3	2040	53	534542	-54	0															8	90												
WM080112	144832_fnca	1	1	1	-1474666559	1	75.031	75.031	2.0.10.147	2.0.10.242	2.0.10.242	1.0.0.439	7	234	2	3	Verdana	1	80	0	0	0	WM Stimuli\	0.8	1159	0.5	1250.2	1	762	1	668.3	0.9	916.555555555556	1	747.5	0.9	1199.77777777778	1	665.5	13	555147	2	555135	27	40	555174	-999999	555150	0	20	TrialsPROC	PL_012_92047.png	1	2	91	SessionSelectionList														lure	3	Place	2-Back	80	80	78	0	0	88	4	39	537101	1	14	73	535062	-1	535879	1	817	3	3	2039	53	537115	-54	0															9	91												
WM080112	144832_fnca	1	1	1	-1474666559	1	75.031	75.031	2.0.10.147	2.0.10.242	2.0.10.242	1.0.0.439	7	234	2	3	Verdana	1	80	0	0	0	WM Stimuli\	0.8	1159	0.5	1250.2	1	762	1	668.3	0.9	916.555555555556	1	747.5	0.9	1199.77777777778	1	665.5	13	555147	2	555135	27	40	555174	-999999	555150	0	20	TrialsPROC	PL_011_92044.png	1	2	92	SessionSelectionList														nonlure	3	Place	2-Back	80	80	79	0	0	88	5	39	539673	2	14	72	537634	-1	538592	1	958	3	3	2039	53	539687	-54	0															10	92												
WM080112	144832_fnca	1	1	1	-1474666559	1	75.031	75.031	2.0.10.147	2.0.10.242	2.0.10.242	1.0.0.439	7	234	2	3	Verdana	1	80	0	0	0	WM Stimuli\	0.8	1159	0.5	1250.2	1	762	1	668.3	0.9	916.555555555556	1	747.5	0.9	1199.77777777778	1	665.5	13	555147	2	555135	27	40	555174	-999999	555150	0	21	Fix15secPROC	""	1	2	93	SessionSelectionList																																															6	540140	-7	0							93												
