ExperimentName	HCPID	RunNumber	Subject	Session	RandomSeed	Group	Laptop.RefreshRate	ScannerD2.RefreshRate	StudioVersion	RuntimeVersion	RuntimeVersionExpected	ExperimentVersion	triggercode	Allowed	Target	Nontarget	FontStyle	RunTrialNumber[Session]	TrialsPerRun[Session]	TotalRespGreater200[Session]	ConsecRTLess200[Session]	ConsecNonResp[Session]	StimuliDir	ACC_2_Back_Body	Avg_RT_For_Correct_Trials_2_Back_Body	ACC_0_Back_Body	Avg_RT_For_Correct_Trials_0_Back_Body	ACC_2_Back_Face	Avg_RT_For_Correct_Trials_2_Back_Face	ACC_0_Back_Face	Avg_RT_For_Correct_Trials_0_Back_Face	ACC_2_Back_Place	Avg_RT_For_Correct_Trials_2_Back_Place	ACC_0_Back_Place	Avg_RT_For_Correct_Trials_0_Back_Place	ACC_2_Back_Tools	Avg_RT_For_Correct_Trials_2_Back_Tools	ACC_0_Back_Tools	Avg_RT_For_Correct_Trials_0_Back_Tools	ExpInstrucFeelFreeToRest.OnsetDelay	ExpInstrucFeelFreeToRest.OnsetTime	ExpInstrucFeelFreeToRest.DurationError	ExpInstrucFeelFreeToRest.StartTime	ExpInstrucFeelFreeToRest.OnsetToOnsetTime	FeelFreeToRest.OnsetDelay	FeelFreeToRest.OnsetTime	FeelFreeToRest.DurationError	FeelFreeToRest.StartTime	FeelFreeToRest.OnsetToOnsetTime	SessionSelectionList	Procedure[Block]	Stimulus[Block]	RunNumberFilterValue	SessionSelectionList.Cycle	SessionSelectionList.Sample	Running[Block]	IntroButtonMap.OnsetDelay	IntroButtonMap.OnsetTime	IntroButtonMap.DurationError	IntroButtonMap.OnsetToOnsetTime	GetReady.OnsetDelay	GetReady.OnsetTime	GetReady.DurationError	GetReady.OnsetToOnsetTime	Cue2Back.OnsetDelay	Cue2Back.OnsetTime	Cue2Back.DurationError	Cue2Back.OnsetToOnsetTime	Run1Block1	TargetType	CorrectResponse	StimType	BlockType	RunTrialNumber[Block]	TrialsPerRun[Block]	TotalRespGreater200[Block]	ConsecRTLess200[Block]	ConsecNonResp[Block]	ControlAcc	ConsecSameResp	ExperimenterWindow.OnsetDelay	ExperimenterWindow.OnsetTime	ExperimenterWindow.DurationError	ExperimenterWindow.OnsetToOnsetTime	Stim.OnsetDelay	Stim.OnsetTime	Stim.DurationError	Stim.RTTime	Stim.ACC	Stim.RT	Stim.RESP	Stim.CRESP	Stim.OnsetToOnsetTime	Fix.OnsetDelay	Fix.OnsetTime	Fix.DurationError	Fix.OnsetToOnsetTime	CueTarget.OnsetDelay	CueTarget.OnsetTime	CueTarget.DurationError	CueTarget.OnsetToOnsetTime	Run1Block2	Fix15sec.OnsetDelay	Fix15sec.OnsetTime	Fix15sec.DurationError	Fix15sec.OnsetToOnsetTime	Run1Block3	Run1Block4	Run1Block5	Run1Block6	Run1Block7	Run1Block8	Block	Procedure[Trial]	Stimulus[Trial]	ReadyList	Running[Trial]	ReadyList.Cycle	ReadyList.Sample	SyncSlide.OnsetDelay	SyncSlide.OnsetTime	SyncSlide.DurationError	SyncSlide.FinishTime	SyncSlide.OnsetToOnsetTime	Trial
WM080112	129028_fnca	1	1	1	-1575443185	1	75.030	75.031	2.0.10.147	2.0.10.242	2.0.10.242	1.0.0.439	7	234	2	3	Verdana	1	80	0	0	0	WM Stimuli\	0.8	1352.625	1	1240	1	1237.3	1	1011.4	1	1158.2	1	1034.4	0.9	1223	1	891.7	13	547670	2	547658	27	40	547697	-999999	547673	0	1	TRSyncPROC	""	1	2	1	SessionSelectionList	143	117603	-999999	0	31	239208	-999999	0																																																	1	InitialTR	4	1	ReadyList	1	1	15	253362	-16	255346	0	1
WM080112	129028_fnca	1	1	1	-1575443185	1	75.030	75.031	2.0.10.147	2.0.10.242	2.0.10.242	1.0.0.439	7	234	2	3	Verdana	1	80	0	0	0	WM Stimuli\	0.8	1352.625	1	1240	1	1237.3	1	1011.4	1	1158.2	1	1034.4	0.9	1223	1	891.7	13	547670	2	547658	27	40	547697	-999999	547673	0	1	TRSyncPROC	""	1	2	1	SessionSelectionList	143	117603	-999999	0	31	239208	-999999	0																																																	1	InitialTR	3	2	ReadyList	1	2	14	255361	-15	257346	0	2
WM080112	129028_fnca	1	1	1	-1575443185	1	75.030	75.031	2.0.10.147	2.0.10.242	2.0.10.242	1.0.0.439	7	234	2	3	Verdana	1	80	0	0	0	WM Stimuli\	0.8	1352.625	1	1240	1	1237.3	1	1011.4	1	1158.2	1	1034.4	0.9	1223	1	891.7	13	547670	2	547658	27	40	547697	-999999	547673	0	1	TRSyncPROC	""	1	2	1	SessionSelectionList	143	117603	-999999	0	31	239208	-999999	0																																																	1	InitialTR	2	3	ReadyList	1	3	13	257360	-14	259346	0	3
WM080112	129028_fnca	1	1	1	-1575443185	1	75.030	75.031	2.0.10.147	2.0.10.242	2.0.10.242	1.0.0.439	7	234	2	3	Verdana	1	80	0	0	0	WM Stimuli\	0.8	1352.625	1	1240	1	1237.3	1	1011.4	1	1158.2	1	1034.4	0.9	1223	1	891.7	13	547670	2	547658	27	40	547697	-999999	547673	0	1	TRSyncPROC	""	1	2	1	SessionSelectionList	143	117603	-999999	0	31	239208	-999999	0																																																	1	InitialTR	1	4	ReadyList	1	4	12	259359	-13	261346	0	4
WM080112	129028_fnca	1	1	1	-1575443185	1	75.030	75.031	2.0.10.147	2.0.10.242	2.0.10.242	1.0.0.439	7	234	2	3	Verdana	1	80	0	0	0	WM Stimuli\	0.8	1352.625	1	1240	1	1237.3	1	1011.4	1	1158.2	1	1034.4	0.9	1223	1	891.7	13	547670	2	547658	27	40	547697	-999999	547673	0	2	Cue2BackPROC	""	1	2	2	SessionSelectionList									11	261358	-12	0																																													2												
WM080112	129028_fnca	1	1	1	-1575443185	1	75.030	75.031	2.0.10.147	2.0.10.242	2.0.10.242	1.0.0.439	7	234	2	3	Verdana	1	80	0	0	0	WM Stimuli\	0.8	1352.625	1	1240	1	1237.3	1	1011.4	1	1158.2	1	1034.4	0.9	1223	1	891.7	13	547670	2	547658	27	40	547697	-999999	547673	0	3	TrialsPROC	BP_002_BP10_BA.png	1	2	3	SessionSelectionList													1	nonlure	3	Body	2-Back	2	80	1	0	0	0	1	53	266010	3	13	110	263957	-1	264806	1	849	3	3	2053	66	266023	-67	0																3												
WM080112	129028_fnca	1	1	1	-1575443185	1	75.030	75.031	2.0.10.147	2.0.10.242	2.0.10.242	1.0.0.439	7	234	2	3	Verdana	1	80	0	0	0	WM Stimuli\	0.8	1352.625	1	1240	1	1237.3	1	1011.4	1	1158.2	1	1034.4	0.9	1223	1	891.7	13	547670	2	547658	27	40	547697	-999999	547673	0	3	TrialsPROC	BP_001_BP1_BA.png	1	2	4	SessionSelectionList													2	nonlure	3	Body	2-Back	3	80	2	0	0	0	2	39	268582	2	14	86	266543	-1	267509	1	966	3	3	2039	53	268596	-54	0																4												
WM080112	129028_fnca	1	1	1	-1575443185	1	75.030	75.031	2.0.10.147	2.0.10.242	2.0.10.242	1.0.0.439	7	234	2	3	Verdana	1	80	0	0	0	WM Stimuli\	0.8	1352.625	1	1240	1	1237.3	1	1011.4	1	1158.2	1	1034.4	0.9	1223	1	891.7	13	547670	2	547658	27	40	547697	-999999	547673	0	3	TrialsPROC	BP_006_BP2_BA.png	1	2	5	SessionSelectionList													3	nonlure	3	Body	2-Back	4	80	3	0	0	0	1	39	271168	1	13	86	269129	-1	270218	0	1089	2	3	2039	52	271181	-53	0																5												
WM080112	129028_fnca	1	1	1	-1575443185	1	75.030	75.031	2.0.10.147	2.0.10.242	2.0.10.242	1.0.0.439	7	234	2	3	Verdana	1	80	0	0	0	WM Stimuli\	0.8	1352.625	1	1240	1	1237.3	1	1011.4	1	1158.2	1	1034.4	0.9	1223	1	891.7	13	547670	2	547658	27	40	547697	-999999	547673	0	3	TrialsPROC	BP_001_BP1_BA.png	1	2	6	SessionSelectionList													4	target	2	Body	2-Back	5	80	4	0	0	0	2	39	273740	1	14	72	271701	-1	273006	1	1305	2	2	2039	53	273754	-54	0																6												
WM080112	129028_fnca	1	1	1	-1575443185	1	75.030	75.031	2.0.10.147	2.0.10.242	2.0.10.242	1.0.0.439	7	234	2	3	Verdana	1	80	0	0	0	WM Stimuli\	0.8	1352.625	1	1240	1	1237.3	1	1011.4	1	1158.2	1	1034.4	0.9	1223	1	891.7	13	547670	2	547658	27	40	547697	-999999	547673	0	3	TrialsPROC	BP_005_BP19_BA.png	1	2	7	SessionSelectionList													5	nonlure	3	Body	2-Back	6	80	5	0	0	0	1	39	276326	1	13	86	274287	-1	275401	1	1114	3	3	2039	52	276339	-53	0																7												
WM080112	129028_fnca	1	1	1	-1575443185	1	75.030	75.031	2.0.10.147	2.0.10.242	2.0.10.242	1.0.0.439	7	234	2	3	Verdana	1	80	0	0	0	WM Stimuli\	0.8	1352.625	1	1240	1	1237.3	1	1011.4	1	1158.2	1	1034.4	0.9	1223	1	891.7	13	547670	2	547658	27	40	547697	-999999	547673	0	3	TrialsPROC	BP_003_BP16_BA.png	1	2	8	SessionSelectionList													6	nonlure	3	Body	2-Back	7	80	6	0	0	0	2	39	278911	2	14	85	276872	-1	278201	1	1329	3	3	2039	53	278925	-54	0																8												
WM080112	129028_fnca	1	1	1	-1575443185	1	75.030	75.031	2.0.10.147	2.0.10.242	2.0.10.242	1.0.0.439	7	234	2	3	Verdana	1	80	0	0	0	WM Stimuli\	0.8	1352.625	1	1240	1	1237.3	1	1011.4	1	1158.2	1	1034.4	0.9	1223	1	891.7	13	547670	2	547658	27	40	547697	-999999	547673	0	3	TrialsPROC	BP_006_BP2_BA.png	1	2	9	SessionSelectionList													7	lure	3	Body	2-Back	8	80	7	0	0	0	3	39	281470	2	14	59	279431	-1	281131	1	1700	3	3	2039	53	281484	-54	0																9												
WM080112	129028_fnca	1	1	1	-1575443185	1	75.030	75.031	2.0.10.147	2.0.10.242	2.0.10.242	1.0.0.439	7	234	2	3	Verdana	1	80	0	0	0	WM Stimuli\	0.8	1352.625	1	1240	1	1237.3	1	1011.4	1	1158.2	1	1034.4	0.9	1223	1	891.7	13	547670	2	547658	27	40	547697	-999999	547673	0	3	TrialsPROC	BP_004_BP18_BA.png	1	2	10	SessionSelectionList													8	nonlure	3	Body	2-Back	9	80	8	0	0	0	4	39	284056	1	13	86	282017	-1	283827	1	1810	3	3	2039	52	284069	-53	0																10												
WM080112	129028_fnca	1	1	1	-1575443185	1	75.030	75.031	2.0.10.147	2.0.10.242	2.0.10.242	1.0.0.439	7	234	2	3	Verdana	1	80	0	0	0	WM Stimuli\	0.8	1352.625	1	1240	1	1237.3	1	1011.4	1	1158.2	1	1034.4	0.9	1223	1	891.7	13	547670	2	547658	27	40	547697	-999999	547673	0	3	TrialsPROC	BP_005_BP19_BA.png	1	2	11	SessionSelectionList													9	lure	3	Body	2-Back	10	80	9	0	0	0	5	39	286615	1	13	59	284576	-1	286324	1	1748	3	3	2039	52	286628	-53	0																11												
WM080112	129028_fnca	1	1	1	-1575443185	1	75.030	75.031	2.0.10.147	2.0.10.242	2.0.10.242	1.0.0.439	7	234	2	3	Verdana	1	80	0	0	0	WM Stimuli\	0.8	1352.625	1	1240	1	1237.3	1	1011.4	1	1158.2	1	1034.4	0.9	1223	1	891.7	13	547670	2	547658	27	40	547697	-999999	547673	0	3	TrialsPROC	BP_004_BP18_BA.png	1	2	12	SessionSelectionList													10	target	2	Body	2-Back	11	80	10	0	0	0	6	39	289174	1	13	59	287135	-1	289069	0	1934	3	2	2039	52	289187	-53	0																12												
WM080112	129028_fnca	1	1	1	-1575443185	1	75.030	75.031	2.0.10.147	2.0.10.242	2.0.10.242	1.0.0.439	7	234	2	3	Verdana	1	80	0	0	0	WM Stimuli\	0.8	1352.625	1	1240	1	1237.3	1	1011.4	1	1158.2	1	1034.4	0.9	1223	1	891.7	13	547670	2	547658	27	40	547697	-999999	547673	0	4	Cue0BackPROC	FC_001_M1.png	1	2	13	SessionSelectionList																																										59	289694	-60	0												13												
WM080112	129028_fnca	1	1	1	-1575443185	1	75.030	75.031	2.0.10.147	2.0.10.242	2.0.10.242	1.0.0.439	7	234	2	3	Verdana	1	80	0	0	0	WM Stimuli\	0.8	1352.625	1	1240	1	1237.3	1	1011.4	1	1158.2	1	1034.4	0.9	1223	1	891.7	13	547670	2	547658	27	40	547697	-999999	547673	0	5	TrialsPROC	FC_005_M3.png	1	2	14	SessionSelectionList														nonlure	3	Face	0-Back	12	80	11	0	0	100	7	39	294252	1	13	78	292213	-1	293172	1	959	3	3	2039	52	294265	-53	0					1											14												
WM080112	129028_fnca	1	1	1	-1575443185	1	75.030	75.031	2.0.10.147	2.0.10.242	2.0.10.242	1.0.0.439	7	234	2	3	Verdana	1	80	0	0	0	WM Stimuli\	0.8	1352.625	1	1240	1	1237.3	1	1011.4	1	1158.2	1	1034.4	0.9	1223	1	891.7	13	547670	2	547658	27	40	547697	-999999	547673	0	5	TrialsPROC	FC_001_M1.png	1	2	15	SessionSelectionList														target	2	Face	0-Back	13	80	12	0	0	100	1	39	296824	1	14	72	294785	-1	295760	1	975	2	2	2039	53	296838	-54	0					2											15												
WM080112	129028_fnca	1	1	1	-1575443185	1	75.030	75.031	2.0.10.147	2.0.10.242	2.0.10.242	1.0.0.439	7	234	2	3	Verdana	1	80	0	0	0	WM Stimuli\	0.8	1352.625	1	1240	1	1237.3	1	1011.4	1	1158.2	1	1034.4	0.9	1223	1	891.7	13	547670	2	547658	27	40	547697	-999999	547673	0	5	TrialsPROC	FC_003_M2.png	1	2	16	SessionSelectionList														nonlure	3	Face	0-Back	14	80	13	0	0	100	1	39	299410	1	13	86	297371	-1	298392	1	1021	3	3	2039	52	299423	-53	0					3											16												
WM080112	129028_fnca	1	1	1	-1575443185	1	75.030	75.031	2.0.10.147	2.0.10.242	2.0.10.242	1.0.0.439	7	234	2	3	Verdana	1	80	0	0	0	WM Stimuli\	0.8	1352.625	1	1240	1	1237.3	1	1011.4	1	1158.2	1	1034.4	0.9	1223	1	891.7	13	547670	2	547658	27	40	547697	-999999	547673	0	5	TrialsPROC	FC_004_F2.png	1	2	17	SessionSelectionList														nonlure	3	Face	0-Back	15	80	14	0	0	100	2	40	302009	1	13	98	299969	-1	301090	1	1121	3	3	2040	53	302022	-54	0					4											17												
WM080112	129028_fnca	1	1	1	-1575443185	1	75.030	75.031	2.0.10.147	2.0.10.242	2.0.10.242	1.0.0.439	7	234	2	3	Verdana	1	80	0	0	0	WM Stimuli\	0.8	1352.625	1	1240	1	1237.3	1	1011.4	1	1158.2	1	1034.4	0.9	1223	1	891.7	13	547670	2	547658	27	40	547697	-999999	547673	0	5	TrialsPROC	FC_004_F2.png	1	2	18	SessionSelectionList														lure	3	Face	0-Back	16	80	15	0	0	100	3	39	304581	1	14	73	302542	-1	303474	1	932	3	3	2039	53	304595	-54	0					5											18												
WM080112	129028_fnca	1	1	1	-1575443185	1	75.030	75.031	2.0.10.147	2.0.10.242	2.0.10.242	1.0.0.439	7	234	2	3	Verdana	1	80	0	0	0	WM Stimuli\	0.8	1352.625	1	1240	1	1237.3	1	1011.4	1	1158.2	1	1034.4	0.9	1223	1	891.7	13	547670	2	547658	27	40	547697	-999999	547673	0	5	TrialsPROC	FC_001_M1.png	1	2	19	SessionSelectionList														target	2	Face	0-Back	17	80	16	0	0	100	1	39	307153	2	14	72	305114	-1	305999	1	885	2	2	2039	53	307167	-54	0					6											19												
WM080112	129028_fnca	1	1	1	-1575443185	1	75.030	75.031	2.0.10.147	2.0.10.242	2.0.10.242	1.0.0.439	7	234	2	3	Verdana	1	80	0	0	0	WM Stimuli\	0.8	1352.625	1	1240	1	1237.3	1	1011.4	1	1158.2	1	1034.4	0.9	1223	1	891.7	13	547670	2	547658	27	40	547697	-999999	547673	0	5	TrialsPROC	FC_006_F3.png	1	2	20	SessionSelectionList														nonlure	3	Face	0-Back	18	80	17	0	0	100	1	39	309739	1	13	86	307700	-1	308558	1	858	3	3	2039	52	309752	-53	0					7											20												
WM080112	129028_fnca	1	1	1	-1575443185	1	75.030	75.031	2.0.10.147	2.0.10.242	2.0.10.242	1.0.0.439	7	234	2	3	Verdana	1	80	0	0	0	WM Stimuli\	0.8	1352.625	1	1240	1	1237.3	1	1011.4	1	1158.2	1	1034.4	0.9	1223	1	891.7	13	547670	2	547658	27	40	547697	-999999	547673	0	5	TrialsPROC	FC_006_F3.png	1	2	21	SessionSelectionList														lure	3	Face	0-Back	19	80	18	0	0	100	2	39	312311	2	14	72	310272	-1	311337	1	1065	3	3	2039	53	312325	-54	0					8											21												
WM080112	129028_fnca	1	1	1	-1575443185	1	75.030	75.031	2.0.10.147	2.0.10.242	2.0.10.242	1.0.0.439	7	234	2	3	Verdana	1	80	0	0	0	WM Stimuli\	0.8	1352.625	1	1240	1	1237.3	1	1011.4	1	1158.2	1	1034.4	0.9	1223	1	891.7	13	547670	2	547658	27	40	547697	-999999	547673	0	5	TrialsPROC	FC_003_M2.png	1	2	22	SessionSelectionList														lure	3	Face	0-Back	20	80	19	0	0	100	3	39	314883	2	14	72	312844	-1	314086	1	1242	3	3	2039	53	314897	-54	0					9											22												
WM080112	129028_fnca	1	1	1	-1575443185	1	75.030	75.031	2.0.10.147	2.0.10.242	2.0.10.242	1.0.0.439	7	234	2	3	Verdana	1	80	0	0	0	WM Stimuli\	0.8	1352.625	1	1240	1	1237.3	1	1011.4	1	1158.2	1	1034.4	0.9	1223	1	891.7	13	547670	2	547658	27	40	547697	-999999	547673	0	5	TrialsPROC	FC_002_F1.png	1	2	23	SessionSelectionList														nonlure	3	Face	0-Back	21	80	20	0	0	100	4	39	317469	1	14	86	315430	-1	316486	1	1056	3	3	2039	53	317483	-54	0					10											23												
WM080112	129028_fnca	1	1	1	-1575443185	1	75.030	75.031	2.0.10.147	2.0.10.242	2.0.10.242	1.0.0.439	7	234	2	3	Verdana	1	80	0	0	0	WM Stimuli\	0.8	1352.625	1	1240	1	1237.3	1	1011.4	1	1158.2	1	1034.4	0.9	1223	1	891.7	13	547670	2	547658	27	40	547697	-999999	547673	0	6	Fix15secPROC	""	1	2	24	SessionSelectionList																																															6	317936	-7	0							24												
WM080112	129028_fnca	1	1	1	-1575443185	1	75.030	75.031	2.0.10.147	2.0.10.242	2.0.10.242	1.0.0.439	7	234	2	3	Verdana	1	80	0	0	0	WM Stimuli\	0.8	1352.625	1	1240	1	1237.3	1	1011.4	1	1158.2	1	1034.4	0.9	1223	1	891.7	13	547670	2	547658	27	40	547697	-999999	547673	0	7	Cue2BackPROC	""	1	2	25	SessionSelectionList									13	332943	-14	0																																													25												
WM080112	129028_fnca	1	1	1	-1575443185	1	75.030	75.031	2.0.10.147	2.0.10.242	2.0.10.242	1.0.0.439	7	234	2	3	Verdana	1	80	0	0	0	WM Stimuli\	0.8	1352.625	1	1240	1	1237.3	1	1011.4	1	1158.2	1	1034.4	0.9	1223	1	891.7	13	547670	2	547658	27	40	547697	-999999	547673	0	8	TrialsPROC	TO_001_TOOL1_BA.png	1	2	26	SessionSelectionList														nonlure	3	Tools	2-Back	22	80	21	0	0	100	5	40	337568	1	13	98	335528	-1	336736	1	1208	3	3	2040	53	337581	-54	0										1						26												
WM080112	129028_fnca	1	1	1	-1575443185	1	75.030	75.031	2.0.10.147	2.0.10.242	2.0.10.242	1.0.0.439	7	234	2	3	Verdana	1	80	0	0	0	WM Stimuli\	0.8	1352.625	1	1240	1	1237.3	1	1011.4	1	1158.2	1	1034.4	0.9	1223	1	891.7	13	547670	2	547658	27	40	547697	-999999	547673	0	8	TrialsPROC	TO_002_TOOL2_BA.png	1	2	27	SessionSelectionList														nonlure	3	Tools	2-Back	23	80	22	0	0	100	6	40	340167	1	13	99	338127	-1	339102	1	975	3	3	2040	53	340180	-54	0										2						27												
WM080112	129028_fnca	1	1	1	-1575443185	1	75.030	75.031	2.0.10.147	2.0.10.242	2.0.10.242	1.0.0.439	7	234	2	3	Verdana	1	80	0	0	0	WM Stimuli\	0.8	1352.625	1	1240	1	1237.3	1	1011.4	1	1158.2	1	1034.4	0.9	1223	1	891.7	13	547670	2	547658	27	40	547697	-999999	547673	0	8	TrialsPROC	TO_004_TOOL4_BA.png	1	2	28	SessionSelectionList														nonlure	3	Tools	2-Back	24	80	23	0	0	100	7	39	342752	2	14	86	340713	-1	341840	1	1127	3	3	2039	53	342766	-54	0										3						28												
WM080112	129028_fnca	1	1	1	-1575443185	1	75.030	75.031	2.0.10.147	2.0.10.242	2.0.10.242	1.0.0.439	7	234	2	3	Verdana	1	80	0	0	0	WM Stimuli\	0.8	1352.625	1	1240	1	1237.3	1	1011.4	1	1158.2	1	1034.4	0.9	1223	1	891.7	13	547670	2	547658	27	40	547697	-999999	547673	0	8	TrialsPROC	TO_002_TOOL2_BA.png	1	2	29	SessionSelectionList														target	2	Tools	2-Back	25	80	24	0	0	100	1	39	345311	2	14	59	343272	-1	344333	1	1061	2	2	2039	53	345325	-54	0										4						29												
WM080112	129028_fnca	1	1	1	-1575443185	1	75.030	75.031	2.0.10.147	2.0.10.242	2.0.10.242	1.0.0.439	7	234	2	3	Verdana	1	80	0	0	0	WM Stimuli\	0.8	1352.625	1	1240	1	1237.3	1	1011.4	1	1158.2	1	1034.4	0.9	1223	1	891.7	13	547670	2	547658	27	40	547697	-999999	547673	0	8	TrialsPROC	TO_001_TOOL1_BA.png	1	2	30	SessionSelectionList														lure	3	Tools	2-Back	26	80	25	0	0	100	1	39	347870	2	14	59	345831	-1	346913	1	1082	3	3	2039	53	347884	-54	0										5						30												
WM080112	129028_fnca	1	1	1	-1575443185	1	75.030	75.031	2.0.10.147	2.0.10.242	2.0.10.242	1.0.0.439	7	234	2	3	Verdana	1	80	0	0	0	WM Stimuli\	0.8	1352.625	1	1240	1	1237.3	1	1011.4	1	1158.2	1	1034.4	0.9	1223	1	891.7	13	547670	2	547658	27	40	547697	-999999	547673	0	8	TrialsPROC	TO_004_TOOL4_BA.png	1	2	31	SessionSelectionList														lure	3	Tools	2-Back	27	80	26	0	0	100	2	39	350429	1	14	59	348390	-1	349949	1	1559	3	3	2039	53	350443	-54	0										6						31												
WM080112	129028_fnca	1	1	1	-1575443185	1	75.030	75.031	2.0.10.147	2.0.10.242	2.0.10.242	1.0.0.439	7	234	2	3	Verdana	1	80	0	0	0	WM Stimuli\	0.8	1352.625	1	1240	1	1237.3	1	1011.4	1	1158.2	1	1034.4	0.9	1223	1	891.7	13	547670	2	547658	27	40	547697	-999999	547673	0	8	TrialsPROC	TO_006_TOOL6_BA.png	1	2	32	SessionSelectionList														nonlure	3	Tools	2-Back	28	80	26	0	1	100	2	39	353015	1	13	86	350976	-1	0	0	0	""	3	2039	52	353028	-53	0										7						32												
WM080112	129028_fnca	1	1	1	-1575443185	1	75.030	75.031	2.0.10.147	2.0.10.242	2.0.10.242	1.0.0.439	7	234	2	3	Verdana	1	80	0	0	0	WM Stimuli\	0.8	1352.625	1	1240	1	1237.3	1	1011.4	1	1158.2	1	1034.4	0.9	1223	1	891.7	13	547670	2	547658	27	40	547697	-999999	547673	0	8	TrialsPROC	TO_005_TOOL5_BA.png	1	2	33	SessionSelectionList														nonlure	3	Tools	2-Back	29	80	27	0	0	100	1	39	355614	2	13	99	353575	-1	354833	1	1258	3	3	2039	52	355627	-53	0										8						33												
WM080112	129028_fnca	1	1	1	-1575443185	1	75.030	75.031	2.0.10.147	2.0.10.242	2.0.10.242	1.0.0.439	7	234	2	3	Verdana	1	80	0	0	0	WM Stimuli\	0.8	1352.625	1	1240	1	1237.3	1	1011.4	1	1158.2	1	1034.4	0.9	1223	1	891.7	13	547670	2	547658	27	40	547697	-999999	547673	0	8	TrialsPROC	TO_006_TOOL6_BA.png	1	2	34	SessionSelectionList														target	2	Tools	2-Back	30	80	28	0	0	100	1	40	358173	1	13	58	356133	-1	357637	1	1504	2	2	2040	53	358186	-54	0										9						34												
WM080112	129028_fnca	1	1	1	-1575443185	1	75.030	75.031	2.0.10.147	2.0.10.242	2.0.10.242	1.0.0.439	7	234	2	3	Verdana	1	80	0	0	0	WM Stimuli\	0.8	1352.625	1	1240	1	1237.3	1	1011.4	1	1158.2	1	1034.4	0.9	1223	1	891.7	13	547670	2	547658	27	40	547697	-999999	547673	0	8	TrialsPROC	TO_003_TOOL3_BA.png	1	2	35	SessionSelectionList														nonlure	3	Tools	2-Back	31	80	29	0	0	100	1	39	360758	2	14	86	358719	-1	359952	1	1233	3	3	2039	53	360772	-54	0										10						35												
WM080112	129028_fnca	1	1	1	-1575443185	1	75.030	75.031	2.0.10.147	2.0.10.242	2.0.10.242	1.0.0.439	7	234	2	3	Verdana	1	80	0	0	0	WM Stimuli\	0.8	1352.625	1	1240	1	1237.3	1	1011.4	1	1158.2	1	1034.4	0.9	1223	1	891.7	13	547670	2	547658	27	40	547697	-999999	547673	0	9	Cue0BackPROC	BP_007_BP20_BA.png	1	2	36	SessionSelectionList																																										32	361251	-33	0												36												
WM080112	129028_fnca	1	1	1	-1575443185	1	75.030	75.031	2.0.10.147	2.0.10.242	2.0.10.242	1.0.0.439	7	234	2	3	Verdana	1	80	0	0	0	WM Stimuli\	0.8	1352.625	1	1240	1	1237.3	1	1011.4	1	1158.2	1	1034.4	0.9	1223	1	891.7	13	547670	2	547658	27	40	547697	-999999	547673	0	10	TrialsPROC	BP_007_BP20_BA.png	1	2	37	SessionSelectionList														target	2	Body	0-Back	32	80	30	0	0	100	1	40	365810	1	13	51	363770	-1	365342	1	1572	2	2	2040	53	365823	-54	0											1					37												
WM080112	129028_fnca	1	1	1	-1575443185	1	75.030	75.031	2.0.10.147	2.0.10.242	2.0.10.242	1.0.0.439	7	234	2	3	Verdana	1	80	0	0	0	WM Stimuli\	0.8	1352.625	1	1240	1	1237.3	1	1011.4	1	1158.2	1	1034.4	0.9	1223	1	891.7	13	547670	2	547658	27	40	547697	-999999	547673	0	10	TrialsPROC	BP_011_BP4_BA.png	1	2	38	SessionSelectionList														nonlure	3	Body	0-Back	33	80	31	0	0	100	1	39	368395	2	14	86	366356	-1	367825	1	1469	3	3	2039	53	368409	-54	0											2					38												
WM080112	129028_fnca	1	1	1	-1575443185	1	75.030	75.031	2.0.10.147	2.0.10.242	2.0.10.242	1.0.0.439	7	234	2	3	Verdana	1	80	0	0	0	WM Stimuli\	0.8	1352.625	1	1240	1	1237.3	1	1011.4	1	1158.2	1	1034.4	0.9	1223	1	891.7	13	547670	2	547658	27	40	547697	-999999	547673	0	10	TrialsPROC	BP_010_BP3_BA.png	1	2	39	SessionSelectionList														nonlure	3	Body	0-Back	34	80	32	0	0	100	2	39	370981	1	13	86	368942	-1	370149	1	1207	3	3	2039	52	370994	-53	0											3					39												
WM080112	129028_fnca	1	1	1	-1575443185	1	75.030	75.031	2.0.10.147	2.0.10.242	2.0.10.242	1.0.0.439	7	234	2	3	Verdana	1	80	0	0	0	WM Stimuli\	0.8	1352.625	1	1240	1	1237.3	1	1011.4	1	1158.2	1	1034.4	0.9	1223	1	891.7	13	547670	2	547658	27	40	547697	-999999	547673	0	10	TrialsPROC	BP_008_BP21_BA.png	1	2	40	SessionSelectionList														nonlure	3	Body	0-Back	35	80	33	0	0	100	3	39	373580	2	13	99	371541	-1	372725	1	1184	3	3	2039	52	373593	-53	0											4					40												
WM080112	129028_fnca	1	1	1	-1575443185	1	75.030	75.031	2.0.10.147	2.0.10.242	2.0.10.242	1.0.0.439	7	234	2	3	Verdana	1	80	0	0	0	WM Stimuli\	0.8	1352.625	1	1240	1	1237.3	1	1011.4	1	1158.2	1	1034.4	0.9	1223	1	891.7	13	547670	2	547658	27	40	547697	-999999	547673	0	10	TrialsPROC	BP_011_BP4_BA.png	1	2	41	SessionSelectionList														lure	3	Body	0-Back	36	80	34	0	0	100	4	39	376152	1	14	72	374113	-1	375378	1	1265	3	3	2039	53	376166	-54	0											5					41												
WM080112	129028_fnca	1	1	1	-1575443185	1	75.030	75.031	2.0.10.147	2.0.10.242	2.0.10.242	1.0.0.439	7	234	2	3	Verdana	1	80	0	0	0	WM Stimuli\	0.8	1352.625	1	1240	1	1237.3	1	1011.4	1	1158.2	1	1034.4	0.9	1223	1	891.7	13	547670	2	547658	27	40	547697	-999999	547673	0	10	TrialsPROC	BP_009_BP22_BA.png	1	2	42	SessionSelectionList														nonlure	3	Body	0-Back	37	80	35	0	0	100	5	40	378738	1	13	85	376698	-1	377909	1	1211	3	3	2040	53	378751	-54	0											6					42												
WM080112	129028_fnca	1	1	1	-1575443185	1	75.030	75.031	2.0.10.147	2.0.10.242	2.0.10.242	1.0.0.439	7	234	2	3	Verdana	1	80	0	0	0	WM Stimuli\	0.8	1352.625	1	1240	1	1237.3	1	1011.4	1	1158.2	1	1034.4	0.9	1223	1	891.7	13	547670	2	547658	27	40	547697	-999999	547673	0	10	TrialsPROC	BP_009_BP22_BA.png	1	2	43	SessionSelectionList														lure	3	Body	0-Back	38	80	36	0	0	100	6	40	381297	1	13	59	379257	-1	380481	1	1224	3	3	2040	53	381310	-54	0											7					43												
WM080112	129028_fnca	1	1	1	-1575443185	1	75.030	75.031	2.0.10.147	2.0.10.242	2.0.10.242	1.0.0.439	7	234	2	3	Verdana	1	80	0	0	0	WM Stimuli\	0.8	1352.625	1	1240	1	1237.3	1	1011.4	1	1158.2	1	1034.4	0.9	1223	1	891.7	13	547670	2	547658	27	40	547697	-999999	547673	0	10	TrialsPROC	BP_008_BP21_BA.png	1	2	44	SessionSelectionList														lure	3	Body	0-Back	39	80	37	0	0	100	7	40	383856	1	13	59	381816	-1	383032	1	1216	3	3	2040	53	383869	-54	0											8					44												
WM080112	129028_fnca	1	1	1	-1575443185	1	75.030	75.031	2.0.10.147	2.0.10.242	2.0.10.242	1.0.0.439	7	234	2	3	Verdana	1	80	0	0	0	WM Stimuli\	0.8	1352.625	1	1240	1	1237.3	1	1011.4	1	1158.2	1	1034.4	0.9	1223	1	891.7	13	547670	2	547658	27	40	547697	-999999	547673	0	10	TrialsPROC	BP_007_BP20_BA.png	1	2	45	SessionSelectionList														target	2	Body	0-Back	40	80	38	0	0	100	1	40	386415	1	13	59	384375	-1	385335	1	960	2	2	2040	53	386428	-54	0											9					45												
WM080112	129028_fnca	1	1	1	-1575443185	1	75.030	75.031	2.0.10.147	2.0.10.242	2.0.10.242	1.0.0.439	7	234	2	3	Verdana	1	80	0	0	0	WM Stimuli\	0.8	1352.625	1	1240	1	1237.3	1	1011.4	1	1158.2	1	1034.4	0.9	1223	1	891.7	13	547670	2	547658	27	40	547697	-999999	547673	0	10	TrialsPROC	BP_012_BP5_BA.png	1	2	46	SessionSelectionList														nonlure	3	Body	0-Back	41	80	39	0	0	100	1	39	389000	2	14	86	386961	-1	388053	1	1092	3	3	2039	53	389014	-54	0											10					46												
WM080112	129028_fnca	1	1	1	-1575443185	1	75.030	75.031	2.0.10.147	2.0.10.242	2.0.10.242	1.0.0.439	7	234	2	3	Verdana	1	80	0	0	0	WM Stimuli\	0.8	1352.625	1	1240	1	1237.3	1	1011.4	1	1158.2	1	1034.4	0.9	1223	1	891.7	13	547670	2	547658	27	40	547697	-999999	547673	0	11	Fix15secPROC	""	1	2	47	SessionSelectionList																																															6	389467	-7	0							47												
WM080112	129028_fnca	1	1	1	-1575443185	1	75.030	75.031	2.0.10.147	2.0.10.242	2.0.10.242	1.0.0.439	7	234	2	3	Verdana	1	80	0	0	0	WM Stimuli\	0.8	1352.625	1	1240	1	1237.3	1	1011.4	1	1158.2	1	1034.4	0.9	1223	1	891.7	13	547670	2	547658	27	40	547697	-999999	547673	0	12	Cue0BackPROC	PL_001_92012.png	1	2	48	SessionSelectionList																																										13	404474	-14	0												48												
WM080112	129028_fnca	1	1	1	-1575443185	1	75.030	75.031	2.0.10.147	2.0.10.242	2.0.10.242	1.0.0.439	7	234	2	3	Verdana	1	80	0	0	0	WM Stimuli\	0.8	1352.625	1	1240	1	1237.3	1	1011.4	1	1158.2	1	1034.4	0.9	1223	1	891.7	13	547670	2	547658	27	40	547697	-999999	547673	0	13	TrialsPROC	PL_003_92016.png	1	2	49	SessionSelectionList														nonlure	3	Place	0-Back	42	80	40	0	0	100	2	39	409099	1	13	99	407060	-1	408044	1	984	3	3	2039	52	409112	-53	0												1				49												
WM080112	129028_fnca	1	1	1	-1575443185	1	75.030	75.031	2.0.10.147	2.0.10.242	2.0.10.242	1.0.0.439	7	234	2	3	Verdana	1	80	0	0	0	WM Stimuli\	0.8	1352.625	1	1240	1	1237.3	1	1011.4	1	1158.2	1	1034.4	0.9	1223	1	891.7	13	547670	2	547658	27	40	547697	-999999	547673	0	13	TrialsPROC	PL_003_92016.png	1	2	50	SessionSelectionList														lure	3	Place	0-Back	43	80	41	0	0	100	3	39	411671	1	14	72	409632	-1	410825	1	1193	3	3	2039	53	411685	-54	0												2				50												
WM080112	129028_fnca	1	1	1	-1575443185	1	75.030	75.031	2.0.10.147	2.0.10.242	2.0.10.242	1.0.0.439	7	234	2	3	Verdana	1	80	0	0	0	WM Stimuli\	0.8	1352.625	1	1240	1	1237.3	1	1011.4	1	1158.2	1	1034.4	0.9	1223	1	891.7	13	547670	2	547658	27	40	547697	-999999	547673	0	13	TrialsPROC	PL_006_92025.png	1	2	51	SessionSelectionList														nonlure	3	Place	0-Back	44	80	42	0	0	100	4	39	414257	1	13	86	412218	-1	413248	1	1030	3	3	2039	52	414270	-53	0												3				51												
WM080112	129028_fnca	1	1	1	-1575443185	1	75.030	75.031	2.0.10.147	2.0.10.242	2.0.10.242	1.0.0.439	7	234	2	3	Verdana	1	80	0	0	0	WM Stimuli\	0.8	1352.625	1	1240	1	1237.3	1	1011.4	1	1158.2	1	1034.4	0.9	1223	1	891.7	13	547670	2	547658	27	40	547697	-999999	547673	0	13	TrialsPROC	PL_001_92012.png	1	2	52	SessionSelectionList														target	2	Place	0-Back	45	80	43	0	0	100	1	39	416829	1	14	72	414790	-1	415737	1	947	2	2	2039	53	416843	-54	0												4				52												
WM080112	129028_fnca	1	1	1	-1575443185	1	75.030	75.031	2.0.10.147	2.0.10.242	2.0.10.242	1.0.0.439	7	234	2	3	Verdana	1	80	0	0	0	WM Stimuli\	0.8	1352.625	1	1240	1	1237.3	1	1011.4	1	1158.2	1	1034.4	0.9	1223	1	891.7	13	547670	2	547658	27	40	547697	-999999	547673	0	13	TrialsPROC	PL_004_92023.png	1	2	53	SessionSelectionList														nonlure	3	Place	0-Back	46	80	44	0	0	100	1	40	419415	1	13	85	417375	-1	418335	1	960	3	3	2040	53	419428	-54	0												5				53												
WM080112	129028_fnca	1	1	1	-1575443185	1	75.030	75.031	2.0.10.147	2.0.10.242	2.0.10.242	1.0.0.439	7	234	2	3	Verdana	1	80	0	0	0	WM Stimuli\	0.8	1352.625	1	1240	1	1237.3	1	1011.4	1	1158.2	1	1034.4	0.9	1223	1	891.7	13	547670	2	547658	27	40	547697	-999999	547673	0	13	TrialsPROC	PL_005_92024.png	1	2	54	SessionSelectionList														nonlure	3	Place	0-Back	47	80	45	0	0	100	2	39	422000	2	14	86	419961	-1	421166	1	1205	3	3	2039	53	422014	-54	0												6				54												
WM080112	129028_fnca	1	1	1	-1575443185	1	75.030	75.031	2.0.10.147	2.0.10.242	2.0.10.242	1.0.0.439	7	234	2	3	Verdana	1	80	0	0	0	WM Stimuli\	0.8	1352.625	1	1240	1	1237.3	1	1011.4	1	1158.2	1	1034.4	0.9	1223	1	891.7	13	547670	2	547658	27	40	547697	-999999	547673	0	13	TrialsPROC	PL_001_92012.png	1	2	55	SessionSelectionList														target	2	Place	0-Back	48	80	46	0	0	100	1	40	424573	1	13	72	422533	-1	423365	1	832	2	2	2040	53	424586	-54	0												7				55												
WM080112	129028_fnca	1	1	1	-1575443185	1	75.030	75.031	2.0.10.147	2.0.10.242	2.0.10.242	1.0.0.439	7	234	2	3	Verdana	1	80	0	0	0	WM Stimuli\	0.8	1352.625	1	1240	1	1237.3	1	1011.4	1	1158.2	1	1034.4	0.9	1223	1	891.7	13	547670	2	547658	27	40	547697	-999999	547673	0	13	TrialsPROC	PL_002_92014.png	1	2	56	SessionSelectionList														nonlure	3	Place	0-Back	49	80	47	0	0	100	1	39	427158	2	14	86	425119	-1	426181	1	1062	3	3	2039	53	427172	-54	0												8				56												
WM080112	129028_fnca	1	1	1	-1575443185	1	75.030	75.031	2.0.10.147	2.0.10.242	2.0.10.242	1.0.0.439	7	234	2	3	Verdana	1	80	0	0	0	WM Stimuli\	0.8	1352.625	1	1240	1	1237.3	1	1011.4	1	1158.2	1	1034.4	0.9	1223	1	891.7	13	547670	2	547658	27	40	547697	-999999	547673	0	13	TrialsPROC	PL_004_92023.png	1	2	57	SessionSelectionList														lure	3	Place	0-Back	50	80	48	0	0	100	2	39	429730	2	14	72	427691	-1	428652	1	961	3	3	2039	53	429744	-54	0												9				57												
WM080112	129028_fnca	1	1	1	-1575443185	1	75.030	75.031	2.0.10.147	2.0.10.242	2.0.10.242	1.0.0.439	7	234	2	3	Verdana	1	80	0	0	0	WM Stimuli\	0.8	1352.625	1	1240	1	1237.3	1	1011.4	1	1158.2	1	1034.4	0.9	1223	1	891.7	13	547670	2	547658	27	40	547697	-999999	547673	0	13	TrialsPROC	PL_006_92025.png	1	2	58	SessionSelectionList														lure	3	Place	0-Back	51	80	49	0	0	100	3	39	432303	1	13	73	430264	-1	431434	1	1170	3	3	2039	52	432316	-53	0												10				58												
WM080112	129028_fnca	1	1	1	-1575443185	1	75.030	75.031	2.0.10.147	2.0.10.242	2.0.10.242	1.0.0.439	7	234	2	3	Verdana	1	80	0	0	0	WM Stimuli\	0.8	1352.625	1	1240	1	1237.3	1	1011.4	1	1158.2	1	1034.4	0.9	1223	1	891.7	13	547670	2	547658	27	40	547697	-999999	547673	0	14	Cue2BackPROC	""	1	2	59	SessionSelectionList									5	432769	-6	0																																													59												
WM080112	129028_fnca	1	1	1	-1575443185	1	75.030	75.031	2.0.10.147	2.0.10.242	2.0.10.242	1.0.0.439	7	234	2	3	Verdana	1	80	0	0	0	WM Stimuli\	0.8	1352.625	1	1240	1	1237.3	1	1011.4	1	1158.2	1	1034.4	0.9	1223	1	891.7	13	547670	2	547658	27	40	547697	-999999	547673	0	15	TrialsPROC	FC_010_F5.png	1	2	60	SessionSelectionList														nonlure	3	Face	2-Back	52	80	50	0	0	100	4	39	437394	1	14	91	435355	-1	436493	1	1138	3	3	2039	53	437408	-54	0													1			60												
WM080112	129028_fnca	1	1	1	-1575443185	1	75.030	75.031	2.0.10.147	2.0.10.242	2.0.10.242	1.0.0.439	7	234	2	3	Verdana	1	80	0	0	0	WM Stimuli\	0.8	1352.625	1	1240	1	1237.3	1	1011.4	1	1158.2	1	1034.4	0.9	1223	1	891.7	13	547670	2	547658	27	40	547697	-999999	547673	0	15	TrialsPROC	FC_012_F6.png	1	2	61	SessionSelectionList														nonlure	3	Face	2-Back	53	80	51	0	0	100	5	39	439993	1	14	99	437954	-1	438968	1	1014	3	3	2039	53	440007	-54	0													2			61												
WM080112	129028_fnca	1	1	1	-1575443185	1	75.030	75.031	2.0.10.147	2.0.10.242	2.0.10.242	1.0.0.439	7	234	2	3	Verdana	1	80	0	0	0	WM Stimuli\	0.8	1352.625	1	1240	1	1237.3	1	1011.4	1	1158.2	1	1034.4	0.9	1223	1	891.7	13	547670	2	547658	27	40	547697	-999999	547673	0	15	TrialsPROC	FC_010_F5.png	1	2	62	SessionSelectionList														target	2	Face	2-Back	54	80	52	0	0	100	1	39	442565	2	14	72	440526	-1	441770	1	1244	2	2	2039	53	442579	-54	0													3			62												
WM080112	129028_fnca	1	1	1	-1575443185	1	75.030	75.031	2.0.10.147	2.0.10.242	2.0.10.242	1.0.0.439	7	234	2	3	Verdana	1	80	0	0	0	WM Stimuli\	0.8	1352.625	1	1240	1	1237.3	1	1011.4	1	1158.2	1	1034.4	0.9	1223	1	891.7	13	547670	2	547658	27	40	547697	-999999	547673	0	15	TrialsPROC	FC_008_F4.png	1	2	63	SessionSelectionList														nonlure	3	Face	2-Back	55	80	53	0	0	100	1	39	445151	1	14	86	443112	-1	444076	1	964	3	3	2039	53	445165	-54	0													4			63												
WM080112	129028_fnca	1	1	1	-1575443185	1	75.030	75.031	2.0.10.147	2.0.10.242	2.0.10.242	1.0.0.439	7	234	2	3	Verdana	1	80	0	0	0	WM Stimuli\	0.8	1352.625	1	1240	1	1237.3	1	1011.4	1	1158.2	1	1034.4	0.9	1223	1	891.7	13	547670	2	547658	27	40	547697	-999999	547673	0	15	TrialsPROC	FC_012_F6.png	1	2	64	SessionSelectionList														lure	3	Face	2-Back	56	80	54	0	0	100	2	39	447723	2	14	72	445684	-1	447320	1	1636	3	3	2039	53	447737	-54	0													5			64												
WM080112	129028_fnca	1	1	1	-1575443185	1	75.030	75.031	2.0.10.147	2.0.10.242	2.0.10.242	1.0.0.439	7	234	2	3	Verdana	1	80	0	0	0	WM Stimuli\	0.8	1352.625	1	1240	1	1237.3	1	1011.4	1	1158.2	1	1034.4	0.9	1223	1	891.7	13	547670	2	547658	27	40	547697	-999999	547673	0	15	TrialsPROC	FC_008_F4.png	1	2	65	SessionSelectionList														target	2	Face	2-Back	57	80	55	0	0	100	1	40	450296	1	13	72	448256	-1	449529	1	1273	2	2	2040	53	450309	-54	0													6			65												
WM080112	129028_fnca	1	1	1	-1575443185	1	75.030	75.031	2.0.10.147	2.0.10.242	2.0.10.242	1.0.0.439	7	234	2	3	Verdana	1	80	0	0	0	WM Stimuli\	0.8	1352.625	1	1240	1	1237.3	1	1011.4	1	1158.2	1	1034.4	0.9	1223	1	891.7	13	547670	2	547658	27	40	547697	-999999	547673	0	15	TrialsPROC	FC_007_M4.png	1	2	66	SessionSelectionList														nonlure	3	Face	2-Back	58	80	56	0	0	100	1	39	452881	2	14	86	450842	-1	452176	1	1334	3	3	2039	53	452895	-54	0													7			66												
WM080112	129028_fnca	1	1	1	-1575443185	1	75.030	75.031	2.0.10.147	2.0.10.242	2.0.10.242	1.0.0.439	7	234	2	3	Verdana	1	80	0	0	0	WM Stimuli\	0.8	1352.625	1	1240	1	1237.3	1	1011.4	1	1158.2	1	1034.4	0.9	1223	1	891.7	13	547670	2	547658	27	40	547697	-999999	547673	0	15	TrialsPROC	FC_007_M4.png	1	2	67	SessionSelectionList														lure	3	Face	2-Back	59	80	57	0	0	100	2	39	455453	3	14	72	453414	-1	454799	1	1385	3	3	2039	53	455467	-54	0													8			67												
WM080112	129028_fnca	1	1	1	-1575443185	1	75.030	75.031	2.0.10.147	2.0.10.242	2.0.10.242	1.0.0.439	7	234	2	3	Verdana	1	80	0	0	0	WM Stimuli\	0.8	1352.625	1	1240	1	1237.3	1	1011.4	1	1158.2	1	1034.4	0.9	1223	1	891.7	13	547670	2	547658	27	40	547697	-999999	547673	0	15	TrialsPROC	FC_009_M5.png	1	2	68	SessionSelectionList														nonlure	3	Face	2-Back	60	80	58	0	0	100	3	39	458052	2	14	99	456013	-1	457189	1	1176	3	3	2039	53	458066	-54	0													9			68												
WM080112	129028_fnca	1	1	1	-1575443185	1	75.030	75.031	2.0.10.147	2.0.10.242	2.0.10.242	1.0.0.439	7	234	2	3	Verdana	1	80	0	0	0	WM Stimuli\	0.8	1352.625	1	1240	1	1237.3	1	1011.4	1	1158.2	1	1034.4	0.9	1223	1	891.7	13	547670	2	547658	27	40	547697	-999999	547673	0	15	TrialsPROC	FC_011_M6.png	1	2	69	SessionSelectionList														nonlure	3	Face	2-Back	61	80	59	0	0	100	4	39	460651	2	14	99	458612	-1	459821	1	1209	3	3	2039	53	460665	-54	0													10			69												
WM080112	129028_fnca	1	1	1	-1575443185	1	75.030	75.031	2.0.10.147	2.0.10.242	2.0.10.242	1.0.0.439	7	234	2	3	Verdana	1	80	0	0	0	WM Stimuli\	0.8	1352.625	1	1240	1	1237.3	1	1011.4	1	1158.2	1	1034.4	0.9	1223	1	891.7	13	547670	2	547658	27	40	547697	-999999	547673	0	16	Fix15secPROC	""	1	2	70	SessionSelectionList																																															6	461118	-7	0							70												
WM080112	129028_fnca	1	1	1	-1575443185	1	75.030	75.031	2.0.10.147	2.0.10.242	2.0.10.242	1.0.0.439	7	234	2	3	Verdana	1	80	0	0	0	WM Stimuli\	0.8	1352.625	1	1240	1	1237.3	1	1011.4	1	1158.2	1	1034.4	0.9	1223	1	891.7	13	547670	2	547658	27	40	547697	-999999	547673	0	17	Cue0BackPROC	TO_007_TOOL7_BA.png	1	2	71	SessionSelectionList																																										40	476152	-41	0												71												
WM080112	129028_fnca	1	1	1	-1575443185	1	75.030	75.031	2.0.10.147	2.0.10.242	2.0.10.242	1.0.0.439	7	234	2	3	Verdana	1	80	0	0	0	WM Stimuli\	0.8	1352.625	1	1240	1	1237.3	1	1011.4	1	1158.2	1	1034.4	0.9	1223	1	891.7	13	547670	2	547658	27	40	547697	-999999	547673	0	18	TrialsPROC	TO_010_TOOL10_BA.png	1	2	72	SessionSelectionList														nonlure	3	Tools	0-Back	62	80	60	0	0	100	5	40	480737	2	13	85	478697	-1	479606	1	909	3	3	2040	53	480750	-54	0														1		72												
WM080112	129028_fnca	1	1	1	-1575443185	1	75.030	75.031	2.0.10.147	2.0.10.242	2.0.10.242	1.0.0.439	7	234	2	3	Verdana	1	80	0	0	0	WM Stimuli\	0.8	1352.625	1	1240	1	1237.3	1	1011.4	1	1158.2	1	1034.4	0.9	1223	1	891.7	13	547670	2	547658	27	40	547697	-999999	547673	0	18	TrialsPROC	TO_009_TOOL9_BA.png	1	2	73	SessionSelectionList														nonlure	3	Tools	0-Back	63	80	61	0	0	100	6	39	483322	2	14	86	481283	-1	481955	1	672	3	3	2039	53	483336	-54	0														2		73												
WM080112	129028_fnca	1	1	1	-1575443185	1	75.030	75.031	2.0.10.147	2.0.10.242	2.0.10.242	1.0.0.439	7	234	2	3	Verdana	1	80	0	0	0	WM Stimuli\	0.8	1352.625	1	1240	1	1237.3	1	1011.4	1	1158.2	1	1034.4	0.9	1223	1	891.7	13	547670	2	547658	27	40	547697	-999999	547673	0	18	TrialsPROC	TO_009_TOOL9_BA.png	1	2	74	SessionSelectionList														lure	3	Tools	0-Back	64	80	62	0	0	100	7	39	485881	2	14	59	483842	-1	484746	1	904	3	3	2039	53	485895	-54	0														3		74												
WM080112	129028_fnca	1	1	1	-1575443185	1	75.030	75.031	2.0.10.147	2.0.10.242	2.0.10.242	1.0.0.439	7	234	2	3	Verdana	1	80	0	0	0	WM Stimuli\	0.8	1352.625	1	1240	1	1237.3	1	1011.4	1	1158.2	1	1034.4	0.9	1223	1	891.7	13	547670	2	547658	27	40	547697	-999999	547673	0	18	TrialsPROC	TO_008_TOOL8_BA.png	1	2	75	SessionSelectionList														nonlure	3	Tools	0-Back	65	80	63	0	0	100	8	39	488467	1	13	86	486428	-1	487567	1	1139	3	3	2039	52	488480	-53	0														4		75												
WM080112	129028_fnca	1	1	1	-1575443185	1	75.030	75.031	2.0.10.147	2.0.10.242	2.0.10.242	1.0.0.439	7	234	2	3	Verdana	1	80	0	0	0	WM Stimuli\	0.8	1352.625	1	1240	1	1237.3	1	1011.4	1	1158.2	1	1034.4	0.9	1223	1	891.7	13	547670	2	547658	27	40	547697	-999999	547673	0	18	TrialsPROC	TO_011_TOOL11_BA.png	1	2	76	SessionSelectionList														nonlure	3	Tools	0-Back	66	80	64	0	0	100	9	39	491066	1	13	99	489027	-1	489938	1	911	3	3	2039	52	491079	-53	0														5		76												
WM080112	129028_fnca	1	1	1	-1575443185	1	75.030	75.031	2.0.10.147	2.0.10.242	2.0.10.242	1.0.0.439	7	234	2	3	Verdana	1	80	0	0	0	WM Stimuli\	0.8	1352.625	1	1240	1	1237.3	1	1011.4	1	1158.2	1	1034.4	0.9	1223	1	891.7	13	547670	2	547658	27	40	547697	-999999	547673	0	18	TrialsPROC	TO_012_TOOL12_BA.png	1	2	77	SessionSelectionList														nonlure	3	Tools	0-Back	67	80	65	0	0	100	10	39	493651	2	14	85	491612	-1	492434	1	822	3	3	2039	53	493665	-54	0														6		77												
WM080112	129028_fnca	1	1	1	-1575443185	1	75.030	75.031	2.0.10.147	2.0.10.242	2.0.10.242	1.0.0.439	7	234	2	3	Verdana	1	80	0	0	0	WM Stimuli\	0.8	1352.625	1	1240	1	1237.3	1	1011.4	1	1158.2	1	1034.4	0.9	1223	1	891.7	13	547670	2	547658	27	40	547697	-999999	547673	0	18	TrialsPROC	TO_010_TOOL10_BA.png	1	2	78	SessionSelectionList														lure	3	Tools	0-Back	68	80	66	0	0	100	11	39	496210	2	14	59	494171	-1	494940	1	769	3	3	2039	53	496224	-54	0														7		78												
WM080112	129028_fnca	1	1	1	-1575443185	1	75.030	75.031	2.0.10.147	2.0.10.242	2.0.10.242	1.0.0.439	7	234	2	3	Verdana	1	80	0	0	0	WM Stimuli\	0.8	1352.625	1	1240	1	1237.3	1	1011.4	1	1158.2	1	1034.4	0.9	1223	1	891.7	13	547670	2	547658	27	40	547697	-999999	547673	0	18	TrialsPROC	TO_007_TOOL7_BA.png	1	2	79	SessionSelectionList														target	2	Tools	0-Back	69	80	67	0	0	100	1	39	498769	2	14	59	496730	-1	497670	1	940	2	2	2039	53	498783	-54	0														8		79												
WM080112	129028_fnca	1	1	1	-1575443185	1	75.030	75.031	2.0.10.147	2.0.10.242	2.0.10.242	1.0.0.439	7	234	2	3	Verdana	1	80	0	0	0	WM Stimuli\	0.8	1352.625	1	1240	1	1237.3	1	1011.4	1	1158.2	1	1034.4	0.9	1223	1	891.7	13	547670	2	547658	27	40	547697	-999999	547673	0	18	TrialsPROC	TO_008_TOOL8_BA.png	1	2	80	SessionSelectionList														lure	3	Tools	0-Back	70	80	68	0	0	100	1	39	501328	2	14	59	499289	-1	500218	1	929	3	3	2039	53	501342	-54	0														9		80												
WM080112	129028_fnca	1	1	1	-1575443185	1	75.030	75.031	2.0.10.147	2.0.10.242	2.0.10.242	1.0.0.439	7	234	2	3	Verdana	1	80	0	0	0	WM Stimuli\	0.8	1352.625	1	1240	1	1237.3	1	1011.4	1	1158.2	1	1034.4	0.9	1223	1	891.7	13	547670	2	547658	27	40	547697	-999999	547673	0	18	TrialsPROC	TO_007_TOOL7_BA.png	1	2	81	SessionSelectionList														target	2	Tools	0-Back	71	80	69	0	0	100	1	39	503887	2	14	59	501848	-1	502770	1	922	2	2	2039	53	503901	-54	0														10		81												
WM080112	129028_fnca	1	1	1	-1575443185	1	75.030	75.031	2.0.10.147	2.0.10.242	2.0.10.242	1.0.0.439	7	234	2	3	Verdana	1	80	0	0	0	WM Stimuli\	0.8	1352.625	1	1240	1	1237.3	1	1011.4	1	1158.2	1	1034.4	0.9	1223	1	891.7	13	547670	2	547658	27	40	547697	-999999	547673	0	19	Cue2BackPROC	""	1	2	82	SessionSelectionList									6	504354	-7	0																																													82												
WM080112	129028_fnca	1	1	1	-1575443185	1	75.030	75.031	2.0.10.147	2.0.10.242	2.0.10.242	1.0.0.439	7	234	2	3	Verdana	1	80	0	0	0	WM Stimuli\	0.8	1352.625	1	1240	1	1237.3	1	1011.4	1	1158.2	1	1034.4	0.9	1223	1	891.7	13	547670	2	547658	27	40	547697	-999999	547673	0	20	TrialsPROC	PL_007_92026.png	1	2	83	SessionSelectionList														nonlure	3	Place	2-Back	72	80	70	0	0	100	1	39	508965	2	14	78	506926	-1	508488	1	1562	3	3	2039	53	508979	-54	0															1	83												
WM080112	129028_fnca	1	1	1	-1575443185	1	75.030	75.031	2.0.10.147	2.0.10.242	2.0.10.242	1.0.0.439	7	234	2	3	Verdana	1	80	0	0	0	WM Stimuli\	0.8	1352.625	1	1240	1	1237.3	1	1011.4	1	1158.2	1	1034.4	0.9	1223	1	891.7	13	547670	2	547658	27	40	547697	-999999	547673	0	20	TrialsPROC	PL_007_92026.png	1	2	84	SessionSelectionList														lure	3	Place	2-Back	73	80	71	0	0	100	2	40	511538	2	13	72	509498	-1	510808	1	1310	3	3	2040	53	511551	-54	0															2	84												
WM080112	129028_fnca	1	1	1	-1575443185	1	75.030	75.031	2.0.10.147	2.0.10.242	2.0.10.242	1.0.0.439	7	234	2	3	Verdana	1	80	0	0	0	WM Stimuli\	0.8	1352.625	1	1240	1	1237.3	1	1011.4	1	1158.2	1	1034.4	0.9	1223	1	891.7	13	547670	2	547658	27	40	547697	-999999	547673	0	20	TrialsPROC	PL_010_92038.png	1	2	85	SessionSelectionList														nonlure	3	Place	2-Back	74	80	72	0	0	100	3	39	514123	2	14	86	512084	-1	513483	1	1399	3	3	2039	53	514137	-54	0															3	85												
WM080112	129028_fnca	1	1	1	-1575443185	1	75.030	75.031	2.0.10.147	2.0.10.242	2.0.10.242	1.0.0.439	7	234	2	3	Verdana	1	80	0	0	0	WM Stimuli\	0.8	1352.625	1	1240	1	1237.3	1	1011.4	1	1158.2	1	1034.4	0.9	1223	1	891.7	13	547670	2	547658	27	40	547697	-999999	547673	0	20	TrialsPROC	PL_009_92037.png	1	2	86	SessionSelectionList														nonlure	3	Place	2-Back	75	80	73	0	0	100	4	39	516709	1	13	86	514670	-1	515763	1	1093	3	3	2039	52	516722	-53	0															4	86												
WM080112	129028_fnca	1	1	1	-1575443185	1	75.030	75.031	2.0.10.147	2.0.10.242	2.0.10.242	1.0.0.439	7	234	2	3	Verdana	1	80	0	0	0	WM Stimuli\	0.8	1352.625	1	1240	1	1237.3	1	1011.4	1	1158.2	1	1034.4	0.9	1223	1	891.7	13	547670	2	547658	27	40	547697	-999999	547673	0	20	TrialsPROC	PL_010_92038.png	1	2	87	SessionSelectionList														target	2	Place	2-Back	76	80	74	0	0	100	1	39	519268	1	13	59	517229	-1	518131	1	902	2	2	2039	52	519281	-53	0															5	87												
WM080112	129028_fnca	1	1	1	-1575443185	1	75.030	75.031	2.0.10.147	2.0.10.242	2.0.10.242	1.0.0.439	7	234	2	3	Verdana	1	80	0	0	0	WM Stimuli\	0.8	1352.625	1	1240	1	1237.3	1	1011.4	1	1158.2	1	1034.4	0.9	1223	1	891.7	13	547670	2	547658	27	40	547697	-999999	547673	0	20	TrialsPROC	PL_009_92037.png	1	2	88	SessionSelectionList														target	2	Place	2-Back	77	80	75	0	0	100	2	39	521827	1	13	59	519788	-1	521201	1	1413	2	2	2039	52	521840	-53	0															6	88												
WM080112	129028_fnca	1	1	1	-1575443185	1	75.030	75.031	2.0.10.147	2.0.10.242	2.0.10.242	1.0.0.439	7	234	2	3	Verdana	1	80	0	0	0	WM Stimuli\	0.8	1352.625	1	1240	1	1237.3	1	1011.4	1	1158.2	1	1034.4	0.9	1223	1	891.7	13	547670	2	547658	27	40	547697	-999999	547673	0	20	TrialsPROC	PL_008_92033.png	1	2	89	SessionSelectionList														nonlure	3	Place	2-Back	78	80	76	0	0	100	1	39	524412	2	14	85	522373	-1	523257	1	884	3	3	2039	53	524426	-54	0															7	89												
WM080112	129028_fnca	1	1	1	-1575443185	1	75.030	75.031	2.0.10.147	2.0.10.242	2.0.10.242	1.0.0.439	7	234	2	3	Verdana	1	80	0	0	0	WM Stimuli\	0.8	1352.625	1	1240	1	1237.3	1	1011.4	1	1158.2	1	1034.4	0.9	1223	1	891.7	13	547670	2	547658	27	40	547697	-999999	547673	0	20	TrialsPROC	PL_012_92047.png	1	2	90	SessionSelectionList														nonlure	3	Place	2-Back	79	80	77	0	0	100	2	40	527025	1	13	112	524985	-1	525917	1	932	3	3	2040	53	527038	-54	0															8	90												
WM080112	129028_fnca	1	1	1	-1575443185	1	75.030	75.031	2.0.10.147	2.0.10.242	2.0.10.242	1.0.0.439	7	234	2	3	Verdana	1	80	0	0	0	WM Stimuli\	0.8	1352.625	1	1240	1	1237.3	1	1011.4	1	1158.2	1	1034.4	0.9	1223	1	891.7	13	547670	2	547658	27	40	547697	-999999	547673	0	20	TrialsPROC	PL_012_92047.png	1	2	91	SessionSelectionList														lure	3	Place	2-Back	80	80	78	0	0	100	3	39	529597	1	14	73	527558	-1	528586	1	1028	3	3	2039	53	529611	-54	0															9	91												
WM080112	129028_fnca	1	1	1	-1575443185	1	75.030	75.031	2.0.10.147	2.0.10.242	2.0.10.242	1.0.0.439	7	234	2	3	Verdana	1	80	0	0	0	WM Stimuli\	0.8	1352.625	1	1240	1	1237.3	1	1011.4	1	1158.2	1	1034.4	0.9	1223	1	891.7	13	547670	2	547658	27	40	547697	-999999	547673	0	20	TrialsPROC	PL_011_92044.png	1	2	92	SessionSelectionList														nonlure	3	Place	2-Back	80	80	79	0	0	100	4	39	532196	1	13	99	530157	-1	531216	1	1059	3	3	2039	52	532209	-53	0															10	92												
WM080112	129028_fnca	1	1	1	-1575443185	1	75.030	75.031	2.0.10.147	2.0.10.242	2.0.10.242	1.0.0.439	7	234	2	3	Verdana	1	80	0	0	0	WM Stimuli\	0.8	1352.625	1	1240	1	1237.3	1	1011.4	1	1158.2	1	1034.4	0.9	1223	1	891.7	13	547670	2	547658	27	40	547697	-999999	547673	0	21	Fix15secPROC	""	1	2	93	SessionSelectionList																																															6	532663	-7	0							93												
