ExperimentName	HCPID	RunNumber	Subject	Session	RandomSeed	Group	Laptop.RefreshRate	ScannerD2.RefreshRate	StudioVersion	RuntimeVersion	RuntimeVersionExpected	ExperimentVersion	triggercode	Allowed	Target	Nontarget	FontStyle	RunTrialNumber[Session]	TrialsPerRun[Session]	TotalRespGreater200[Session]	ConsecRTLess200[Session]	ConsecNonResp[Session]	StimuliDir	ACC_2_Back_Body	Avg_RT_For_Correct_Trials_2_Back_Body	ACC_0_Back_Body	Avg_RT_For_Correct_Trials_0_Back_Body	ACC_2_Back_Face	Avg_RT_For_Correct_Trials_2_Back_Face	ACC_0_Back_Face	Avg_RT_For_Correct_Trials_0_Back_Face	ACC_2_Back_Place	Avg_RT_For_Correct_Trials_2_Back_Place	ACC_0_Back_Place	Avg_RT_For_Correct_Trials_0_Back_Place	ACC_2_Back_Tools	Avg_RT_For_Correct_Trials_2_Back_Tools	ACC_0_Back_Tools	Avg_RT_For_Correct_Trials_0_Back_Tools	ExpInstrucFeelFreeToRest.OnsetDelay	ExpInstrucFeelFreeToRest.OnsetTime	ExpInstrucFeelFreeToRest.DurationError	ExpInstrucFeelFreeToRest.StartTime	ExpInstrucFeelFreeToRest.OnsetToOnsetTime	FeelFreeToRest.OnsetDelay	FeelFreeToRest.OnsetTime	FeelFreeToRest.DurationError	FeelFreeToRest.StartTime	FeelFreeToRest.OnsetToOnsetTime	SessionSelectionList	Procedure[Block]	Stimulus[Block]	RunNumberFilterValue	SessionSelectionList.Cycle	SessionSelectionList.Sample	Running[Block]	IntroButtonMap.OnsetDelay	IntroButtonMap.OnsetTime	IntroButtonMap.DurationError	IntroButtonMap.OnsetToOnsetTime	GetReady.OnsetDelay	GetReady.OnsetTime	GetReady.DurationError	GetReady.OnsetToOnsetTime	Cue2Back.OnsetDelay	Cue2Back.OnsetTime	Cue2Back.DurationError	Cue2Back.OnsetToOnsetTime	Run1Block1	TargetType	CorrectResponse	StimType	BlockType	RunTrialNumber[Block]	TrialsPerRun[Block]	TotalRespGreater200[Block]	ConsecRTLess200[Block]	ConsecNonResp[Block]	ControlAcc	ConsecSameResp	ExperimenterWindow.OnsetDelay	ExperimenterWindow.OnsetTime	ExperimenterWindow.DurationError	ExperimenterWindow.OnsetToOnsetTime	Stim.OnsetDelay	Stim.OnsetTime	Stim.DurationError	Stim.RTTime	Stim.ACC	Stim.RT	Stim.RESP	Stim.CRESP	Stim.OnsetToOnsetTime	Fix.OnsetDelay	Fix.OnsetTime	Fix.DurationError	Fix.OnsetToOnsetTime	CueTarget.OnsetDelay	CueTarget.OnsetTime	CueTarget.DurationError	CueTarget.OnsetToOnsetTime	Run1Block2	Fix15sec.OnsetDelay	Fix15sec.OnsetTime	Fix15sec.DurationError	Fix15sec.OnsetToOnsetTime	Run1Block3	Run1Block4	Run1Block5	Run1Block6	Run1Block7	Run1Block8	Block	Procedure[Trial]	Stimulus[Trial]	ReadyList	Running[Trial]	ReadyList.Cycle	ReadyList.Sample	SyncSlide.OnsetDelay	SyncSlide.OnsetTime	SyncSlide.DurationError	SyncSlide.FinishTime	SyncSlide.OnsetToOnsetTime	Trial
WM080112	125525_fnca	2	1	1	1937365607	1	75.032	75.032	2.0.10.147	2.0.10.242	2.0.10.242	1.0.0.439	7	234	2	3	Verdana	1	80	0	0	0	WM Stimuli\	0.8	1024.625	0.7	964.428571428571	0.6	984.5	0.9	936.444444444444	0.9	843.888888888889	0.6	1027.16666666667	0.7	847.285714285714	0.8	917.125	13	328250	2	328238	27	40	328277	-999999	328253	0	22	TRSyncPROC	""	2	2	1	SessionSelectionList	106	11690	-999999	0	34	21313	-999999	0																																																	1	InitialTR	4	1	ReadyList	1	1	21	34680	-22	36658	0	1
WM080112	125525_fnca	2	1	1	1937365607	1	75.032	75.032	2.0.10.147	2.0.10.242	2.0.10.242	1.0.0.439	7	234	2	3	Verdana	1	80	0	0	0	WM Stimuli\	0.8	1024.625	0.7	964.428571428571	0.6	984.5	0.9	936.444444444444	0.9	843.888888888889	0.6	1027.16666666667	0.7	847.285714285714	0.8	917.125	13	328250	2	328238	27	40	328277	-999999	328253	0	22	TRSyncPROC	""	2	2	1	SessionSelectionList	106	11690	-999999	0	34	21313	-999999	0																																																	1	InitialTR	3	2	ReadyList	1	2	20	36679	-21	38658	0	2
WM080112	125525_fnca	2	1	1	1937365607	1	75.032	75.032	2.0.10.147	2.0.10.242	2.0.10.242	1.0.0.439	7	234	2	3	Verdana	1	80	0	0	0	WM Stimuli\	0.8	1024.625	0.7	964.428571428571	0.6	984.5	0.9	936.444444444444	0.9	843.888888888889	0.6	1027.16666666667	0.7	847.285714285714	0.8	917.125	13	328250	2	328238	27	40	328277	-999999	328253	0	22	TRSyncPROC	""	2	2	1	SessionSelectionList	106	11690	-999999	0	34	21313	-999999	0																																																	1	InitialTR	2	3	ReadyList	1	3	6	38665	-7	40658	0	3
WM080112	125525_fnca	2	1	1	1937365607	1	75.032	75.032	2.0.10.147	2.0.10.242	2.0.10.242	1.0.0.439	7	234	2	3	Verdana	1	80	0	0	0	WM Stimuli\	0.8	1024.625	0.7	964.428571428571	0.6	984.5	0.9	936.444444444444	0.9	843.888888888889	0.6	1027.16666666667	0.7	847.285714285714	0.8	917.125	13	328250	2	328238	27	40	328277	-999999	328253	0	22	TRSyncPROC	""	2	2	1	SessionSelectionList	106	11690	-999999	0	34	21313	-999999	0																																																	1	InitialTR	1	4	ReadyList	1	4	5	40664	-6	42658	0	4
WM080112	125525_fnca	2	1	1	1937365607	1	75.032	75.032	2.0.10.147	2.0.10.242	2.0.10.242	1.0.0.439	7	234	2	3	Verdana	1	80	0	0	0	WM Stimuli\	0.8	1024.625	0.7	964.428571428571	0.6	984.5	0.9	936.444444444444	0.9	843.888888888889	0.6	1027.16666666667	0.7	847.285714285714	0.8	917.125	13	328250	2	328238	27	40	328277	-999999	328253	0	23	Cue2BackPROC	""	2	2	2	SessionSelectionList									5	42664	-6	0																																													2												
WM080112	125525_fnca	2	1	1	1937365607	1	75.032	75.032	2.0.10.147	2.0.10.242	2.0.10.242	1.0.0.439	7	234	2	3	Verdana	1	80	0	0	0	WM Stimuli\	0.8	1024.625	0.7	964.428571428571	0.6	984.5	0.9	936.444444444444	0.9	843.888888888889	0.6	1027.16666666667	0.7	847.285714285714	0.8	917.125	13	328250	2	328238	27	40	328277	-999999	328253	0	24	TrialsPROC	TO_014_TOOL14_BA.png	2	2	3	SessionSelectionList														nonlure	3	Tools	2-Back	2	80	1	0	0	0	1	52	47288	3	14	77	45236	-1	46099	1	863	3	3	2052	66	47302	-67	0																3												
WM080112	125525_fnca	2	1	1	1937365607	1	75.032	75.032	2.0.10.147	2.0.10.242	2.0.10.242	1.0.0.439	7	234	2	3	Verdana	1	80	0	0	0	WM Stimuli\	0.8	1024.625	0.7	964.428571428571	0.6	984.5	0.9	936.444444444444	0.9	843.888888888889	0.6	1027.16666666667	0.7	847.285714285714	0.8	917.125	13	328250	2	328238	27	40	328277	-999999	328253	0	24	TrialsPROC	TO_013_TOOL13_BA.png	2	2	4	SessionSelectionList														nonlure	3	Tools	2-Back	3	80	2	0	0	0	2	39	49860	3	14	85	47821	-1	48521	1	700	3	3	2039	53	49874	-54	0																4												
WM080112	125525_fnca	2	1	1	1937365607	1	75.032	75.032	2.0.10.147	2.0.10.242	2.0.10.242	1.0.0.439	7	234	2	3	Verdana	1	80	0	0	0	WM Stimuli\	0.8	1024.625	0.7	964.428571428571	0.6	984.5	0.9	936.444444444444	0.9	843.888888888889	0.6	1027.16666666667	0.7	847.285714285714	0.8	917.125	13	328250	2	328238	27	40	328277	-999999	328253	0	24	TrialsPROC	TO_016_TOOL16_BA.png	2	2	5	SessionSelectionList														nonlure	3	Tools	2-Back	4	80	3	0	0	0	3	39	52419	2	14	59	50380	-1	51131	1	751	3	3	2039	53	52433	-54	0																5												
WM080112	125525_fnca	2	1	1	1937365607	1	75.032	75.032	2.0.10.147	2.0.10.242	2.0.10.242	1.0.0.439	7	234	2	3	Verdana	1	80	0	0	0	WM Stimuli\	0.8	1024.625	0.7	964.428571428571	0.6	984.5	0.9	936.444444444444	0.9	843.888888888889	0.6	1027.16666666667	0.7	847.285714285714	0.8	917.125	13	328250	2	328238	27	40	328277	-999999	328253	0	24	TrialsPROC	TO_014_TOOL14_BA.png	2	2	6	SessionSelectionList														lure	3	Tools	2-Back	5	80	4	0	0	0	1	40	54992	1	13	72	52952	-1	53825	0	873	2	3	2040	53	55005	-54	0																6												
WM080112	125525_fnca	2	1	1	1937365607	1	75.032	75.032	2.0.10.147	2.0.10.242	2.0.10.242	1.0.0.439	7	234	2	3	Verdana	1	80	0	0	0	WM Stimuli\	0.8	1024.625	0.7	964.428571428571	0.6	984.5	0.9	936.444444444444	0.9	843.888888888889	0.6	1027.16666666667	0.7	847.285714285714	0.8	917.125	13	328250	2	328238	27	40	328277	-999999	328253	0	24	TrialsPROC	TO_016_TOOL16_BA.png	2	2	7	SessionSelectionList														target	2	Tools	2-Back	6	80	5	0	0	0	1	38	57550	2	14	60	55512	-1	56774	0	1262	3	2	2038	52	57564	-53	0																7												
WM080112	125525_fnca	2	1	1	1937365607	1	75.032	75.032	2.0.10.147	2.0.10.242	2.0.10.242	1.0.0.439	7	234	2	3	Verdana	1	80	0	0	0	WM Stimuli\	0.8	1024.625	0.7	964.428571428571	0.6	984.5	0.9	936.444444444444	0.9	843.888888888889	0.6	1027.16666666667	0.7	847.285714285714	0.8	917.125	13	328250	2	328238	27	40	328277	-999999	328253	0	24	TrialsPROC	TO_018_TOOL18_BA.png	2	2	8	SessionSelectionList														nonlure	3	Tools	2-Back	7	80	6	0	0	0	2	39	60109	2	14	58	58070	-1	58860	1	790	3	3	2039	53	60123	-54	0																8												
WM080112	125525_fnca	2	1	1	1937365607	1	75.032	75.032	2.0.10.147	2.0.10.242	2.0.10.242	1.0.0.439	7	234	2	3	Verdana	1	80	0	0	0	WM Stimuli\	0.8	1024.625	0.7	964.428571428571	0.6	984.5	0.9	936.444444444444	0.9	843.888888888889	0.6	1027.16666666667	0.7	847.285714285714	0.8	917.125	13	328250	2	328238	27	40	328277	-999999	328253	0	24	TrialsPROC	TO_017_TOOL17_BA.png	2	2	9	SessionSelectionList														nonlure	3	Tools	2-Back	8	80	7	0	0	0	3	39	62668	2	14	59	60629	-1	61336	1	707	3	3	2039	53	62682	-54	0																9												
WM080112	125525_fnca	2	1	1	1937365607	1	75.032	75.032	2.0.10.147	2.0.10.242	2.0.10.242	1.0.0.439	7	234	2	3	Verdana	1	80	0	0	0	WM Stimuli\	0.8	1024.625	0.7	964.428571428571	0.6	984.5	0.9	936.444444444444	0.9	843.888888888889	0.6	1027.16666666667	0.7	847.285714285714	0.8	917.125	13	328250	2	328238	27	40	328277	-999999	328253	0	24	TrialsPROC	TO_018_TOOL18_BA.png	2	2	10	SessionSelectionList														target	2	Tools	2-Back	9	80	8	0	0	0	4	39	65227	2	14	59	63188	-1	64236	0	1048	3	2	2039	53	65241	-54	0																10												
WM080112	125525_fnca	2	1	1	1937365607	1	75.032	75.032	2.0.10.147	2.0.10.242	2.0.10.242	1.0.0.439	7	234	2	3	Verdana	1	80	0	0	0	WM Stimuli\	0.8	1024.625	0.7	964.428571428571	0.6	984.5	0.9	936.444444444444	0.9	843.888888888889	0.6	1027.16666666667	0.7	847.285714285714	0.8	917.125	13	328250	2	328238	27	40	328277	-999999	328253	0	24	TrialsPROC	TO_015_TOOL15_BA.png	2	2	11	SessionSelectionList														nonlure	3	Tools	2-Back	10	80	9	0	0	0	5	39	67786	2	14	59	65747	-1	66541	1	794	3	3	2039	53	67800	-54	0																11												
WM080112	125525_fnca	2	1	1	1937365607	1	75.032	75.032	2.0.10.147	2.0.10.242	2.0.10.242	1.0.0.439	7	234	2	3	Verdana	1	80	0	0	0	WM Stimuli\	0.8	1024.625	0.7	964.428571428571	0.6	984.5	0.9	936.444444444444	0.9	843.888888888889	0.6	1027.16666666667	0.7	847.285714285714	0.8	917.125	13	328250	2	328238	27	40	328277	-999999	328253	0	24	TrialsPROC	TO_017_TOOL17_BA.png	2	2	12	SessionSelectionList														lure	3	Tools	2-Back	11	80	10	0	0	0	6	39	70345	2	14	59	68306	-1	69632	1	1326	3	3	2039	53	70359	-54	0																12												
WM080112	125525_fnca	2	1	1	1937365607	1	75.032	75.032	2.0.10.147	2.0.10.242	2.0.10.242	1.0.0.439	7	234	2	3	Verdana	1	80	0	0	0	WM Stimuli\	0.8	1024.625	0.7	964.428571428571	0.6	984.5	0.9	936.444444444444	0.9	843.888888888889	0.6	1027.16666666667	0.7	847.285714285714	0.8	917.125	13	328250	2	328238	27	40	328277	-999999	328253	0	25	Cue0BackPROC	BP_013_BP7_BA.png	2	2	13	SessionSelectionList																																										19	70825	-20	0												13												
WM080112	125525_fnca	2	1	1	1937365607	1	75.032	75.032	2.0.10.147	2.0.10.242	2.0.10.242	1.0.0.439	7	234	2	3	Verdana	1	80	0	0	0	WM Stimuli\	0.8	1024.625	0.7	964.428571428571	0.6	984.5	0.9	936.444444444444	0.9	843.888888888889	0.6	1027.16666666667	0.7	847.285714285714	0.8	917.125	13	328250	2	328238	27	40	328277	-999999	328253	0	26	TrialsPROC	BP_015_H10-T_BA.png	2	2	14	SessionSelectionList														nonlure	3	Body	0-Back	12	80	11	0	0	100	7	39	75396	2	14	51	73357	-1	74342	1	985	3	3	2039	53	75410	-54	0																14												
WM080112	125525_fnca	2	1	1	1937365607	1	75.032	75.032	2.0.10.147	2.0.10.242	2.0.10.242	1.0.0.439	7	234	2	3	Verdana	1	80	0	0	0	WM Stimuli\	0.8	1024.625	0.7	964.428571428571	0.6	984.5	0.9	936.444444444444	0.9	843.888888888889	0.6	1027.16666666667	0.7	847.285714285714	0.8	917.125	13	328250	2	328238	27	40	328277	-999999	328253	0	26	TrialsPROC	BP_018_H13-T_BA.png	2	2	15	SessionSelectionList														nonlure	3	Body	0-Back	13	80	12	0	0	100	8	38	77955	2	14	60	75917	-1	76972	1	1055	3	3	2038	52	77969	-53	0																15												
WM080112	125525_fnca	2	1	1	1937365607	1	75.032	75.032	2.0.10.147	2.0.10.242	2.0.10.242	1.0.0.439	7	234	2	3	Verdana	1	80	0	0	0	WM Stimuli\	0.8	1024.625	0.7	964.428571428571	0.6	984.5	0.9	936.444444444444	0.9	843.888888888889	0.6	1027.16666666667	0.7	847.285714285714	0.8	917.125	13	328250	2	328238	27	40	328277	-999999	328253	0	26	TrialsPROC	BP_014_BP9_BA.png	2	2	16	SessionSelectionList														nonlure	3	Body	0-Back	14	80	13	0	0	100	9	39	80514	2	14	58	78475	-1	79498	1	1023	3	3	2039	53	80528	-54	0																16												
WM080112	125525_fnca	2	1	1	1937365607	1	75.032	75.032	2.0.10.147	2.0.10.242	2.0.10.242	1.0.0.439	7	234	2	3	Verdana	1	80	0	0	0	WM Stimuli\	0.8	1024.625	0.7	964.428571428571	0.6	984.5	0.9	936.444444444444	0.9	843.888888888889	0.6	1027.16666666667	0.7	847.285714285714	0.8	917.125	13	328250	2	328238	27	40	328277	-999999	328253	0	26	TrialsPROC	BP_018_H13-T_BA.png	2	2	17	SessionSelectionList														lure	3	Body	0-Back	15	80	14	0	0	75	1	39	83073	2	14	59	81034	-1	82368	0	1334	2	3	2039	53	83087	-54	0																17												
WM080112	125525_fnca	2	1	1	1937365607	1	75.032	75.032	2.0.10.147	2.0.10.242	2.0.10.242	1.0.0.439	7	234	2	3	Verdana	1	80	0	0	0	WM Stimuli\	0.8	1024.625	0.7	964.428571428571	0.6	984.5	0.9	936.444444444444	0.9	843.888888888889	0.6	1027.16666666667	0.7	847.285714285714	0.8	917.125	13	328250	2	328238	27	40	328277	-999999	328253	0	26	TrialsPROC	BP_013_BP7_BA.png	2	2	18	SessionSelectionList														target	2	Body	0-Back	16	80	15	0	0	60	1	39	85632	1	14	59	83593	-1	84961	0	1368	3	2	2039	53	85646	-54	0																18												
WM080112	125525_fnca	2	1	1	1937365607	1	75.032	75.032	2.0.10.147	2.0.10.242	2.0.10.242	1.0.0.439	7	234	2	3	Verdana	1	80	0	0	0	WM Stimuli\	0.8	1024.625	0.7	964.428571428571	0.6	984.5	0.9	936.444444444444	0.9	843.888888888889	0.6	1027.16666666667	0.7	847.285714285714	0.8	917.125	13	328250	2	328238	27	40	328277	-999999	328253	0	26	TrialsPROC	BP_015_H10-T_BA.png	2	2	19	SessionSelectionList														lure	3	Body	0-Back	17	80	16	0	0	50	1	39	88191	1	14	59	86152	-1	87552	0	1400	2	3	2039	53	88205	-54	0																19												
WM080112	125525_fnca	2	1	1	1937365607	1	75.032	75.032	2.0.10.147	2.0.10.242	2.0.10.242	1.0.0.439	7	234	2	3	Verdana	1	80	0	0	0	WM Stimuli\	0.8	1024.625	0.7	964.428571428571	0.6	984.5	0.9	936.444444444444	0.9	843.888888888889	0.6	1027.16666666667	0.7	847.285714285714	0.8	917.125	13	328250	2	328238	27	40	328277	-999999	328253	0	26	TrialsPROC	BP_016_H11-T_BA.png	2	2	20	SessionSelectionList														nonlure	3	Body	0-Back	18	80	17	0	0	57	1	39	90763	2	14	72	88724	-1	89578	1	854	3	3	2039	53	90777	-54	0																20												
WM080112	125525_fnca	2	1	1	1937365607	1	75.032	75.032	2.0.10.147	2.0.10.242	2.0.10.242	1.0.0.439	7	234	2	3	Verdana	1	80	0	0	0	WM Stimuli\	0.8	1024.625	0.7	964.428571428571	0.6	984.5	0.9	936.444444444444	0.9	843.888888888889	0.6	1027.16666666667	0.7	847.285714285714	0.8	917.125	13	328250	2	328238	27	40	328277	-999999	328253	0	26	TrialsPROC	BP_013_BP7_BA.png	2	2	21	SessionSelectionList														target	2	Body	0-Back	19	80	18	0	0	62	1	39	93322	2	14	59	91283	-1	92409	1	1126	2	2	2039	53	93336	-54	0																21												
WM080112	125525_fnca	2	1	1	1937365607	1	75.032	75.032	2.0.10.147	2.0.10.242	2.0.10.242	1.0.0.439	7	234	2	3	Verdana	1	80	0	0	0	WM Stimuli\	0.8	1024.625	0.7	964.428571428571	0.6	984.5	0.9	936.444444444444	0.9	843.888888888889	0.6	1027.16666666667	0.7	847.285714285714	0.8	917.125	13	328250	2	328238	27	40	328277	-999999	328253	0	26	TrialsPROC	BP_017_H12-T_BA.png	2	2	22	SessionSelectionList														nonlure	3	Body	0-Back	20	80	19	0	0	67	1	39	95881	1	14	59	93842	-1	94650	1	808	3	3	2039	53	95895	-54	0																22												
WM080112	125525_fnca	2	1	1	1937365607	1	75.032	75.032	2.0.10.147	2.0.10.242	2.0.10.242	1.0.0.439	7	234	2	3	Verdana	1	80	0	0	0	WM Stimuli\	0.8	1024.625	0.7	964.428571428571	0.6	984.5	0.9	936.444444444444	0.9	843.888888888889	0.6	1027.16666666667	0.7	847.285714285714	0.8	917.125	13	328250	2	328238	27	40	328277	-999999	328253	0	26	TrialsPROC	BP_014_BP9_BA.png	2	2	23	SessionSelectionList														lure	3	Body	0-Back	21	80	20	0	0	70	2	39	98440	1	14	59	96401	-1	97301	1	900	3	3	2039	53	98454	-54	0																23												
WM080112	125525_fnca	2	1	1	1937365607	1	75.032	75.032	2.0.10.147	2.0.10.242	2.0.10.242	1.0.0.439	7	234	2	3	Verdana	1	80	0	0	0	WM Stimuli\	0.8	1024.625	0.7	964.428571428571	0.6	984.5	0.9	936.444444444444	0.9	843.888888888889	0.6	1027.16666666667	0.7	847.285714285714	0.8	917.125	13	328250	2	328238	27	40	328277	-999999	328253	0	27	Fix15secPROC	""	2	2	24	SessionSelectionList																																															6	98907	-7	0							24												
WM080112	125525_fnca	2	1	1	1937365607	1	75.032	75.032	2.0.10.147	2.0.10.242	2.0.10.242	1.0.0.439	7	234	2	3	Verdana	1	80	0	0	0	WM Stimuli\	0.8	1024.625	0.7	964.428571428571	0.6	984.5	0.9	936.444444444444	0.9	843.888888888889	0.6	1027.16666666667	0.7	847.285714285714	0.8	917.125	13	328250	2	328238	27	40	328277	-999999	328253	0	28	Cue2BackPROC	""	2	2	25	SessionSelectionList									12	113913	-13	0																																													25												
WM080112	125525_fnca	2	1	1	1937365607	1	75.032	75.032	2.0.10.147	2.0.10.242	2.0.10.242	1.0.0.439	7	234	2	3	Verdana	1	80	0	0	0	WM Stimuli\	0.8	1024.625	0.7	964.428571428571	0.6	984.5	0.9	936.444444444444	0.9	843.888888888889	0.6	1027.16666666667	0.7	847.285714285714	0.8	917.125	13	328250	2	328238	27	40	328277	-999999	328253	0	29	TrialsPROC	FC_015_M8.png	2	2	26	SessionSelectionList														nonlure	3	Face	2-Back	22	80	21	0	0	70	3	40	118512	1	13	71	116472	-1	117430	1	958	3	3	2040	53	118525	-54	0																26												
WM080112	125525_fnca	2	1	1	1937365607	1	75.032	75.032	2.0.10.147	2.0.10.242	2.0.10.242	1.0.0.439	7	234	2	3	Verdana	1	80	0	0	0	WM Stimuli\	0.8	1024.625	0.7	964.428571428571	0.6	984.5	0.9	936.444444444444	0.9	843.888888888889	0.6	1027.16666666667	0.7	847.285714285714	0.8	917.125	13	328250	2	328238	27	40	328277	-999999	328253	0	29	TrialsPROC	FC_018_F9.png	2	2	27	SessionSelectionList														nonlure	3	Face	2-Back	23	80	22	0	0	70	4	39	121084	1	14	73	119045	-1	119581	1	536	3	3	2039	53	121098	-54	0																27												
WM080112	125525_fnca	2	1	1	1937365607	1	75.032	75.032	2.0.10.147	2.0.10.242	2.0.10.242	1.0.0.439	7	234	2	3	Verdana	1	80	0	0	0	WM Stimuli\	0.8	1024.625	0.7	964.428571428571	0.6	984.5	0.9	936.444444444444	0.9	843.888888888889	0.6	1027.16666666667	0.7	847.285714285714	0.8	917.125	13	328250	2	328238	27	40	328277	-999999	328253	0	29	TrialsPROC	FC_018_F9.png	2	2	28	SessionSelectionList														lure	3	Face	2-Back	24	80	23	0	0	70	5	39	123656	1	14	72	121617	-1	122413	1	796	3	3	2039	53	123670	-54	0																28												
WM080112	125525_fnca	2	1	1	1937365607	1	75.032	75.032	2.0.10.147	2.0.10.242	2.0.10.242	1.0.0.439	7	234	2	3	Verdana	1	80	0	0	0	WM Stimuli\	0.8	1024.625	0.7	964.428571428571	0.6	984.5	0.9	936.444444444444	0.9	843.888888888889	0.6	1027.16666666667	0.7	847.285714285714	0.8	917.125	13	328250	2	328238	27	40	328277	-999999	328253	0	29	TrialsPROC	FC_017_M9.png	2	2	29	SessionSelectionList														nonlure	3	Face	2-Back	25	80	24	0	0	70	6	39	126228	2	14	72	124189	-1	125130	1	941	3	3	2039	53	126242	-54	0																29												
WM080112	125525_fnca	2	1	1	1937365607	1	75.032	75.032	2.0.10.147	2.0.10.242	2.0.10.242	1.0.0.439	7	234	2	3	Verdana	1	80	0	0	0	WM Stimuli\	0.8	1024.625	0.7	964.428571428571	0.6	984.5	0.9	936.444444444444	0.9	843.888888888889	0.6	1027.16666666667	0.7	847.285714285714	0.8	917.125	13	328250	2	328238	27	40	328277	-999999	328253	0	29	TrialsPROC	FC_017_M9.png	2	2	30	SessionSelectionList														lure	3	Face	2-Back	26	80	25	0	0	70	7	39	128800	2	14	72	126761	-1	127793	1	1032	3	3	2039	53	128814	-54	0																30												
WM080112	125525_fnca	2	1	1	1937365607	1	75.032	75.032	2.0.10.147	2.0.10.242	2.0.10.242	1.0.0.439	7	234	2	3	Verdana	1	80	0	0	0	WM Stimuli\	0.8	1024.625	0.7	964.428571428571	0.6	984.5	0.9	936.444444444444	0.9	843.888888888889	0.6	1027.16666666667	0.7	847.285714285714	0.8	917.125	13	328250	2	328238	27	40	328277	-999999	328253	0	29	TrialsPROC	FC_016_F8.png	2	2	31	SessionSelectionList														nonlure	3	Face	2-Back	27	80	25	0	1	70	7	39	131373	1	14	73	129334	-1	0	0	0	""	3	2039	53	131387	-54	0																31												
WM080112	125525_fnca	2	1	1	1937365607	1	75.032	75.032	2.0.10.147	2.0.10.242	2.0.10.242	1.0.0.439	7	234	2	3	Verdana	1	80	0	0	0	WM Stimuli\	0.8	1024.625	0.7	964.428571428571	0.6	984.5	0.9	936.444444444444	0.9	843.888888888889	0.6	1027.16666666667	0.7	847.285714285714	0.8	917.125	13	328250	2	328238	27	40	328277	-999999	328253	0	29	TrialsPROC	FC_013_M7.png	2	2	32	SessionSelectionList														nonlure	3	Face	2-Back	28	80	25	0	2	70	7	39	133945	1	14	72	131906	-1	0	0	0	""	3	2039	53	133959	-54	0																32												
WM080112	125525_fnca	2	1	1	1937365607	1	75.032	75.032	2.0.10.147	2.0.10.242	2.0.10.242	1.0.0.439	7	234	2	3	Verdana	1	80	0	0	0	WM Stimuli\	0.8	1024.625	0.7	964.428571428571	0.6	984.5	0.9	936.444444444444	0.9	843.888888888889	0.6	1027.16666666667	0.7	847.285714285714	0.8	917.125	13	328250	2	328238	27	40	328277	-999999	328253	0	29	TrialsPROC	FC_014_F7.png	2	2	33	SessionSelectionList														nonlure	3	Face	2-Back	29	80	26	0	0	70	1	39	136517	2	14	72	134478	-1	136122	1	1644	3	3	2039	53	136531	-54	0																33												
WM080112	125525_fnca	2	1	1	1937365607	1	75.032	75.032	2.0.10.147	2.0.10.242	2.0.10.242	1.0.0.439	7	234	2	3	Verdana	1	80	0	0	0	WM Stimuli\	0.8	1024.625	0.7	964.428571428571	0.6	984.5	0.9	936.444444444444	0.9	843.888888888889	0.6	1027.16666666667	0.7	847.285714285714	0.8	917.125	13	328250	2	328238	27	40	328277	-999999	328253	0	29	TrialsPROC	FC_013_M7.png	2	2	34	SessionSelectionList														target	2	Face	2-Back	30	80	26	0	1	70	1	40	139090	1	13	72	137050	-1	0	0	0	""	2	2040	53	139103	-54	0																34												
WM080112	125525_fnca	2	1	1	1937365607	1	75.032	75.032	2.0.10.147	2.0.10.242	2.0.10.242	1.0.0.439	7	234	2	3	Verdana	1	80	0	0	0	WM Stimuli\	0.8	1024.625	0.7	964.428571428571	0.6	984.5	0.9	936.444444444444	0.9	843.888888888889	0.6	1027.16666666667	0.7	847.285714285714	0.8	917.125	13	328250	2	328238	27	40	328277	-999999	328253	0	29	TrialsPROC	FC_014_F7.png	2	2	35	SessionSelectionList														target	2	Face	2-Back	31	80	27	0	0	70	1	39	141662	1	14	73	139623	-1	140487	0	864	3	2	2039	53	141676	-54	0																35												
WM080112	125525_fnca	2	1	1	1937365607	1	75.032	75.032	2.0.10.147	2.0.10.242	2.0.10.242	1.0.0.439	7	234	2	3	Verdana	1	80	0	0	0	WM Stimuli\	0.8	1024.625	0.7	964.428571428571	0.6	984.5	0.9	936.444444444444	0.9	843.888888888889	0.6	1027.16666666667	0.7	847.285714285714	0.8	917.125	13	328250	2	328238	27	40	328277	-999999	328253	0	30	Cue0BackPROC	TO_019_TOOL19_BA.png	2	2	36	SessionSelectionList																																										19	142142	-20	0												36												
WM080112	125525_fnca	2	1	1	1937365607	1	75.032	75.032	2.0.10.147	2.0.10.242	2.0.10.242	1.0.0.439	7	234	2	3	Verdana	1	80	0	0	0	WM Stimuli\	0.8	1024.625	0.7	964.428571428571	0.6	984.5	0.9	936.444444444444	0.9	843.888888888889	0.6	1027.16666666667	0.7	847.285714285714	0.8	917.125	13	328250	2	328238	27	40	328277	-999999	328253	0	31	TrialsPROC	TO_019_TOOL19_BA.png	2	2	37	SessionSelectionList														target	2	Tools	0-Back	32	80	28	0	0	64	2	39	146713	1	14	51	144674	-1	146029	0	1355	3	2	2039	53	146727	-54	0																37												
WM080112	125525_fnca	2	1	1	1937365607	1	75.032	75.032	2.0.10.147	2.0.10.242	2.0.10.242	1.0.0.439	7	234	2	3	Verdana	1	80	0	0	0	WM Stimuli\	0.8	1024.625	0.7	964.428571428571	0.6	984.5	0.9	936.444444444444	0.9	843.888888888889	0.6	1027.16666666667	0.7	847.285714285714	0.8	917.125	13	328250	2	328238	27	40	328277	-999999	328253	0	31	TrialsPROC	TO_024_TOOL24_BA.png	2	2	38	SessionSelectionList														nonlure	3	Tools	0-Back	33	80	29	0	0	67	3	39	149272	1	14	59	147233	-1	148253	1	1020	3	3	2039	53	149286	-54	0																38												
WM080112	125525_fnca	2	1	1	1937365607	1	75.032	75.032	2.0.10.147	2.0.10.242	2.0.10.242	1.0.0.439	7	234	2	3	Verdana	1	80	0	0	0	WM Stimuli\	0.8	1024.625	0.7	964.428571428571	0.6	984.5	0.9	936.444444444444	0.9	843.888888888889	0.6	1027.16666666667	0.7	847.285714285714	0.8	917.125	13	328250	2	328238	27	40	328277	-999999	328253	0	31	TrialsPROC	TO_019_TOOL19_BA.png	2	2	39	SessionSelectionList														target	2	Tools	0-Back	34	80	30	0	0	69	1	39	151831	1	14	59	149792	-1	150585	1	793	2	2	2039	53	151845	-54	0																39												
WM080112	125525_fnca	2	1	1	1937365607	1	75.032	75.032	2.0.10.147	2.0.10.242	2.0.10.242	1.0.0.439	7	234	2	3	Verdana	1	80	0	0	0	WM Stimuli\	0.8	1024.625	0.7	964.428571428571	0.6	984.5	0.9	936.444444444444	0.9	843.888888888889	0.6	1027.16666666667	0.7	847.285714285714	0.8	917.125	13	328250	2	328238	27	40	328277	-999999	328253	0	31	TrialsPROC	TO_023_TOOL23_BA.png	2	2	40	SessionSelectionList														nonlure	3	Tools	0-Back	35	80	31	0	0	71	1	39	154390	1	14	59	152351	-1	153147	1	796	3	3	2039	53	154404	-54	0																40												
WM080112	125525_fnca	2	1	1	1937365607	1	75.032	75.032	2.0.10.147	2.0.10.242	2.0.10.242	1.0.0.439	7	234	2	3	Verdana	1	80	0	0	0	WM Stimuli\	0.8	1024.625	0.7	964.428571428571	0.6	984.5	0.9	936.444444444444	0.9	843.888888888889	0.6	1027.16666666667	0.7	847.285714285714	0.8	917.125	13	328250	2	328238	27	40	328277	-999999	328253	0	31	TrialsPROC	TO_020_TOOL20_BA.png	2	2	41	SessionSelectionList														nonlure	3	Tools	0-Back	36	80	32	0	0	67	1	40	156949	1	13	58	154909	-1	156410	0	1501	2	3	2040	53	156962	-54	0																41												
WM080112	125525_fnca	2	1	1	1937365607	1	75.032	75.032	2.0.10.147	2.0.10.242	2.0.10.242	1.0.0.439	7	234	2	3	Verdana	1	80	0	0	0	WM Stimuli\	0.8	1024.625	0.7	964.428571428571	0.6	984.5	0.9	936.444444444444	0.9	843.888888888889	0.6	1027.16666666667	0.7	847.285714285714	0.8	917.125	13	328250	2	328238	27	40	328277	-999999	328253	0	31	TrialsPROC	TO_020_TOOL20_BA.png	2	2	42	SessionSelectionList														lure	3	Tools	0-Back	37	80	33	0	0	69	1	40	159508	1	13	59	157468	-1	158315	1	847	3	3	2040	53	159521	-54	0																42												
WM080112	125525_fnca	2	1	1	1937365607	1	75.032	75.032	2.0.10.147	2.0.10.242	2.0.10.242	1.0.0.439	7	234	2	3	Verdana	1	80	0	0	0	WM Stimuli\	0.8	1024.625	0.7	964.428571428571	0.6	984.5	0.9	936.444444444444	0.9	843.888888888889	0.6	1027.16666666667	0.7	847.285714285714	0.8	917.125	13	328250	2	328238	27	40	328277	-999999	328253	0	31	TrialsPROC	TO_022_TOOL22_BA.png	2	2	43	SessionSelectionList														nonlure	3	Tools	0-Back	38	80	34	0	0	71	2	39	162066	2	14	59	160027	-1	161108	1	1081	3	3	2039	53	162080	-54	0																43												
WM080112	125525_fnca	2	1	1	1937365607	1	75.032	75.032	2.0.10.147	2.0.10.242	2.0.10.242	1.0.0.439	7	234	2	3	Verdana	1	80	0	0	0	WM Stimuli\	0.8	1024.625	0.7	964.428571428571	0.6	984.5	0.9	936.444444444444	0.9	843.888888888889	0.6	1027.16666666667	0.7	847.285714285714	0.8	917.125	13	328250	2	328238	27	40	328277	-999999	328253	0	31	TrialsPROC	TO_022_TOOL22_BA.png	2	2	44	SessionSelectionList														lure	3	Tools	0-Back	39	80	35	0	0	72	3	39	164625	2	14	59	162586	-1	163569	1	983	3	3	2039	53	164639	-54	0																44												
WM080112	125525_fnca	2	1	1	1937365607	1	75.032	75.032	2.0.10.147	2.0.10.242	2.0.10.242	1.0.0.439	7	234	2	3	Verdana	1	80	0	0	0	WM Stimuli\	0.8	1024.625	0.7	964.428571428571	0.6	984.5	0.9	936.444444444444	0.9	843.888888888889	0.6	1027.16666666667	0.7	847.285714285714	0.8	917.125	13	328250	2	328238	27	40	328277	-999999	328253	0	31	TrialsPROC	TO_021_TOOL21_BA.png	2	2	45	SessionSelectionList														nonlure	3	Tools	0-Back	40	80	36	0	0	74	4	39	167184	2	14	59	165145	-1	166325	1	1180	3	3	2039	53	167198	-54	0																45												
WM080112	125525_fnca	2	1	1	1937365607	1	75.032	75.032	2.0.10.147	2.0.10.242	2.0.10.242	1.0.0.439	7	234	2	3	Verdana	1	80	0	0	0	WM Stimuli\	0.8	1024.625	0.7	964.428571428571	0.6	984.5	0.9	936.444444444444	0.9	843.888888888889	0.6	1027.16666666667	0.7	847.285714285714	0.8	917.125	13	328250	2	328238	27	40	328277	-999999	328253	0	31	TrialsPROC	TO_021_TOOL21_BA.png	2	2	46	SessionSelectionList														lure	3	Tools	0-Back	41	80	37	0	0	75	5	39	169743	2	14	59	167704	-1	168341	1	637	3	3	2039	53	169757	-54	0																46												
WM080112	125525_fnca	2	1	1	1937365607	1	75.032	75.032	2.0.10.147	2.0.10.242	2.0.10.242	1.0.0.439	7	234	2	3	Verdana	1	80	0	0	0	WM Stimuli\	0.8	1024.625	0.7	964.428571428571	0.6	984.5	0.9	936.444444444444	0.9	843.888888888889	0.6	1027.16666666667	0.7	847.285714285714	0.8	917.125	13	328250	2	328238	27	40	328277	-999999	328253	0	32	Fix15secPROC	""	2	2	47	SessionSelectionList																																															6	170210	-7	0							47												
WM080112	125525_fnca	2	1	1	1937365607	1	75.032	75.032	2.0.10.147	2.0.10.242	2.0.10.242	1.0.0.439	7	234	2	3	Verdana	1	80	0	0	0	WM Stimuli\	0.8	1024.625	0.7	964.428571428571	0.6	984.5	0.9	936.444444444444	0.9	843.888888888889	0.6	1027.16666666667	0.7	847.285714285714	0.8	917.125	13	328250	2	328238	27	40	328277	-999999	328253	0	33	Cue2BackPROC	""	2	2	48	SessionSelectionList									13	185217	-14	0																																													48												
WM080112	125525_fnca	2	1	1	1937365607	1	75.032	75.032	2.0.10.147	2.0.10.242	2.0.10.242	1.0.0.439	7	234	2	3	Verdana	1	80	0	0	0	WM Stimuli\	0.8	1024.625	0.7	964.428571428571	0.6	984.5	0.9	936.444444444444	0.9	843.888888888889	0.6	1027.16666666667	0.7	847.285714285714	0.8	917.125	13	328250	2	328238	27	40	328277	-999999	328253	0	34	TrialsPROC	BP_020_H17-T_BA.png	2	2	49	SessionSelectionList														nonlure	3	Body	2-Back	42	80	38	0	0	75	6	39	189815	1	14	72	187776	-1	188673	1	897	3	3	2039	53	189829	-54	0																49												
WM080112	125525_fnca	2	1	1	1937365607	1	75.032	75.032	2.0.10.147	2.0.10.242	2.0.10.242	1.0.0.439	7	234	2	3	Verdana	1	80	0	0	0	WM Stimuli\	0.8	1024.625	0.7	964.428571428571	0.6	984.5	0.9	936.444444444444	0.9	843.888888888889	0.6	1027.16666666667	0.7	847.285714285714	0.8	917.125	13	328250	2	328238	27	40	328277	-999999	328253	0	34	TrialsPROC	BP_019_H14-T_BA.png	2	2	50	SessionSelectionList														nonlure	3	Body	2-Back	43	80	39	0	0	75	7	39	192387	1	14	72	190348	-1	191045	1	697	3	3	2039	53	192401	-54	0																50												
WM080112	125525_fnca	2	1	1	1937365607	1	75.032	75.032	2.0.10.147	2.0.10.242	2.0.10.242	1.0.0.439	7	234	2	3	Verdana	1	80	0	0	0	WM Stimuli\	0.8	1024.625	0.7	964.428571428571	0.6	984.5	0.9	936.444444444444	0.9	843.888888888889	0.6	1027.16666666667	0.7	847.285714285714	0.8	917.125	13	328250	2	328238	27	40	328277	-999999	328253	0	34	TrialsPROC	BP_020_H17-T_BA.png	2	2	51	SessionSelectionList														target	2	Body	2-Back	44	80	40	0	0	75	1	39	194946	1	14	59	192907	-1	193411	1	504	2	2	2039	53	194960	-54	0																51												
WM080112	125525_fnca	2	1	1	1937365607	1	75.032	75.032	2.0.10.147	2.0.10.242	2.0.10.242	1.0.0.439	7	234	2	3	Verdana	1	80	0	0	0	WM Stimuli\	0.8	1024.625	0.7	964.428571428571	0.6	984.5	0.9	936.444444444444	0.9	843.888888888889	0.6	1027.16666666667	0.7	847.285714285714	0.8	917.125	13	328250	2	328238	27	40	328277	-999999	328253	0	34	TrialsPROC	BP_019_H14-T_BA.png	2	2	52	SessionSelectionList														target	2	Body	2-Back	45	80	41	0	0	75	2	39	197505	1	14	59	195466	-1	196867	1	1401	2	2	2039	53	197519	-54	0																52												
WM080112	125525_fnca	2	1	1	1937365607	1	75.032	75.032	2.0.10.147	2.0.10.242	2.0.10.242	1.0.0.439	7	234	2	3	Verdana	1	80	0	0	0	WM Stimuli\	0.8	1024.625	0.7	964.428571428571	0.6	984.5	0.9	936.444444444444	0.9	843.888888888889	0.6	1027.16666666667	0.7	847.285714285714	0.8	917.125	13	328250	2	328238	27	40	328277	-999999	328253	0	34	TrialsPROC	BP_024_H3-T_BA.png	2	2	53	SessionSelectionList														nonlure	3	Body	2-Back	46	80	42	0	0	75	1	39	200077	2	14	72	198038	-1	199240	1	1202	3	3	2039	53	200091	-54	0																53												
WM080112	125525_fnca	2	1	1	1937365607	1	75.032	75.032	2.0.10.147	2.0.10.242	2.0.10.242	1.0.0.439	7	234	2	3	Verdana	1	80	0	0	0	WM Stimuli\	0.8	1024.625	0.7	964.428571428571	0.6	984.5	0.9	936.444444444444	0.9	843.888888888889	0.6	1027.16666666667	0.7	847.285714285714	0.8	917.125	13	328250	2	328238	27	40	328277	-999999	328253	0	34	TrialsPROC	BP_024_H3-T_BA.png	2	2	54	SessionSelectionList														lure	3	Body	2-Back	47	80	43	0	0	75	2	39	202636	2	14	59	200597	-1	201389	1	792	3	3	2039	53	202650	-54	0																54												
WM080112	125525_fnca	2	1	1	1937365607	1	75.032	75.032	2.0.10.147	2.0.10.242	2.0.10.242	1.0.0.439	7	234	2	3	Verdana	1	80	0	0	0	WM Stimuli\	0.8	1024.625	0.7	964.428571428571	0.6	984.5	0.9	936.444444444444	0.9	843.888888888889	0.6	1027.16666666667	0.7	847.285714285714	0.8	917.125	13	328250	2	328238	27	40	328277	-999999	328253	0	34	TrialsPROC	BP_025_H5-T_BA.png	2	2	55	SessionSelectionList														nonlure	3	Body	2-Back	48	80	44	0	0	75	1	39	205195	1	14	59	203156	-1	203718	0	562	2	3	2039	53	205209	-54	0																55												
WM080112	125525_fnca	2	1	1	1937365607	1	75.032	75.032	2.0.10.147	2.0.10.242	2.0.10.242	1.0.0.439	7	234	2	3	Verdana	1	80	0	0	0	WM Stimuli\	0.8	1024.625	0.7	964.428571428571	0.6	984.5	0.9	936.444444444444	0.9	843.888888888889	0.6	1027.16666666667	0.7	847.285714285714	0.8	917.125	13	328250	2	328238	27	40	328277	-999999	328253	0	34	TrialsPROC	BP_023_H25-T_BA.png	2	2	56	SessionSelectionList														nonlure	3	Body	2-Back	49	80	45	0	0	75	2	39	207767	2	14	72	205728	-1	206899	0	1171	2	3	2039	53	207781	-54	0																56												
WM080112	125525_fnca	2	1	1	1937365607	1	75.032	75.032	2.0.10.147	2.0.10.242	2.0.10.242	1.0.0.439	7	234	2	3	Verdana	1	80	0	0	0	WM Stimuli\	0.8	1024.625	0.7	964.428571428571	0.6	984.5	0.9	936.444444444444	0.9	843.888888888889	0.6	1027.16666666667	0.7	847.285714285714	0.8	917.125	13	328250	2	328238	27	40	328277	-999999	328253	0	34	TrialsPROC	BP_022_H24-T_BA.png	2	2	57	SessionSelectionList														nonlure	3	Body	2-Back	50	80	46	0	0	75	1	39	210326	2	14	59	208287	-1	210228	1	1941	3	3	2039	53	210340	-54	0																57												
WM080112	125525_fnca	2	1	1	1937365607	1	75.032	75.032	2.0.10.147	2.0.10.242	2.0.10.242	1.0.0.439	7	234	2	3	Verdana	1	80	0	0	0	WM Stimuli\	0.8	1024.625	0.7	964.428571428571	0.6	984.5	0.9	936.444444444444	0.9	843.888888888889	0.6	1027.16666666667	0.7	847.285714285714	0.8	917.125	13	328250	2	328238	27	40	328277	-999999	328253	0	34	TrialsPROC	BP_022_H24-T_BA.png	2	2	58	SessionSelectionList														lure	3	Body	2-Back	51	80	47	0	0	75	2	39	212885	1	14	59	210846	-1	211609	1	763	3	3	2039	53	212899	-54	0																58												
WM080112	125525_fnca	2	1	1	1937365607	1	75.032	75.032	2.0.10.147	2.0.10.242	2.0.10.242	1.0.0.439	7	234	2	3	Verdana	1	80	0	0	0	WM Stimuli\	0.8	1024.625	0.7	964.428571428571	0.6	984.5	0.9	936.444444444444	0.9	843.888888888889	0.6	1027.16666666667	0.7	847.285714285714	0.8	917.125	13	328250	2	328238	27	40	328277	-999999	328253	0	35	Cue2BackPROC	""	2	2	59	SessionSelectionList									6	213352	-7	0																																													59												
WM080112	125525_fnca	2	1	1	1937365607	1	75.032	75.032	2.0.10.147	2.0.10.242	2.0.10.242	1.0.0.439	7	234	2	3	Verdana	1	80	0	0	0	WM Stimuli\	0.8	1024.625	0.7	964.428571428571	0.6	984.5	0.9	936.444444444444	0.9	843.888888888889	0.6	1027.16666666667	0.7	847.285714285714	0.8	917.125	13	328250	2	328238	27	40	328277	-999999	328253	0	36	TrialsPROC	PL_019_SCENE_05.png	2	2	60	SessionSelectionList														nonlure	3	Place	2-Back	52	80	48	0	0	75	3	40	217950	1	13	64	215910	-1	216759	1	849	3	3	2040	53	217963	-54	0																60												
WM080112	125525_fnca	2	1	1	1937365607	1	75.032	75.032	2.0.10.147	2.0.10.242	2.0.10.242	1.0.0.439	7	234	2	3	Verdana	1	80	0	0	0	WM Stimuli\	0.8	1024.625	0.7	964.428571428571	0.6	984.5	0.9	936.444444444444	0.9	843.888888888889	0.6	1027.16666666667	0.7	847.285714285714	0.8	917.125	13	328250	2	328238	27	40	328277	-999999	328253	0	36	TrialsPROC	PL_017_SCENE_03.png	2	2	61	SessionSelectionList														nonlure	3	Place	2-Back	53	80	49	0	0	75	4	39	220522	1	14	73	218483	-1	219817	1	1334	3	3	2039	53	220536	-54	0																61												
WM080112	125525_fnca	2	1	1	1937365607	1	75.032	75.032	2.0.10.147	2.0.10.242	2.0.10.242	1.0.0.439	7	234	2	3	Verdana	1	80	0	0	0	WM Stimuli\	0.8	1024.625	0.7	964.428571428571	0.6	984.5	0.9	936.444444444444	0.9	843.888888888889	0.6	1027.16666666667	0.7	847.285714285714	0.8	917.125	13	328250	2	328238	27	40	328277	-999999	328253	0	36	TrialsPROC	PL_017_SCENE_03.png	2	2	62	SessionSelectionList														lure	3	Place	2-Back	54	80	50	0	0	75	5	39	223094	2	14	72	221055	-1	221859	1	804	3	3	2039	53	223108	-54	0																62												
WM080112	125525_fnca	2	1	1	1937365607	1	75.032	75.032	2.0.10.147	2.0.10.242	2.0.10.242	1.0.0.439	7	234	2	3	Verdana	1	80	0	0	0	WM Stimuli\	0.8	1024.625	0.7	964.428571428571	0.6	984.5	0.9	936.444444444444	0.9	843.888888888889	0.6	1027.16666666667	0.7	847.285714285714	0.8	917.125	13	328250	2	328238	27	40	328277	-999999	328253	0	36	TrialsPROC	PL_016_SCENE_02.png	2	2	63	SessionSelectionList														nonlure	3	Place	2-Back	55	80	51	0	0	75	6	39	225666	2	14	72	223627	-1	224315	1	688	3	3	2039	53	225680	-54	0																63												
WM080112	125525_fnca	2	1	1	1937365607	1	75.032	75.032	2.0.10.147	2.0.10.242	2.0.10.242	1.0.0.439	7	234	2	3	Verdana	1	80	0	0	0	WM Stimuli\	0.8	1024.625	0.7	964.428571428571	0.6	984.5	0.9	936.444444444444	0.9	843.888888888889	0.6	1027.16666666667	0.7	847.285714285714	0.8	917.125	13	328250	2	328238	27	40	328277	-999999	328253	0	36	TrialsPROC	PL_015_SCENE_01.png	2	2	64	SessionSelectionList														nonlure	3	Place	2-Back	56	80	52	0	0	75	7	40	228239	1	13	72	226199	-1	226939	1	740	3	3	2040	53	228252	-54	0																64												
WM080112	125525_fnca	2	1	1	1937365607	1	75.032	75.032	2.0.10.147	2.0.10.242	2.0.10.242	1.0.0.439	7	234	2	3	Verdana	1	80	0	0	0	WM Stimuli\	0.8	1024.625	0.7	964.428571428571	0.6	984.5	0.9	936.444444444444	0.9	843.888888888889	0.6	1027.16666666667	0.7	847.285714285714	0.8	917.125	13	328250	2	328238	27	40	328277	-999999	328253	0	36	TrialsPROC	PL_016_SCENE_02.png	2	2	65	SessionSelectionList														target	2	Place	2-Back	57	80	53	0	0	75	1	39	230811	1	14	73	228772	-1	229426	1	654	2	2	2039	53	230825	-54	0																65												
WM080112	125525_fnca	2	1	1	1937365607	1	75.032	75.032	2.0.10.147	2.0.10.242	2.0.10.242	1.0.0.439	7	234	2	3	Verdana	1	80	0	0	0	WM Stimuli\	0.8	1024.625	0.7	964.428571428571	0.6	984.5	0.9	936.444444444444	0.9	843.888888888889	0.6	1027.16666666667	0.7	847.285714285714	0.8	917.125	13	328250	2	328238	27	40	328277	-999999	328253	0	36	TrialsPROC	PL_015_SCENE_01.png	2	2	66	SessionSelectionList														target	2	Place	2-Back	58	80	54	0	0	75	1	39	233383	2	14	72	231344	-1	232461	0	1117	3	2	2039	53	233397	-54	0																66												
WM080112	125525_fnca	2	1	1	1937365607	1	75.032	75.032	2.0.10.147	2.0.10.242	2.0.10.242	1.0.0.439	7	234	2	3	Verdana	1	80	0	0	0	WM Stimuli\	0.8	1024.625	0.7	964.428571428571	0.6	984.5	0.9	936.444444444444	0.9	843.888888888889	0.6	1027.16666666667	0.7	847.285714285714	0.8	917.125	13	328250	2	328238	27	40	328277	-999999	328253	0	36	TrialsPROC	PL_020_SCENE_06.png	2	2	67	SessionSelectionList														nonlure	3	Place	2-Back	59	80	55	0	0	75	2	39	235982	1	14	99	233943	-1	234840	1	897	3	3	2039	53	235996	-54	0																67												
WM080112	125525_fnca	2	1	1	1937365607	1	75.032	75.032	2.0.10.147	2.0.10.242	2.0.10.242	1.0.0.439	7	234	2	3	Verdana	1	80	0	0	0	WM Stimuli\	0.8	1024.625	0.7	964.428571428571	0.6	984.5	0.9	936.444444444444	0.9	843.888888888889	0.6	1027.16666666667	0.7	847.285714285714	0.8	917.125	13	328250	2	328238	27	40	328277	-999999	328253	0	36	TrialsPROC	PL_020_SCENE_06.png	2	2	68	SessionSelectionList														lure	3	Place	2-Back	60	80	56	0	0	75	3	39	238554	2	14	72	236515	-1	237226	1	711	3	3	2039	53	238568	-54	0																68												
WM080112	125525_fnca	2	1	1	1937365607	1	75.032	75.032	2.0.10.147	2.0.10.242	2.0.10.242	1.0.0.439	7	234	2	3	Verdana	1	80	0	0	0	WM Stimuli\	0.8	1024.625	0.7	964.428571428571	0.6	984.5	0.9	936.444444444444	0.9	843.888888888889	0.6	1027.16666666667	0.7	847.285714285714	0.8	917.125	13	328250	2	328238	27	40	328277	-999999	328253	0	36	TrialsPROC	PL_018_SCENE_04.png	2	2	69	SessionSelectionList														nonlure	3	Place	2-Back	61	80	57	0	0	75	4	39	241140	1	14	86	239101	-1	240019	1	918	3	3	2039	53	241154	-54	0																69												
WM080112	125525_fnca	2	1	1	1937365607	1	75.032	75.032	2.0.10.147	2.0.10.242	2.0.10.242	1.0.0.439	7	234	2	3	Verdana	1	80	0	0	0	WM Stimuli\	0.8	1024.625	0.7	964.428571428571	0.6	984.5	0.9	936.444444444444	0.9	843.888888888889	0.6	1027.16666666667	0.7	847.285714285714	0.8	917.125	13	328250	2	328238	27	40	328277	-999999	328253	0	37	Fix15secPROC	""	2	2	70	SessionSelectionList																																															6	241607	-7	0							70												
WM080112	125525_fnca	2	1	1	1937365607	1	75.032	75.032	2.0.10.147	2.0.10.242	2.0.10.242	1.0.0.439	7	234	2	3	Verdana	1	80	0	0	0	WM Stimuli\	0.8	1024.625	0.7	964.428571428571	0.6	984.5	0.9	936.444444444444	0.9	843.888888888889	0.6	1027.16666666667	0.7	847.285714285714	0.8	917.125	13	328250	2	328238	27	40	328277	-999999	328253	0	38	Cue0BackPROC	FC_020_F10.png	2	2	71	SessionSelectionList																																										52	256653	-53	0												71												
WM080112	125525_fnca	2	1	1	1937365607	1	75.032	75.032	2.0.10.147	2.0.10.242	2.0.10.242	1.0.0.439	7	234	2	3	Verdana	1	80	0	0	0	WM Stimuli\	0.8	1024.625	0.7	964.428571428571	0.6	984.5	0.9	936.444444444444	0.9	843.888888888889	0.6	1027.16666666667	0.7	847.285714285714	0.8	917.125	13	328250	2	328238	27	40	328277	-999999	328253	0	39	TrialsPROC	FC_024_F12.png	2	2	72	SessionSelectionList														nonlure	3	Face	0-Back	62	80	58	0	0	76	5	39	261238	1	14	98	259199	-1	260415	1	1216	3	3	2039	53	261252	-54	0																72												
WM080112	125525_fnca	2	1	1	1937365607	1	75.032	75.032	2.0.10.147	2.0.10.242	2.0.10.242	1.0.0.439	7	234	2	3	Verdana	1	80	0	0	0	WM Stimuli\	0.8	1024.625	0.7	964.428571428571	0.6	984.5	0.9	936.444444444444	0.9	843.888888888889	0.6	1027.16666666667	0.7	847.285714285714	0.8	917.125	13	328250	2	328238	27	40	328277	-999999	328253	0	39	TrialsPROC	FC_023_M12.png	2	2	73	SessionSelectionList														nonlure	3	Face	0-Back	63	80	59	0	0	77	6	40	263824	1	13	85	261784	-1	262573	1	789	3	3	2040	53	263837	-54	0																73												
WM080112	125525_fnca	2	1	1	1937365607	1	75.032	75.032	2.0.10.147	2.0.10.242	2.0.10.242	1.0.0.439	7	234	2	3	Verdana	1	80	0	0	0	WM Stimuli\	0.8	1024.625	0.7	964.428571428571	0.6	984.5	0.9	936.444444444444	0.9	843.888888888889	0.6	1027.16666666667	0.7	847.285714285714	0.8	917.125	13	328250	2	328238	27	40	328277	-999999	328253	0	39	TrialsPROC	FC_020_F10.png	2	2	74	SessionSelectionList														target	2	Face	0-Back	64	80	60	0	0	78	1	39	266396	1	14	73	264357	-1	265022	1	665	2	2	2039	53	266410	-54	0																74												
WM080112	125525_fnca	2	1	1	1937365607	1	75.032	75.032	2.0.10.147	2.0.10.242	2.0.10.242	1.0.0.439	7	234	2	3	Verdana	1	80	0	0	0	WM Stimuli\	0.8	1024.625	0.7	964.428571428571	0.6	984.5	0.9	936.444444444444	0.9	843.888888888889	0.6	1027.16666666667	0.7	847.285714285714	0.8	917.125	13	328250	2	328238	27	40	328277	-999999	328253	0	39	TrialsPROC	FC_024_F12.png	2	2	75	SessionSelectionList														lure	3	Face	0-Back	65	80	61	0	0	79	1	39	268968	1	14	72	266929	-1	267852	1	923	3	3	2039	53	268982	-54	0																75												
WM080112	125525_fnca	2	1	1	1937365607	1	75.032	75.032	2.0.10.147	2.0.10.242	2.0.10.242	1.0.0.439	7	234	2	3	Verdana	1	80	0	0	0	WM Stimuli\	0.8	1024.625	0.7	964.428571428571	0.6	984.5	0.9	936.444444444444	0.9	843.888888888889	0.6	1027.16666666667	0.7	847.285714285714	0.8	917.125	13	328250	2	328238	27	40	328277	-999999	328253	0	39	TrialsPROC	FC_020_F10.png	2	2	76	SessionSelectionList														target	2	Face	0-Back	66	80	62	0	0	80	1	39	271540	2	14	72	269501	-1	271155	1	1654	2	2	2039	53	271554	-54	0																76												
WM080112	125525_fnca	2	1	1	1937365607	1	75.032	75.032	2.0.10.147	2.0.10.242	2.0.10.242	1.0.0.439	7	234	2	3	Verdana	1	80	0	0	0	WM Stimuli\	0.8	1024.625	0.7	964.428571428571	0.6	984.5	0.9	936.444444444444	0.9	843.888888888889	0.6	1027.16666666667	0.7	847.285714285714	0.8	917.125	13	328250	2	328238	27	40	328277	-999999	328253	0	39	TrialsPROC	FC_022_F11.png	2	2	77	SessionSelectionList														nonlure	3	Face	0-Back	67	80	63	0	0	81	1	39	274139	2	14	99	272100	-1	272835	1	735	3	3	2039	53	274153	-54	0																77												
WM080112	125525_fnca	2	1	1	1937365607	1	75.032	75.032	2.0.10.147	2.0.10.242	2.0.10.242	1.0.0.439	7	234	2	3	Verdana	1	80	0	0	0	WM Stimuli\	0.8	1024.625	0.7	964.428571428571	0.6	984.5	0.9	936.444444444444	0.9	843.888888888889	0.6	1027.16666666667	0.7	847.285714285714	0.8	917.125	13	328250	2	328238	27	40	328277	-999999	328253	0	39	TrialsPROC	FC_023_M12.png	2	2	78	SessionSelectionList														lure	3	Face	0-Back	68	80	64	0	0	78	1	39	276711	2	14	72	274672	-1	275525	0	853	2	3	2039	53	276725	-54	0																78												
WM080112	125525_fnca	2	1	1	1937365607	1	75.032	75.032	2.0.10.147	2.0.10.242	2.0.10.242	1.0.0.439	7	234	2	3	Verdana	1	80	0	0	0	WM Stimuli\	0.8	1024.625	0.7	964.428571428571	0.6	984.5	0.9	936.444444444444	0.9	843.888888888889	0.6	1027.16666666667	0.7	847.285714285714	0.8	917.125	13	328250	2	328238	27	40	328277	-999999	328253	0	39	TrialsPROC	FC_021_M11.png	2	2	79	SessionSelectionList														nonlure	3	Face	0-Back	69	80	65	0	0	79	1	39	279297	1	14	86	277258	-1	277976	1	718	3	3	2039	53	279311	-54	0																79												
WM080112	125525_fnca	2	1	1	1937365607	1	75.032	75.032	2.0.10.147	2.0.10.242	2.0.10.242	1.0.0.439	7	234	2	3	Verdana	1	80	0	0	0	WM Stimuli\	0.8	1024.625	0.7	964.428571428571	0.6	984.5	0.9	936.444444444444	0.9	843.888888888889	0.6	1027.16666666667	0.7	847.285714285714	0.8	917.125	13	328250	2	328238	27	40	328277	-999999	328253	0	39	TrialsPROC	FC_021_M11.png	2	2	80	SessionSelectionList														lure	3	Face	0-Back	70	80	66	0	0	79	2	39	281869	2	14	72	279830	-1	280820	1	990	3	3	2039	53	281883	-54	0																80												
WM080112	125525_fnca	2	1	1	1937365607	1	75.032	75.032	2.0.10.147	2.0.10.242	2.0.10.242	1.0.0.439	7	234	2	3	Verdana	1	80	0	0	0	WM Stimuli\	0.8	1024.625	0.7	964.428571428571	0.6	984.5	0.9	936.444444444444	0.9	843.888888888889	0.6	1027.16666666667	0.7	847.285714285714	0.8	917.125	13	328250	2	328238	27	40	328277	-999999	328253	0	39	TrialsPROC	FC_019_M10.png	2	2	81	SessionSelectionList														nonlure	3	Face	0-Back	71	80	67	0	0	80	3	39	284455	1	14	86	282416	-1	283154	1	738	3	3	2039	53	284469	-54	0																81												
WM080112	125525_fnca	2	1	1	1937365607	1	75.032	75.032	2.0.10.147	2.0.10.242	2.0.10.242	1.0.0.439	7	234	2	3	Verdana	1	80	0	0	0	WM Stimuli\	0.8	1024.625	0.7	964.428571428571	0.6	984.5	0.9	936.444444444444	0.9	843.888888888889	0.6	1027.16666666667	0.7	847.285714285714	0.8	917.125	13	328250	2	328238	27	40	328277	-999999	328253	0	40	Cue0BackPROC	PL_021_SCENE_07.png	2	2	82	SessionSelectionList																																										59	284975	-60	0												82												
WM080112	125525_fnca	2	1	1	1937365607	1	75.032	75.032	2.0.10.147	2.0.10.242	2.0.10.242	1.0.0.439	7	234	2	3	Verdana	1	80	0	0	0	WM Stimuli\	0.8	1024.625	0.7	964.428571428571	0.6	984.5	0.9	936.444444444444	0.9	843.888888888889	0.6	1027.16666666667	0.7	847.285714285714	0.8	917.125	13	328250	2	328238	27	40	328277	-999999	328253	0	41	TrialsPROC	PL_025_SCENE_18.png	2	2	83	SessionSelectionList														nonlure	3	Place	0-Back	72	80	68	0	0	81	4	39	289546	2	14	91	287507	-1	288688	1	1181	3	3	2039	53	289560	-54	0																83												
WM080112	125525_fnca	2	1	1	1937365607	1	75.032	75.032	2.0.10.147	2.0.10.242	2.0.10.242	1.0.0.439	7	234	2	3	Verdana	1	80	0	0	0	WM Stimuli\	0.8	1024.625	0.7	964.428571428571	0.6	984.5	0.9	936.444444444444	0.9	843.888888888889	0.6	1027.16666666667	0.7	847.285714285714	0.8	917.125	13	328250	2	328238	27	40	328277	-999999	328253	0	41	TrialsPROC	PL_026_SCENE_24.png	2	2	84	SessionSelectionList														nonlure	3	Place	0-Back	73	80	69	0	0	81	5	39	292132	1	14	86	290093	-1	290982	1	889	3	3	2039	53	292146	-54	0																84												
WM080112	125525_fnca	2	1	1	1937365607	1	75.032	75.032	2.0.10.147	2.0.10.242	2.0.10.242	1.0.0.439	7	234	2	3	Verdana	1	80	0	0	0	WM Stimuli\	0.8	1024.625	0.7	964.428571428571	0.6	984.5	0.9	936.444444444444	0.9	843.888888888889	0.6	1027.16666666667	0.7	847.285714285714	0.8	917.125	13	328250	2	328238	27	40	328277	-999999	328253	0	41	TrialsPROC	PL_025_SCENE_18.png	2	2	85	SessionSelectionList														lure	3	Place	0-Back	74	80	70	0	0	82	6	39	294704	1	14	72	292665	-1	293853	1	1188	3	3	2039	53	294718	-54	0																85												
WM080112	125525_fnca	2	1	1	1937365607	1	75.032	75.032	2.0.10.147	2.0.10.242	2.0.10.242	1.0.0.439	7	234	2	3	Verdana	1	80	0	0	0	WM Stimuli\	0.8	1024.625	0.7	964.428571428571	0.6	984.5	0.9	936.444444444444	0.9	843.888888888889	0.6	1027.16666666667	0.7	847.285714285714	0.8	917.125	13	328250	2	328238	27	40	328277	-999999	328253	0	41	TrialsPROC	PL_022_SCENE_08.png	2	2	86	SessionSelectionList														nonlure	3	Place	0-Back	75	80	71	0	0	82	7	39	297303	2	14	99	295264	-1	296082	1	818	3	3	2039	53	297317	-54	0																86												
WM080112	125525_fnca	2	1	1	1937365607	1	75.032	75.032	2.0.10.147	2.0.10.242	2.0.10.242	1.0.0.439	7	234	2	3	Verdana	1	80	0	0	0	WM Stimuli\	0.8	1024.625	0.7	964.428571428571	0.6	984.5	0.9	936.444444444444	0.9	843.888888888889	0.6	1027.16666666667	0.7	847.285714285714	0.8	917.125	13	328250	2	328238	27	40	328277	-999999	328253	0	41	TrialsPROC	PL_026_SCENE_24.png	2	2	87	SessionSelectionList														lure	3	Place	0-Back	76	80	72	0	0	80	1	39	299875	1	14	72	297836	-1	298795	0	959	2	3	2039	53	299889	-54	0																87												
WM080112	125525_fnca	2	1	1	1937365607	1	75.032	75.032	2.0.10.147	2.0.10.242	2.0.10.242	1.0.0.439	7	234	2	3	Verdana	1	80	0	0	0	WM Stimuli\	0.8	1024.625	0.7	964.428571428571	0.6	984.5	0.9	936.444444444444	0.9	843.888888888889	0.6	1027.16666666667	0.7	847.285714285714	0.8	917.125	13	328250	2	328238	27	40	328277	-999999	328253	0	41	TrialsPROC	PL_021_SCENE_07.png	2	2	88	SessionSelectionList														target	2	Place	0-Back	77	80	73	0	0	78	1	39	302447	2	14	72	300408	-1	301271	0	863	3	2	2039	53	302461	-54	0																88												
WM080112	125525_fnca	2	1	1	1937365607	1	75.032	75.032	2.0.10.147	2.0.10.242	2.0.10.242	1.0.0.439	7	234	2	3	Verdana	1	80	0	0	0	WM Stimuli\	0.8	1024.625	0.7	964.428571428571	0.6	984.5	0.9	936.444444444444	0.9	843.888888888889	0.6	1027.16666666667	0.7	847.285714285714	0.8	917.125	13	328250	2	328238	27	40	328277	-999999	328253	0	41	TrialsPROC	PL_021_SCENE_07.png	2	2	89	SessionSelectionList														target	2	Place	0-Back	78	80	74	0	0	76	2	40	305020	1	13	72	302980	-1	303795	0	815	3	2	2040	53	305033	-54	0																89												
WM080112	125525_fnca	2	1	1	1937365607	1	75.032	75.032	2.0.10.147	2.0.10.242	2.0.10.242	1.0.0.439	7	234	2	3	Verdana	1	80	0	0	0	WM Stimuli\	0.8	1024.625	0.7	964.428571428571	0.6	984.5	0.9	936.444444444444	0.9	843.888888888889	0.6	1027.16666666667	0.7	847.285714285714	0.8	917.125	13	328250	2	328238	27	40	328277	-999999	328253	0	41	TrialsPROC	PL_023_SCENE_09.png	2	2	90	SessionSelectionList														nonlure	3	Place	0-Back	79	80	75	0	0	76	3	39	307618	2	14	99	305579	-1	306399	1	820	3	3	2039	53	307632	-54	0																90												
WM080112	125525_fnca	2	1	1	1937365607	1	75.032	75.032	2.0.10.147	2.0.10.242	2.0.10.242	1.0.0.439	7	234	2	3	Verdana	1	80	0	0	0	WM Stimuli\	0.8	1024.625	0.7	964.428571428571	0.6	984.5	0.9	936.444444444444	0.9	843.888888888889	0.6	1027.16666666667	0.7	847.285714285714	0.8	917.125	13	328250	2	328238	27	40	328277	-999999	328253	0	41	TrialsPROC	PL_024_SCENE_10.png	2	2	91	SessionSelectionList														nonlure	3	Place	0-Back	80	80	76	0	0	77	4	39	310204	1	14	86	308165	-1	309432	1	1267	3	3	2039	53	310218	-54	0																91												
WM080112	125525_fnca	2	1	1	1937365607	1	75.032	75.032	2.0.10.147	2.0.10.242	2.0.10.242	1.0.0.439	7	234	2	3	Verdana	1	80	0	0	0	WM Stimuli\	0.8	1024.625	0.7	964.428571428571	0.6	984.5	0.9	936.444444444444	0.9	843.888888888889	0.6	1027.16666666667	0.7	847.285714285714	0.8	917.125	13	328250	2	328238	27	40	328277	-999999	328253	0	41	TrialsPROC	PL_022_SCENE_08.png	2	2	92	SessionSelectionList														lure	3	Place	0-Back	80	80	77	0	0	75	1	39	312776	2	14	72	310737	-1	311914	0	1177	2	3	2039	53	312790	-54	0																92												
WM080112	125525_fnca	2	1	1	1937365607	1	75.032	75.032	2.0.10.147	2.0.10.242	2.0.10.242	1.0.0.439	7	234	2	3	Verdana	1	80	0	0	0	WM Stimuli\	0.8	1024.625	0.7	964.428571428571	0.6	984.5	0.9	936.444444444444	0.9	843.888888888889	0.6	1027.16666666667	0.7	847.285714285714	0.8	917.125	13	328250	2	328238	27	40	328277	-999999	328253	0	42	Fix15secPROC	""	2	2	93	SessionSelectionList																																															6	313243	-7	0							93												
