ExperimentName	HCPID	RunNumber	Subject	Session	RandomSeed	Group	Laptop.RefreshRate	ScannerD2.RefreshRate	StudioVersion	RuntimeVersion	RuntimeVersionExpected	ExperimentVersion	triggercode	Allowed	Target	Nontarget	FontStyle	RunTrialNumber[Session]	TrialsPerRun[Session]	TotalRespGreater200[Session]	ConsecRTLess200[Session]	ConsecNonResp[Session]	StimuliDir	ACC_2_Back_Body	Avg_RT_For_Correct_Trials_2_Back_Body	ACC_0_Back_Body	Avg_RT_For_Correct_Trials_0_Back_Body	ACC_2_Back_Face	Avg_RT_For_Correct_Trials_2_Back_Face	ACC_0_Back_Face	Avg_RT_For_Correct_Trials_0_Back_Face	ACC_2_Back_Place	Avg_RT_For_Correct_Trials_2_Back_Place	ACC_0_Back_Place	Avg_RT_For_Correct_Trials_0_Back_Place	ACC_2_Back_Tools	Avg_RT_For_Correct_Trials_2_Back_Tools	ACC_0_Back_Tools	Avg_RT_For_Correct_Trials_0_Back_Tools	ExpInstrucFeelFreeToRest.OnsetDelay	ExpInstrucFeelFreeToRest.OnsetTime	ExpInstrucFeelFreeToRest.DurationError	ExpInstrucFeelFreeToRest.StartTime	ExpInstrucFeelFreeToRest.OnsetToOnsetTime	FeelFreeToRest.OnsetDelay	FeelFreeToRest.OnsetTime	FeelFreeToRest.DurationError	FeelFreeToRest.StartTime	FeelFreeToRest.OnsetToOnsetTime	SessionSelectionList	Procedure[Block]	Stimulus[Block]	RunNumberFilterValue	SessionSelectionList.Cycle	SessionSelectionList.Sample	Running[Block]	IntroButtonMap.OnsetDelay	IntroButtonMap.OnsetTime	IntroButtonMap.DurationError	IntroButtonMap.OnsetToOnsetTime	GetReady.OnsetDelay	GetReady.OnsetTime	GetReady.DurationError	GetReady.OnsetToOnsetTime	Cue2Back.OnsetDelay	Cue2Back.OnsetTime	Cue2Back.DurationError	Cue2Back.OnsetToOnsetTime	Run1Block1	TargetType	CorrectResponse	StimType	BlockType	RunTrialNumber[Block]	TrialsPerRun[Block]	TotalRespGreater200[Block]	ConsecRTLess200[Block]	ConsecNonResp[Block]	ControlAcc	ConsecSameResp	ExperimenterWindow.OnsetDelay	ExperimenterWindow.OnsetTime	ExperimenterWindow.DurationError	ExperimenterWindow.OnsetToOnsetTime	Stim.OnsetDelay	Stim.OnsetTime	Stim.DurationError	Stim.RTTime	Stim.ACC	Stim.RT	Stim.RESP	Stim.CRESP	Stim.OnsetToOnsetTime	Fix.OnsetDelay	Fix.OnsetTime	Fix.DurationError	Fix.OnsetToOnsetTime	CueTarget.OnsetDelay	CueTarget.OnsetTime	CueTarget.DurationError	CueTarget.OnsetToOnsetTime	Run1Block2	Fix15sec.OnsetDelay	Fix15sec.OnsetTime	Fix15sec.DurationError	Fix15sec.OnsetToOnsetTime	Run1Block3	Run1Block4	Run1Block5	Run1Block6	Run1Block7	Run1Block8	Block	Procedure[Trial]	Stimulus[Trial]	ReadyList	Running[Trial]	ReadyList.Cycle	ReadyList.Sample	SyncSlide.OnsetDelay	SyncSlide.OnsetTime	SyncSlide.DurationError	SyncSlide.FinishTime	SyncSlide.OnsetToOnsetTime	Trial
WM080112	100408_fnca	2	1	1	-1827561185	1	75.033	75.031	2.0.10.147	2.0.10.242	2.0.10.242	1.0.0.439	7	234	2	3	Verdana	1	80	0	0	0	WM Stimuli\	0.9	971.444444444444	0.8	774.875	1	971.2	1	706.9	1	1037.5	1	756.5	0.9	1067.11111111111	1	824.3	13	313835	2	313823	27	40	313862	-999999	313838	0	22	TRSyncPROC	""	2	2	1	SessionSelectionList	105	5947	-999999	0	40	7946	-999999	0																																																	1	InitialTR	4	1	ReadyList	1	1	10	20567	-11	22556	0	1
WM080112	100408_fnca	2	1	1	-1827561185	1	75.033	75.031	2.0.10.147	2.0.10.242	2.0.10.242	1.0.0.439	7	234	2	3	Verdana	1	80	0	0	0	WM Stimuli\	0.9	971.444444444444	0.8	774.875	1	971.2	1	706.9	1	1037.5	1	756.5	0.9	1067.11111111111	1	824.3	13	313835	2	313823	27	40	313862	-999999	313838	0	22	TRSyncPROC	""	2	2	1	SessionSelectionList	105	5947	-999999	0	40	7946	-999999	0																																																	1	InitialTR	3	2	ReadyList	1	2	10	22567	-11	24556	0	2
WM080112	100408_fnca	2	1	1	-1827561185	1	75.033	75.031	2.0.10.147	2.0.10.242	2.0.10.242	1.0.0.439	7	234	2	3	Verdana	1	80	0	0	0	WM Stimuli\	0.9	971.444444444444	0.8	774.875	1	971.2	1	706.9	1	1037.5	1	756.5	0.9	1067.11111111111	1	824.3	13	313835	2	313823	27	40	313862	-999999	313838	0	22	TRSyncPROC	""	2	2	1	SessionSelectionList	105	5947	-999999	0	40	7946	-999999	0																																																	1	InitialTR	2	3	ReadyList	1	3	9	24566	-10	26556	0	3
WM080112	100408_fnca	2	1	1	-1827561185	1	75.033	75.031	2.0.10.147	2.0.10.242	2.0.10.242	1.0.0.439	7	234	2	3	Verdana	1	80	0	0	0	WM Stimuli\	0.9	971.444444444444	0.8	774.875	1	971.2	1	706.9	1	1037.5	1	756.5	0.9	1067.11111111111	1	824.3	13	313835	2	313823	27	40	313862	-999999	313838	0	22	TRSyncPROC	""	2	2	1	SessionSelectionList	105	5947	-999999	0	40	7946	-999999	0																																																	1	InitialTR	1	4	ReadyList	1	4	8	26565	-9	28556	0	4
WM080112	100408_fnca	2	1	1	-1827561185	1	75.033	75.031	2.0.10.147	2.0.10.242	2.0.10.242	1.0.0.439	7	234	2	3	Verdana	1	80	0	0	0	WM Stimuli\	0.9	971.444444444444	0.8	774.875	1	971.2	1	706.9	1	1037.5	1	756.5	0.9	1067.11111111111	1	824.3	13	313835	2	313823	27	40	313862	-999999	313838	0	23	Cue2BackPROC	""	2	2	2	SessionSelectionList									7	28564	-8	0																																													2												
WM080112	100408_fnca	2	1	1	-1827561185	1	75.033	75.031	2.0.10.147	2.0.10.242	2.0.10.242	1.0.0.439	7	234	2	3	Verdana	1	80	0	0	0	WM Stimuli\	0.9	971.444444444444	0.8	774.875	1	971.2	1	706.9	1	1037.5	1	756.5	0.9	1067.11111111111	1	824.3	13	313835	2	313823	27	40	313862	-999999	313838	0	24	TrialsPROC	TO_014_TOOL14_BA.png	2	2	3	SessionSelectionList														nonlure	3	Tools	2-Back	2	80	1	0	0	0	1	53	33189	3	14	79	31136	-1	32073	1	937	3	3	2053	67	33203	-68	0																3												
WM080112	100408_fnca	2	1	1	-1827561185	1	75.033	75.031	2.0.10.147	2.0.10.242	2.0.10.242	1.0.0.439	7	234	2	3	Verdana	1	80	0	0	0	WM Stimuli\	0.9	971.444444444444	0.8	774.875	1	971.2	1	706.9	1	1037.5	1	756.5	0.9	1067.11111111111	1	824.3	13	313835	2	313823	27	40	313862	-999999	313838	0	24	TrialsPROC	TO_013_TOOL13_BA.png	2	2	4	SessionSelectionList														nonlure	3	Tools	2-Back	3	80	2	0	0	0	2	40	35735	2	13	59	33695	-1	34612	1	917	3	3	2040	53	35748	-54	0																4												
WM080112	100408_fnca	2	1	1	-1827561185	1	75.033	75.031	2.0.10.147	2.0.10.242	2.0.10.242	1.0.0.439	7	234	2	3	Verdana	1	80	0	0	0	WM Stimuli\	0.9	971.444444444444	0.8	774.875	1	971.2	1	706.9	1	1037.5	1	756.5	0.9	1067.11111111111	1	824.3	13	313835	2	313823	27	40	313862	-999999	313838	0	24	TrialsPROC	TO_016_TOOL16_BA.png	2	2	5	SessionSelectionList														nonlure	3	Tools	2-Back	4	80	3	0	0	0	3	39	38294	1	13	60	36255	-1	37294	1	1039	3	3	2039	52	38307	-53	0																5												
WM080112	100408_fnca	2	1	1	-1827561185	1	75.033	75.031	2.0.10.147	2.0.10.242	2.0.10.242	1.0.0.439	7	234	2	3	Verdana	1	80	0	0	0	WM Stimuli\	0.9	971.444444444444	0.8	774.875	1	971.2	1	706.9	1	1037.5	1	756.5	0.9	1067.11111111111	1	824.3	13	313835	2	313823	27	40	313862	-999999	313838	0	24	TrialsPROC	TO_014_TOOL14_BA.png	2	2	6	SessionSelectionList														lure	3	Tools	2-Back	5	80	4	0	0	0	4	39	40866	1	14	72	38827	-1	40221	1	1394	3	3	2039	53	40880	-54	0																6												
WM080112	100408_fnca	2	1	1	-1827561185	1	75.033	75.031	2.0.10.147	2.0.10.242	2.0.10.242	1.0.0.439	7	234	2	3	Verdana	1	80	0	0	0	WM Stimuli\	0.9	971.444444444444	0.8	774.875	1	971.2	1	706.9	1	1037.5	1	756.5	0.9	1067.11111111111	1	824.3	13	313835	2	313823	27	40	313862	-999999	313838	0	24	TrialsPROC	TO_016_TOOL16_BA.png	2	2	7	SessionSelectionList														target	2	Tools	2-Back	6	80	5	0	0	0	1	39	43425	1	14	59	41386	-1	42583	1	1197	2	2	2039	53	43439	-54	0																7												
WM080112	100408_fnca	2	1	1	-1827561185	1	75.033	75.031	2.0.10.147	2.0.10.242	2.0.10.242	1.0.0.439	7	234	2	3	Verdana	1	80	0	0	0	WM Stimuli\	0.9	971.444444444444	0.8	774.875	1	971.2	1	706.9	1	1037.5	1	756.5	0.9	1067.11111111111	1	824.3	13	313835	2	313823	27	40	313862	-999999	313838	0	24	TrialsPROC	TO_018_TOOL18_BA.png	2	2	8	SessionSelectionList														nonlure	3	Tools	2-Back	7	80	6	0	0	0	1	39	45984	1	14	59	43945	-1	45034	1	1089	3	3	2039	53	45998	-54	0																8												
WM080112	100408_fnca	2	1	1	-1827561185	1	75.033	75.031	2.0.10.147	2.0.10.242	2.0.10.242	1.0.0.439	7	234	2	3	Verdana	1	80	0	0	0	WM Stimuli\	0.9	971.444444444444	0.8	774.875	1	971.2	1	706.9	1	1037.5	1	756.5	0.9	1067.11111111111	1	824.3	13	313835	2	313823	27	40	313862	-999999	313838	0	24	TrialsPROC	TO_017_TOOL17_BA.png	2	2	9	SessionSelectionList														nonlure	3	Tools	2-Back	8	80	7	0	0	0	2	39	48543	1	13	59	46504	-1	47626	1	1122	3	3	2039	52	48556	-53	0																9												
WM080112	100408_fnca	2	1	1	-1827561185	1	75.033	75.031	2.0.10.147	2.0.10.242	2.0.10.242	1.0.0.439	7	234	2	3	Verdana	1	80	0	0	0	WM Stimuli\	0.9	971.444444444444	0.8	774.875	1	971.2	1	706.9	1	1037.5	1	756.5	0.9	1067.11111111111	1	824.3	13	313835	2	313823	27	40	313862	-999999	313838	0	24	TrialsPROC	TO_018_TOOL18_BA.png	2	2	10	SessionSelectionList														target	2	Tools	2-Back	9	80	8	0	0	0	1	39	51102	1	13	59	49063	-1	49747	1	684	2	2	2039	52	51115	-53	0																10												
WM080112	100408_fnca	2	1	1	-1827561185	1	75.033	75.031	2.0.10.147	2.0.10.242	2.0.10.242	1.0.0.439	7	234	2	3	Verdana	1	80	0	0	0	WM Stimuli\	0.9	971.444444444444	0.8	774.875	1	971.2	1	706.9	1	1037.5	1	756.5	0.9	1067.11111111111	1	824.3	13	313835	2	313823	27	40	313862	-999999	313838	0	24	TrialsPROC	TO_015_TOOL15_BA.png	2	2	11	SessionSelectionList														nonlure	3	Tools	2-Back	10	80	9	0	0	0	1	39	53661	1	13	59	51622	-1	52847	1	1225	3	3	2039	52	53674	-53	0																11												
WM080112	100408_fnca	2	1	1	-1827561185	1	75.033	75.031	2.0.10.147	2.0.10.242	2.0.10.242	1.0.0.439	7	234	2	3	Verdana	1	80	0	0	0	WM Stimuli\	0.9	971.444444444444	0.8	774.875	1	971.2	1	706.9	1	1037.5	1	756.5	0.9	1067.11111111111	1	824.3	13	313835	2	313823	27	40	313862	-999999	313838	0	24	TrialsPROC	TO_017_TOOL17_BA.png	2	2	12	SessionSelectionList														lure	3	Tools	2-Back	11	80	10	0	0	0	1	40	56220	1	13	58	54180	-1	55961	0	1781	2	3	2040	53	56233	-54	0																12												
WM080112	100408_fnca	2	1	1	-1827561185	1	75.033	75.031	2.0.10.147	2.0.10.242	2.0.10.242	1.0.0.439	7	234	2	3	Verdana	1	80	0	0	0	WM Stimuli\	0.9	971.444444444444	0.8	774.875	1	971.2	1	706.9	1	1037.5	1	756.5	0.9	1067.11111111111	1	824.3	13	313835	2	313823	27	40	313862	-999999	313838	0	25	Cue0BackPROC	BP_013_BP7_BA.png	2	2	13	SessionSelectionList																																										19	56699	-20	0												13												
WM080112	100408_fnca	2	1	1	-1827561185	1	75.033	75.031	2.0.10.147	2.0.10.242	2.0.10.242	1.0.0.439	7	234	2	3	Verdana	1	80	0	0	0	WM Stimuli\	0.9	971.444444444444	0.8	774.875	1	971.2	1	706.9	1	1037.5	1	756.5	0.9	1067.11111111111	1	824.3	13	313835	2	313823	27	40	313862	-999999	313838	0	26	TrialsPROC	BP_015_H10-T_BA.png	2	2	14	SessionSelectionList														nonlure	3	Body	0-Back	12	80	10	0	1	0	1	39	61271	1	14	52	59232	-1	0	0	0	""	3	2039	53	61285	-54	0																14												
WM080112	100408_fnca	2	1	1	-1827561185	1	75.033	75.031	2.0.10.147	2.0.10.242	2.0.10.242	1.0.0.439	7	234	2	3	Verdana	1	80	0	0	0	WM Stimuli\	0.9	971.444444444444	0.8	774.875	1	971.2	1	706.9	1	1037.5	1	756.5	0.9	1067.11111111111	1	824.3	13	313835	2	313823	27	40	313862	-999999	313838	0	26	TrialsPROC	BP_018_H13-T_BA.png	2	2	15	SessionSelectionList														nonlure	3	Body	0-Back	13	80	11	0	0	50	1	39	63830	1	14	59	61791	-1	62514	1	723	3	3	2039	53	63844	-54	0																15												
WM080112	100408_fnca	2	1	1	-1827561185	1	75.033	75.031	2.0.10.147	2.0.10.242	2.0.10.242	1.0.0.439	7	234	2	3	Verdana	1	80	0	0	0	WM Stimuli\	0.9	971.444444444444	0.8	774.875	1	971.2	1	706.9	1	1037.5	1	756.5	0.9	1067.11111111111	1	824.3	13	313835	2	313823	27	40	313862	-999999	313838	0	26	TrialsPROC	BP_014_BP9_BA.png	2	2	16	SessionSelectionList														nonlure	3	Body	0-Back	14	80	12	0	0	67	2	39	66389	1	14	59	64350	-1	65565	1	1215	3	3	2039	53	66403	-54	0																16												
WM080112	100408_fnca	2	1	1	-1827561185	1	75.033	75.031	2.0.10.147	2.0.10.242	2.0.10.242	1.0.0.439	7	234	2	3	Verdana	1	80	0	0	0	WM Stimuli\	0.9	971.444444444444	0.8	774.875	1	971.2	1	706.9	1	1037.5	1	756.5	0.9	1067.11111111111	1	824.3	13	313835	2	313823	27	40	313862	-999999	313838	0	26	TrialsPROC	BP_018_H13-T_BA.png	2	2	17	SessionSelectionList														lure	3	Body	0-Back	15	80	13	0	0	75	3	39	68948	1	14	59	66909	-1	67448	1	539	3	3	2039	53	68962	-54	0																17												
WM080112	100408_fnca	2	1	1	-1827561185	1	75.033	75.031	2.0.10.147	2.0.10.242	2.0.10.242	1.0.0.439	7	234	2	3	Verdana	1	80	0	0	0	WM Stimuli\	0.9	971.444444444444	0.8	774.875	1	971.2	1	706.9	1	1037.5	1	756.5	0.9	1067.11111111111	1	824.3	13	313835	2	313823	27	40	313862	-999999	313838	0	26	TrialsPROC	BP_013_BP7_BA.png	2	2	18	SessionSelectionList														target	2	Body	0-Back	16	80	14	0	0	60	4	39	71507	1	14	59	69468	-1	70064	0	596	3	2	2039	53	71521	-54	0																18												
WM080112	100408_fnca	2	1	1	-1827561185	1	75.033	75.031	2.0.10.147	2.0.10.242	2.0.10.242	1.0.0.439	7	234	2	3	Verdana	1	80	0	0	0	WM Stimuli\	0.9	971.444444444444	0.8	774.875	1	971.2	1	706.9	1	1037.5	1	756.5	0.9	1067.11111111111	1	824.3	13	313835	2	313823	27	40	313862	-999999	313838	0	26	TrialsPROC	BP_015_H10-T_BA.png	2	2	19	SessionSelectionList														lure	3	Body	0-Back	17	80	15	0	0	67	5	39	74066	1	13	59	72027	-1	72802	1	775	3	3	2039	52	74079	-53	0																19												
WM080112	100408_fnca	2	1	1	-1827561185	1	75.033	75.031	2.0.10.147	2.0.10.242	2.0.10.242	1.0.0.439	7	234	2	3	Verdana	1	80	0	0	0	WM Stimuli\	0.9	971.444444444444	0.8	774.875	1	971.2	1	706.9	1	1037.5	1	756.5	0.9	1067.11111111111	1	824.3	13	313835	2	313823	27	40	313862	-999999	313838	0	26	TrialsPROC	BP_016_H11-T_BA.png	2	2	20	SessionSelectionList														nonlure	3	Body	0-Back	18	80	16	0	0	71	6	39	76638	1	14	72	74599	-1	75331	1	732	3	3	2039	53	76652	-54	0																20												
WM080112	100408_fnca	2	1	1	-1827561185	1	75.033	75.031	2.0.10.147	2.0.10.242	2.0.10.242	1.0.0.439	7	234	2	3	Verdana	1	80	0	0	0	WM Stimuli\	0.9	971.444444444444	0.8	774.875	1	971.2	1	706.9	1	1037.5	1	756.5	0.9	1067.11111111111	1	824.3	13	313835	2	313823	27	40	313862	-999999	313838	0	26	TrialsPROC	BP_013_BP7_BA.png	2	2	21	SessionSelectionList														target	2	Body	0-Back	19	80	17	0	0	75	1	39	79197	1	14	59	77158	-1	78046	1	888	2	2	2039	53	79211	-54	0																21												
WM080112	100408_fnca	2	1	1	-1827561185	1	75.033	75.031	2.0.10.147	2.0.10.242	2.0.10.242	1.0.0.439	7	234	2	3	Verdana	1	80	0	0	0	WM Stimuli\	0.9	971.444444444444	0.8	774.875	1	971.2	1	706.9	1	1037.5	1	756.5	0.9	1067.11111111111	1	824.3	13	313835	2	313823	27	40	313862	-999999	313838	0	26	TrialsPROC	BP_017_H12-T_BA.png	2	2	22	SessionSelectionList														nonlure	3	Body	0-Back	20	80	18	0	0	78	1	39	81756	1	14	59	79717	-1	80307	1	590	3	3	2039	53	81770	-54	0																22												
WM080112	100408_fnca	2	1	1	-1827561185	1	75.033	75.031	2.0.10.147	2.0.10.242	2.0.10.242	1.0.0.439	7	234	2	3	Verdana	1	80	0	0	0	WM Stimuli\	0.9	971.444444444444	0.8	774.875	1	971.2	1	706.9	1	1037.5	1	756.5	0.9	1067.11111111111	1	824.3	13	313835	2	313823	27	40	313862	-999999	313838	0	26	TrialsPROC	BP_014_BP9_BA.png	2	2	23	SessionSelectionList														lure	3	Body	0-Back	21	80	19	0	0	80	2	39	84315	1	14	59	82276	-1	83013	1	737	3	3	2039	53	84329	-54	0																23												
WM080112	100408_fnca	2	1	1	-1827561185	1	75.033	75.031	2.0.10.147	2.0.10.242	2.0.10.242	1.0.0.439	7	234	2	3	Verdana	1	80	0	0	0	WM Stimuli\	0.9	971.444444444444	0.8	774.875	1	971.2	1	706.9	1	1037.5	1	756.5	0.9	1067.11111111111	1	824.3	13	313835	2	313823	27	40	313862	-999999	313838	0	27	Fix15secPROC	""	2	2	24	SessionSelectionList																																															6	84782	-7	0							24												
WM080112	100408_fnca	2	1	1	-1827561185	1	75.033	75.031	2.0.10.147	2.0.10.242	2.0.10.242	1.0.0.439	7	234	2	3	Verdana	1	80	0	0	0	WM Stimuli\	0.9	971.444444444444	0.8	774.875	1	971.2	1	706.9	1	1037.5	1	756.5	0.9	1067.11111111111	1	824.3	13	313835	2	313823	27	40	313862	-999999	313838	0	28	Cue2BackPROC	""	2	2	25	SessionSelectionList									13	99789	-14	0																																													25												
WM080112	100408_fnca	2	1	1	-1827561185	1	75.033	75.031	2.0.10.147	2.0.10.242	2.0.10.242	1.0.0.439	7	234	2	3	Verdana	1	80	0	0	0	WM Stimuli\	0.9	971.444444444444	0.8	774.875	1	971.2	1	706.9	1	1037.5	1	756.5	0.9	1067.11111111111	1	824.3	13	313835	2	313823	27	40	313862	-999999	313838	0	29	TrialsPROC	FC_015_M8.png	2	2	26	SessionSelectionList														nonlure	3	Face	2-Back	22	80	20	0	0	80	3	39	104387	1	14	72	102348	-1	103272	1	924	3	3	2039	53	104401	-54	0																26												
WM080112	100408_fnca	2	1	1	-1827561185	1	75.033	75.031	2.0.10.147	2.0.10.242	2.0.10.242	1.0.0.439	7	234	2	3	Verdana	1	80	0	0	0	WM Stimuli\	0.9	971.444444444444	0.8	774.875	1	971.2	1	706.9	1	1037.5	1	756.5	0.9	1067.11111111111	1	824.3	13	313835	2	313823	27	40	313862	-999999	313838	0	29	TrialsPROC	FC_018_F9.png	2	2	27	SessionSelectionList														nonlure	3	Face	2-Back	23	80	21	0	0	80	4	39	106959	1	14	72	104920	-1	105919	1	999	3	3	2039	53	106973	-54	0																27												
WM080112	100408_fnca	2	1	1	-1827561185	1	75.033	75.031	2.0.10.147	2.0.10.242	2.0.10.242	1.0.0.439	7	234	2	3	Verdana	1	80	0	0	0	WM Stimuli\	0.9	971.444444444444	0.8	774.875	1	971.2	1	706.9	1	1037.5	1	756.5	0.9	1067.11111111111	1	824.3	13	313835	2	313823	27	40	313862	-999999	313838	0	29	TrialsPROC	FC_018_F9.png	2	2	28	SessionSelectionList														lure	3	Face	2-Back	24	80	22	0	0	80	5	39	109531	2	14	72	107492	-1	108477	1	985	3	3	2039	53	109545	-54	0																28												
WM080112	100408_fnca	2	1	1	-1827561185	1	75.033	75.031	2.0.10.147	2.0.10.242	2.0.10.242	1.0.0.439	7	234	2	3	Verdana	1	80	0	0	0	WM Stimuli\	0.9	971.444444444444	0.8	774.875	1	971.2	1	706.9	1	1037.5	1	756.5	0.9	1067.11111111111	1	824.3	13	313835	2	313823	27	40	313862	-999999	313838	0	29	TrialsPROC	FC_017_M9.png	2	2	29	SessionSelectionList														nonlure	3	Face	2-Back	25	80	23	0	0	80	6	40	112104	1	13	72	110064	-1	111156	1	1092	3	3	2040	53	112117	-54	0																29												
WM080112	100408_fnca	2	1	1	-1827561185	1	75.033	75.031	2.0.10.147	2.0.10.242	2.0.10.242	1.0.0.439	7	234	2	3	Verdana	1	80	0	0	0	WM Stimuli\	0.9	971.444444444444	0.8	774.875	1	971.2	1	706.9	1	1037.5	1	756.5	0.9	1067.11111111111	1	824.3	13	313835	2	313823	27	40	313862	-999999	313838	0	29	TrialsPROC	FC_017_M9.png	2	2	30	SessionSelectionList														lure	3	Face	2-Back	26	80	24	0	0	80	7	39	114676	1	14	73	112637	-1	113699	1	1062	3	3	2039	53	114690	-54	0																30												
WM080112	100408_fnca	2	1	1	-1827561185	1	75.033	75.031	2.0.10.147	2.0.10.242	2.0.10.242	1.0.0.439	7	234	2	3	Verdana	1	80	0	0	0	WM Stimuli\	0.9	971.444444444444	0.8	774.875	1	971.2	1	706.9	1	1037.5	1	756.5	0.9	1067.11111111111	1	824.3	13	313835	2	313823	27	40	313862	-999999	313838	0	29	TrialsPROC	FC_016_F8.png	2	2	31	SessionSelectionList														nonlure	3	Face	2-Back	27	80	25	0	0	80	8	39	117248	2	14	72	115209	-1	116332	1	1123	3	3	2039	53	117262	-54	0																31												
WM080112	100408_fnca	2	1	1	-1827561185	1	75.033	75.031	2.0.10.147	2.0.10.242	2.0.10.242	1.0.0.439	7	234	2	3	Verdana	1	80	0	0	0	WM Stimuli\	0.9	971.444444444444	0.8	774.875	1	971.2	1	706.9	1	1037.5	1	756.5	0.9	1067.11111111111	1	824.3	13	313835	2	313823	27	40	313862	-999999	313838	0	29	TrialsPROC	FC_013_M7.png	2	2	32	SessionSelectionList														nonlure	3	Face	2-Back	28	80	26	0	0	80	9	40	119821	1	13	72	117781	-1	118678	1	897	3	3	2040	53	119834	-54	0																32												
WM080112	100408_fnca	2	1	1	-1827561185	1	75.033	75.031	2.0.10.147	2.0.10.242	2.0.10.242	1.0.0.439	7	234	2	3	Verdana	1	80	0	0	0	WM Stimuli\	0.9	971.444444444444	0.8	774.875	1	971.2	1	706.9	1	1037.5	1	756.5	0.9	1067.11111111111	1	824.3	13	313835	2	313823	27	40	313862	-999999	313838	0	29	TrialsPROC	FC_014_F7.png	2	2	33	SessionSelectionList														nonlure	3	Face	2-Back	29	80	27	0	0	80	10	39	122393	1	14	73	120354	-1	121304	1	950	3	3	2039	53	122407	-54	0																33												
WM080112	100408_fnca	2	1	1	-1827561185	1	75.033	75.031	2.0.10.147	2.0.10.242	2.0.10.242	1.0.0.439	7	234	2	3	Verdana	1	80	0	0	0	WM Stimuli\	0.9	971.444444444444	0.8	774.875	1	971.2	1	706.9	1	1037.5	1	756.5	0.9	1067.11111111111	1	824.3	13	313835	2	313823	27	40	313862	-999999	313838	0	29	TrialsPROC	FC_013_M7.png	2	2	34	SessionSelectionList														target	2	Face	2-Back	30	80	28	0	0	80	1	39	124965	1	14	72	122926	-1	123822	1	896	2	2	2039	53	124979	-54	0																34												
WM080112	100408_fnca	2	1	1	-1827561185	1	75.033	75.031	2.0.10.147	2.0.10.242	2.0.10.242	1.0.0.439	7	234	2	3	Verdana	1	80	0	0	0	WM Stimuli\	0.9	971.444444444444	0.8	774.875	1	971.2	1	706.9	1	1037.5	1	756.5	0.9	1067.11111111111	1	824.3	13	313835	2	313823	27	40	313862	-999999	313838	0	29	TrialsPROC	FC_014_F7.png	2	2	35	SessionSelectionList														target	2	Face	2-Back	31	80	29	0	0	80	2	39	127537	2	14	72	125498	-1	126282	1	784	2	2	2039	53	127551	-54	0																35												
WM080112	100408_fnca	2	1	1	-1827561185	1	75.033	75.031	2.0.10.147	2.0.10.242	2.0.10.242	1.0.0.439	7	234	2	3	Verdana	1	80	0	0	0	WM Stimuli\	0.9	971.444444444444	0.8	774.875	1	971.2	1	706.9	1	1037.5	1	756.5	0.9	1067.11111111111	1	824.3	13	313835	2	313823	27	40	313862	-999999	313838	0	30	Cue0BackPROC	TO_019_TOOL19_BA.png	2	2	36	SessionSelectionList																																										19	128017	-20	0												36												
WM080112	100408_fnca	2	1	1	-1827561185	1	75.033	75.031	2.0.10.147	2.0.10.242	2.0.10.242	1.0.0.439	7	234	2	3	Verdana	1	80	0	0	0	WM Stimuli\	0.9	971.444444444444	0.8	774.875	1	971.2	1	706.9	1	1037.5	1	756.5	0.9	1067.11111111111	1	824.3	13	313835	2	313823	27	40	313862	-999999	313838	0	31	TrialsPROC	TO_019_TOOL19_BA.png	2	2	37	SessionSelectionList														target	2	Tools	0-Back	32	80	30	0	0	82	3	40	132589	1	13	51	130549	-1	131777	1	1228	2	2	2040	53	132602	-54	0																37												
WM080112	100408_fnca	2	1	1	-1827561185	1	75.033	75.031	2.0.10.147	2.0.10.242	2.0.10.242	1.0.0.439	7	234	2	3	Verdana	1	80	0	0	0	WM Stimuli\	0.9	971.444444444444	0.8	774.875	1	971.2	1	706.9	1	1037.5	1	756.5	0.9	1067.11111111111	1	824.3	13	313835	2	313823	27	40	313862	-999999	313838	0	31	TrialsPROC	TO_024_TOOL24_BA.png	2	2	38	SessionSelectionList														nonlure	3	Tools	0-Back	33	80	31	0	0	83	1	40	135148	1	13	59	133108	-1	133868	1	760	3	3	2040	53	135161	-54	0																38												
WM080112	100408_fnca	2	1	1	-1827561185	1	75.033	75.031	2.0.10.147	2.0.10.242	2.0.10.242	1.0.0.439	7	234	2	3	Verdana	1	80	0	0	0	WM Stimuli\	0.9	971.444444444444	0.8	774.875	1	971.2	1	706.9	1	1037.5	1	756.5	0.9	1067.11111111111	1	824.3	13	313835	2	313823	27	40	313862	-999999	313838	0	31	TrialsPROC	TO_019_TOOL19_BA.png	2	2	39	SessionSelectionList														target	2	Tools	0-Back	34	80	32	0	0	85	1	40	137707	1	13	59	135667	-1	136376	1	709	2	2	2040	53	137720	-54	0																39												
WM080112	100408_fnca	2	1	1	-1827561185	1	75.033	75.031	2.0.10.147	2.0.10.242	2.0.10.242	1.0.0.439	7	234	2	3	Verdana	1	80	0	0	0	WM Stimuli\	0.9	971.444444444444	0.8	774.875	1	971.2	1	706.9	1	1037.5	1	756.5	0.9	1067.11111111111	1	824.3	13	313835	2	313823	27	40	313862	-999999	313838	0	31	TrialsPROC	TO_023_TOOL23_BA.png	2	2	40	SessionSelectionList														nonlure	3	Tools	0-Back	35	80	33	0	0	86	1	40	140266	1	13	59	138226	-1	139248	1	1022	3	3	2040	53	140279	-54	0																40												
WM080112	100408_fnca	2	1	1	-1827561185	1	75.033	75.031	2.0.10.147	2.0.10.242	2.0.10.242	1.0.0.439	7	234	2	3	Verdana	1	80	0	0	0	WM Stimuli\	0.9	971.444444444444	0.8	774.875	1	971.2	1	706.9	1	1037.5	1	756.5	0.9	1067.11111111111	1	824.3	13	313835	2	313823	27	40	313862	-999999	313838	0	31	TrialsPROC	TO_020_TOOL20_BA.png	2	2	41	SessionSelectionList														nonlure	3	Tools	0-Back	36	80	34	0	0	87	2	40	142825	1	13	59	140785	-1	141878	1	1093	3	3	2040	53	142838	-54	0																41												
WM080112	100408_fnca	2	1	1	-1827561185	1	75.033	75.031	2.0.10.147	2.0.10.242	2.0.10.242	1.0.0.439	7	234	2	3	Verdana	1	80	0	0	0	WM Stimuli\	0.9	971.444444444444	0.8	774.875	1	971.2	1	706.9	1	1037.5	1	756.5	0.9	1067.11111111111	1	824.3	13	313835	2	313823	27	40	313862	-999999	313838	0	31	TrialsPROC	TO_020_TOOL20_BA.png	2	2	42	SessionSelectionList														lure	3	Tools	0-Back	37	80	35	0	0	88	3	39	145383	2	14	59	143344	-1	143890	1	546	3	3	2039	53	145397	-54	0																42												
WM080112	100408_fnca	2	1	1	-1827561185	1	75.033	75.031	2.0.10.147	2.0.10.242	2.0.10.242	1.0.0.439	7	234	2	3	Verdana	1	80	0	0	0	WM Stimuli\	0.9	971.444444444444	0.8	774.875	1	971.2	1	706.9	1	1037.5	1	756.5	0.9	1067.11111111111	1	824.3	13	313835	2	313823	27	40	313862	-999999	313838	0	31	TrialsPROC	TO_022_TOOL22_BA.png	2	2	43	SessionSelectionList														nonlure	3	Tools	0-Back	38	80	36	0	0	88	4	39	147942	2	14	59	145903	-1	146622	1	719	3	3	2039	53	147956	-54	0																43												
WM080112	100408_fnca	2	1	1	-1827561185	1	75.033	75.031	2.0.10.147	2.0.10.242	2.0.10.242	1.0.0.439	7	234	2	3	Verdana	1	80	0	0	0	WM Stimuli\	0.9	971.444444444444	0.8	774.875	1	971.2	1	706.9	1	1037.5	1	756.5	0.9	1067.11111111111	1	824.3	13	313835	2	313823	27	40	313862	-999999	313838	0	31	TrialsPROC	TO_022_TOOL22_BA.png	2	2	44	SessionSelectionList														lure	3	Tools	0-Back	39	80	37	0	0	89	5	39	150501	2	14	59	148462	-1	149038	1	576	3	3	2039	53	150515	-54	0																44												
WM080112	100408_fnca	2	1	1	-1827561185	1	75.033	75.031	2.0.10.147	2.0.10.242	2.0.10.242	1.0.0.439	7	234	2	3	Verdana	1	80	0	0	0	WM Stimuli\	0.9	971.444444444444	0.8	774.875	1	971.2	1	706.9	1	1037.5	1	756.5	0.9	1067.11111111111	1	824.3	13	313835	2	313823	27	40	313862	-999999	313838	0	31	TrialsPROC	TO_021_TOOL21_BA.png	2	2	45	SessionSelectionList														nonlure	3	Tools	0-Back	40	80	38	0	0	89	6	39	153060	2	14	59	151021	-1	151719	1	698	3	3	2039	53	153074	-54	0																45												
WM080112	100408_fnca	2	1	1	-1827561185	1	75.033	75.031	2.0.10.147	2.0.10.242	2.0.10.242	1.0.0.439	7	234	2	3	Verdana	1	80	0	0	0	WM Stimuli\	0.9	971.444444444444	0.8	774.875	1	971.2	1	706.9	1	1037.5	1	756.5	0.9	1067.11111111111	1	824.3	13	313835	2	313823	27	40	313862	-999999	313838	0	31	TrialsPROC	TO_021_TOOL21_BA.png	2	2	46	SessionSelectionList														lure	3	Tools	0-Back	41	80	39	0	0	90	7	39	155619	2	14	59	153580	-1	154472	1	892	3	3	2039	53	155633	-54	0																46												
WM080112	100408_fnca	2	1	1	-1827561185	1	75.033	75.031	2.0.10.147	2.0.10.242	2.0.10.242	1.0.0.439	7	234	2	3	Verdana	1	80	0	0	0	WM Stimuli\	0.9	971.444444444444	0.8	774.875	1	971.2	1	706.9	1	1037.5	1	756.5	0.9	1067.11111111111	1	824.3	13	313835	2	313823	27	40	313862	-999999	313838	0	32	Fix15secPROC	""	2	2	47	SessionSelectionList																																															6	156086	-7	0							47												
WM080112	100408_fnca	2	1	1	-1827561185	1	75.033	75.031	2.0.10.147	2.0.10.242	2.0.10.242	1.0.0.439	7	234	2	3	Verdana	1	80	0	0	0	WM Stimuli\	0.9	971.444444444444	0.8	774.875	1	971.2	1	706.9	1	1037.5	1	756.5	0.9	1067.11111111111	1	824.3	13	313835	2	313823	27	40	313862	-999999	313838	0	33	Cue2BackPROC	""	2	2	48	SessionSelectionList									13	171093	-14	0																																													48												
WM080112	100408_fnca	2	1	1	-1827561185	1	75.033	75.031	2.0.10.147	2.0.10.242	2.0.10.242	1.0.0.439	7	234	2	3	Verdana	1	80	0	0	0	WM Stimuli\	0.9	971.444444444444	0.8	774.875	1	971.2	1	706.9	1	1037.5	1	756.5	0.9	1067.11111111111	1	824.3	13	313835	2	313823	27	40	313862	-999999	313838	0	34	TrialsPROC	BP_020_H17-T_BA.png	2	2	49	SessionSelectionList														nonlure	3	Body	2-Back	42	80	40	0	0	90	8	39	175678	1	14	59	173639	-1	174168	1	529	3	3	2039	53	175692	-54	0																49												
WM080112	100408_fnca	2	1	1	-1827561185	1	75.033	75.031	2.0.10.147	2.0.10.242	2.0.10.242	1.0.0.439	7	234	2	3	Verdana	1	80	0	0	0	WM Stimuli\	0.9	971.444444444444	0.8	774.875	1	971.2	1	706.9	1	1037.5	1	756.5	0.9	1067.11111111111	1	824.3	13	313835	2	313823	27	40	313862	-999999	313838	0	34	TrialsPROC	BP_019_H14-T_BA.png	2	2	50	SessionSelectionList														nonlure	3	Body	2-Back	43	80	41	0	0	90	9	39	178237	1	14	59	176198	-1	177151	1	953	3	3	2039	53	178251	-54	0																50												
WM080112	100408_fnca	2	1	1	-1827561185	1	75.033	75.031	2.0.10.147	2.0.10.242	2.0.10.242	1.0.0.439	7	234	2	3	Verdana	1	80	0	0	0	WM Stimuli\	0.9	971.444444444444	0.8	774.875	1	971.2	1	706.9	1	1037.5	1	756.5	0.9	1067.11111111111	1	824.3	13	313835	2	313823	27	40	313862	-999999	313838	0	34	TrialsPROC	BP_020_H17-T_BA.png	2	2	51	SessionSelectionList														target	2	Body	2-Back	44	80	42	0	0	90	1	39	180796	1	13	59	178757	-1	179641	1	884	2	2	2039	52	180809	-53	0																51												
WM080112	100408_fnca	2	1	1	-1827561185	1	75.033	75.031	2.0.10.147	2.0.10.242	2.0.10.242	1.0.0.439	7	234	2	3	Verdana	1	80	0	0	0	WM Stimuli\	0.9	971.444444444444	0.8	774.875	1	971.2	1	706.9	1	1037.5	1	756.5	0.9	1067.11111111111	1	824.3	13	313835	2	313823	27	40	313862	-999999	313838	0	34	TrialsPROC	BP_019_H14-T_BA.png	2	2	52	SessionSelectionList														target	2	Body	2-Back	45	80	43	0	0	90	2	39	183355	1	13	59	181316	-1	182103	1	787	2	2	2039	52	183368	-53	0																52												
WM080112	100408_fnca	2	1	1	-1827561185	1	75.033	75.031	2.0.10.147	2.0.10.242	2.0.10.242	1.0.0.439	7	234	2	3	Verdana	1	80	0	0	0	WM Stimuli\	0.9	971.444444444444	0.8	774.875	1	971.2	1	706.9	1	1037.5	1	756.5	0.9	1067.11111111111	1	824.3	13	313835	2	313823	27	40	313862	-999999	313838	0	34	TrialsPROC	BP_024_H3-T_BA.png	2	2	53	SessionSelectionList														nonlure	3	Body	2-Back	46	80	43	0	1	90	2	39	185914	1	13	59	183875	-1	0	0	0	""	3	2039	52	185927	-53	0																53												
WM080112	100408_fnca	2	1	1	-1827561185	1	75.033	75.031	2.0.10.147	2.0.10.242	2.0.10.242	1.0.0.439	7	234	2	3	Verdana	1	80	0	0	0	WM Stimuli\	0.9	971.444444444444	0.8	774.875	1	971.2	1	706.9	1	1037.5	1	756.5	0.9	1067.11111111111	1	824.3	13	313835	2	313823	27	40	313862	-999999	313838	0	34	TrialsPROC	BP_024_H3-T_BA.png	2	2	54	SessionSelectionList														lure	3	Body	2-Back	47	80	44	0	0	90	1	39	188473	1	13	59	186434	-1	187618	1	1184	3	3	2039	52	188486	-53	0																54												
WM080112	100408_fnca	2	1	1	-1827561185	1	75.033	75.031	2.0.10.147	2.0.10.242	2.0.10.242	1.0.0.439	7	234	2	3	Verdana	1	80	0	0	0	WM Stimuli\	0.9	971.444444444444	0.8	774.875	1	971.2	1	706.9	1	1037.5	1	756.5	0.9	1067.11111111111	1	824.3	13	313835	2	313823	27	40	313862	-999999	313838	0	34	TrialsPROC	BP_025_H5-T_BA.png	2	2	55	SessionSelectionList														nonlure	3	Body	2-Back	48	80	45	0	0	90	2	39	191032	1	13	59	188993	-1	190119	1	1126	3	3	2039	52	191045	-53	0																55												
WM080112	100408_fnca	2	1	1	-1827561185	1	75.033	75.031	2.0.10.147	2.0.10.242	2.0.10.242	1.0.0.439	7	234	2	3	Verdana	1	80	0	0	0	WM Stimuli\	0.9	971.444444444444	0.8	774.875	1	971.2	1	706.9	1	1037.5	1	756.5	0.9	1067.11111111111	1	824.3	13	313835	2	313823	27	40	313862	-999999	313838	0	34	TrialsPROC	BP_023_H25-T_BA.png	2	2	56	SessionSelectionList														nonlure	3	Body	2-Back	49	80	46	0	0	90	3	39	193591	1	13	59	191552	-1	193133	1	1581	3	3	2039	52	193604	-53	0																56												
WM080112	100408_fnca	2	1	1	-1827561185	1	75.033	75.031	2.0.10.147	2.0.10.242	2.0.10.242	1.0.0.439	7	234	2	3	Verdana	1	80	0	0	0	WM Stimuli\	0.9	971.444444444444	0.8	774.875	1	971.2	1	706.9	1	1037.5	1	756.5	0.9	1067.11111111111	1	824.3	13	313835	2	313823	27	40	313862	-999999	313838	0	34	TrialsPROC	BP_022_H24-T_BA.png	2	2	57	SessionSelectionList														nonlure	3	Body	2-Back	50	80	47	0	0	90	4	40	196150	1	13	58	194110	-1	195091	1	981	3	3	2040	53	196163	-54	0																57												
WM080112	100408_fnca	2	1	1	-1827561185	1	75.033	75.031	2.0.10.147	2.0.10.242	2.0.10.242	1.0.0.439	7	234	2	3	Verdana	1	80	0	0	0	WM Stimuli\	0.9	971.444444444444	0.8	774.875	1	971.2	1	706.9	1	1037.5	1	756.5	0.9	1067.11111111111	1	824.3	13	313835	2	313823	27	40	313862	-999999	313838	0	34	TrialsPROC	BP_022_H24-T_BA.png	2	2	58	SessionSelectionList														lure	3	Body	2-Back	51	80	48	0	0	90	5	40	198709	1	13	59	196669	-1	197387	1	718	3	3	2040	53	198722	-54	0																58												
WM080112	100408_fnca	2	1	1	-1827561185	1	75.033	75.031	2.0.10.147	2.0.10.242	2.0.10.242	1.0.0.439	7	234	2	3	Verdana	1	80	0	0	0	WM Stimuli\	0.9	971.444444444444	0.8	774.875	1	971.2	1	706.9	1	1037.5	1	756.5	0.9	1067.11111111111	1	824.3	13	313835	2	313823	27	40	313862	-999999	313838	0	35	Cue2BackPROC	""	2	2	59	SessionSelectionList									6	199175	-7	0																																													59												
WM080112	100408_fnca	2	1	1	-1827561185	1	75.033	75.031	2.0.10.147	2.0.10.242	2.0.10.242	1.0.0.439	7	234	2	3	Verdana	1	80	0	0	0	WM Stimuli\	0.9	971.444444444444	0.8	774.875	1	971.2	1	706.9	1	1037.5	1	756.5	0.9	1067.11111111111	1	824.3	13	313835	2	313823	27	40	313862	-999999	313838	0	36	TrialsPROC	PL_019_SCENE_05.png	2	2	60	SessionSelectionList														nonlure	3	Place	2-Back	52	80	49	0	0	90	6	39	203773	1	14	65	201734	-1	203011	1	1277	3	3	2039	53	203787	-54	0																60												
WM080112	100408_fnca	2	1	1	-1827561185	1	75.033	75.031	2.0.10.147	2.0.10.242	2.0.10.242	1.0.0.439	7	234	2	3	Verdana	1	80	0	0	0	WM Stimuli\	0.9	971.444444444444	0.8	774.875	1	971.2	1	706.9	1	1037.5	1	756.5	0.9	1067.11111111111	1	824.3	13	313835	2	313823	27	40	313862	-999999	313838	0	36	TrialsPROC	PL_017_SCENE_03.png	2	2	61	SessionSelectionList														nonlure	3	Place	2-Back	53	80	50	0	0	90	7	39	206345	2	14	72	204306	-1	205430	1	1124	3	3	2039	53	206359	-54	0																61												
WM080112	100408_fnca	2	1	1	-1827561185	1	75.033	75.031	2.0.10.147	2.0.10.242	2.0.10.242	1.0.0.439	7	234	2	3	Verdana	1	80	0	0	0	WM Stimuli\	0.9	971.444444444444	0.8	774.875	1	971.2	1	706.9	1	1037.5	1	756.5	0.9	1067.11111111111	1	824.3	13	313835	2	313823	27	40	313862	-999999	313838	0	36	TrialsPROC	PL_017_SCENE_03.png	2	2	62	SessionSelectionList														lure	3	Place	2-Back	54	80	51	0	0	90	8	39	208918	1	13	73	206879	-1	208072	1	1193	3	3	2039	52	208931	-53	0																62												
WM080112	100408_fnca	2	1	1	-1827561185	1	75.033	75.031	2.0.10.147	2.0.10.242	2.0.10.242	1.0.0.439	7	234	2	3	Verdana	1	80	0	0	0	WM Stimuli\	0.9	971.444444444444	0.8	774.875	1	971.2	1	706.9	1	1037.5	1	756.5	0.9	1067.11111111111	1	824.3	13	313835	2	313823	27	40	313862	-999999	313838	0	36	TrialsPROC	PL_016_SCENE_02.png	2	2	63	SessionSelectionList														nonlure	3	Place	2-Back	55	80	52	0	0	90	9	39	211490	1	14	72	209451	-1	210517	1	1066	3	3	2039	53	211504	-54	0																63												
WM080112	100408_fnca	2	1	1	-1827561185	1	75.033	75.031	2.0.10.147	2.0.10.242	2.0.10.242	1.0.0.439	7	234	2	3	Verdana	1	80	0	0	0	WM Stimuli\	0.9	971.444444444444	0.8	774.875	1	971.2	1	706.9	1	1037.5	1	756.5	0.9	1067.11111111111	1	824.3	13	313835	2	313823	27	40	313862	-999999	313838	0	36	TrialsPROC	PL_015_SCENE_01.png	2	2	64	SessionSelectionList														nonlure	3	Place	2-Back	56	80	53	0	0	90	10	39	214062	2	14	72	212023	-1	212885	1	862	3	3	2039	53	214076	-54	0																64												
WM080112	100408_fnca	2	1	1	-1827561185	1	75.033	75.031	2.0.10.147	2.0.10.242	2.0.10.242	1.0.0.439	7	234	2	3	Verdana	1	80	0	0	0	WM Stimuli\	0.9	971.444444444444	0.8	774.875	1	971.2	1	706.9	1	1037.5	1	756.5	0.9	1067.11111111111	1	824.3	13	313835	2	313823	27	40	313862	-999999	313838	0	36	TrialsPROC	PL_016_SCENE_02.png	2	2	65	SessionSelectionList														target	2	Place	2-Back	57	80	54	0	0	90	1	40	216635	1	13	72	214595	-1	215490	1	895	2	2	2040	53	216648	-54	0																65												
WM080112	100408_fnca	2	1	1	-1827561185	1	75.033	75.031	2.0.10.147	2.0.10.242	2.0.10.242	1.0.0.439	7	234	2	3	Verdana	1	80	0	0	0	WM Stimuli\	0.9	971.444444444444	0.8	774.875	1	971.2	1	706.9	1	1037.5	1	756.5	0.9	1067.11111111111	1	824.3	13	313835	2	313823	27	40	313862	-999999	313838	0	36	TrialsPROC	PL_015_SCENE_01.png	2	2	66	SessionSelectionList														target	2	Place	2-Back	58	80	55	0	0	90	2	39	219207	1	14	73	217168	-1	217717	1	549	2	2	2039	53	219221	-54	0																66												
WM080112	100408_fnca	2	1	1	-1827561185	1	75.033	75.031	2.0.10.147	2.0.10.242	2.0.10.242	1.0.0.439	7	234	2	3	Verdana	1	80	0	0	0	WM Stimuli\	0.9	971.444444444444	0.8	774.875	1	971.2	1	706.9	1	1037.5	1	756.5	0.9	1067.11111111111	1	824.3	13	313835	2	313823	27	40	313862	-999999	313838	0	36	TrialsPROC	PL_020_SCENE_06.png	2	2	67	SessionSelectionList														nonlure	3	Place	2-Back	59	80	56	0	0	90	1	39	221779	2	14	72	219740	-1	221166	1	1426	3	3	2039	53	221793	-54	0																67												
WM080112	100408_fnca	2	1	1	-1827561185	1	75.033	75.031	2.0.10.147	2.0.10.242	2.0.10.242	1.0.0.439	7	234	2	3	Verdana	1	80	0	0	0	WM Stimuli\	0.9	971.444444444444	0.8	774.875	1	971.2	1	706.9	1	1037.5	1	756.5	0.9	1067.11111111111	1	824.3	13	313835	2	313823	27	40	313862	-999999	313838	0	36	TrialsPROC	PL_020_SCENE_06.png	2	2	68	SessionSelectionList														lure	3	Place	2-Back	60	80	57	0	0	90	2	39	224351	2	14	72	222312	-1	223144	1	832	3	3	2039	53	224365	-54	0																68												
WM080112	100408_fnca	2	1	1	-1827561185	1	75.033	75.031	2.0.10.147	2.0.10.242	2.0.10.242	1.0.0.439	7	234	2	3	Verdana	1	80	0	0	0	WM Stimuli\	0.9	971.444444444444	0.8	774.875	1	971.2	1	706.9	1	1037.5	1	756.5	0.9	1067.11111111111	1	824.3	13	313835	2	313823	27	40	313862	-999999	313838	0	36	TrialsPROC	PL_018_SCENE_04.png	2	2	69	SessionSelectionList														nonlure	3	Place	2-Back	61	80	58	0	0	90	3	39	226924	1	13	73	224885	-1	226036	1	1151	3	3	2039	52	226937	-53	0																69												
WM080112	100408_fnca	2	1	1	-1827561185	1	75.033	75.031	2.0.10.147	2.0.10.242	2.0.10.242	1.0.0.439	7	234	2	3	Verdana	1	80	0	0	0	WM Stimuli\	0.9	971.444444444444	0.8	774.875	1	971.2	1	706.9	1	1037.5	1	756.5	0.9	1067.11111111111	1	824.3	13	313835	2	313823	27	40	313862	-999999	313838	0	37	Fix15secPROC	""	2	2	70	SessionSelectionList																																															6	227391	-7	0							70												
WM080112	100408_fnca	2	1	1	-1827561185	1	75.033	75.031	2.0.10.147	2.0.10.242	2.0.10.242	1.0.0.439	7	234	2	3	Verdana	1	80	0	0	0	WM Stimuli\	0.9	971.444444444444	0.8	774.875	1	971.2	1	706.9	1	1037.5	1	756.5	0.9	1067.11111111111	1	824.3	13	313835	2	313823	27	40	313862	-999999	313838	0	38	Cue0BackPROC	FC_020_F10.png	2	2	71	SessionSelectionList																																										26	242411	-27	0												71												
WM080112	100408_fnca	2	1	1	-1827561185	1	75.033	75.031	2.0.10.147	2.0.10.242	2.0.10.242	1.0.0.439	7	234	2	3	Verdana	1	80	0	0	0	WM Stimuli\	0.9	971.444444444444	0.8	774.875	1	971.2	1	706.9	1	1037.5	1	756.5	0.9	1067.11111111111	1	824.3	13	313835	2	313823	27	40	313862	-999999	313838	0	39	TrialsPROC	FC_024_F12.png	2	2	72	SessionSelectionList														nonlure	3	Face	0-Back	62	80	59	0	0	90	4	40	246996	1	13	71	244956	-1	245772	1	816	3	3	2040	53	247009	-54	0																72												
WM080112	100408_fnca	2	1	1	-1827561185	1	75.033	75.031	2.0.10.147	2.0.10.242	2.0.10.242	1.0.0.439	7	234	2	3	Verdana	1	80	0	0	0	WM Stimuli\	0.9	971.444444444444	0.8	774.875	1	971.2	1	706.9	1	1037.5	1	756.5	0.9	1067.11111111111	1	824.3	13	313835	2	313823	27	40	313862	-999999	313838	0	39	TrialsPROC	FC_023_M12.png	2	2	73	SessionSelectionList														nonlure	3	Face	0-Back	63	80	60	0	0	91	5	39	249568	1	14	73	247529	-1	248228	1	699	3	3	2039	53	249582	-54	0																73												
WM080112	100408_fnca	2	1	1	-1827561185	1	75.033	75.031	2.0.10.147	2.0.10.242	2.0.10.242	1.0.0.439	7	234	2	3	Verdana	1	80	0	0	0	WM Stimuli\	0.9	971.444444444444	0.8	774.875	1	971.2	1	706.9	1	1037.5	1	756.5	0.9	1067.11111111111	1	824.3	13	313835	2	313823	27	40	313862	-999999	313838	0	39	TrialsPROC	FC_020_F10.png	2	2	74	SessionSelectionList														target	2	Face	0-Back	64	80	61	0	0	91	1	39	252140	2	14	72	250101	-1	250756	1	655	2	2	2039	53	252154	-54	0																74												
WM080112	100408_fnca	2	1	1	-1827561185	1	75.033	75.031	2.0.10.147	2.0.10.242	2.0.10.242	1.0.0.439	7	234	2	3	Verdana	1	80	0	0	0	WM Stimuli\	0.9	971.444444444444	0.8	774.875	1	971.2	1	706.9	1	1037.5	1	756.5	0.9	1067.11111111111	1	824.3	13	313835	2	313823	27	40	313862	-999999	313838	0	39	TrialsPROC	FC_024_F12.png	2	2	75	SessionSelectionList														lure	3	Face	0-Back	65	80	62	0	0	92	1	39	254712	2	14	72	252673	-1	253502	1	829	3	3	2039	53	254726	-54	0																75												
WM080112	100408_fnca	2	1	1	-1827561185	1	75.033	75.031	2.0.10.147	2.0.10.242	2.0.10.242	1.0.0.439	7	234	2	3	Verdana	1	80	0	0	0	WM Stimuli\	0.9	971.444444444444	0.8	774.875	1	971.2	1	706.9	1	1037.5	1	756.5	0.9	1067.11111111111	1	824.3	13	313835	2	313823	27	40	313862	-999999	313838	0	39	TrialsPROC	FC_020_F10.png	2	2	76	SessionSelectionList														target	2	Face	0-Back	66	80	63	0	0	92	1	39	257285	1	13	73	255246	-1	255837	1	591	2	2	2039	52	257298	-53	0																76												
WM080112	100408_fnca	2	1	1	-1827561185	1	75.033	75.031	2.0.10.147	2.0.10.242	2.0.10.242	1.0.0.439	7	234	2	3	Verdana	1	80	0	0	0	WM Stimuli\	0.9	971.444444444444	0.8	774.875	1	971.2	1	706.9	1	1037.5	1	756.5	0.9	1067.11111111111	1	824.3	13	313835	2	313823	27	40	313862	-999999	313838	0	39	TrialsPROC	FC_022_F11.png	2	2	77	SessionSelectionList														nonlure	3	Face	0-Back	67	80	64	0	0	92	1	39	259857	1	14	72	257818	-1	258746	1	928	3	3	2039	53	259871	-54	0																77												
WM080112	100408_fnca	2	1	1	-1827561185	1	75.033	75.031	2.0.10.147	2.0.10.242	2.0.10.242	1.0.0.439	7	234	2	3	Verdana	1	80	0	0	0	WM Stimuli\	0.9	971.444444444444	0.8	774.875	1	971.2	1	706.9	1	1037.5	1	756.5	0.9	1067.11111111111	1	824.3	13	313835	2	313823	27	40	313862	-999999	313838	0	39	TrialsPROC	FC_023_M12.png	2	2	78	SessionSelectionList														lure	3	Face	0-Back	68	80	65	0	0	93	2	39	262429	2	14	72	260390	-1	261078	1	688	3	3	2039	53	262443	-54	0																78												
WM080112	100408_fnca	2	1	1	-1827561185	1	75.033	75.031	2.0.10.147	2.0.10.242	2.0.10.242	1.0.0.439	7	234	2	3	Verdana	1	80	0	0	0	WM Stimuli\	0.9	971.444444444444	0.8	774.875	1	971.2	1	706.9	1	1037.5	1	756.5	0.9	1067.11111111111	1	824.3	13	313835	2	313823	27	40	313862	-999999	313838	0	39	TrialsPROC	FC_021_M11.png	2	2	79	SessionSelectionList														nonlure	3	Face	0-Back	69	80	66	0	0	93	3	40	265002	1	13	72	262962	-1	263648	1	686	3	3	2040	53	265015	-54	0																79												
WM080112	100408_fnca	2	1	1	-1827561185	1	75.033	75.031	2.0.10.147	2.0.10.242	2.0.10.242	1.0.0.439	7	234	2	3	Verdana	1	80	0	0	0	WM Stimuli\	0.9	971.444444444444	0.8	774.875	1	971.2	1	706.9	1	1037.5	1	756.5	0.9	1067.11111111111	1	824.3	13	313835	2	313823	27	40	313862	-999999	313838	0	39	TrialsPROC	FC_021_M11.png	2	2	80	SessionSelectionList														lure	3	Face	0-Back	70	80	67	0	0	93	4	39	267574	1	14	73	265535	-1	266122	1	587	3	3	2039	53	267588	-54	0																80												
WM080112	100408_fnca	2	1	1	-1827561185	1	75.033	75.031	2.0.10.147	2.0.10.242	2.0.10.242	1.0.0.439	7	234	2	3	Verdana	1	80	0	0	0	WM Stimuli\	0.9	971.444444444444	0.8	774.875	1	971.2	1	706.9	1	1037.5	1	756.5	0.9	1067.11111111111	1	824.3	13	313835	2	313823	27	40	313862	-999999	313838	0	39	TrialsPROC	FC_019_M10.png	2	2	81	SessionSelectionList														nonlure	3	Face	0-Back	71	80	68	0	0	93	5	39	270146	2	14	72	268107	-1	268697	1	590	3	3	2039	53	270160	-54	0																81												
WM080112	100408_fnca	2	1	1	-1827561185	1	75.033	75.031	2.0.10.147	2.0.10.242	2.0.10.242	1.0.0.439	7	234	2	3	Verdana	1	80	0	0	0	WM Stimuli\	0.9	971.444444444444	0.8	774.875	1	971.2	1	706.9	1	1037.5	1	756.5	0.9	1067.11111111111	1	824.3	13	313835	2	313823	27	40	313862	-999999	313838	0	40	Cue0BackPROC	PL_021_SCENE_07.png	2	2	82	SessionSelectionList																																										19	270626	-20	0												82												
WM080112	100408_fnca	2	1	1	-1827561185	1	75.033	75.031	2.0.10.147	2.0.10.242	2.0.10.242	1.0.0.439	7	234	2	3	Verdana	1	80	0	0	0	WM Stimuli\	0.9	971.444444444444	0.8	774.875	1	971.2	1	706.9	1	1037.5	1	756.5	0.9	1067.11111111111	1	824.3	13	313835	2	313823	27	40	313862	-999999	313838	0	41	TrialsPROC	PL_025_SCENE_18.png	2	2	83	SessionSelectionList														nonlure	3	Place	0-Back	72	80	69	0	0	94	6	39	275211	1	14	65	273172	-1	274046	1	874	3	3	2039	53	275225	-54	0																83												
WM080112	100408_fnca	2	1	1	-1827561185	1	75.033	75.031	2.0.10.147	2.0.10.242	2.0.10.242	1.0.0.439	7	234	2	3	Verdana	1	80	0	0	0	WM Stimuli\	0.9	971.444444444444	0.8	774.875	1	971.2	1	706.9	1	1037.5	1	756.5	0.9	1067.11111111111	1	824.3	13	313835	2	313823	27	40	313862	-999999	313838	0	41	TrialsPROC	PL_026_SCENE_24.png	2	2	84	SessionSelectionList														nonlure	3	Place	0-Back	73	80	70	0	0	94	7	39	277783	1	14	72	275744	-1	276660	1	916	3	3	2039	53	277797	-54	0																84												
WM080112	100408_fnca	2	1	1	-1827561185	1	75.033	75.031	2.0.10.147	2.0.10.242	2.0.10.242	1.0.0.439	7	234	2	3	Verdana	1	80	0	0	0	WM Stimuli\	0.9	971.444444444444	0.8	774.875	1	971.2	1	706.9	1	1037.5	1	756.5	0.9	1067.11111111111	1	824.3	13	313835	2	313823	27	40	313862	-999999	313838	0	41	TrialsPROC	PL_025_SCENE_18.png	2	2	85	SessionSelectionList														lure	3	Place	0-Back	74	80	71	0	0	94	8	39	280355	2	14	72	278316	-1	278997	1	681	3	3	2039	53	280369	-54	0																85												
WM080112	100408_fnca	2	1	1	-1827561185	1	75.033	75.031	2.0.10.147	2.0.10.242	2.0.10.242	1.0.0.439	7	234	2	3	Verdana	1	80	0	0	0	WM Stimuli\	0.9	971.444444444444	0.8	774.875	1	971.2	1	706.9	1	1037.5	1	756.5	0.9	1067.11111111111	1	824.3	13	313835	2	313823	27	40	313862	-999999	313838	0	41	TrialsPROC	PL_022_SCENE_08.png	2	2	86	SessionSelectionList														nonlure	3	Place	0-Back	75	80	72	0	0	94	9	40	282928	1	13	72	280888	-1	281594	1	706	3	3	2040	53	282941	-54	0																86												
WM080112	100408_fnca	2	1	1	-1827561185	1	75.033	75.031	2.0.10.147	2.0.10.242	2.0.10.242	1.0.0.439	7	234	2	3	Verdana	1	80	0	0	0	WM Stimuli\	0.9	971.444444444444	0.8	774.875	1	971.2	1	706.9	1	1037.5	1	756.5	0.9	1067.11111111111	1	824.3	13	313835	2	313823	27	40	313862	-999999	313838	0	41	TrialsPROC	PL_026_SCENE_24.png	2	2	87	SessionSelectionList														lure	3	Place	0-Back	76	80	73	0	0	94	10	39	285500	1	14	73	283461	-1	284064	1	603	3	3	2039	53	285514	-54	0																87												
WM080112	100408_fnca	2	1	1	-1827561185	1	75.033	75.031	2.0.10.147	2.0.10.242	2.0.10.242	1.0.0.439	7	234	2	3	Verdana	1	80	0	0	0	WM Stimuli\	0.9	971.444444444444	0.8	774.875	1	971.2	1	706.9	1	1037.5	1	756.5	0.9	1067.11111111111	1	824.3	13	313835	2	313823	27	40	313862	-999999	313838	0	41	TrialsPROC	PL_021_SCENE_07.png	2	2	88	SessionSelectionList														target	2	Place	0-Back	77	80	74	0	0	94	1	39	288072	2	14	72	286033	-1	286766	1	733	2	2	2039	53	288086	-54	0																88												
WM080112	100408_fnca	2	1	1	-1827561185	1	75.033	75.031	2.0.10.147	2.0.10.242	2.0.10.242	1.0.0.439	7	234	2	3	Verdana	1	80	0	0	0	WM Stimuli\	0.9	971.444444444444	0.8	774.875	1	971.2	1	706.9	1	1037.5	1	756.5	0.9	1067.11111111111	1	824.3	13	313835	2	313823	27	40	313862	-999999	313838	0	41	TrialsPROC	PL_021_SCENE_07.png	2	2	89	SessionSelectionList														target	2	Place	0-Back	78	80	75	0	0	95	2	40	290645	1	13	72	288605	-1	289210	1	605	2	2	2040	53	290658	-54	0																89												
WM080112	100408_fnca	2	1	1	-1827561185	1	75.033	75.031	2.0.10.147	2.0.10.242	2.0.10.242	1.0.0.439	7	234	2	3	Verdana	1	80	0	0	0	WM Stimuli\	0.9	971.444444444444	0.8	774.875	1	971.2	1	706.9	1	1037.5	1	756.5	0.9	1067.11111111111	1	824.3	13	313835	2	313823	27	40	313862	-999999	313838	0	41	TrialsPROC	PL_023_SCENE_09.png	2	2	90	SessionSelectionList														nonlure	3	Place	0-Back	79	80	76	0	0	95	1	39	293217	1	14	73	291178	-1	292128	1	950	3	3	2039	53	293231	-54	0																90												
WM080112	100408_fnca	2	1	1	-1827561185	1	75.033	75.031	2.0.10.147	2.0.10.242	2.0.10.242	1.0.0.439	7	234	2	3	Verdana	1	80	0	0	0	WM Stimuli\	0.9	971.444444444444	0.8	774.875	1	971.2	1	706.9	1	1037.5	1	756.5	0.9	1067.11111111111	1	824.3	13	313835	2	313823	27	40	313862	-999999	313838	0	41	TrialsPROC	PL_024_SCENE_10.png	2	2	91	SessionSelectionList														nonlure	3	Place	0-Back	80	80	77	0	0	95	2	39	295789	2	14	72	293750	-1	294555	1	805	3	3	2039	53	295803	-54	0																91												
WM080112	100408_fnca	2	1	1	-1827561185	1	75.033	75.031	2.0.10.147	2.0.10.242	2.0.10.242	1.0.0.439	7	234	2	3	Verdana	1	80	0	0	0	WM Stimuli\	0.9	971.444444444444	0.8	774.875	1	971.2	1	706.9	1	1037.5	1	756.5	0.9	1067.11111111111	1	824.3	13	313835	2	313823	27	40	313862	-999999	313838	0	41	TrialsPROC	PL_022_SCENE_08.png	2	2	92	SessionSelectionList														lure	3	Place	0-Back	80	80	78	0	0	95	3	39	298361	2	14	72	296322	-1	297014	1	692	3	3	2039	53	298375	-54	0																92												
WM080112	100408_fnca	2	1	1	-1827561185	1	75.033	75.031	2.0.10.147	2.0.10.242	2.0.10.242	1.0.0.439	7	234	2	3	Verdana	1	80	0	0	0	WM Stimuli\	0.9	971.444444444444	0.8	774.875	1	971.2	1	706.9	1	1037.5	1	756.5	0.9	1067.11111111111	1	824.3	13	313835	2	313823	27	40	313862	-999999	313838	0	42	Fix15secPROC	""	2	2	93	SessionSelectionList																																															6	298828	-7	0							93												
