ExperimentName	HCPID	RunNumber	Subject	Session	RandomSeed	Group	Laptop.RefreshRate	ScannerD2.RefreshRate	StudioVersion	RuntimeVersion	RuntimeVersionExpected	ExperimentVersion	triggercode	Allowed	Target	Nontarget	FontStyle	RunTrialNumber[Session]	TrialsPerRun[Session]	TotalRespGreater200[Session]	ConsecRTLess200[Session]	ConsecNonResp[Session]	StimuliDir	ACC_2_Back_Body	Avg_RT_For_Correct_Trials_2_Back_Body	ACC_0_Back_Body	Avg_RT_For_Correct_Trials_0_Back_Body	ACC_2_Back_Face	Avg_RT_For_Correct_Trials_2_Back_Face	ACC_0_Back_Face	Avg_RT_For_Correct_Trials_0_Back_Face	ACC_2_Back_Place	Avg_RT_For_Correct_Trials_2_Back_Place	ACC_0_Back_Place	Avg_RT_For_Correct_Trials_0_Back_Place	ACC_2_Back_Tools	Avg_RT_For_Correct_Trials_2_Back_Tools	ACC_0_Back_Tools	Avg_RT_For_Correct_Trials_0_Back_Tools	ExpInstrucFeelFreeToRest.OnsetDelay	ExpInstrucFeelFreeToRest.OnsetTime	ExpInstrucFeelFreeToRest.DurationError	ExpInstrucFeelFreeToRest.StartTime	ExpInstrucFeelFreeToRest.OnsetToOnsetTime	FeelFreeToRest.OnsetDelay	FeelFreeToRest.OnsetTime	FeelFreeToRest.DurationError	FeelFreeToRest.StartTime	FeelFreeToRest.OnsetToOnsetTime	SessionSelectionList	Procedure[Block]	Stimulus[Block]	RunNumberFilterValue	SessionSelectionList.Cycle	SessionSelectionList.Sample	Running[Block]	IntroButtonMap.OnsetDelay	IntroButtonMap.OnsetTime	IntroButtonMap.DurationError	IntroButtonMap.OnsetToOnsetTime	GetReady.OnsetDelay	GetReady.OnsetTime	GetReady.DurationError	GetReady.OnsetToOnsetTime	Cue2Back.OnsetDelay	Cue2Back.OnsetTime	Cue2Back.DurationError	Cue2Back.OnsetToOnsetTime	Run1Block1	TargetType	CorrectResponse	StimType	BlockType	RunTrialNumber[Block]	TrialsPerRun[Block]	TotalRespGreater200[Block]	ConsecRTLess200[Block]	ConsecNonResp[Block]	ControlAcc	ConsecSameResp	ExperimenterWindow.OnsetDelay	ExperimenterWindow.OnsetTime	ExperimenterWindow.DurationError	ExperimenterWindow.OnsetToOnsetTime	Stim.OnsetDelay	Stim.OnsetTime	Stim.DurationError	Stim.RTTime	Stim.ACC	Stim.RT	Stim.RESP	Stim.CRESP	Stim.OnsetToOnsetTime	Fix.OnsetDelay	Fix.OnsetTime	Fix.DurationError	Fix.OnsetToOnsetTime	CueTarget.OnsetDelay	CueTarget.OnsetTime	CueTarget.DurationError	CueTarget.OnsetToOnsetTime	Run1Block2	Fix15sec.OnsetDelay	Fix15sec.OnsetTime	Fix15sec.DurationError	Fix15sec.OnsetToOnsetTime	Run1Block3	Run1Block4	Run1Block5	Run1Block6	Run1Block7	Run1Block8	Block	Procedure[Trial]	Stimulus[Trial]	ReadyList	Running[Trial]	ReadyList.Cycle	ReadyList.Sample	SyncSlide.OnsetDelay	SyncSlide.OnsetTime	SyncSlide.DurationError	SyncSlide.FinishTime	SyncSlide.OnsetToOnsetTime	Trial
WM080112	128127_fnca	2	1	1	847054096	1	75.031	75.030	2.0.10.147	2.0.10.242	2.0.10.242	1.0.0.439	7	234	2	3	Verdana	1	80	0	0	0	WM Stimuli\	1	1002.3	1	655.2	1	967.2	1	583.9	0.9	731.222222222222	0.7	819.714285714286	0.9	827.444444444444	1	543.1	13	321523	2	321511	26	39	321549	-999999	321526	0	22	TRSyncPROC	""	2	2	1	SessionSelectionList	106	5012	-999999	0	33	13875	-999999	0																																																	1	InitialTR	4	1	ReadyList	1	1	11	27496	-12	29484	0	1
WM080112	128127_fnca	2	1	1	847054096	1	75.031	75.030	2.0.10.147	2.0.10.242	2.0.10.242	1.0.0.439	7	234	2	3	Verdana	1	80	0	0	0	WM Stimuli\	1	1002.3	1	655.2	1	967.2	1	583.9	0.9	731.222222222222	0.7	819.714285714286	0.9	827.444444444444	1	543.1	13	321523	2	321511	26	39	321549	-999999	321526	0	22	TRSyncPROC	""	2	2	1	SessionSelectionList	106	5012	-999999	0	33	13875	-999999	0																																																	1	InitialTR	3	2	ReadyList	1	2	10	29495	-11	31484	0	2
WM080112	128127_fnca	2	1	1	847054096	1	75.031	75.030	2.0.10.147	2.0.10.242	2.0.10.242	1.0.0.439	7	234	2	3	Verdana	1	80	0	0	0	WM Stimuli\	1	1002.3	1	655.2	1	967.2	1	583.9	0.9	731.222222222222	0.7	819.714285714286	0.9	827.444444444444	1	543.1	13	321523	2	321511	26	39	321549	-999999	321526	0	22	TRSyncPROC	""	2	2	1	SessionSelectionList	106	5012	-999999	0	33	13875	-999999	0																																																	1	InitialTR	2	3	ReadyList	1	3	9	31494	-10	33484	0	3
WM080112	128127_fnca	2	1	1	847054096	1	75.031	75.030	2.0.10.147	2.0.10.242	2.0.10.242	1.0.0.439	7	234	2	3	Verdana	1	80	0	0	0	WM Stimuli\	1	1002.3	1	655.2	1	967.2	1	583.9	0.9	731.222222222222	0.7	819.714285714286	0.9	827.444444444444	1	543.1	13	321523	2	321511	26	39	321549	-999999	321526	0	22	TRSyncPROC	""	2	2	1	SessionSelectionList	106	5012	-999999	0	33	13875	-999999	0																																																	1	InitialTR	1	4	ReadyList	1	4	9	33494	-10	35484	0	4
WM080112	128127_fnca	2	1	1	847054096	1	75.031	75.030	2.0.10.147	2.0.10.242	2.0.10.242	1.0.0.439	7	234	2	3	Verdana	1	80	0	0	0	WM Stimuli\	1	1002.3	1	655.2	1	967.2	1	583.9	0.9	731.222222222222	0.7	819.714285714286	0.9	827.444444444444	1	543.1	13	321523	2	321511	26	39	321549	-999999	321526	0	23	Cue2BackPROC	""	2	2	2	SessionSelectionList									8	35493	-9	0																																													2												
WM080112	128127_fnca	2	1	1	847054096	1	75.031	75.030	2.0.10.147	2.0.10.242	2.0.10.242	1.0.0.439	7	234	2	3	Verdana	1	80	0	0	0	WM Stimuli\	1	1002.3	1	655.2	1	967.2	1	583.9	0.9	731.222222222222	0.7	819.714285714286	0.9	827.444444444444	1	543.1	13	321523	2	321511	26	39	321549	-999999	321526	0	24	TrialsPROC	TO_014_TOOL14_BA.png	2	2	3	SessionSelectionList														nonlure	3	Tools	2-Back	2	80	1	0	0	0	1	53	40118	3	13	80	38065	-1	39876	1	1811	3	3	2053	66	40131	-67	0																3												
WM080112	128127_fnca	2	1	1	847054096	1	75.031	75.030	2.0.10.147	2.0.10.242	2.0.10.242	1.0.0.439	7	234	2	3	Verdana	1	80	0	0	0	WM Stimuli\	1	1002.3	1	655.2	1	967.2	1	583.9	0.9	731.222222222222	0.7	819.714285714286	0.9	827.444444444444	1	543.1	13	321523	2	321511	26	39	321549	-999999	321526	0	24	TrialsPROC	TO_013_TOOL13_BA.png	2	2	4	SessionSelectionList														nonlure	3	Tools	2-Back	3	80	2	0	0	0	2	39	42690	1	13	86	40651	-1	41164	1	513	3	3	2039	52	42703	-53	0																4												
WM080112	128127_fnca	2	1	1	847054096	1	75.031	75.030	2.0.10.147	2.0.10.242	2.0.10.242	1.0.0.439	7	234	2	3	Verdana	1	80	0	0	0	WM Stimuli\	1	1002.3	1	655.2	1	967.2	1	583.9	0.9	731.222222222222	0.7	819.714285714286	0.9	827.444444444444	1	543.1	13	321523	2	321511	26	39	321549	-999999	321526	0	24	TrialsPROC	TO_016_TOOL16_BA.png	2	2	5	SessionSelectionList														nonlure	3	Tools	2-Back	4	80	3	0	0	0	3	39	45275	3	14	85	43236	-1	43983	1	747	3	3	2039	53	45289	-54	0																5												
WM080112	128127_fnca	2	1	1	847054096	1	75.031	75.030	2.0.10.147	2.0.10.242	2.0.10.242	1.0.0.439	7	234	2	3	Verdana	1	80	0	0	0	WM Stimuli\	1	1002.3	1	655.2	1	967.2	1	583.9	0.9	731.222222222222	0.7	819.714285714286	0.9	827.444444444444	1	543.1	13	321523	2	321511	26	39	321549	-999999	321526	0	24	TrialsPROC	TO_014_TOOL14_BA.png	2	2	6	SessionSelectionList														lure	3	Tools	2-Back	5	80	4	0	0	0	1	39	47848	1	13	73	45809	-1	47430	0	1621	2	3	2039	52	47861	-53	0																6												
WM080112	128127_fnca	2	1	1	847054096	1	75.031	75.030	2.0.10.147	2.0.10.242	2.0.10.242	1.0.0.439	7	234	2	3	Verdana	1	80	0	0	0	WM Stimuli\	1	1002.3	1	655.2	1	967.2	1	583.9	0.9	731.222222222222	0.7	819.714285714286	0.9	827.444444444444	1	543.1	13	321523	2	321511	26	39	321549	-999999	321526	0	24	TrialsPROC	TO_016_TOOL16_BA.png	2	2	7	SessionSelectionList														target	2	Tools	2-Back	6	80	5	0	0	0	2	39	50420	1	13	72	48381	-1	49473	1	1092	2	2	2039	52	50433	-53	0																7												
WM080112	128127_fnca	2	1	1	847054096	1	75.031	75.030	2.0.10.147	2.0.10.242	2.0.10.242	1.0.0.439	7	234	2	3	Verdana	1	80	0	0	0	WM Stimuli\	1	1002.3	1	655.2	1	967.2	1	583.9	0.9	731.222222222222	0.7	819.714285714286	0.9	827.444444444444	1	543.1	13	321523	2	321511	26	39	321549	-999999	321526	0	24	TrialsPROC	TO_018_TOOL18_BA.png	2	2	8	SessionSelectionList														nonlure	3	Tools	2-Back	7	80	6	0	0	0	1	39	53019	1	13	99	50980	-1	51675	1	695	3	3	2039	52	53032	-53	0																8												
WM080112	128127_fnca	2	1	1	847054096	1	75.031	75.030	2.0.10.147	2.0.10.242	2.0.10.242	1.0.0.439	7	234	2	3	Verdana	1	80	0	0	0	WM Stimuli\	1	1002.3	1	655.2	1	967.2	1	583.9	0.9	731.222222222222	0.7	819.714285714286	0.9	827.444444444444	1	543.1	13	321523	2	321511	26	39	321549	-999999	321526	0	24	TrialsPROC	TO_017_TOOL17_BA.png	2	2	9	SessionSelectionList														nonlure	3	Tools	2-Back	8	80	7	0	0	0	2	40	55605	2	13	85	53565	-1	54160	1	595	3	3	2040	53	55618	-54	0																9												
WM080112	128127_fnca	2	1	1	847054096	1	75.031	75.030	2.0.10.147	2.0.10.242	2.0.10.242	1.0.0.439	7	234	2	3	Verdana	1	80	0	0	0	WM Stimuli\	1	1002.3	1	655.2	1	967.2	1	583.9	0.9	731.222222222222	0.7	819.714285714286	0.9	827.444444444444	1	543.1	13	321523	2	321511	26	39	321549	-999999	321526	0	24	TrialsPROC	TO_018_TOOL18_BA.png	2	2	10	SessionSelectionList														target	2	Tools	2-Back	9	80	8	0	0	0	1	39	58163	2	14	59	56124	-1	56649	1	525	2	2	2039	53	58177	-54	0																10												
WM080112	128127_fnca	2	1	1	847054096	1	75.031	75.030	2.0.10.147	2.0.10.242	2.0.10.242	1.0.0.439	7	234	2	3	Verdana	1	80	0	0	0	WM Stimuli\	1	1002.3	1	655.2	1	967.2	1	583.9	0.9	731.222222222222	0.7	819.714285714286	0.9	827.444444444444	1	543.1	13	321523	2	321511	26	39	321549	-999999	321526	0	24	TrialsPROC	TO_015_TOOL15_BA.png	2	2	11	SessionSelectionList														nonlure	3	Tools	2-Back	10	80	9	0	0	0	1	39	60749	3	14	86	58710	-1	59353	1	643	3	3	2039	53	60763	-54	0																11												
WM080112	128127_fnca	2	1	1	847054096	1	75.031	75.030	2.0.10.147	2.0.10.242	2.0.10.242	1.0.0.439	7	234	2	3	Verdana	1	80	0	0	0	WM Stimuli\	1	1002.3	1	655.2	1	967.2	1	583.9	0.9	731.222222222222	0.7	819.714285714286	0.9	827.444444444444	1	543.1	13	321523	2	321511	26	39	321549	-999999	321526	0	24	TrialsPROC	TO_017_TOOL17_BA.png	2	2	12	SessionSelectionList														lure	3	Tools	2-Back	11	80	10	0	0	0	2	39	63308	3	14	59	61269	-1	62095	1	826	3	3	2039	53	63322	-54	0																12												
WM080112	128127_fnca	2	1	1	847054096	1	75.031	75.030	2.0.10.147	2.0.10.242	2.0.10.242	1.0.0.439	7	234	2	3	Verdana	1	80	0	0	0	WM Stimuli\	1	1002.3	1	655.2	1	967.2	1	583.9	0.9	731.222222222222	0.7	819.714285714286	0.9	827.444444444444	1	543.1	13	321523	2	321511	26	39	321549	-999999	321526	0	25	Cue0BackPROC	BP_013_BP7_BA.png	2	2	13	SessionSelectionList																																										46	63815	-47	0												13												
WM080112	128127_fnca	2	1	1	847054096	1	75.031	75.030	2.0.10.147	2.0.10.242	2.0.10.242	1.0.0.439	7	234	2	3	Verdana	1	80	0	0	0	WM Stimuli\	1	1002.3	1	655.2	1	967.2	1	583.9	0.9	731.222222222222	0.7	819.714285714286	0.9	827.444444444444	1	543.1	13	321523	2	321511	26	39	321549	-999999	321526	0	26	TrialsPROC	BP_015_H10-T_BA.png	2	2	14	SessionSelectionList														nonlure	3	Body	0-Back	12	80	11	0	0	100	3	39	68386	2	13	78	66347	-1	67449	1	1102	3	3	2039	52	68399	-53	0																14												
WM080112	128127_fnca	2	1	1	847054096	1	75.031	75.030	2.0.10.147	2.0.10.242	2.0.10.242	1.0.0.439	7	234	2	3	Verdana	1	80	0	0	0	WM Stimuli\	1	1002.3	1	655.2	1	967.2	1	583.9	0.9	731.222222222222	0.7	819.714285714286	0.9	827.444444444444	1	543.1	13	321523	2	321511	26	39	321549	-999999	321526	0	26	TrialsPROC	BP_018_H13-T_BA.png	2	2	15	SessionSelectionList														nonlure	3	Body	0-Back	13	80	12	0	0	100	4	40	70972	1	13	85	68932	-1	69347	1	415	3	3	2040	53	70985	-54	0																15												
WM080112	128127_fnca	2	1	1	847054096	1	75.031	75.030	2.0.10.147	2.0.10.242	2.0.10.242	1.0.0.439	7	234	2	3	Verdana	1	80	0	0	0	WM Stimuli\	1	1002.3	1	655.2	1	967.2	1	583.9	0.9	731.222222222222	0.7	819.714285714286	0.9	827.444444444444	1	543.1	13	321523	2	321511	26	39	321549	-999999	321526	0	26	TrialsPROC	BP_014_BP9_BA.png	2	2	16	SessionSelectionList														nonlure	3	Body	0-Back	14	80	13	0	0	100	5	39	73557	2	14	86	71518	-1	72325	1	807	3	3	2039	53	73571	-54	0																16												
WM080112	128127_fnca	2	1	1	847054096	1	75.031	75.030	2.0.10.147	2.0.10.242	2.0.10.242	1.0.0.439	7	234	2	3	Verdana	1	80	0	0	0	WM Stimuli\	1	1002.3	1	655.2	1	967.2	1	583.9	0.9	731.222222222222	0.7	819.714285714286	0.9	827.444444444444	1	543.1	13	321523	2	321511	26	39	321549	-999999	321526	0	26	TrialsPROC	BP_018_H13-T_BA.png	2	2	17	SessionSelectionList														lure	3	Body	0-Back	15	80	14	0	0	100	6	39	76116	3	14	59	74077	-1	74720	1	643	3	3	2039	53	76130	-54	0																17												
WM080112	128127_fnca	2	1	1	847054096	1	75.031	75.030	2.0.10.147	2.0.10.242	2.0.10.242	1.0.0.439	7	234	2	3	Verdana	1	80	0	0	0	WM Stimuli\	1	1002.3	1	655.2	1	967.2	1	583.9	0.9	731.222222222222	0.7	819.714285714286	0.9	827.444444444444	1	543.1	13	321523	2	321511	26	39	321549	-999999	321526	0	26	TrialsPROC	BP_013_BP7_BA.png	2	2	18	SessionSelectionList														target	2	Body	0-Back	16	80	15	0	0	100	1	39	78688	3	14	72	76649	-1	77424	1	775	2	2	2039	53	78702	-54	0																18												
WM080112	128127_fnca	2	1	1	847054096	1	75.031	75.030	2.0.10.147	2.0.10.242	2.0.10.242	1.0.0.439	7	234	2	3	Verdana	1	80	0	0	0	WM Stimuli\	1	1002.3	1	655.2	1	967.2	1	583.9	0.9	731.222222222222	0.7	819.714285714286	0.9	827.444444444444	1	543.1	13	321523	2	321511	26	39	321549	-999999	321526	0	26	TrialsPROC	BP_015_H10-T_BA.png	2	2	19	SessionSelectionList														lure	3	Body	0-Back	17	80	16	0	0	100	1	38	81247	3	14	60	79209	-1	79656	1	447	3	3	2038	52	81261	-53	0																19												
WM080112	128127_fnca	2	1	1	847054096	1	75.031	75.030	2.0.10.147	2.0.10.242	2.0.10.242	1.0.0.439	7	234	2	3	Verdana	1	80	0	0	0	WM Stimuli\	1	1002.3	1	655.2	1	967.2	1	583.9	0.9	731.222222222222	0.7	819.714285714286	0.9	827.444444444444	1	543.1	13	321523	2	321511	26	39	321549	-999999	321526	0	26	TrialsPROC	BP_016_H11-T_BA.png	2	2	20	SessionSelectionList														nonlure	3	Body	0-Back	18	80	17	0	0	100	2	39	83833	1	13	85	81794	-1	82324	1	530	3	3	2039	52	83846	-53	0																20												
WM080112	128127_fnca	2	1	1	847054096	1	75.031	75.030	2.0.10.147	2.0.10.242	2.0.10.242	1.0.0.439	7	234	2	3	Verdana	1	80	0	0	0	WM Stimuli\	1	1002.3	1	655.2	1	967.2	1	583.9	0.9	731.222222222222	0.7	819.714285714286	0.9	827.444444444444	1	543.1	13	321523	2	321511	26	39	321549	-999999	321526	0	26	TrialsPROC	BP_013_BP7_BA.png	2	2	21	SessionSelectionList														target	2	Body	0-Back	19	80	18	0	0	100	1	39	86392	1	13	59	84353	-1	84960	1	607	2	2	2039	52	86405	-53	0																21												
WM080112	128127_fnca	2	1	1	847054096	1	75.031	75.030	2.0.10.147	2.0.10.242	2.0.10.242	1.0.0.439	7	234	2	3	Verdana	1	80	0	0	0	WM Stimuli\	1	1002.3	1	655.2	1	967.2	1	583.9	0.9	731.222222222222	0.7	819.714285714286	0.9	827.444444444444	1	543.1	13	321523	2	321511	26	39	321549	-999999	321526	0	26	TrialsPROC	BP_017_H12-T_BA.png	2	2	22	SessionSelectionList														nonlure	3	Body	0-Back	20	80	19	0	0	100	1	40	88978	1	13	85	86938	-1	87436	1	498	3	3	2040	53	88991	-54	0																22												
WM080112	128127_fnca	2	1	1	847054096	1	75.031	75.030	2.0.10.147	2.0.10.242	2.0.10.242	1.0.0.439	7	234	2	3	Verdana	1	80	0	0	0	WM Stimuli\	1	1002.3	1	655.2	1	967.2	1	583.9	0.9	731.222222222222	0.7	819.714285714286	0.9	827.444444444444	1	543.1	13	321523	2	321511	26	39	321549	-999999	321526	0	26	TrialsPROC	BP_014_BP9_BA.png	2	2	23	SessionSelectionList														lure	3	Body	0-Back	21	80	20	0	0	100	2	40	91537	1	13	59	89497	-1	90225	1	728	3	3	2040	53	91550	-54	0																23												
WM080112	128127_fnca	2	1	1	847054096	1	75.031	75.030	2.0.10.147	2.0.10.242	2.0.10.242	1.0.0.439	7	234	2	3	Verdana	1	80	0	0	0	WM Stimuli\	1	1002.3	1	655.2	1	967.2	1	583.9	0.9	731.222222222222	0.7	819.714285714286	0.9	827.444444444444	1	543.1	13	321523	2	321511	26	39	321549	-999999	321526	0	27	Fix15secPROC	""	2	2	24	SessionSelectionList																																															6	92003	-7	0							24												
WM080112	128127_fnca	2	1	1	847054096	1	75.031	75.030	2.0.10.147	2.0.10.242	2.0.10.242	1.0.0.439	7	234	2	3	Verdana	1	80	0	0	0	WM Stimuli\	1	1002.3	1	655.2	1	967.2	1	583.9	0.9	731.222222222222	0.7	819.714285714286	0.9	827.444444444444	1	543.1	13	321523	2	321511	26	39	321549	-999999	321526	0	28	Cue2BackPROC	""	2	2	25	SessionSelectionList									13	107010	-14	0																																													25												
WM080112	128127_fnca	2	1	1	847054096	1	75.031	75.030	2.0.10.147	2.0.10.242	2.0.10.242	1.0.0.439	7	234	2	3	Verdana	1	80	0	0	0	WM Stimuli\	1	1002.3	1	655.2	1	967.2	1	583.9	0.9	731.222222222222	0.7	819.714285714286	0.9	827.444444444444	1	543.1	13	321523	2	321511	26	39	321549	-999999	321526	0	29	TrialsPROC	FC_015_M8.png	2	2	26	SessionSelectionList														nonlure	3	Face	2-Back	22	80	21	0	0	100	3	39	111622	2	13	86	109583	-1	111547	1	1964	3	3	2039	52	111635	-53	0																26												
WM080112	128127_fnca	2	1	1	847054096	1	75.031	75.030	2.0.10.147	2.0.10.242	2.0.10.242	1.0.0.439	7	234	2	3	Verdana	1	80	0	0	0	WM Stimuli\	1	1002.3	1	655.2	1	967.2	1	583.9	0.9	731.222222222222	0.7	819.714285714286	0.9	827.444444444444	1	543.1	13	321523	2	321511	26	39	321549	-999999	321526	0	29	TrialsPROC	FC_018_F9.png	2	2	27	SessionSelectionList														nonlure	3	Face	2-Back	23	80	22	0	0	100	4	40	114221	1	13	98	112181	-1	112746	1	565	3	3	2040	53	114234	-54	0																27												
WM080112	128127_fnca	2	1	1	847054096	1	75.031	75.030	2.0.10.147	2.0.10.242	2.0.10.242	1.0.0.439	7	234	2	3	Verdana	1	80	0	0	0	WM Stimuli\	1	1002.3	1	655.2	1	967.2	1	583.9	0.9	731.222222222222	0.7	819.714285714286	0.9	827.444444444444	1	543.1	13	321523	2	321511	26	39	321549	-999999	321526	0	29	TrialsPROC	FC_018_F9.png	2	2	28	SessionSelectionList														lure	3	Face	2-Back	24	80	23	0	0	100	5	39	116793	2	13	73	114754	-1	115743	1	989	3	3	2039	52	116806	-53	0																28												
WM080112	128127_fnca	2	1	1	847054096	1	75.031	75.030	2.0.10.147	2.0.10.242	2.0.10.242	1.0.0.439	7	234	2	3	Verdana	1	80	0	0	0	WM Stimuli\	1	1002.3	1	655.2	1	967.2	1	583.9	0.9	731.222222222222	0.7	819.714285714286	0.9	827.444444444444	1	543.1	13	321523	2	321511	26	39	321549	-999999	321526	0	29	TrialsPROC	FC_017_M9.png	2	2	29	SessionSelectionList														nonlure	3	Face	2-Back	25	80	24	0	0	100	6	40	119379	2	13	85	117339	-1	118039	1	700	3	3	2040	53	119392	-54	0																29												
WM080112	128127_fnca	2	1	1	847054096	1	75.031	75.030	2.0.10.147	2.0.10.242	2.0.10.242	1.0.0.439	7	234	2	3	Verdana	1	80	0	0	0	WM Stimuli\	1	1002.3	1	655.2	1	967.2	1	583.9	0.9	731.222222222222	0.7	819.714285714286	0.9	827.444444444444	1	543.1	13	321523	2	321511	26	39	321549	-999999	321526	0	29	TrialsPROC	FC_017_M9.png	2	2	30	SessionSelectionList														lure	3	Face	2-Back	26	80	25	0	0	100	7	39	121951	2	13	73	119912	-1	121246	1	1334	3	3	2039	52	121964	-53	0																30												
WM080112	128127_fnca	2	1	1	847054096	1	75.031	75.030	2.0.10.147	2.0.10.242	2.0.10.242	1.0.0.439	7	234	2	3	Verdana	1	80	0	0	0	WM Stimuli\	1	1002.3	1	655.2	1	967.2	1	583.9	0.9	731.222222222222	0.7	819.714285714286	0.9	827.444444444444	1	543.1	13	321523	2	321511	26	39	321549	-999999	321526	0	29	TrialsPROC	FC_016_F8.png	2	2	31	SessionSelectionList														nonlure	3	Face	2-Back	27	80	26	0	0	100	8	39	124550	1	13	99	122511	-1	123963	1	1452	3	3	2039	52	124563	-53	0																31												
WM080112	128127_fnca	2	1	1	847054096	1	75.031	75.030	2.0.10.147	2.0.10.242	2.0.10.242	1.0.0.439	7	234	2	3	Verdana	1	80	0	0	0	WM Stimuli\	1	1002.3	1	655.2	1	967.2	1	583.9	0.9	731.222222222222	0.7	819.714285714286	0.9	827.444444444444	1	543.1	13	321523	2	321511	26	39	321549	-999999	321526	0	29	TrialsPROC	FC_013_M7.png	2	2	32	SessionSelectionList														nonlure	3	Face	2-Back	28	80	27	0	0	100	9	39	127149	2	13	99	125110	-1	125860	1	750	3	3	2039	52	127162	-53	0																32												
WM080112	128127_fnca	2	1	1	847054096	1	75.031	75.030	2.0.10.147	2.0.10.242	2.0.10.242	1.0.0.439	7	234	2	3	Verdana	1	80	0	0	0	WM Stimuli\	1	1002.3	1	655.2	1	967.2	1	583.9	0.9	731.222222222222	0.7	819.714285714286	0.9	827.444444444444	1	543.1	13	321523	2	321511	26	39	321549	-999999	321526	0	29	TrialsPROC	FC_014_F7.png	2	2	33	SessionSelectionList														nonlure	3	Face	2-Back	29	80	28	0	0	100	10	39	129734	2	14	85	127695	-1	128566	1	871	3	3	2039	53	129748	-54	0																33												
WM080112	128127_fnca	2	1	1	847054096	1	75.031	75.030	2.0.10.147	2.0.10.242	2.0.10.242	1.0.0.439	7	234	2	3	Verdana	1	80	0	0	0	WM Stimuli\	1	1002.3	1	655.2	1	967.2	1	583.9	0.9	731.222222222222	0.7	819.714285714286	0.9	827.444444444444	1	543.1	13	321523	2	321511	26	39	321549	-999999	321526	0	29	TrialsPROC	FC_013_M7.png	2	2	34	SessionSelectionList														target	2	Face	2-Back	30	80	29	0	0	100	1	40	132307	2	13	72	130267	-1	130801	1	534	2	2	2040	53	132320	-54	0																34												
WM080112	128127_fnca	2	1	1	847054096	1	75.031	75.030	2.0.10.147	2.0.10.242	2.0.10.242	1.0.0.439	7	234	2	3	Verdana	1	80	0	0	0	WM Stimuli\	1	1002.3	1	655.2	1	967.2	1	583.9	0.9	731.222222222222	0.7	819.714285714286	0.9	827.444444444444	1	543.1	13	321523	2	321511	26	39	321549	-999999	321526	0	29	TrialsPROC	FC_014_F7.png	2	2	35	SessionSelectionList														target	2	Face	2-Back	31	80	30	0	0	100	2	39	134879	1	13	73	132840	-1	133353	1	513	2	2	2039	52	134892	-53	0																35												
WM080112	128127_fnca	2	1	1	847054096	1	75.031	75.030	2.0.10.147	2.0.10.242	2.0.10.242	1.0.0.439	7	234	2	3	Verdana	1	80	0	0	0	WM Stimuli\	1	1002.3	1	655.2	1	967.2	1	583.9	0.9	731.222222222222	0.7	819.714285714286	0.9	827.444444444444	1	543.1	13	321523	2	321511	26	39	321549	-999999	321526	0	30	Cue0BackPROC	TO_019_TOOL19_BA.png	2	2	36	SessionSelectionList																																										45	135385	-46	0												36												
WM080112	128127_fnca	2	1	1	847054096	1	75.031	75.030	2.0.10.147	2.0.10.242	2.0.10.242	1.0.0.439	7	234	2	3	Verdana	1	80	0	0	0	WM Stimuli\	1	1002.3	1	655.2	1	967.2	1	583.9	0.9	731.222222222222	0.7	819.714285714286	0.9	827.444444444444	1	543.1	13	321523	2	321511	26	39	321549	-999999	321526	0	31	TrialsPROC	TO_019_TOOL19_BA.png	2	2	37	SessionSelectionList														target	2	Tools	0-Back	32	80	31	0	0	100	3	39	139930	2	14	51	137891	-1	138662	1	771	2	2	2039	53	139944	-54	0																37												
WM080112	128127_fnca	2	1	1	847054096	1	75.031	75.030	2.0.10.147	2.0.10.242	2.0.10.242	1.0.0.439	7	234	2	3	Verdana	1	80	0	0	0	WM Stimuli\	1	1002.3	1	655.2	1	967.2	1	583.9	0.9	731.222222222222	0.7	819.714285714286	0.9	827.444444444444	1	543.1	13	321523	2	321511	26	39	321549	-999999	321526	0	31	TrialsPROC	TO_024_TOOL24_BA.png	2	2	38	SessionSelectionList														nonlure	3	Tools	0-Back	33	80	32	0	0	100	1	39	142516	1	13	86	140477	-1	141009	1	532	3	3	2039	52	142529	-53	0																38												
WM080112	128127_fnca	2	1	1	847054096	1	75.031	75.030	2.0.10.147	2.0.10.242	2.0.10.242	1.0.0.439	7	234	2	3	Verdana	1	80	0	0	0	WM Stimuli\	1	1002.3	1	655.2	1	967.2	1	583.9	0.9	731.222222222222	0.7	819.714285714286	0.9	827.444444444444	1	543.1	13	321523	2	321511	26	39	321549	-999999	321526	0	31	TrialsPROC	TO_019_TOOL19_BA.png	2	2	39	SessionSelectionList														target	2	Tools	0-Back	34	80	33	0	0	100	1	39	145075	1	13	59	143036	-1	143493	1	457	2	2	2039	52	145088	-53	0																39												
WM080112	128127_fnca	2	1	1	847054096	1	75.031	75.030	2.0.10.147	2.0.10.242	2.0.10.242	1.0.0.439	7	234	2	3	Verdana	1	80	0	0	0	WM Stimuli\	1	1002.3	1	655.2	1	967.2	1	583.9	0.9	731.222222222222	0.7	819.714285714286	0.9	827.444444444444	1	543.1	13	321523	2	321511	26	39	321549	-999999	321526	0	31	TrialsPROC	TO_023_TOOL23_BA.png	2	2	40	SessionSelectionList														nonlure	3	Tools	0-Back	35	80	34	0	0	100	1	39	147660	3	14	85	145621	-1	146229	1	608	3	3	2039	53	147674	-54	0																40												
WM080112	128127_fnca	2	1	1	847054096	1	75.031	75.030	2.0.10.147	2.0.10.242	2.0.10.242	1.0.0.439	7	234	2	3	Verdana	1	80	0	0	0	WM Stimuli\	1	1002.3	1	655.2	1	967.2	1	583.9	0.9	731.222222222222	0.7	819.714285714286	0.9	827.444444444444	1	543.1	13	321523	2	321511	26	39	321549	-999999	321526	0	31	TrialsPROC	TO_020_TOOL20_BA.png	2	2	41	SessionSelectionList														nonlure	3	Tools	0-Back	36	80	35	0	0	100	2	39	150246	2	13	86	148207	-1	148638	1	431	3	3	2039	52	150259	-53	0																41												
WM080112	128127_fnca	2	1	1	847054096	1	75.031	75.030	2.0.10.147	2.0.10.242	2.0.10.242	1.0.0.439	7	234	2	3	Verdana	1	80	0	0	0	WM Stimuli\	1	1002.3	1	655.2	1	967.2	1	583.9	0.9	731.222222222222	0.7	819.714285714286	0.9	827.444444444444	1	543.1	13	321523	2	321511	26	39	321549	-999999	321526	0	31	TrialsPROC	TO_020_TOOL20_BA.png	2	2	42	SessionSelectionList														lure	3	Tools	0-Back	37	80	36	0	0	100	3	39	152805	1	13	59	150766	-1	151220	1	454	3	3	2039	52	152818	-53	0																42												
WM080112	128127_fnca	2	1	1	847054096	1	75.031	75.030	2.0.10.147	2.0.10.242	2.0.10.242	1.0.0.439	7	234	2	3	Verdana	1	80	0	0	0	WM Stimuli\	1	1002.3	1	655.2	1	967.2	1	583.9	0.9	731.222222222222	0.7	819.714285714286	0.9	827.444444444444	1	543.1	13	321523	2	321511	26	39	321549	-999999	321526	0	31	TrialsPROC	TO_022_TOOL22_BA.png	2	2	43	SessionSelectionList														nonlure	3	Tools	0-Back	38	80	37	0	0	100	4	39	155390	3	14	85	153351	-1	153945	1	594	3	3	2039	53	155404	-54	0																43												
WM080112	128127_fnca	2	1	1	847054096	1	75.031	75.030	2.0.10.147	2.0.10.242	2.0.10.242	1.0.0.439	7	234	2	3	Verdana	1	80	0	0	0	WM Stimuli\	1	1002.3	1	655.2	1	967.2	1	583.9	0.9	731.222222222222	0.7	819.714285714286	0.9	827.444444444444	1	543.1	13	321523	2	321511	26	39	321549	-999999	321526	0	31	TrialsPROC	TO_022_TOOL22_BA.png	2	2	44	SessionSelectionList														lure	3	Tools	0-Back	39	80	38	0	0	100	5	39	157949	3	14	59	155910	-1	156457	1	547	3	3	2039	53	157963	-54	0																44												
WM080112	128127_fnca	2	1	1	847054096	1	75.031	75.030	2.0.10.147	2.0.10.242	2.0.10.242	1.0.0.439	7	234	2	3	Verdana	1	80	0	0	0	WM Stimuli\	1	1002.3	1	655.2	1	967.2	1	583.9	0.9	731.222222222222	0.7	819.714285714286	0.9	827.444444444444	1	543.1	13	321523	2	321511	26	39	321549	-999999	321526	0	31	TrialsPROC	TO_021_TOOL21_BA.png	2	2	45	SessionSelectionList														nonlure	3	Tools	0-Back	40	80	39	0	0	100	6	39	160508	2	14	59	158469	-1	159039	1	570	3	3	2039	53	160522	-54	0																45												
WM080112	128127_fnca	2	1	1	847054096	1	75.031	75.030	2.0.10.147	2.0.10.242	2.0.10.242	1.0.0.439	7	234	2	3	Verdana	1	80	0	0	0	WM Stimuli\	1	1002.3	1	655.2	1	967.2	1	583.9	0.9	731.222222222222	0.7	819.714285714286	0.9	827.444444444444	1	543.1	13	321523	2	321511	26	39	321549	-999999	321526	0	31	TrialsPROC	TO_021_TOOL21_BA.png	2	2	46	SessionSelectionList														lure	3	Tools	0-Back	41	80	40	0	0	100	7	39	163067	3	14	59	161028	-1	161495	1	467	3	3	2039	53	163081	-54	0																46												
WM080112	128127_fnca	2	1	1	847054096	1	75.031	75.030	2.0.10.147	2.0.10.242	2.0.10.242	1.0.0.439	7	234	2	3	Verdana	1	80	0	0	0	WM Stimuli\	1	1002.3	1	655.2	1	967.2	1	583.9	0.9	731.222222222222	0.7	819.714285714286	0.9	827.444444444444	1	543.1	13	321523	2	321511	26	39	321549	-999999	321526	0	32	Fix15secPROC	""	2	2	47	SessionSelectionList																																															6	163534	-7	0							47												
WM080112	128127_fnca	2	1	1	847054096	1	75.031	75.030	2.0.10.147	2.0.10.242	2.0.10.242	1.0.0.439	7	234	2	3	Verdana	1	80	0	0	0	WM Stimuli\	1	1002.3	1	655.2	1	967.2	1	583.9	0.9	731.222222222222	0.7	819.714285714286	0.9	827.444444444444	1	543.1	13	321523	2	321511	26	39	321549	-999999	321526	0	33	Cue2BackPROC	""	2	2	48	SessionSelectionList									13	178541	-14	0																																													48												
WM080112	128127_fnca	2	1	1	847054096	1	75.031	75.030	2.0.10.147	2.0.10.242	2.0.10.242	1.0.0.439	7	234	2	3	Verdana	1	80	0	0	0	WM Stimuli\	1	1002.3	1	655.2	1	967.2	1	583.9	0.9	731.222222222222	0.7	819.714285714286	0.9	827.444444444444	1	543.1	13	321523	2	321511	26	39	321549	-999999	321526	0	34	TrialsPROC	BP_020_H17-T_BA.png	2	2	49	SessionSelectionList														nonlure	3	Body	2-Back	42	80	41	0	0	100	8	39	183126	1	13	59	181087	-1	182707	1	1620	3	3	2039	52	183139	-53	0																49												
WM080112	128127_fnca	2	1	1	847054096	1	75.031	75.030	2.0.10.147	2.0.10.242	2.0.10.242	1.0.0.439	7	234	2	3	Verdana	1	80	0	0	0	WM Stimuli\	1	1002.3	1	655.2	1	967.2	1	583.9	0.9	731.222222222222	0.7	819.714285714286	0.9	827.444444444444	1	543.1	13	321523	2	321511	26	39	321549	-999999	321526	0	34	TrialsPROC	BP_019_H14-T_BA.png	2	2	50	SessionSelectionList														nonlure	3	Body	2-Back	43	80	42	0	0	100	9	39	185698	3	14	72	183659	-1	184425	1	766	3	3	2039	53	185712	-54	0																50												
WM080112	128127_fnca	2	1	1	847054096	1	75.031	75.030	2.0.10.147	2.0.10.242	2.0.10.242	1.0.0.439	7	234	2	3	Verdana	1	80	0	0	0	WM Stimuli\	1	1002.3	1	655.2	1	967.2	1	583.9	0.9	731.222222222222	0.7	819.714285714286	0.9	827.444444444444	1	543.1	13	321523	2	321511	26	39	321549	-999999	321526	0	34	TrialsPROC	BP_020_H17-T_BA.png	2	2	51	SessionSelectionList														target	2	Body	2-Back	44	80	43	0	0	100	1	39	188257	1	14	59	186218	-1	186840	1	622	2	2	2039	53	188271	-54	0																51												
WM080112	128127_fnca	2	1	1	847054096	1	75.031	75.030	2.0.10.147	2.0.10.242	2.0.10.242	1.0.0.439	7	234	2	3	Verdana	1	80	0	0	0	WM Stimuli\	1	1002.3	1	655.2	1	967.2	1	583.9	0.9	731.222222222222	0.7	819.714285714286	0.9	827.444444444444	1	543.1	13	321523	2	321511	26	39	321549	-999999	321526	0	34	TrialsPROC	BP_019_H14-T_BA.png	2	2	52	SessionSelectionList														target	2	Body	2-Back	45	80	44	0	0	100	2	39	190829	2	14	72	188790	-1	189595	1	805	2	2	2039	53	190843	-54	0																52												
WM080112	128127_fnca	2	1	1	847054096	1	75.031	75.030	2.0.10.147	2.0.10.242	2.0.10.242	1.0.0.439	7	234	2	3	Verdana	1	80	0	0	0	WM Stimuli\	1	1002.3	1	655.2	1	967.2	1	583.9	0.9	731.222222222222	0.7	819.714285714286	0.9	827.444444444444	1	543.1	13	321523	2	321511	26	39	321549	-999999	321526	0	34	TrialsPROC	BP_024_H3-T_BA.png	2	2	53	SessionSelectionList														nonlure	3	Body	2-Back	46	80	45	0	0	100	1	40	193402	2	13	72	191362	-1	191983	1	621	3	3	2040	53	193415	-54	0																53												
WM080112	128127_fnca	2	1	1	847054096	1	75.031	75.030	2.0.10.147	2.0.10.242	2.0.10.242	1.0.0.439	7	234	2	3	Verdana	1	80	0	0	0	WM Stimuli\	1	1002.3	1	655.2	1	967.2	1	583.9	0.9	731.222222222222	0.7	819.714285714286	0.9	827.444444444444	1	543.1	13	321523	2	321511	26	39	321549	-999999	321526	0	34	TrialsPROC	BP_024_H3-T_BA.png	2	2	54	SessionSelectionList														lure	3	Body	2-Back	47	80	46	0	0	100	2	39	195961	1	13	60	193922	-1	194807	1	885	3	3	2039	52	195974	-53	0																54												
WM080112	128127_fnca	2	1	1	847054096	1	75.031	75.030	2.0.10.147	2.0.10.242	2.0.10.242	1.0.0.439	7	234	2	3	Verdana	1	80	0	0	0	WM Stimuli\	1	1002.3	1	655.2	1	967.2	1	583.9	0.9	731.222222222222	0.7	819.714285714286	0.9	827.444444444444	1	543.1	13	321523	2	321511	26	39	321549	-999999	321526	0	34	TrialsPROC	BP_025_H5-T_BA.png	2	2	55	SessionSelectionList														nonlure	3	Body	2-Back	48	80	47	0	0	100	3	39	198520	1	13	59	196481	-1	197346	1	865	3	3	2039	52	198533	-53	0																55												
WM080112	128127_fnca	2	1	1	847054096	1	75.031	75.030	2.0.10.147	2.0.10.242	2.0.10.242	1.0.0.439	7	234	2	3	Verdana	1	80	0	0	0	WM Stimuli\	1	1002.3	1	655.2	1	967.2	1	583.9	0.9	731.222222222222	0.7	819.714285714286	0.9	827.444444444444	1	543.1	13	321523	2	321511	26	39	321549	-999999	321526	0	34	TrialsPROC	BP_023_H25-T_BA.png	2	2	56	SessionSelectionList														nonlure	3	Body	2-Back	49	80	48	0	0	100	4	39	201092	1	13	72	199053	-1	200926	1	1873	3	3	2039	52	201105	-53	0																56												
WM080112	128127_fnca	2	1	1	847054096	1	75.031	75.030	2.0.10.147	2.0.10.242	2.0.10.242	1.0.0.439	7	234	2	3	Verdana	1	80	0	0	0	WM Stimuli\	1	1002.3	1	655.2	1	967.2	1	583.9	0.9	731.222222222222	0.7	819.714285714286	0.9	827.444444444444	1	543.1	13	321523	2	321511	26	39	321549	-999999	321526	0	34	TrialsPROC	BP_022_H24-T_BA.png	2	2	57	SessionSelectionList														nonlure	3	Body	2-Back	50	80	49	0	0	100	5	39	203664	1	14	72	201625	-1	202714	1	1089	3	3	2039	53	203678	-54	0																57												
WM080112	128127_fnca	2	1	1	847054096	1	75.031	75.030	2.0.10.147	2.0.10.242	2.0.10.242	1.0.0.439	7	234	2	3	Verdana	1	80	0	0	0	WM Stimuli\	1	1002.3	1	655.2	1	967.2	1	583.9	0.9	731.222222222222	0.7	819.714285714286	0.9	827.444444444444	1	543.1	13	321523	2	321511	26	39	321549	-999999	321526	0	34	TrialsPROC	BP_022_H24-T_BA.png	2	2	58	SessionSelectionList														lure	3	Body	2-Back	51	80	50	0	0	100	6	39	206223	1	14	59	204184	-1	205061	1	877	3	3	2039	53	206237	-54	0																58												
WM080112	128127_fnca	2	1	1	847054096	1	75.031	75.030	2.0.10.147	2.0.10.242	2.0.10.242	1.0.0.439	7	234	2	3	Verdana	1	80	0	0	0	WM Stimuli\	1	1002.3	1	655.2	1	967.2	1	583.9	0.9	731.222222222222	0.7	819.714285714286	0.9	827.444444444444	1	543.1	13	321523	2	321511	26	39	321549	-999999	321526	0	35	Cue2BackPROC	""	2	2	59	SessionSelectionList									6	206690	-7	0																																													59												
WM080112	128127_fnca	2	1	1	847054096	1	75.031	75.030	2.0.10.147	2.0.10.242	2.0.10.242	1.0.0.439	7	234	2	3	Verdana	1	80	0	0	0	WM Stimuli\	1	1002.3	1	655.2	1	967.2	1	583.9	0.9	731.222222222222	0.7	819.714285714286	0.9	827.444444444444	1	543.1	13	321523	2	321511	26	39	321549	-999999	321526	0	36	TrialsPROC	PL_019_SCENE_05.png	2	2	60	SessionSelectionList														nonlure	3	Place	2-Back	52	80	51	0	0	100	7	40	211288	2	13	64	209248	-1	210131	1	883	3	3	2040	53	211301	-54	0																60												
WM080112	128127_fnca	2	1	1	847054096	1	75.031	75.030	2.0.10.147	2.0.10.242	2.0.10.242	1.0.0.439	7	234	2	3	Verdana	1	80	0	0	0	WM Stimuli\	1	1002.3	1	655.2	1	967.2	1	583.9	0.9	731.222222222222	0.7	819.714285714286	0.9	827.444444444444	1	543.1	13	321523	2	321511	26	39	321549	-999999	321526	0	36	TrialsPROC	PL_017_SCENE_03.png	2	2	61	SessionSelectionList														nonlure	3	Place	2-Back	53	80	52	0	0	100	8	39	213860	1	13	73	211821	-1	212415	1	594	3	3	2039	52	213873	-53	0																61												
WM080112	128127_fnca	2	1	1	847054096	1	75.031	75.030	2.0.10.147	2.0.10.242	2.0.10.242	1.0.0.439	7	234	2	3	Verdana	1	80	0	0	0	WM Stimuli\	1	1002.3	1	655.2	1	967.2	1	583.9	0.9	731.222222222222	0.7	819.714285714286	0.9	827.444444444444	1	543.1	13	321523	2	321511	26	39	321549	-999999	321526	0	36	TrialsPROC	PL_017_SCENE_03.png	2	2	62	SessionSelectionList														lure	3	Place	2-Back	54	80	53	0	0	100	9	39	216432	3	14	72	214393	-1	215015	1	622	3	3	2039	53	216446	-54	0																62												
WM080112	128127_fnca	2	1	1	847054096	1	75.031	75.030	2.0.10.147	2.0.10.242	2.0.10.242	1.0.0.439	7	234	2	3	Verdana	1	80	0	0	0	WM Stimuli\	1	1002.3	1	655.2	1	967.2	1	583.9	0.9	731.222222222222	0.7	819.714285714286	0.9	827.444444444444	1	543.1	13	321523	2	321511	26	39	321549	-999999	321526	0	36	TrialsPROC	PL_016_SCENE_02.png	2	2	63	SessionSelectionList														nonlure	3	Place	2-Back	55	80	54	0	0	100	1	40	219005	1	13	72	216965	-1	217574	0	609	2	3	2040	53	219018	-54	0																63												
WM080112	128127_fnca	2	1	1	847054096	1	75.031	75.030	2.0.10.147	2.0.10.242	2.0.10.242	1.0.0.439	7	234	2	3	Verdana	1	80	0	0	0	WM Stimuli\	1	1002.3	1	655.2	1	967.2	1	583.9	0.9	731.222222222222	0.7	819.714285714286	0.9	827.444444444444	1	543.1	13	321523	2	321511	26	39	321549	-999999	321526	0	36	TrialsPROC	PL_015_SCENE_01.png	2	2	64	SessionSelectionList														nonlure	3	Place	2-Back	56	80	55	0	0	100	1	39	221577	1	13	73	219538	-1	220124	1	586	3	3	2039	52	221590	-53	0																64												
WM080112	128127_fnca	2	1	1	847054096	1	75.031	75.030	2.0.10.147	2.0.10.242	2.0.10.242	1.0.0.439	7	234	2	3	Verdana	1	80	0	0	0	WM Stimuli\	1	1002.3	1	655.2	1	967.2	1	583.9	0.9	731.222222222222	0.7	819.714285714286	0.9	827.444444444444	1	543.1	13	321523	2	321511	26	39	321549	-999999	321526	0	36	TrialsPROC	PL_016_SCENE_02.png	2	2	65	SessionSelectionList														target	2	Place	2-Back	57	80	56	0	0	100	1	39	224149	1	14	72	222110	-1	223003	1	893	2	2	2039	53	224163	-54	0																65												
WM080112	128127_fnca	2	1	1	847054096	1	75.031	75.030	2.0.10.147	2.0.10.242	2.0.10.242	1.0.0.439	7	234	2	3	Verdana	1	80	0	0	0	WM Stimuli\	1	1002.3	1	655.2	1	967.2	1	583.9	0.9	731.222222222222	0.7	819.714285714286	0.9	827.444444444444	1	543.1	13	321523	2	321511	26	39	321549	-999999	321526	0	36	TrialsPROC	PL_015_SCENE_01.png	2	2	66	SessionSelectionList														target	2	Place	2-Back	58	80	57	0	0	100	2	39	226721	2	14	72	224682	-1	225610	1	928	2	2	2039	53	226735	-54	0																66												
WM080112	128127_fnca	2	1	1	847054096	1	75.031	75.030	2.0.10.147	2.0.10.242	2.0.10.242	1.0.0.439	7	234	2	3	Verdana	1	80	0	0	0	WM Stimuli\	1	1002.3	1	655.2	1	967.2	1	583.9	0.9	731.222222222222	0.7	819.714285714286	0.9	827.444444444444	1	543.1	13	321523	2	321511	26	39	321549	-999999	321526	0	36	TrialsPROC	PL_020_SCENE_06.png	2	2	67	SessionSelectionList														nonlure	3	Place	2-Back	59	80	58	0	0	100	1	39	229307	2	13	86	227268	-1	227851	1	583	3	3	2039	52	229320	-53	0																67												
WM080112	128127_fnca	2	1	1	847054096	1	75.031	75.030	2.0.10.147	2.0.10.242	2.0.10.242	1.0.0.439	7	234	2	3	Verdana	1	80	0	0	0	WM Stimuli\	1	1002.3	1	655.2	1	967.2	1	583.9	0.9	731.222222222222	0.7	819.714285714286	0.9	827.444444444444	1	543.1	13	321523	2	321511	26	39	321549	-999999	321526	0	36	TrialsPROC	PL_020_SCENE_06.png	2	2	68	SessionSelectionList														lure	3	Place	2-Back	60	80	59	0	0	100	2	39	231879	2	14	72	229840	-1	230545	1	705	3	3	2039	53	231893	-54	0																68												
WM080112	128127_fnca	2	1	1	847054096	1	75.031	75.030	2.0.10.147	2.0.10.242	2.0.10.242	1.0.0.439	7	234	2	3	Verdana	1	80	0	0	0	WM Stimuli\	1	1002.3	1	655.2	1	967.2	1	583.9	0.9	731.222222222222	0.7	819.714285714286	0.9	827.444444444444	1	543.1	13	321523	2	321511	26	39	321549	-999999	321526	0	36	TrialsPROC	PL_018_SCENE_04.png	2	2	69	SessionSelectionList														nonlure	3	Place	2-Back	61	80	60	0	0	100	3	39	234465	1	13	86	232426	-1	233213	1	787	3	3	2039	52	234478	-53	0																69												
WM080112	128127_fnca	2	1	1	847054096	1	75.031	75.030	2.0.10.147	2.0.10.242	2.0.10.242	1.0.0.439	7	234	2	3	Verdana	1	80	0	0	0	WM Stimuli\	1	1002.3	1	655.2	1	967.2	1	583.9	0.9	731.222222222222	0.7	819.714285714286	0.9	827.444444444444	1	543.1	13	321523	2	321511	26	39	321549	-999999	321526	0	37	Fix15secPROC	""	2	2	70	SessionSelectionList																																															5	234931	-6	0							70												
WM080112	128127_fnca	2	1	1	847054096	1	75.031	75.030	2.0.10.147	2.0.10.242	2.0.10.242	1.0.0.439	7	234	2	3	Verdana	1	80	0	0	0	WM Stimuli\	1	1002.3	1	655.2	1	967.2	1	583.9	0.9	731.222222222222	0.7	819.714285714286	0.9	827.444444444444	1	543.1	13	321523	2	321511	26	39	321549	-999999	321526	0	38	Cue0BackPROC	FC_020_F10.png	2	2	71	SessionSelectionList																																										39	249965	-40	0												71												
WM080112	128127_fnca	2	1	1	847054096	1	75.031	75.030	2.0.10.147	2.0.10.242	2.0.10.242	1.0.0.439	7	234	2	3	Verdana	1	80	0	0	0	WM Stimuli\	1	1002.3	1	655.2	1	967.2	1	583.9	0.9	731.222222222222	0.7	819.714285714286	0.9	827.444444444444	1	543.1	13	321523	2	321511	26	39	321549	-999999	321526	0	39	TrialsPROC	FC_024_F12.png	2	2	72	SessionSelectionList														nonlure	3	Face	0-Back	62	80	61	0	0	100	4	39	254550	1	13	85	252511	-1	253429	1	918	3	3	2039	52	254563	-53	0																72												
WM080112	128127_fnca	2	1	1	847054096	1	75.031	75.030	2.0.10.147	2.0.10.242	2.0.10.242	1.0.0.439	7	234	2	3	Verdana	1	80	0	0	0	WM Stimuli\	1	1002.3	1	655.2	1	967.2	1	583.9	0.9	731.222222222222	0.7	819.714285714286	0.9	827.444444444444	1	543.1	13	321523	2	321511	26	39	321549	-999999	321526	0	39	TrialsPROC	FC_023_M12.png	2	2	73	SessionSelectionList														nonlure	3	Face	0-Back	63	80	62	0	0	100	5	40	257136	2	13	85	255096	-1	255687	1	591	3	3	2040	53	257149	-54	0																73												
WM080112	128127_fnca	2	1	1	847054096	1	75.031	75.030	2.0.10.147	2.0.10.242	2.0.10.242	1.0.0.439	7	234	2	3	Verdana	1	80	0	0	0	WM Stimuli\	1	1002.3	1	655.2	1	967.2	1	583.9	0.9	731.222222222222	0.7	819.714285714286	0.9	827.444444444444	1	543.1	13	321523	2	321511	26	39	321549	-999999	321526	0	39	TrialsPROC	FC_020_F10.png	2	2	74	SessionSelectionList														target	2	Face	0-Back	64	80	63	0	0	100	1	39	259708	1	13	73	257669	-1	258304	1	635	2	2	2039	52	259721	-53	0																74												
WM080112	128127_fnca	2	1	1	847054096	1	75.031	75.030	2.0.10.147	2.0.10.242	2.0.10.242	1.0.0.439	7	234	2	3	Verdana	1	80	0	0	0	WM Stimuli\	1	1002.3	1	655.2	1	967.2	1	583.9	0.9	731.222222222222	0.7	819.714285714286	0.9	827.444444444444	1	543.1	13	321523	2	321511	26	39	321549	-999999	321526	0	39	TrialsPROC	FC_024_F12.png	2	2	75	SessionSelectionList														lure	3	Face	0-Back	65	80	64	0	0	100	1	39	262280	3	14	72	260241	-1	260753	1	512	3	3	2039	53	262294	-54	0																75												
WM080112	128127_fnca	2	1	1	847054096	1	75.031	75.030	2.0.10.147	2.0.10.242	2.0.10.242	1.0.0.439	7	234	2	3	Verdana	1	80	0	0	0	WM Stimuli\	1	1002.3	1	655.2	1	967.2	1	583.9	0.9	731.222222222222	0.7	819.714285714286	0.9	827.444444444444	1	543.1	13	321523	2	321511	26	39	321549	-999999	321526	0	39	TrialsPROC	FC_020_F10.png	2	2	76	SessionSelectionList														target	2	Face	0-Back	66	80	65	0	0	100	1	39	264852	2	14	72	262813	-1	263275	1	462	2	2	2039	53	264866	-54	0																76												
WM080112	128127_fnca	2	1	1	847054096	1	75.031	75.030	2.0.10.147	2.0.10.242	2.0.10.242	1.0.0.439	7	234	2	3	Verdana	1	80	0	0	0	WM Stimuli\	1	1002.3	1	655.2	1	967.2	1	583.9	0.9	731.222222222222	0.7	819.714285714286	0.9	827.444444444444	1	543.1	13	321523	2	321511	26	39	321549	-999999	321526	0	39	TrialsPROC	FC_022_F11.png	2	2	77	SessionSelectionList														nonlure	3	Face	0-Back	67	80	66	0	0	100	1	39	267438	1	14	86	265399	-1	265984	1	585	3	3	2039	53	267452	-54	0																77												
WM080112	128127_fnca	2	1	1	847054096	1	75.031	75.030	2.0.10.147	2.0.10.242	2.0.10.242	1.0.0.439	7	234	2	3	Verdana	1	80	0	0	0	WM Stimuli\	1	1002.3	1	655.2	1	967.2	1	583.9	0.9	731.222222222222	0.7	819.714285714286	0.9	827.444444444444	1	543.1	13	321523	2	321511	26	39	321549	-999999	321526	0	39	TrialsPROC	FC_023_M12.png	2	2	78	SessionSelectionList														lure	3	Face	0-Back	68	80	67	0	0	100	2	39	270010	3	14	72	267971	-1	268615	1	644	3	3	2039	53	270024	-54	0																78												
WM080112	128127_fnca	2	1	1	847054096	1	75.031	75.030	2.0.10.147	2.0.10.242	2.0.10.242	1.0.0.439	7	234	2	3	Verdana	1	80	0	0	0	WM Stimuli\	1	1002.3	1	655.2	1	967.2	1	583.9	0.9	731.222222222222	0.7	819.714285714286	0.9	827.444444444444	1	543.1	13	321523	2	321511	26	39	321549	-999999	321526	0	39	TrialsPROC	FC_021_M11.png	2	2	79	SessionSelectionList														nonlure	3	Face	0-Back	69	80	68	0	0	100	3	39	272596	1	13	86	270557	-1	271153	1	596	3	3	2039	52	272609	-53	0																79												
WM080112	128127_fnca	2	1	1	847054096	1	75.031	75.030	2.0.10.147	2.0.10.242	2.0.10.242	1.0.0.439	7	234	2	3	Verdana	1	80	0	0	0	WM Stimuli\	1	1002.3	1	655.2	1	967.2	1	583.9	0.9	731.222222222222	0.7	819.714285714286	0.9	827.444444444444	1	543.1	13	321523	2	321511	26	39	321549	-999999	321526	0	39	TrialsPROC	FC_021_M11.png	2	2	80	SessionSelectionList														lure	3	Face	0-Back	70	80	69	0	0	100	4	39	275168	3	14	72	273129	-1	273538	1	409	3	3	2039	53	275182	-54	0																80												
WM080112	128127_fnca	2	1	1	847054096	1	75.031	75.030	2.0.10.147	2.0.10.242	2.0.10.242	1.0.0.439	7	234	2	3	Verdana	1	80	0	0	0	WM Stimuli\	1	1002.3	1	655.2	1	967.2	1	583.9	0.9	731.222222222222	0.7	819.714285714286	0.9	827.444444444444	1	543.1	13	321523	2	321511	26	39	321549	-999999	321526	0	39	TrialsPROC	FC_019_M10.png	2	2	81	SessionSelectionList														nonlure	3	Face	0-Back	71	80	70	0	0	100	5	39	277767	2	14	99	275728	-1	276215	1	487	3	3	2039	53	277781	-54	0																81												
WM080112	128127_fnca	2	1	1	847054096	1	75.031	75.030	2.0.10.147	2.0.10.242	2.0.10.242	1.0.0.439	7	234	2	3	Verdana	1	80	0	0	0	WM Stimuli\	1	1002.3	1	655.2	1	967.2	1	583.9	0.9	731.222222222222	0.7	819.714285714286	0.9	827.444444444444	1	543.1	13	321523	2	321511	26	39	321549	-999999	321526	0	40	Cue0BackPROC	PL_021_SCENE_07.png	2	2	82	SessionSelectionList																																										46	278274	-47	0												82												
WM080112	128127_fnca	2	1	1	847054096	1	75.031	75.030	2.0.10.147	2.0.10.242	2.0.10.242	1.0.0.439	7	234	2	3	Verdana	1	80	0	0	0	WM Stimuli\	1	1002.3	1	655.2	1	967.2	1	583.9	0.9	731.222222222222	0.7	819.714285714286	0.9	827.444444444444	1	543.1	13	321523	2	321511	26	39	321549	-999999	321526	0	41	TrialsPROC	PL_025_SCENE_18.png	2	2	83	SessionSelectionList														nonlure	3	Place	0-Back	72	80	71	0	0	100	6	39	282845	2	14	78	280806	-1	281602	1	796	3	3	2039	53	282859	-54	0																83												
WM080112	128127_fnca	2	1	1	847054096	1	75.031	75.030	2.0.10.147	2.0.10.242	2.0.10.242	1.0.0.439	7	234	2	3	Verdana	1	80	0	0	0	WM Stimuli\	1	1002.3	1	655.2	1	967.2	1	583.9	0.9	731.222222222222	0.7	819.714285714286	0.9	827.444444444444	1	543.1	13	321523	2	321511	26	39	321549	-999999	321526	0	41	TrialsPROC	PL_026_SCENE_24.png	2	2	84	SessionSelectionList														nonlure	3	Place	0-Back	73	80	72	0	0	100	7	39	285431	1	13	86	283392	-1	284007	1	615	3	3	2039	52	285444	-53	0																84												
WM080112	128127_fnca	2	1	1	847054096	1	75.031	75.030	2.0.10.147	2.0.10.242	2.0.10.242	1.0.0.439	7	234	2	3	Verdana	1	80	0	0	0	WM Stimuli\	1	1002.3	1	655.2	1	967.2	1	583.9	0.9	731.222222222222	0.7	819.714285714286	0.9	827.444444444444	1	543.1	13	321523	2	321511	26	39	321549	-999999	321526	0	41	TrialsPROC	PL_025_SCENE_18.png	2	2	85	SessionSelectionList														lure	3	Place	0-Back	74	80	73	0	0	97	1	39	288003	3	13	72	285964	-1	286991	0	1027	2	3	2039	52	288016	-53	0																85												
WM080112	128127_fnca	2	1	1	847054096	1	75.031	75.030	2.0.10.147	2.0.10.242	2.0.10.242	1.0.0.439	7	234	2	3	Verdana	1	80	0	0	0	WM Stimuli\	1	1002.3	1	655.2	1	967.2	1	583.9	0.9	731.222222222222	0.7	819.714285714286	0.9	827.444444444444	1	543.1	13	321523	2	321511	26	39	321549	-999999	321526	0	41	TrialsPROC	PL_022_SCENE_08.png	2	2	86	SessionSelectionList														nonlure	3	Place	0-Back	75	80	74	0	0	97	1	40	290589	2	13	85	288549	-1	289558	1	1009	3	3	2040	53	290602	-54	0																86												
WM080112	128127_fnca	2	1	1	847054096	1	75.031	75.030	2.0.10.147	2.0.10.242	2.0.10.242	1.0.0.439	7	234	2	3	Verdana	1	80	0	0	0	WM Stimuli\	1	1002.3	1	655.2	1	967.2	1	583.9	0.9	731.222222222222	0.7	819.714285714286	0.9	827.444444444444	1	543.1	13	321523	2	321511	26	39	321549	-999999	321526	0	41	TrialsPROC	PL_026_SCENE_24.png	2	2	87	SessionSelectionList														lure	3	Place	0-Back	76	80	75	0	0	97	2	39	293161	2	13	73	291122	-1	292113	1	991	3	3	2039	52	293174	-53	0																87												
WM080112	128127_fnca	2	1	1	847054096	1	75.031	75.030	2.0.10.147	2.0.10.242	2.0.10.242	1.0.0.439	7	234	2	3	Verdana	1	80	0	0	0	WM Stimuli\	1	1002.3	1	655.2	1	967.2	1	583.9	0.9	731.222222222222	0.7	819.714285714286	0.9	827.444444444444	1	543.1	13	321523	2	321511	26	39	321549	-999999	321526	0	41	TrialsPROC	PL_021_SCENE_07.png	2	2	88	SessionSelectionList														target	2	Place	0-Back	77	80	76	0	0	94	3	39	295733	3	14	72	293694	-1	294798	0	1104	3	2	2039	53	295747	-54	0																88												
WM080112	128127_fnca	2	1	1	847054096	1	75.031	75.030	2.0.10.147	2.0.10.242	2.0.10.242	1.0.0.439	7	234	2	3	Verdana	1	80	0	0	0	WM Stimuli\	1	1002.3	1	655.2	1	967.2	1	583.9	0.9	731.222222222222	0.7	819.714285714286	0.9	827.444444444444	1	543.1	13	321523	2	321511	26	39	321549	-999999	321526	0	41	TrialsPROC	PL_021_SCENE_07.png	2	2	89	SessionSelectionList														target	2	Place	0-Back	78	80	77	0	0	92	4	39	298305	2	14	72	296266	-1	297211	0	945	3	2	2039	53	298319	-54	0																89												
WM080112	128127_fnca	2	1	1	847054096	1	75.031	75.030	2.0.10.147	2.0.10.242	2.0.10.242	1.0.0.439	7	234	2	3	Verdana	1	80	0	0	0	WM Stimuli\	1	1002.3	1	655.2	1	967.2	1	583.9	0.9	731.222222222222	0.7	819.714285714286	0.9	827.444444444444	1	543.1	13	321523	2	321511	26	39	321549	-999999	321526	0	41	TrialsPROC	PL_023_SCENE_09.png	2	2	90	SessionSelectionList														nonlure	3	Place	0-Back	79	80	78	0	0	92	5	39	300891	3	14	86	298852	-1	299612	1	760	3	3	2039	53	300905	-54	0																90												
WM080112	128127_fnca	2	1	1	847054096	1	75.031	75.030	2.0.10.147	2.0.10.242	2.0.10.242	1.0.0.439	7	234	2	3	Verdana	1	80	0	0	0	WM Stimuli\	1	1002.3	1	655.2	1	967.2	1	583.9	0.9	731.222222222222	0.7	819.714285714286	0.9	827.444444444444	1	543.1	13	321523	2	321511	26	39	321549	-999999	321526	0	41	TrialsPROC	PL_024_SCENE_10.png	2	2	91	SessionSelectionList														nonlure	3	Place	0-Back	80	80	79	0	0	92	6	39	303477	1	13	86	301438	-1	302114	1	676	3	3	2039	52	303490	-53	0																91												
WM080112	128127_fnca	2	1	1	847054096	1	75.031	75.030	2.0.10.147	2.0.10.242	2.0.10.242	1.0.0.439	7	234	2	3	Verdana	1	80	0	0	0	WM Stimuli\	1	1002.3	1	655.2	1	967.2	1	583.9	0.9	731.222222222222	0.7	819.714285714286	0.9	827.444444444444	1	543.1	13	321523	2	321511	26	39	321549	-999999	321526	0	41	TrialsPROC	PL_022_SCENE_08.png	2	2	92	SessionSelectionList														lure	3	Place	0-Back	80	80	80	0	0	92	7	39	306049	1	13	72	304010	-1	304901	1	891	3	3	2039	52	306062	-53	0																92												
WM080112	128127_fnca	2	1	1	847054096	1	75.031	75.030	2.0.10.147	2.0.10.242	2.0.10.242	1.0.0.439	7	234	2	3	Verdana	1	80	0	0	0	WM Stimuli\	1	1002.3	1	655.2	1	967.2	1	583.9	0.9	731.222222222222	0.7	819.714285714286	0.9	827.444444444444	1	543.1	13	321523	2	321511	26	39	321549	-999999	321526	0	42	Fix15secPROC	""	2	2	93	SessionSelectionList																																															6	306516	-7	0							93												
