ExperimentName	HCPID	RunNumber	Subject	Session	RandomSeed	Group	Laptop.RefreshRate	ScannerD2.RefreshRate	StudioVersion	RuntimeVersion	RuntimeVersionExpected	ExperimentVersion	triggercode	Allowed	Target	Nontarget	FontStyle	RunTrialNumber[Session]	TrialsPerRun[Session]	TotalRespGreater200[Session]	ConsecRTLess200[Session]	ConsecNonResp[Session]	StimuliDir	ACC_2_Back_Body	Avg_RT_For_Correct_Trials_2_Back_Body	ACC_0_Back_Body	Avg_RT_For_Correct_Trials_0_Back_Body	ACC_2_Back_Face	Avg_RT_For_Correct_Trials_2_Back_Face	ACC_0_Back_Face	Avg_RT_For_Correct_Trials_0_Back_Face	ACC_2_Back_Place	Avg_RT_For_Correct_Trials_2_Back_Place	ACC_0_Back_Place	Avg_RT_For_Correct_Trials_0_Back_Place	ACC_2_Back_Tools	Avg_RT_For_Correct_Trials_2_Back_Tools	ACC_0_Back_Tools	Avg_RT_For_Correct_Trials_0_Back_Tools	ExpInstrucFeelFreeToRest.OnsetDelay	ExpInstrucFeelFreeToRest.OnsetTime	ExpInstrucFeelFreeToRest.DurationError	ExpInstrucFeelFreeToRest.StartTime	ExpInstrucFeelFreeToRest.OnsetToOnsetTime	FeelFreeToRest.OnsetDelay	FeelFreeToRest.OnsetTime	FeelFreeToRest.DurationError	FeelFreeToRest.StartTime	FeelFreeToRest.OnsetToOnsetTime	SessionSelectionList	Procedure[Block]	Stimulus[Block]	RunNumberFilterValue	SessionSelectionList.Cycle	SessionSelectionList.Sample	Running[Block]	IntroButtonMap.OnsetDelay	IntroButtonMap.OnsetTime	IntroButtonMap.DurationError	IntroButtonMap.OnsetToOnsetTime	GetReady.OnsetDelay	GetReady.OnsetTime	GetReady.DurationError	GetReady.OnsetToOnsetTime	Cue2Back.OnsetDelay	Cue2Back.OnsetTime	Cue2Back.DurationError	Cue2Back.OnsetToOnsetTime	Run1Block1	TargetType	CorrectResponse	StimType	BlockType	RunTrialNumber[Block]	TrialsPerRun[Block]	TotalRespGreater200[Block]	ConsecRTLess200[Block]	ConsecNonResp[Block]	ControlAcc	ConsecSameResp	ExperimenterWindow.OnsetDelay	ExperimenterWindow.OnsetTime	ExperimenterWindow.DurationError	ExperimenterWindow.OnsetToOnsetTime	Stim.OnsetDelay	Stim.OnsetTime	Stim.DurationError	Stim.RTTime	Stim.ACC	Stim.RT	Stim.RESP	Stim.CRESP	Stim.OnsetToOnsetTime	Fix.OnsetDelay	Fix.OnsetTime	Fix.DurationError	Fix.OnsetToOnsetTime	CueTarget.OnsetDelay	CueTarget.OnsetTime	CueTarget.DurationError	CueTarget.OnsetToOnsetTime	Run1Block2	Fix15sec.OnsetDelay	Fix15sec.OnsetTime	Fix15sec.DurationError	Fix15sec.OnsetToOnsetTime	Run1Block3	Run1Block4	Run1Block5	Run1Block6	Run1Block7	Run1Block8	Block	Procedure[Trial]	Stimulus[Trial]	ReadyList	Running[Trial]	ReadyList.Cycle	ReadyList.Sample	SyncSlide.OnsetDelay	SyncSlide.OnsetTime	SyncSlide.DurationError	SyncSlide.FinishTime	SyncSlide.OnsetToOnsetTime	Trial
WM080112	149539_fnca	1	1	1	1784855138	1	75.030	75.031	2.0.10.147	2.0.10.242	2.0.10.242	1.0.0.439	7	234	2	3	Verdana	1	80	0	0	0	WM Stimuli\	0.8	1053.625	1	1000.9	1	930.3	1	755.1	1	983.5	1	651.8	1	1034.1	1	645.3	13	654396	2	654384	27	40	654423	-999999	654399	0	1	TRSyncPROC	""	1	2	1	SessionSelectionList	93	56677	-999999	0	41	348173	-999999	0																																																	1	InitialTR	4	1	ReadyList	1	1	9	361128	-10	363118	0	1
WM080112	149539_fnca	1	1	1	1784855138	1	75.030	75.031	2.0.10.147	2.0.10.242	2.0.10.242	1.0.0.439	7	234	2	3	Verdana	1	80	0	0	0	WM Stimuli\	0.8	1053.625	1	1000.9	1	930.3	1	755.1	1	983.5	1	651.8	1	1034.1	1	645.3	13	654396	2	654384	27	40	654423	-999999	654399	0	1	TRSyncPROC	""	1	2	1	SessionSelectionList	93	56677	-999999	0	41	348173	-999999	0																																																	1	InitialTR	3	2	ReadyList	1	2	21	363140	-22	365118	0	2
WM080112	149539_fnca	1	1	1	1784855138	1	75.030	75.031	2.0.10.147	2.0.10.242	2.0.10.242	1.0.0.439	7	234	2	3	Verdana	1	80	0	0	0	WM Stimuli\	0.8	1053.625	1	1000.9	1	930.3	1	755.1	1	983.5	1	651.8	1	1034.1	1	645.3	13	654396	2	654384	27	40	654423	-999999	654399	0	1	TRSyncPROC	""	1	2	1	SessionSelectionList	93	56677	-999999	0	41	348173	-999999	0																																																	1	InitialTR	2	3	ReadyList	1	3	7	365126	-8	367118	0	3
WM080112	149539_fnca	1	1	1	1784855138	1	75.030	75.031	2.0.10.147	2.0.10.242	2.0.10.242	1.0.0.439	7	234	2	3	Verdana	1	80	0	0	0	WM Stimuli\	0.8	1053.625	1	1000.9	1	930.3	1	755.1	1	983.5	1	651.8	1	1034.1	1	645.3	13	654396	2	654384	27	40	654423	-999999	654399	0	1	TRSyncPROC	""	1	2	1	SessionSelectionList	93	56677	-999999	0	41	348173	-999999	0																																																	1	InitialTR	1	4	ReadyList	1	4	6	367125	-7	369118	0	4
WM080112	149539_fnca	1	1	1	1784855138	1	75.030	75.031	2.0.10.147	2.0.10.242	2.0.10.242	1.0.0.439	7	234	2	3	Verdana	1	80	0	0	0	WM Stimuli\	0.8	1053.625	1	1000.9	1	930.3	1	755.1	1	983.5	1	651.8	1	1034.1	1	645.3	13	654396	2	654384	27	40	654423	-999999	654399	0	2	Cue2BackPROC	""	1	2	2	SessionSelectionList									18	369137	-19	0																																													2												
WM080112	149539_fnca	1	1	1	1784855138	1	75.030	75.031	2.0.10.147	2.0.10.242	2.0.10.242	1.0.0.439	7	234	2	3	Verdana	1	80	0	0	0	WM Stimuli\	0.8	1053.625	1	1000.9	1	930.3	1	755.1	1	983.5	1	651.8	1	1034.1	1	645.3	13	654396	2	654384	27	40	654423	-999999	654399	0	3	TrialsPROC	BP_002_BP10_BA.png	1	2	3	SessionSelectionList													1	nonlure	3	Body	2-Back	2	80	1	0	0	0	1	53	373749	3	14	77	371696	-1	372481	1	785	3	3	2053	67	373763	-68	0																3												
WM080112	149539_fnca	1	1	1	1784855138	1	75.030	75.031	2.0.10.147	2.0.10.242	2.0.10.242	1.0.0.439	7	234	2	3	Verdana	1	80	0	0	0	WM Stimuli\	0.8	1053.625	1	1000.9	1	930.3	1	755.1	1	983.5	1	651.8	1	1034.1	1	645.3	13	654396	2	654384	27	40	654423	-999999	654399	0	3	TrialsPROC	BP_001_BP1_BA.png	1	2	4	SessionSelectionList													2	nonlure	3	Body	2-Back	3	80	2	0	0	0	2	39	376308	2	14	73	374269	-1	375565	1	1296	3	3	2039	53	376322	-54	0																4												
WM080112	149539_fnca	1	1	1	1784855138	1	75.030	75.031	2.0.10.147	2.0.10.242	2.0.10.242	1.0.0.439	7	234	2	3	Verdana	1	80	0	0	0	WM Stimuli\	0.8	1053.625	1	1000.9	1	930.3	1	755.1	1	983.5	1	651.8	1	1034.1	1	645.3	13	654396	2	654384	27	40	654423	-999999	654399	0	3	TrialsPROC	BP_006_BP2_BA.png	1	2	5	SessionSelectionList													3	nonlure	3	Body	2-Back	4	80	3	0	0	0	1	39	378867	1	14	59	376828	-1	378081	0	1253	2	3	2039	53	378881	-54	0																5												
WM080112	149539_fnca	1	1	1	1784855138	1	75.030	75.031	2.0.10.147	2.0.10.242	2.0.10.242	1.0.0.439	7	234	2	3	Verdana	1	80	0	0	0	WM Stimuli\	0.8	1053.625	1	1000.9	1	930.3	1	755.1	1	983.5	1	651.8	1	1034.1	1	645.3	13	654396	2	654384	27	40	654423	-999999	654399	0	3	TrialsPROC	BP_001_BP1_BA.png	1	2	6	SessionSelectionList													4	target	2	Body	2-Back	5	80	4	0	0	0	2	39	381439	1	14	72	379400	-1	380529	1	1129	2	2	2039	53	381453	-54	0																6												
WM080112	149539_fnca	1	1	1	1784855138	1	75.030	75.031	2.0.10.147	2.0.10.242	2.0.10.242	1.0.0.439	7	234	2	3	Verdana	1	80	0	0	0	WM Stimuli\	0.8	1053.625	1	1000.9	1	930.3	1	755.1	1	983.5	1	651.8	1	1034.1	1	645.3	13	654396	2	654384	27	40	654423	-999999	654399	0	3	TrialsPROC	BP_005_BP19_BA.png	1	2	7	SessionSelectionList													5	nonlure	3	Body	2-Back	6	80	5	0	0	0	1	39	384011	2	14	72	381972	-1	382918	1	946	3	3	2039	53	384025	-54	0																7												
WM080112	149539_fnca	1	1	1	1784855138	1	75.030	75.031	2.0.10.147	2.0.10.242	2.0.10.242	1.0.0.439	7	234	2	3	Verdana	1	80	0	0	0	WM Stimuli\	0.8	1053.625	1	1000.9	1	930.3	1	755.1	1	983.5	1	651.8	1	1034.1	1	645.3	13	654396	2	654384	27	40	654423	-999999	654399	0	3	TrialsPROC	BP_003_BP16_BA.png	1	2	8	SessionSelectionList													6	nonlure	3	Body	2-Back	7	80	6	0	0	0	2	39	386570	2	14	59	384531	-1	385459	1	928	3	3	2039	53	386584	-54	0																8												
WM080112	149539_fnca	1	1	1	1784855138	1	75.030	75.031	2.0.10.147	2.0.10.242	2.0.10.242	1.0.0.439	7	234	2	3	Verdana	1	80	0	0	0	WM Stimuli\	0.8	1053.625	1	1000.9	1	930.3	1	755.1	1	983.5	1	651.8	1	1034.1	1	645.3	13	654396	2	654384	27	40	654423	-999999	654399	0	3	TrialsPROC	BP_006_BP2_BA.png	1	2	9	SessionSelectionList													7	lure	3	Body	2-Back	8	80	7	0	0	0	3	39	389129	2	14	59	387090	-1	388199	1	1109	3	3	2039	53	389143	-54	0																9												
WM080112	149539_fnca	1	1	1	1784855138	1	75.030	75.031	2.0.10.147	2.0.10.242	2.0.10.242	1.0.0.439	7	234	2	3	Verdana	1	80	0	0	0	WM Stimuli\	0.8	1053.625	1	1000.9	1	930.3	1	755.1	1	983.5	1	651.8	1	1034.1	1	645.3	13	654396	2	654384	27	40	654423	-999999	654399	0	3	TrialsPROC	BP_004_BP18_BA.png	1	2	10	SessionSelectionList													8	nonlure	3	Body	2-Back	9	80	8	0	0	0	4	39	391688	2	14	59	389649	-1	390684	1	1035	3	3	2039	53	391702	-54	0																10												
WM080112	149539_fnca	1	1	1	1784855138	1	75.030	75.031	2.0.10.147	2.0.10.242	2.0.10.242	1.0.0.439	7	234	2	3	Verdana	1	80	0	0	0	WM Stimuli\	0.8	1053.625	1	1000.9	1	930.3	1	755.1	1	983.5	1	651.8	1	1034.1	1	645.3	13	654396	2	654384	27	40	654423	-999999	654399	0	3	TrialsPROC	BP_005_BP19_BA.png	1	2	11	SessionSelectionList													9	lure	3	Body	2-Back	10	80	9	0	0	0	1	39	394247	2	14	59	392208	-1	393548	0	1340	2	3	2039	53	394261	-54	0																11												
WM080112	149539_fnca	1	1	1	1784855138	1	75.030	75.031	2.0.10.147	2.0.10.242	2.0.10.242	1.0.0.439	7	234	2	3	Verdana	1	80	0	0	0	WM Stimuli\	0.8	1053.625	1	1000.9	1	930.3	1	755.1	1	983.5	1	651.8	1	1034.1	1	645.3	13	654396	2	654384	27	40	654423	-999999	654399	0	3	TrialsPROC	BP_004_BP18_BA.png	1	2	12	SessionSelectionList													10	target	2	Body	2-Back	11	80	10	0	0	0	2	39	396806	2	14	59	394767	-1	395968	1	1201	2	2	2039	53	396820	-54	0																12												
WM080112	149539_fnca	1	1	1	1784855138	1	75.030	75.031	2.0.10.147	2.0.10.242	2.0.10.242	1.0.0.439	7	234	2	3	Verdana	1	80	0	0	0	WM Stimuli\	0.8	1053.625	1	1000.9	1	930.3	1	755.1	1	983.5	1	651.8	1	1034.1	1	645.3	13	654396	2	654384	27	40	654423	-999999	654399	0	4	Cue0BackPROC	FC_001_M1.png	1	2	13	SessionSelectionList																																										19	397286	-20	0												13												
WM080112	149539_fnca	1	1	1	1784855138	1	75.030	75.031	2.0.10.147	2.0.10.242	2.0.10.242	1.0.0.439	7	234	2	3	Verdana	1	80	0	0	0	WM Stimuli\	0.8	1053.625	1	1000.9	1	930.3	1	755.1	1	983.5	1	651.8	1	1034.1	1	645.3	13	654396	2	654384	27	40	654423	-999999	654399	0	5	TrialsPROC	FC_005_M3.png	1	2	14	SessionSelectionList														nonlure	3	Face	0-Back	12	80	11	0	0	100	1	39	401871	1	14	65	399832	-1	400639	1	807	3	3	2039	53	401885	-54	0					1											14												
WM080112	149539_fnca	1	1	1	1784855138	1	75.030	75.031	2.0.10.147	2.0.10.242	2.0.10.242	1.0.0.439	7	234	2	3	Verdana	1	80	0	0	0	WM Stimuli\	0.8	1053.625	1	1000.9	1	930.3	1	755.1	1	983.5	1	651.8	1	1034.1	1	645.3	13	654396	2	654384	27	40	654423	-999999	654399	0	5	TrialsPROC	FC_001_M1.png	1	2	15	SessionSelectionList														target	2	Face	0-Back	13	80	12	0	0	100	1	39	404443	2	14	72	402404	-1	403166	1	762	2	2	2039	53	404457	-54	0					2											15												
WM080112	149539_fnca	1	1	1	1784855138	1	75.030	75.031	2.0.10.147	2.0.10.242	2.0.10.242	1.0.0.439	7	234	2	3	Verdana	1	80	0	0	0	WM Stimuli\	0.8	1053.625	1	1000.9	1	930.3	1	755.1	1	983.5	1	651.8	1	1034.1	1	645.3	13	654396	2	654384	27	40	654423	-999999	654399	0	5	TrialsPROC	FC_003_M2.png	1	2	16	SessionSelectionList														nonlure	3	Face	0-Back	14	80	13	0	0	100	1	39	407015	2	14	72	404976	-1	405656	1	680	3	3	2039	53	407029	-54	0					3											16												
WM080112	149539_fnca	1	1	1	1784855138	1	75.030	75.031	2.0.10.147	2.0.10.242	2.0.10.242	1.0.0.439	7	234	2	3	Verdana	1	80	0	0	0	WM Stimuli\	0.8	1053.625	1	1000.9	1	930.3	1	755.1	1	983.5	1	651.8	1	1034.1	1	645.3	13	654396	2	654384	27	40	654423	-999999	654399	0	5	TrialsPROC	FC_004_F2.png	1	2	17	SessionSelectionList														nonlure	3	Face	0-Back	15	80	14	0	0	100	2	39	409588	1	13	73	407549	-1	408460	1	911	3	3	2039	52	409601	-53	0					4											17												
WM080112	149539_fnca	1	1	1	1784855138	1	75.030	75.031	2.0.10.147	2.0.10.242	2.0.10.242	1.0.0.439	7	234	2	3	Verdana	1	80	0	0	0	WM Stimuli\	0.8	1053.625	1	1000.9	1	930.3	1	755.1	1	983.5	1	651.8	1	1034.1	1	645.3	13	654396	2	654384	27	40	654423	-999999	654399	0	5	TrialsPROC	FC_004_F2.png	1	2	18	SessionSelectionList														lure	3	Face	0-Back	16	80	15	0	0	100	3	39	412160	2	14	72	410121	-1	410974	1	853	3	3	2039	53	412174	-54	0					5											18												
WM080112	149539_fnca	1	1	1	1784855138	1	75.030	75.031	2.0.10.147	2.0.10.242	2.0.10.242	1.0.0.439	7	234	2	3	Verdana	1	80	0	0	0	WM Stimuli\	0.8	1053.625	1	1000.9	1	930.3	1	755.1	1	983.5	1	651.8	1	1034.1	1	645.3	13	654396	2	654384	27	40	654423	-999999	654399	0	5	TrialsPROC	FC_001_M1.png	1	2	19	SessionSelectionList														target	2	Face	0-Back	17	80	16	0	0	100	1	39	414732	2	14	72	412693	-1	413487	1	794	2	2	2039	53	414746	-54	0					6											19												
WM080112	149539_fnca	1	1	1	1784855138	1	75.030	75.031	2.0.10.147	2.0.10.242	2.0.10.242	1.0.0.439	7	234	2	3	Verdana	1	80	0	0	0	WM Stimuli\	0.8	1053.625	1	1000.9	1	930.3	1	755.1	1	983.5	1	651.8	1	1034.1	1	645.3	13	654396	2	654384	27	40	654423	-999999	654399	0	5	TrialsPROC	FC_006_F3.png	1	2	20	SessionSelectionList														nonlure	3	Face	0-Back	18	80	17	0	0	100	1	40	417305	1	13	72	415265	-1	415837	1	572	3	3	2040	53	417318	-54	0					7											20												
WM080112	149539_fnca	1	1	1	1784855138	1	75.030	75.031	2.0.10.147	2.0.10.242	2.0.10.242	1.0.0.439	7	234	2	3	Verdana	1	80	0	0	0	WM Stimuli\	0.8	1053.625	1	1000.9	1	930.3	1	755.1	1	983.5	1	651.8	1	1034.1	1	645.3	13	654396	2	654384	27	40	654423	-999999	654399	0	5	TrialsPROC	FC_006_F3.png	1	2	21	SessionSelectionList														lure	3	Face	0-Back	19	80	18	0	0	100	2	39	419877	1	14	73	417838	-1	418428	1	590	3	3	2039	53	419891	-54	0					8											21												
WM080112	149539_fnca	1	1	1	1784855138	1	75.030	75.031	2.0.10.147	2.0.10.242	2.0.10.242	1.0.0.439	7	234	2	3	Verdana	1	80	0	0	0	WM Stimuli\	0.8	1053.625	1	1000.9	1	930.3	1	755.1	1	983.5	1	651.8	1	1034.1	1	645.3	13	654396	2	654384	27	40	654423	-999999	654399	0	5	TrialsPROC	FC_003_M2.png	1	2	22	SessionSelectionList														lure	3	Face	0-Back	20	80	19	0	0	100	3	39	422449	2	14	72	420410	-1	421318	1	908	3	3	2039	53	422463	-54	0					9											22												
WM080112	149539_fnca	1	1	1	1784855138	1	75.030	75.031	2.0.10.147	2.0.10.242	2.0.10.242	1.0.0.439	7	234	2	3	Verdana	1	80	0	0	0	WM Stimuli\	0.8	1053.625	1	1000.9	1	930.3	1	755.1	1	983.5	1	651.8	1	1034.1	1	645.3	13	654396	2	654384	27	40	654423	-999999	654399	0	5	TrialsPROC	FC_002_F1.png	1	2	23	SessionSelectionList														nonlure	3	Face	0-Back	21	80	20	0	0	100	4	40	425022	1	13	72	422982	-1	423656	1	674	3	3	2040	53	425035	-54	0					10											23												
WM080112	149539_fnca	1	1	1	1784855138	1	75.030	75.031	2.0.10.147	2.0.10.242	2.0.10.242	1.0.0.439	7	234	2	3	Verdana	1	80	0	0	0	WM Stimuli\	0.8	1053.625	1	1000.9	1	930.3	1	755.1	1	983.5	1	651.8	1	1034.1	1	645.3	13	654396	2	654384	27	40	654423	-999999	654399	0	6	Fix15secPROC	""	1	2	24	SessionSelectionList																																															6	425488	-7	0							24												
WM080112	149539_fnca	1	1	1	1784855138	1	75.030	75.031	2.0.10.147	2.0.10.242	2.0.10.242	1.0.0.439	7	234	2	3	Verdana	1	80	0	0	0	WM Stimuli\	0.8	1053.625	1	1000.9	1	930.3	1	755.1	1	983.5	1	651.8	1	1034.1	1	645.3	13	654396	2	654384	27	40	654423	-999999	654399	0	7	Cue2BackPROC	""	1	2	25	SessionSelectionList									13	440495	-14	0																																													25												
WM080112	149539_fnca	1	1	1	1784855138	1	75.030	75.031	2.0.10.147	2.0.10.242	2.0.10.242	1.0.0.439	7	234	2	3	Verdana	1	80	0	0	0	WM Stimuli\	0.8	1053.625	1	1000.9	1	930.3	1	755.1	1	983.5	1	651.8	1	1034.1	1	645.3	13	654396	2	654384	27	40	654423	-999999	654399	0	8	TrialsPROC	TO_001_TOOL1_BA.png	1	2	26	SessionSelectionList														nonlure	3	Tools	2-Back	22	80	21	0	0	100	5	39	445080	1	14	59	443041	-1	443893	1	852	3	3	2039	53	445094	-54	0										1						26												
WM080112	149539_fnca	1	1	1	1784855138	1	75.030	75.031	2.0.10.147	2.0.10.242	2.0.10.242	1.0.0.439	7	234	2	3	Verdana	1	80	0	0	0	WM Stimuli\	0.8	1053.625	1	1000.9	1	930.3	1	755.1	1	983.5	1	651.8	1	1034.1	1	645.3	13	654396	2	654384	27	40	654423	-999999	654399	0	8	TrialsPROC	TO_002_TOOL2_BA.png	1	2	27	SessionSelectionList														nonlure	3	Tools	2-Back	23	80	22	0	0	100	6	39	447639	2	14	59	445600	-1	446458	1	858	3	3	2039	53	447653	-54	0										2						27												
WM080112	149539_fnca	1	1	1	1784855138	1	75.030	75.031	2.0.10.147	2.0.10.242	2.0.10.242	1.0.0.439	7	234	2	3	Verdana	1	80	0	0	0	WM Stimuli\	0.8	1053.625	1	1000.9	1	930.3	1	755.1	1	983.5	1	651.8	1	1034.1	1	645.3	13	654396	2	654384	27	40	654423	-999999	654399	0	8	TrialsPROC	TO_004_TOOL4_BA.png	1	2	28	SessionSelectionList														nonlure	3	Tools	2-Back	24	80	23	0	0	100	7	39	450198	1	14	59	448159	-1	449220	1	1061	3	3	2039	53	450212	-54	0										3						28												
WM080112	149539_fnca	1	1	1	1784855138	1	75.030	75.031	2.0.10.147	2.0.10.242	2.0.10.242	1.0.0.439	7	234	2	3	Verdana	1	80	0	0	0	WM Stimuli\	0.8	1053.625	1	1000.9	1	930.3	1	755.1	1	983.5	1	651.8	1	1034.1	1	645.3	13	654396	2	654384	27	40	654423	-999999	654399	0	8	TrialsPROC	TO_002_TOOL2_BA.png	1	2	29	SessionSelectionList														target	2	Tools	2-Back	25	80	24	0	0	100	1	39	452757	1	14	59	450718	-1	451742	1	1024	2	2	2039	53	452771	-54	0										4						29												
WM080112	149539_fnca	1	1	1	1784855138	1	75.030	75.031	2.0.10.147	2.0.10.242	2.0.10.242	1.0.0.439	7	234	2	3	Verdana	1	80	0	0	0	WM Stimuli\	0.8	1053.625	1	1000.9	1	930.3	1	755.1	1	983.5	1	651.8	1	1034.1	1	645.3	13	654396	2	654384	27	40	654423	-999999	654399	0	8	TrialsPROC	TO_001_TOOL1_BA.png	1	2	30	SessionSelectionList														lure	3	Tools	2-Back	26	80	25	0	0	100	1	39	455316	1	14	59	453277	-1	454466	1	1189	3	3	2039	53	455330	-54	0										5						30												
WM080112	149539_fnca	1	1	1	1784855138	1	75.030	75.031	2.0.10.147	2.0.10.242	2.0.10.242	1.0.0.439	7	234	2	3	Verdana	1	80	0	0	0	WM Stimuli\	0.8	1053.625	1	1000.9	1	930.3	1	755.1	1	983.5	1	651.8	1	1034.1	1	645.3	13	654396	2	654384	27	40	654423	-999999	654399	0	8	TrialsPROC	TO_004_TOOL4_BA.png	1	2	31	SessionSelectionList														lure	3	Tools	2-Back	27	80	26	0	0	100	2	39	457875	1	14	59	455836	-1	457280	1	1444	3	3	2039	53	457889	-54	0										6						31												
WM080112	149539_fnca	1	1	1	1784855138	1	75.030	75.031	2.0.10.147	2.0.10.242	2.0.10.242	1.0.0.439	7	234	2	3	Verdana	1	80	0	0	0	WM Stimuli\	0.8	1053.625	1	1000.9	1	930.3	1	755.1	1	983.5	1	651.8	1	1034.1	1	645.3	13	654396	2	654384	27	40	654423	-999999	654399	0	8	TrialsPROC	TO_006_TOOL6_BA.png	1	2	32	SessionSelectionList														nonlure	3	Tools	2-Back	28	80	27	0	0	100	3	39	460434	1	14	59	458395	-1	459470	1	1075	3	3	2039	53	460448	-54	0										7						32												
WM080112	149539_fnca	1	1	1	1784855138	1	75.030	75.031	2.0.10.147	2.0.10.242	2.0.10.242	1.0.0.439	7	234	2	3	Verdana	1	80	0	0	0	WM Stimuli\	0.8	1053.625	1	1000.9	1	930.3	1	755.1	1	983.5	1	651.8	1	1034.1	1	645.3	13	654396	2	654384	27	40	654423	-999999	654399	0	8	TrialsPROC	TO_005_TOOL5_BA.png	1	2	33	SessionSelectionList														nonlure	3	Tools	2-Back	29	80	28	0	0	100	4	39	462993	1	14	59	460954	-1	461940	1	986	3	3	2039	53	463007	-54	0										8						33												
WM080112	149539_fnca	1	1	1	1784855138	1	75.030	75.031	2.0.10.147	2.0.10.242	2.0.10.242	1.0.0.439	7	234	2	3	Verdana	1	80	0	0	0	WM Stimuli\	0.8	1053.625	1	1000.9	1	930.3	1	755.1	1	983.5	1	651.8	1	1034.1	1	645.3	13	654396	2	654384	27	40	654423	-999999	654399	0	8	TrialsPROC	TO_006_TOOL6_BA.png	1	2	34	SessionSelectionList														target	2	Tools	2-Back	30	80	29	0	0	100	1	39	465552	1	14	59	463513	-1	464514	1	1001	2	2	2039	53	465566	-54	0										9						34												
WM080112	149539_fnca	1	1	1	1784855138	1	75.030	75.031	2.0.10.147	2.0.10.242	2.0.10.242	1.0.0.439	7	234	2	3	Verdana	1	80	0	0	0	WM Stimuli\	0.8	1053.625	1	1000.9	1	930.3	1	755.1	1	983.5	1	651.8	1	1034.1	1	645.3	13	654396	2	654384	27	40	654423	-999999	654399	0	8	TrialsPROC	TO_003_TOOL3_BA.png	1	2	35	SessionSelectionList														nonlure	3	Tools	2-Back	31	80	30	0	0	100	1	39	468111	1	14	59	466072	-1	466923	1	851	3	3	2039	53	468125	-54	0										10						35												
WM080112	149539_fnca	1	1	1	1784855138	1	75.030	75.031	2.0.10.147	2.0.10.242	2.0.10.242	1.0.0.439	7	234	2	3	Verdana	1	80	0	0	0	WM Stimuli\	0.8	1053.625	1	1000.9	1	930.3	1	755.1	1	983.5	1	651.8	1	1034.1	1	645.3	13	654396	2	654384	27	40	654423	-999999	654399	0	9	Cue0BackPROC	BP_007_BP20_BA.png	1	2	36	SessionSelectionList																																										19	468591	-20	0												36												
WM080112	149539_fnca	1	1	1	1784855138	1	75.030	75.031	2.0.10.147	2.0.10.242	2.0.10.242	1.0.0.439	7	234	2	3	Verdana	1	80	0	0	0	WM Stimuli\	0.8	1053.625	1	1000.9	1	930.3	1	755.1	1	983.5	1	651.8	1	1034.1	1	645.3	13	654396	2	654384	27	40	654423	-999999	654399	0	10	TrialsPROC	BP_007_BP20_BA.png	1	2	37	SessionSelectionList														target	2	Body	0-Back	32	80	31	0	0	100	1	39	473162	1	14	51	471123	-1	473105	1	1982	2	2	2039	53	473176	-54	0											1					37												
WM080112	149539_fnca	1	1	1	1784855138	1	75.030	75.031	2.0.10.147	2.0.10.242	2.0.10.242	1.0.0.439	7	234	2	3	Verdana	1	80	0	0	0	WM Stimuli\	0.8	1053.625	1	1000.9	1	930.3	1	755.1	1	983.5	1	651.8	1	1034.1	1	645.3	13	654396	2	654384	27	40	654423	-999999	654399	0	10	TrialsPROC	BP_011_BP4_BA.png	1	2	38	SessionSelectionList														nonlure	3	Body	0-Back	33	80	32	0	0	100	1	39	475734	2	14	72	473695	-1	474458	1	763	3	3	2039	53	475748	-54	0											2					38												
WM080112	149539_fnca	1	1	1	1784855138	1	75.030	75.031	2.0.10.147	2.0.10.242	2.0.10.242	1.0.0.439	7	234	2	3	Verdana	1	80	0	0	0	WM Stimuli\	0.8	1053.625	1	1000.9	1	930.3	1	755.1	1	983.5	1	651.8	1	1034.1	1	645.3	13	654396	2	654384	27	40	654423	-999999	654399	0	10	TrialsPROC	BP_010_BP3_BA.png	1	2	39	SessionSelectionList														nonlure	3	Body	0-Back	34	80	33	0	0	100	2	39	478293	2	14	59	476254	-1	476946	1	692	3	3	2039	53	478307	-54	0											3					39												
WM080112	149539_fnca	1	1	1	1784855138	1	75.030	75.031	2.0.10.147	2.0.10.242	2.0.10.242	1.0.0.439	7	234	2	3	Verdana	1	80	0	0	0	WM Stimuli\	0.8	1053.625	1	1000.9	1	930.3	1	755.1	1	983.5	1	651.8	1	1034.1	1	645.3	13	654396	2	654384	27	40	654423	-999999	654399	0	10	TrialsPROC	BP_008_BP21_BA.png	1	2	40	SessionSelectionList														nonlure	3	Body	0-Back	35	80	34	0	0	100	3	39	480852	2	14	59	478813	-1	479739	1	926	3	3	2039	53	480866	-54	0											4					40												
WM080112	149539_fnca	1	1	1	1784855138	1	75.030	75.031	2.0.10.147	2.0.10.242	2.0.10.242	1.0.0.439	7	234	2	3	Verdana	1	80	0	0	0	WM Stimuli\	0.8	1053.625	1	1000.9	1	930.3	1	755.1	1	983.5	1	651.8	1	1034.1	1	645.3	13	654396	2	654384	27	40	654423	-999999	654399	0	10	TrialsPROC	BP_011_BP4_BA.png	1	2	41	SessionSelectionList														lure	3	Body	0-Back	36	80	35	0	0	100	4	40	483425	1	13	72	481385	-1	482350	1	965	3	3	2040	53	483438	-54	0											5					41												
WM080112	149539_fnca	1	1	1	1784855138	1	75.030	75.031	2.0.10.147	2.0.10.242	2.0.10.242	1.0.0.439	7	234	2	3	Verdana	1	80	0	0	0	WM Stimuli\	0.8	1053.625	1	1000.9	1	930.3	1	755.1	1	983.5	1	651.8	1	1034.1	1	645.3	13	654396	2	654384	27	40	654423	-999999	654399	0	10	TrialsPROC	BP_009_BP22_BA.png	1	2	42	SessionSelectionList														nonlure	3	Body	0-Back	37	80	36	0	0	100	5	40	485984	1	13	59	483944	-1	484766	1	822	3	3	2040	53	485997	-54	0											6					42												
WM080112	149539_fnca	1	1	1	1784855138	1	75.030	75.031	2.0.10.147	2.0.10.242	2.0.10.242	1.0.0.439	7	234	2	3	Verdana	1	80	0	0	0	WM Stimuli\	0.8	1053.625	1	1000.9	1	930.3	1	755.1	1	983.5	1	651.8	1	1034.1	1	645.3	13	654396	2	654384	27	40	654423	-999999	654399	0	10	TrialsPROC	BP_009_BP22_BA.png	1	2	43	SessionSelectionList														lure	3	Body	0-Back	38	80	37	0	0	100	6	40	488543	1	13	59	486503	-1	487196	1	693	3	3	2040	53	488556	-54	0											7					43												
WM080112	149539_fnca	1	1	1	1784855138	1	75.030	75.031	2.0.10.147	2.0.10.242	2.0.10.242	1.0.0.439	7	234	2	3	Verdana	1	80	0	0	0	WM Stimuli\	0.8	1053.625	1	1000.9	1	930.3	1	755.1	1	983.5	1	651.8	1	1034.1	1	645.3	13	654396	2	654384	27	40	654423	-999999	654399	0	10	TrialsPROC	BP_008_BP21_BA.png	1	2	44	SessionSelectionList														lure	3	Body	0-Back	39	80	38	0	0	100	7	40	491102	1	13	59	489062	-1	489677	1	615	3	3	2040	53	491115	-54	0											8					44												
WM080112	149539_fnca	1	1	1	1784855138	1	75.030	75.031	2.0.10.147	2.0.10.242	2.0.10.242	1.0.0.439	7	234	2	3	Verdana	1	80	0	0	0	WM Stimuli\	0.8	1053.625	1	1000.9	1	930.3	1	755.1	1	983.5	1	651.8	1	1034.1	1	645.3	13	654396	2	654384	27	40	654423	-999999	654399	0	10	TrialsPROC	BP_007_BP20_BA.png	1	2	45	SessionSelectionList														target	2	Body	0-Back	40	80	39	0	0	100	1	40	493661	1	13	59	491621	-1	493309	1	1688	2	2	2040	53	493674	-54	0											9					45												
WM080112	149539_fnca	1	1	1	1784855138	1	75.030	75.031	2.0.10.147	2.0.10.242	2.0.10.242	1.0.0.439	7	234	2	3	Verdana	1	80	0	0	0	WM Stimuli\	0.8	1053.625	1	1000.9	1	930.3	1	755.1	1	983.5	1	651.8	1	1034.1	1	645.3	13	654396	2	654384	27	40	654423	-999999	654399	0	10	TrialsPROC	BP_012_BP5_BA.png	1	2	46	SessionSelectionList														nonlure	3	Body	0-Back	41	80	40	0	0	100	1	39	496219	2	14	59	494180	-1	495043	1	863	3	3	2039	53	496233	-54	0											10					46												
WM080112	149539_fnca	1	1	1	1784855138	1	75.030	75.031	2.0.10.147	2.0.10.242	2.0.10.242	1.0.0.439	7	234	2	3	Verdana	1	80	0	0	0	WM Stimuli\	0.8	1053.625	1	1000.9	1	930.3	1	755.1	1	983.5	1	651.8	1	1034.1	1	645.3	13	654396	2	654384	27	40	654423	-999999	654399	0	11	Fix15secPROC	""	1	2	47	SessionSelectionList																																															6	496686	-7	0							47												
WM080112	149539_fnca	1	1	1	1784855138	1	75.030	75.031	2.0.10.147	2.0.10.242	2.0.10.242	1.0.0.439	7	234	2	3	Verdana	1	80	0	0	0	WM Stimuli\	0.8	1053.625	1	1000.9	1	930.3	1	755.1	1	983.5	1	651.8	1	1034.1	1	645.3	13	654396	2	654384	27	40	654423	-999999	654399	0	12	Cue0BackPROC	PL_001_92012.png	1	2	48	SessionSelectionList																																										13	511693	-14	0												48												
WM080112	149539_fnca	1	1	1	1784855138	1	75.030	75.031	2.0.10.147	2.0.10.242	2.0.10.242	1.0.0.439	7	234	2	3	Verdana	1	80	0	0	0	WM Stimuli\	0.8	1053.625	1	1000.9	1	930.3	1	755.1	1	983.5	1	651.8	1	1034.1	1	645.3	13	654396	2	654384	27	40	654423	-999999	654399	0	13	TrialsPROC	PL_003_92016.png	1	2	49	SessionSelectionList														nonlure	3	Place	0-Back	42	80	41	0	0	100	2	39	516278	2	14	59	514239	-1	515142	1	903	3	3	2039	53	516292	-54	0												1				49												
WM080112	149539_fnca	1	1	1	1784855138	1	75.030	75.031	2.0.10.147	2.0.10.242	2.0.10.242	1.0.0.439	7	234	2	3	Verdana	1	80	0	0	0	WM Stimuli\	0.8	1053.625	1	1000.9	1	930.3	1	755.1	1	983.5	1	651.8	1	1034.1	1	645.3	13	654396	2	654384	27	40	654423	-999999	654399	0	13	TrialsPROC	PL_003_92016.png	1	2	50	SessionSelectionList														lure	3	Place	0-Back	43	80	42	0	0	100	3	39	518850	2	14	72	516811	-1	517293	1	482	3	3	2039	53	518864	-54	0												2				50												
WM080112	149539_fnca	1	1	1	1784855138	1	75.030	75.031	2.0.10.147	2.0.10.242	2.0.10.242	1.0.0.439	7	234	2	3	Verdana	1	80	0	0	0	WM Stimuli\	0.8	1053.625	1	1000.9	1	930.3	1	755.1	1	983.5	1	651.8	1	1034.1	1	645.3	13	654396	2	654384	27	40	654423	-999999	654399	0	13	TrialsPROC	PL_006_92025.png	1	2	51	SessionSelectionList														nonlure	3	Place	0-Back	44	80	43	0	0	100	4	40	521423	1	13	72	519383	-1	519950	1	567	3	3	2040	53	521436	-54	0												3				51												
WM080112	149539_fnca	1	1	1	1784855138	1	75.030	75.031	2.0.10.147	2.0.10.242	2.0.10.242	1.0.0.439	7	234	2	3	Verdana	1	80	0	0	0	WM Stimuli\	0.8	1053.625	1	1000.9	1	930.3	1	755.1	1	983.5	1	651.8	1	1034.1	1	645.3	13	654396	2	654384	27	40	654423	-999999	654399	0	13	TrialsPROC	PL_001_92012.png	1	2	52	SessionSelectionList														target	2	Place	0-Back	45	80	44	0	0	100	1	39	523995	1	14	73	521956	-1	522623	1	667	2	2	2039	53	524009	-54	0												4				52												
WM080112	149539_fnca	1	1	1	1784855138	1	75.030	75.031	2.0.10.147	2.0.10.242	2.0.10.242	1.0.0.439	7	234	2	3	Verdana	1	80	0	0	0	WM Stimuli\	0.8	1053.625	1	1000.9	1	930.3	1	755.1	1	983.5	1	651.8	1	1034.1	1	645.3	13	654396	2	654384	27	40	654423	-999999	654399	0	13	TrialsPROC	PL_004_92023.png	1	2	53	SessionSelectionList														nonlure	3	Place	0-Back	46	80	45	0	0	100	1	39	526567	2	14	72	524528	-1	525051	1	523	3	3	2039	53	526581	-54	0												5				53												
WM080112	149539_fnca	1	1	1	1784855138	1	75.030	75.031	2.0.10.147	2.0.10.242	2.0.10.242	1.0.0.439	7	234	2	3	Verdana	1	80	0	0	0	WM Stimuli\	0.8	1053.625	1	1000.9	1	930.3	1	755.1	1	983.5	1	651.8	1	1034.1	1	645.3	13	654396	2	654384	27	40	654423	-999999	654399	0	13	TrialsPROC	PL_005_92024.png	1	2	54	SessionSelectionList														nonlure	3	Place	0-Back	47	80	46	0	0	100	2	40	529140	1	13	72	527100	-1	527823	1	723	3	3	2040	53	529153	-54	0												6				54												
WM080112	149539_fnca	1	1	1	1784855138	1	75.030	75.031	2.0.10.147	2.0.10.242	2.0.10.242	1.0.0.439	7	234	2	3	Verdana	1	80	0	0	0	WM Stimuli\	0.8	1053.625	1	1000.9	1	930.3	1	755.1	1	983.5	1	651.8	1	1034.1	1	645.3	13	654396	2	654384	27	40	654423	-999999	654399	0	13	TrialsPROC	PL_001_92012.png	1	2	55	SessionSelectionList														target	2	Place	0-Back	48	80	47	0	0	100	1	39	531712	1	14	73	529673	-1	530506	1	833	2	2	2039	53	531726	-54	0												7				55												
WM080112	149539_fnca	1	1	1	1784855138	1	75.030	75.031	2.0.10.147	2.0.10.242	2.0.10.242	1.0.0.439	7	234	2	3	Verdana	1	80	0	0	0	WM Stimuli\	0.8	1053.625	1	1000.9	1	930.3	1	755.1	1	983.5	1	651.8	1	1034.1	1	645.3	13	654396	2	654384	27	40	654423	-999999	654399	0	13	TrialsPROC	PL_002_92014.png	1	2	56	SessionSelectionList														nonlure	3	Place	0-Back	49	80	48	0	0	100	1	39	534284	1	14	72	532245	-1	532827	1	582	3	3	2039	53	534298	-54	0												8				56												
WM080112	149539_fnca	1	1	1	1784855138	1	75.030	75.031	2.0.10.147	2.0.10.242	2.0.10.242	1.0.0.439	7	234	2	3	Verdana	1	80	0	0	0	WM Stimuli\	0.8	1053.625	1	1000.9	1	930.3	1	755.1	1	983.5	1	651.8	1	1034.1	1	645.3	13	654396	2	654384	27	40	654423	-999999	654399	0	13	TrialsPROC	PL_004_92023.png	1	2	57	SessionSelectionList														lure	3	Place	0-Back	50	80	49	0	0	100	2	39	536856	2	14	72	534817	-1	535472	1	655	3	3	2039	53	536870	-54	0												9				57												
WM080112	149539_fnca	1	1	1	1784855138	1	75.030	75.031	2.0.10.147	2.0.10.242	2.0.10.242	1.0.0.439	7	234	2	3	Verdana	1	80	0	0	0	WM Stimuli\	0.8	1053.625	1	1000.9	1	930.3	1	755.1	1	983.5	1	651.8	1	1034.1	1	645.3	13	654396	2	654384	27	40	654423	-999999	654399	0	13	TrialsPROC	PL_006_92025.png	1	2	58	SessionSelectionList														lure	3	Place	0-Back	51	80	50	0	0	100	3	39	539429	1	13	73	537390	-1	537973	1	583	3	3	2039	52	539442	-53	0												10				58												
WM080112	149539_fnca	1	1	1	1784855138	1	75.030	75.031	2.0.10.147	2.0.10.242	2.0.10.242	1.0.0.439	7	234	2	3	Verdana	1	80	0	0	0	WM Stimuli\	0.8	1053.625	1	1000.9	1	930.3	1	755.1	1	983.5	1	651.8	1	1034.1	1	645.3	13	654396	2	654384	27	40	654423	-999999	654399	0	14	Cue2BackPROC	""	1	2	59	SessionSelectionList									5	539895	-6	0																																													59												
WM080112	149539_fnca	1	1	1	1784855138	1	75.030	75.031	2.0.10.147	2.0.10.242	2.0.10.242	1.0.0.439	7	234	2	3	Verdana	1	80	0	0	0	WM Stimuli\	0.8	1053.625	1	1000.9	1	930.3	1	755.1	1	983.5	1	651.8	1	1034.1	1	645.3	13	654396	2	654384	27	40	654423	-999999	654399	0	15	TrialsPROC	FC_010_F5.png	1	2	60	SessionSelectionList														nonlure	3	Face	2-Back	52	80	51	0	0	100	4	39	544493	2	14	64	542454	-1	543932	1	1478	3	3	2039	53	544507	-54	0													1			60												
WM080112	149539_fnca	1	1	1	1784855138	1	75.030	75.031	2.0.10.147	2.0.10.242	2.0.10.242	1.0.0.439	7	234	2	3	Verdana	1	80	0	0	0	WM Stimuli\	0.8	1053.625	1	1000.9	1	930.3	1	755.1	1	983.5	1	651.8	1	1034.1	1	645.3	13	654396	2	654384	27	40	654423	-999999	654399	0	15	TrialsPROC	FC_012_F6.png	1	2	61	SessionSelectionList														nonlure	3	Face	2-Back	53	80	52	0	0	100	5	40	547066	1	13	72	545026	-1	545779	1	753	3	3	2040	53	547079	-54	0													2			61												
WM080112	149539_fnca	1	1	1	1784855138	1	75.030	75.031	2.0.10.147	2.0.10.242	2.0.10.242	1.0.0.439	7	234	2	3	Verdana	1	80	0	0	0	WM Stimuli\	0.8	1053.625	1	1000.9	1	930.3	1	755.1	1	983.5	1	651.8	1	1034.1	1	645.3	13	654396	2	654384	27	40	654423	-999999	654399	0	15	TrialsPROC	FC_010_F5.png	1	2	62	SessionSelectionList														target	2	Face	2-Back	54	80	53	0	0	100	1	39	549638	1	14	73	547599	-1	548228	1	629	2	2	2039	53	549652	-54	0													3			62												
WM080112	149539_fnca	1	1	1	1784855138	1	75.030	75.031	2.0.10.147	2.0.10.242	2.0.10.242	1.0.0.439	7	234	2	3	Verdana	1	80	0	0	0	WM Stimuli\	0.8	1053.625	1	1000.9	1	930.3	1	755.1	1	983.5	1	651.8	1	1034.1	1	645.3	13	654396	2	654384	27	40	654423	-999999	654399	0	15	TrialsPROC	FC_008_F4.png	1	2	63	SessionSelectionList														nonlure	3	Face	2-Back	55	80	54	0	0	100	1	39	552210	2	14	72	550171	-1	551109	1	938	3	3	2039	53	552224	-54	0													4			63												
WM080112	149539_fnca	1	1	1	1784855138	1	75.030	75.031	2.0.10.147	2.0.10.242	2.0.10.242	1.0.0.439	7	234	2	3	Verdana	1	80	0	0	0	WM Stimuli\	0.8	1053.625	1	1000.9	1	930.3	1	755.1	1	983.5	1	651.8	1	1034.1	1	645.3	13	654396	2	654384	27	40	654423	-999999	654399	0	15	TrialsPROC	FC_012_F6.png	1	2	64	SessionSelectionList														lure	3	Face	2-Back	56	80	55	0	0	100	2	40	554783	1	13	72	552743	-1	553696	1	953	3	3	2040	53	554796	-54	0													5			64												
WM080112	149539_fnca	1	1	1	1784855138	1	75.030	75.031	2.0.10.147	2.0.10.242	2.0.10.242	1.0.0.439	7	234	2	3	Verdana	1	80	0	0	0	WM Stimuli\	0.8	1053.625	1	1000.9	1	930.3	1	755.1	1	983.5	1	651.8	1	1034.1	1	645.3	13	654396	2	654384	27	40	654423	-999999	654399	0	15	TrialsPROC	FC_008_F4.png	1	2	65	SessionSelectionList														target	2	Face	2-Back	57	80	56	0	0	100	1	39	557355	1	14	73	555316	-1	555887	1	571	2	2	2039	53	557369	-54	0													6			65												
WM080112	149539_fnca	1	1	1	1784855138	1	75.030	75.031	2.0.10.147	2.0.10.242	2.0.10.242	1.0.0.439	7	234	2	3	Verdana	1	80	0	0	0	WM Stimuli\	0.8	1053.625	1	1000.9	1	930.3	1	755.1	1	983.5	1	651.8	1	1034.1	1	645.3	13	654396	2	654384	27	40	654423	-999999	654399	0	15	TrialsPROC	FC_007_M4.png	1	2	66	SessionSelectionList														nonlure	3	Face	2-Back	58	80	57	0	0	100	1	39	559927	2	14	72	557888	-1	558764	1	876	3	3	2039	53	559941	-54	0													7			66												
WM080112	149539_fnca	1	1	1	1784855138	1	75.030	75.031	2.0.10.147	2.0.10.242	2.0.10.242	1.0.0.439	7	234	2	3	Verdana	1	80	0	0	0	WM Stimuli\	0.8	1053.625	1	1000.9	1	930.3	1	755.1	1	983.5	1	651.8	1	1034.1	1	645.3	13	654396	2	654384	27	40	654423	-999999	654399	0	15	TrialsPROC	FC_007_M4.png	1	2	67	SessionSelectionList														lure	3	Face	2-Back	59	80	58	0	0	100	2	39	562499	2	14	72	560460	-1	561543	1	1083	3	3	2039	53	562513	-54	0													8			67												
WM080112	149539_fnca	1	1	1	1784855138	1	75.030	75.031	2.0.10.147	2.0.10.242	2.0.10.242	1.0.0.439	7	234	2	3	Verdana	1	80	0	0	0	WM Stimuli\	0.8	1053.625	1	1000.9	1	930.3	1	755.1	1	983.5	1	651.8	1	1034.1	1	645.3	13	654396	2	654384	27	40	654423	-999999	654399	0	15	TrialsPROC	FC_009_M5.png	1	2	68	SessionSelectionList														nonlure	3	Face	2-Back	60	80	59	0	0	100	3	39	565072	1	13	73	563033	-1	564144	1	1111	3	3	2039	52	565085	-53	0													9			68												
WM080112	149539_fnca	1	1	1	1784855138	1	75.030	75.031	2.0.10.147	2.0.10.242	2.0.10.242	1.0.0.439	7	234	2	3	Verdana	1	80	0	0	0	WM Stimuli\	0.8	1053.625	1	1000.9	1	930.3	1	755.1	1	983.5	1	651.8	1	1034.1	1	645.3	13	654396	2	654384	27	40	654423	-999999	654399	0	15	TrialsPROC	FC_011_M6.png	1	2	69	SessionSelectionList														nonlure	3	Face	2-Back	61	80	60	0	0	100	4	39	567644	1	14	72	565605	-1	566516	1	911	3	3	2039	53	567658	-54	0													10			69												
WM080112	149539_fnca	1	1	1	1784855138	1	75.030	75.031	2.0.10.147	2.0.10.242	2.0.10.242	1.0.0.439	7	234	2	3	Verdana	1	80	0	0	0	WM Stimuli\	0.8	1053.625	1	1000.9	1	930.3	1	755.1	1	983.5	1	651.8	1	1034.1	1	645.3	13	654396	2	654384	27	40	654423	-999999	654399	0	16	Fix15secPROC	""	1	2	70	SessionSelectionList																																															6	568111	-7	0							70												
WM080112	149539_fnca	1	1	1	1784855138	1	75.030	75.031	2.0.10.147	2.0.10.242	2.0.10.242	1.0.0.439	7	234	2	3	Verdana	1	80	0	0	0	WM Stimuli\	0.8	1053.625	1	1000.9	1	930.3	1	755.1	1	983.5	1	651.8	1	1034.1	1	645.3	13	654396	2	654384	27	40	654423	-999999	654399	0	17	Cue0BackPROC	TO_007_TOOL7_BA.png	1	2	71	SessionSelectionList																																										13	583118	-14	0												71												
WM080112	149539_fnca	1	1	1	1784855138	1	75.030	75.031	2.0.10.147	2.0.10.242	2.0.10.242	1.0.0.439	7	234	2	3	Verdana	1	80	0	0	0	WM Stimuli\	0.8	1053.625	1	1000.9	1	930.3	1	755.1	1	983.5	1	651.8	1	1034.1	1	645.3	13	654396	2	654384	27	40	654423	-999999	654399	0	18	TrialsPROC	TO_010_TOOL10_BA.png	1	2	72	SessionSelectionList														nonlure	3	Tools	0-Back	62	80	61	0	0	100	5	40	587703	1	13	58	585663	-1	586624	1	961	3	3	2040	53	587716	-54	0														1		72												
WM080112	149539_fnca	1	1	1	1784855138	1	75.030	75.031	2.0.10.147	2.0.10.242	2.0.10.242	1.0.0.439	7	234	2	3	Verdana	1	80	0	0	0	WM Stimuli\	0.8	1053.625	1	1000.9	1	930.3	1	755.1	1	983.5	1	651.8	1	1034.1	1	645.3	13	654396	2	654384	27	40	654423	-999999	654399	0	18	TrialsPROC	TO_009_TOOL9_BA.png	1	2	73	SessionSelectionList														nonlure	3	Tools	0-Back	63	80	62	0	0	100	6	40	590262	1	13	59	588222	-1	588865	1	643	3	3	2040	53	590275	-54	0														2		73												
WM080112	149539_fnca	1	1	1	1784855138	1	75.030	75.031	2.0.10.147	2.0.10.242	2.0.10.242	1.0.0.439	7	234	2	3	Verdana	1	80	0	0	0	WM Stimuli\	0.8	1053.625	1	1000.9	1	930.3	1	755.1	1	983.5	1	651.8	1	1034.1	1	645.3	13	654396	2	654384	27	40	654423	-999999	654399	0	18	TrialsPROC	TO_009_TOOL9_BA.png	1	2	74	SessionSelectionList														lure	3	Tools	0-Back	64	80	63	0	0	100	7	39	592820	2	14	59	590781	-1	591337	1	556	3	3	2039	53	592834	-54	0														3		74												
WM080112	149539_fnca	1	1	1	1784855138	1	75.030	75.031	2.0.10.147	2.0.10.242	2.0.10.242	1.0.0.439	7	234	2	3	Verdana	1	80	0	0	0	WM Stimuli\	0.8	1053.625	1	1000.9	1	930.3	1	755.1	1	983.5	1	651.8	1	1034.1	1	645.3	13	654396	2	654384	27	40	654423	-999999	654399	0	18	TrialsPROC	TO_008_TOOL8_BA.png	1	2	75	SessionSelectionList														nonlure	3	Tools	0-Back	65	80	64	0	0	100	8	39	595379	2	14	59	593340	-1	594154	1	814	3	3	2039	53	595393	-54	0														4		75												
WM080112	149539_fnca	1	1	1	1784855138	1	75.030	75.031	2.0.10.147	2.0.10.242	2.0.10.242	1.0.0.439	7	234	2	3	Verdana	1	80	0	0	0	WM Stimuli\	0.8	1053.625	1	1000.9	1	930.3	1	755.1	1	983.5	1	651.8	1	1034.1	1	645.3	13	654396	2	654384	27	40	654423	-999999	654399	0	18	TrialsPROC	TO_011_TOOL11_BA.png	1	2	76	SessionSelectionList														nonlure	3	Tools	0-Back	66	80	65	0	0	100	9	39	597938	2	14	59	595899	-1	596469	1	570	3	3	2039	53	597952	-54	0														5		76												
WM080112	149539_fnca	1	1	1	1784855138	1	75.030	75.031	2.0.10.147	2.0.10.242	2.0.10.242	1.0.0.439	7	234	2	3	Verdana	1	80	0	0	0	WM Stimuli\	0.8	1053.625	1	1000.9	1	930.3	1	755.1	1	983.5	1	651.8	1	1034.1	1	645.3	13	654396	2	654384	27	40	654423	-999999	654399	0	18	TrialsPROC	TO_012_TOOL12_BA.png	1	2	77	SessionSelectionList														nonlure	3	Tools	0-Back	67	80	66	0	0	100	10	39	600497	2	14	59	598458	-1	598918	1	460	3	3	2039	53	600511	-54	0														6		77												
WM080112	149539_fnca	1	1	1	1784855138	1	75.030	75.031	2.0.10.147	2.0.10.242	2.0.10.242	1.0.0.439	7	234	2	3	Verdana	1	80	0	0	0	WM Stimuli\	0.8	1053.625	1	1000.9	1	930.3	1	755.1	1	983.5	1	651.8	1	1034.1	1	645.3	13	654396	2	654384	27	40	654423	-999999	654399	0	18	TrialsPROC	TO_010_TOOL10_BA.png	1	2	78	SessionSelectionList														lure	3	Tools	0-Back	68	80	67	0	0	100	11	39	603056	2	14	59	601017	-1	601607	1	590	3	3	2039	53	603070	-54	0														7		78												
WM080112	149539_fnca	1	1	1	1784855138	1	75.030	75.031	2.0.10.147	2.0.10.242	2.0.10.242	1.0.0.439	7	234	2	3	Verdana	1	80	0	0	0	WM Stimuli\	0.8	1053.625	1	1000.9	1	930.3	1	755.1	1	983.5	1	651.8	1	1034.1	1	645.3	13	654396	2	654384	27	40	654423	-999999	654399	0	18	TrialsPROC	TO_007_TOOL7_BA.png	1	2	79	SessionSelectionList														target	2	Tools	0-Back	69	80	68	0	0	100	1	39	605615	2	14	59	603576	-1	604172	1	596	2	2	2039	53	605629	-54	0														8		79												
WM080112	149539_fnca	1	1	1	1784855138	1	75.030	75.031	2.0.10.147	2.0.10.242	2.0.10.242	1.0.0.439	7	234	2	3	Verdana	1	80	0	0	0	WM Stimuli\	0.8	1053.625	1	1000.9	1	930.3	1	755.1	1	983.5	1	651.8	1	1034.1	1	645.3	13	654396	2	654384	27	40	654423	-999999	654399	0	18	TrialsPROC	TO_008_TOOL8_BA.png	1	2	80	SessionSelectionList														lure	3	Tools	0-Back	70	80	69	0	0	100	1	39	608174	2	14	59	606135	-1	606677	1	542	3	3	2039	53	608188	-54	0														9		80												
WM080112	149539_fnca	1	1	1	1784855138	1	75.030	75.031	2.0.10.147	2.0.10.242	2.0.10.242	1.0.0.439	7	234	2	3	Verdana	1	80	0	0	0	WM Stimuli\	0.8	1053.625	1	1000.9	1	930.3	1	755.1	1	983.5	1	651.8	1	1034.1	1	645.3	13	654396	2	654384	27	40	654423	-999999	654399	0	18	TrialsPROC	TO_007_TOOL7_BA.png	1	2	81	SessionSelectionList														target	2	Tools	0-Back	71	80	70	0	0	100	1	39	610733	2	14	59	608694	-1	609415	1	721	2	2	2039	53	610747	-54	0														10		81												
WM080112	149539_fnca	1	1	1	1784855138	1	75.030	75.031	2.0.10.147	2.0.10.242	2.0.10.242	1.0.0.439	7	234	2	3	Verdana	1	80	0	0	0	WM Stimuli\	0.8	1053.625	1	1000.9	1	930.3	1	755.1	1	983.5	1	651.8	1	1034.1	1	645.3	13	654396	2	654384	27	40	654423	-999999	654399	0	19	Cue2BackPROC	""	1	2	82	SessionSelectionList									6	611200	-7	0																																													82												
WM080112	149539_fnca	1	1	1	1784855138	1	75.030	75.031	2.0.10.147	2.0.10.242	2.0.10.242	1.0.0.439	7	234	2	3	Verdana	1	80	0	0	0	WM Stimuli\	0.8	1053.625	1	1000.9	1	930.3	1	755.1	1	983.5	1	651.8	1	1034.1	1	645.3	13	654396	2	654384	27	40	654423	-999999	654399	0	20	TrialsPROC	PL_007_92026.png	1	2	83	SessionSelectionList														nonlure	3	Place	2-Back	72	80	71	0	0	100	1	39	615798	1	14	65	613759	-1	615141	1	1382	3	3	2039	53	615812	-54	0															1	83												
WM080112	149539_fnca	1	1	1	1784855138	1	75.030	75.031	2.0.10.147	2.0.10.242	2.0.10.242	1.0.0.439	7	234	2	3	Verdana	1	80	0	0	0	WM Stimuli\	0.8	1053.625	1	1000.9	1	930.3	1	755.1	1	983.5	1	651.8	1	1034.1	1	645.3	13	654396	2	654384	27	40	654423	-999999	654399	0	20	TrialsPROC	PL_007_92026.png	1	2	84	SessionSelectionList														lure	3	Place	2-Back	73	80	72	0	0	100	2	39	618370	2	14	72	616331	-1	617480	1	1149	3	3	2039	53	618384	-54	0															2	84												
WM080112	149539_fnca	1	1	1	1784855138	1	75.030	75.031	2.0.10.147	2.0.10.242	2.0.10.242	1.0.0.439	7	234	2	3	Verdana	1	80	0	0	0	WM Stimuli\	0.8	1053.625	1	1000.9	1	930.3	1	755.1	1	983.5	1	651.8	1	1034.1	1	645.3	13	654396	2	654384	27	40	654423	-999999	654399	0	20	TrialsPROC	PL_010_92038.png	1	2	85	SessionSelectionList														nonlure	3	Place	2-Back	74	80	73	0	0	100	3	40	620943	1	13	72	618903	-1	619868	1	965	3	3	2040	53	620956	-54	0															3	85												
WM080112	149539_fnca	1	1	1	1784855138	1	75.030	75.031	2.0.10.147	2.0.10.242	2.0.10.242	1.0.0.439	7	234	2	3	Verdana	1	80	0	0	0	WM Stimuli\	0.8	1053.625	1	1000.9	1	930.3	1	755.1	1	983.5	1	651.8	1	1034.1	1	645.3	13	654396	2	654384	27	40	654423	-999999	654399	0	20	TrialsPROC	PL_009_92037.png	1	2	86	SessionSelectionList														nonlure	3	Place	2-Back	75	80	74	0	0	100	4	38	623501	2	14	60	621463	-1	622389	1	926	3	3	2038	52	623515	-53	0															4	86												
WM080112	149539_fnca	1	1	1	1784855138	1	75.030	75.031	2.0.10.147	2.0.10.242	2.0.10.242	1.0.0.439	7	234	2	3	Verdana	1	80	0	0	0	WM Stimuli\	0.8	1053.625	1	1000.9	1	930.3	1	755.1	1	983.5	1	651.8	1	1034.1	1	645.3	13	654396	2	654384	27	40	654423	-999999	654399	0	20	TrialsPROC	PL_010_92038.png	1	2	87	SessionSelectionList														target	2	Place	2-Back	76	80	75	0	0	100	1	39	626074	1	14	72	624035	-1	624777	1	742	2	2	2039	53	626088	-54	0															5	87												
WM080112	149539_fnca	1	1	1	1784855138	1	75.030	75.031	2.0.10.147	2.0.10.242	2.0.10.242	1.0.0.439	7	234	2	3	Verdana	1	80	0	0	0	WM Stimuli\	0.8	1053.625	1	1000.9	1	930.3	1	755.1	1	983.5	1	651.8	1	1034.1	1	645.3	13	654396	2	654384	27	40	654423	-999999	654399	0	20	TrialsPROC	PL_009_92037.png	1	2	88	SessionSelectionList														target	2	Place	2-Back	77	80	76	0	0	100	2	39	628646	1	14	72	626607	-1	627538	1	931	2	2	2039	53	628660	-54	0															6	88												
WM080112	149539_fnca	1	1	1	1784855138	1	75.030	75.031	2.0.10.147	2.0.10.242	2.0.10.242	1.0.0.439	7	234	2	3	Verdana	1	80	0	0	0	WM Stimuli\	0.8	1053.625	1	1000.9	1	930.3	1	755.1	1	983.5	1	651.8	1	1034.1	1	645.3	13	654396	2	654384	27	40	654423	-999999	654399	0	20	TrialsPROC	PL_008_92033.png	1	2	89	SessionSelectionList														nonlure	3	Place	2-Back	78	80	77	0	0	100	1	39	631218	2	14	72	629179	-1	629888	1	709	3	3	2039	53	631232	-54	0															7	89												
WM080112	149539_fnca	1	1	1	1784855138	1	75.030	75.031	2.0.10.147	2.0.10.242	2.0.10.242	1.0.0.439	7	234	2	3	Verdana	1	80	0	0	0	WM Stimuli\	0.8	1053.625	1	1000.9	1	930.3	1	755.1	1	983.5	1	651.8	1	1034.1	1	645.3	13	654396	2	654384	27	40	654423	-999999	654399	0	20	TrialsPROC	PL_012_92047.png	1	2	90	SessionSelectionList														nonlure	3	Place	2-Back	79	80	78	0	0	100	2	39	633777	2	14	59	631738	-1	632625	1	887	3	3	2039	53	633791	-54	0															8	90												
WM080112	149539_fnca	1	1	1	1784855138	1	75.030	75.031	2.0.10.147	2.0.10.242	2.0.10.242	1.0.0.439	7	234	2	3	Verdana	1	80	0	0	0	WM Stimuli\	0.8	1053.625	1	1000.9	1	930.3	1	755.1	1	983.5	1	651.8	1	1034.1	1	645.3	13	654396	2	654384	27	40	654423	-999999	654399	0	20	TrialsPROC	PL_012_92047.png	1	2	91	SessionSelectionList														lure	3	Place	2-Back	80	80	79	0	0	100	3	40	636350	1	13	72	634310	-1	635346	1	1036	3	3	2040	53	636363	-54	0															9	91												
WM080112	149539_fnca	1	1	1	1784855138	1	75.030	75.031	2.0.10.147	2.0.10.242	2.0.10.242	1.0.0.439	7	234	2	3	Verdana	1	80	0	0	0	WM Stimuli\	0.8	1053.625	1	1000.9	1	930.3	1	755.1	1	983.5	1	651.8	1	1034.1	1	645.3	13	654396	2	654384	27	40	654423	-999999	654399	0	20	TrialsPROC	PL_011_92044.png	1	2	92	SessionSelectionList														nonlure	3	Place	2-Back	80	80	80	0	0	100	4	39	638922	1	14	73	636883	-1	637991	1	1108	3	3	2039	53	638936	-54	0															10	92												
WM080112	149539_fnca	1	1	1	1784855138	1	75.030	75.031	2.0.10.147	2.0.10.242	2.0.10.242	1.0.0.439	7	234	2	3	Verdana	1	80	0	0	0	WM Stimuli\	0.8	1053.625	1	1000.9	1	930.3	1	755.1	1	983.5	1	651.8	1	1034.1	1	645.3	13	654396	2	654384	27	40	654423	-999999	654399	0	21	Fix15secPROC	""	1	2	93	SessionSelectionList																																															6	639389	-7	0							93												
