ExperimentName	HCPID	RunNumber	Subject	Session	RandomSeed	Group	Laptop.RefreshRate	ScannerD2.RefreshRate	StudioVersion	RuntimeVersion	RuntimeVersionExpected	ExperimentVersion	triggercode	Allowed	Target	Nontarget	FontStyle	RunTrialNumber[Session]	TrialsPerRun[Session]	TotalRespGreater200[Session]	ConsecRTLess200[Session]	ConsecNonResp[Session]	StimuliDir	ACC_2_Back_Body	Avg_RT_For_Correct_Trials_2_Back_Body	ACC_0_Back_Body	Avg_RT_For_Correct_Trials_0_Back_Body	ACC_2_Back_Face	Avg_RT_For_Correct_Trials_2_Back_Face	ACC_0_Back_Face	Avg_RT_For_Correct_Trials_0_Back_Face	ACC_2_Back_Place	Avg_RT_For_Correct_Trials_2_Back_Place	ACC_0_Back_Place	Avg_RT_For_Correct_Trials_0_Back_Place	ACC_2_Back_Tools	Avg_RT_For_Correct_Trials_2_Back_Tools	ACC_0_Back_Tools	Avg_RT_For_Correct_Trials_0_Back_Tools	ExpInstrucFeelFreeToRest.OnsetDelay	ExpInstrucFeelFreeToRest.OnsetTime	ExpInstrucFeelFreeToRest.DurationError	ExpInstrucFeelFreeToRest.StartTime	ExpInstrucFeelFreeToRest.OnsetToOnsetTime	FeelFreeToRest.OnsetDelay	FeelFreeToRest.OnsetTime	FeelFreeToRest.DurationError	FeelFreeToRest.StartTime	FeelFreeToRest.OnsetToOnsetTime	SessionSelectionList	Procedure[Block]	Stimulus[Block]	RunNumberFilterValue	SessionSelectionList.Cycle	SessionSelectionList.Sample	Running[Block]	IntroButtonMap.OnsetDelay	IntroButtonMap.OnsetTime	IntroButtonMap.DurationError	IntroButtonMap.OnsetToOnsetTime	GetReady.OnsetDelay	GetReady.OnsetTime	GetReady.DurationError	GetReady.OnsetToOnsetTime	Cue2Back.OnsetDelay	Cue2Back.OnsetTime	Cue2Back.DurationError	Cue2Back.OnsetToOnsetTime	Run1Block1	TargetType	CorrectResponse	StimType	BlockType	RunTrialNumber[Block]	TrialsPerRun[Block]	TotalRespGreater200[Block]	ConsecRTLess200[Block]	ConsecNonResp[Block]	ControlAcc	ConsecSameResp	ExperimenterWindow.OnsetDelay	ExperimenterWindow.OnsetTime	ExperimenterWindow.DurationError	ExperimenterWindow.OnsetToOnsetTime	Stim.OnsetDelay	Stim.OnsetTime	Stim.DurationError	Stim.RTTime	Stim.ACC	Stim.RT	Stim.RESP	Stim.CRESP	Stim.OnsetToOnsetTime	Fix.OnsetDelay	Fix.OnsetTime	Fix.DurationError	Fix.OnsetToOnsetTime	CueTarget.OnsetDelay	CueTarget.OnsetTime	CueTarget.DurationError	CueTarget.OnsetToOnsetTime	Run1Block2	Fix15sec.OnsetDelay	Fix15sec.OnsetTime	Fix15sec.DurationError	Fix15sec.OnsetToOnsetTime	Run1Block3	Run1Block4	Run1Block5	Run1Block6	Run1Block7	Run1Block8	Block	Procedure[Trial]	Stimulus[Trial]	ReadyList	Running[Trial]	ReadyList.Cycle	ReadyList.Sample	SyncSlide.OnsetDelay	SyncSlide.OnsetTime	SyncSlide.DurationError	SyncSlide.FinishTime	SyncSlide.OnsetToOnsetTime	Trial
WM080112	101915_fnca	2	1	1	-45025087	1	75.031	75.031	2.0.10.147	2.0.10.242	2.0.10.242	1.0.0.439	7	234	2	3	Verdana	1	80	0	0	0	WM Stimuli\	0.5	1050	1	775	1	1082.9	1	808.2	1	1135.8	1	762.6	0.7	1174.42857142857	1	754.3	12	322055	3	322044	28	40	322083	-999999	322058	0	22	TRSyncPROC	""	2	2	1	SessionSelectionList	102	7850	-999999	0	28	12715	-999999	0																																																	1	InitialTR	4	1	ReadyList	1	1	18	27655	-19	29636	0	1
WM080112	101915_fnca	2	1	1	-45025087	1	75.031	75.031	2.0.10.147	2.0.10.242	2.0.10.242	1.0.0.439	7	234	2	3	Verdana	1	80	0	0	0	WM Stimuli\	0.5	1050	1	775	1	1082.9	1	808.2	1	1135.8	1	762.6	0.7	1174.42857142857	1	754.3	12	322055	3	322044	28	40	322083	-999999	322058	0	22	TRSyncPROC	""	2	2	1	SessionSelectionList	102	7850	-999999	0	28	12715	-999999	0																																																	1	InitialTR	3	2	ReadyList	1	2	17	29654	-18	31636	0	2
WM080112	101915_fnca	2	1	1	-45025087	1	75.031	75.031	2.0.10.147	2.0.10.242	2.0.10.242	1.0.0.439	7	234	2	3	Verdana	1	80	0	0	0	WM Stimuli\	0.5	1050	1	775	1	1082.9	1	808.2	1	1135.8	1	762.6	0.7	1174.42857142857	1	754.3	12	322055	3	322044	28	40	322083	-999999	322058	0	22	TRSyncPROC	""	2	2	1	SessionSelectionList	102	7850	-999999	0	28	12715	-999999	0																																																	1	InitialTR	2	3	ReadyList	1	3	3	31640	-4	33636	0	3
WM080112	101915_fnca	2	1	1	-45025087	1	75.031	75.031	2.0.10.147	2.0.10.242	2.0.10.242	1.0.0.439	7	234	2	3	Verdana	1	80	0	0	0	WM Stimuli\	0.5	1050	1	775	1	1082.9	1	808.2	1	1135.8	1	762.6	0.7	1174.42857142857	1	754.3	12	322055	3	322044	28	40	322083	-999999	322058	0	22	TRSyncPROC	""	2	2	1	SessionSelectionList	102	7850	-999999	0	28	12715	-999999	0																																																	1	InitialTR	1	4	ReadyList	1	4	16	33653	-17	35636	0	4
WM080112	101915_fnca	2	1	1	-45025087	1	75.031	75.031	2.0.10.147	2.0.10.242	2.0.10.242	1.0.0.439	7	234	2	3	Verdana	1	80	0	0	0	WM Stimuli\	0.5	1050	1	775	1	1082.9	1	808.2	1	1135.8	1	762.6	0.7	1174.42857142857	1	754.3	12	322055	3	322044	28	40	322083	-999999	322058	0	23	Cue2BackPROC	""	2	2	2	SessionSelectionList									15	35652	-16	0																																													2												
WM080112	101915_fnca	2	1	1	-45025087	1	75.031	75.031	2.0.10.147	2.0.10.242	2.0.10.242	1.0.0.439	7	234	2	3	Verdana	1	80	0	0	0	WM Stimuli\	0.5	1050	1	775	1	1082.9	1	808.2	1	1135.8	1	762.6	0.7	1174.42857142857	1	754.3	12	322055	3	322044	28	40	322083	-999999	322058	0	24	TrialsPROC	TO_014_TOOL14_BA.png	2	2	3	SessionSelectionList														nonlure	3	Tools	2-Back	2	80	1	0	0	0	1	53	40290	3	14	100	38237	-1	38722	1	485	3	3	2053	67	40304	-68	0																3												
WM080112	101915_fnca	2	1	1	-45025087	1	75.031	75.031	2.0.10.147	2.0.10.242	2.0.10.242	1.0.0.439	7	234	2	3	Verdana	1	80	0	0	0	WM Stimuli\	0.5	1050	1	775	1	1082.9	1	808.2	1	1135.8	1	762.6	0.7	1174.42857142857	1	754.3	12	322055	3	322044	28	40	322083	-999999	322058	0	24	TrialsPROC	TO_013_TOOL13_BA.png	2	2	4	SessionSelectionList														nonlure	3	Tools	2-Back	3	80	2	0	0	0	2	39	42862	3	14	86	40823	-1	42353	1	1530	3	3	2039	53	42876	-54	0																4												
WM080112	101915_fnca	2	1	1	-45025087	1	75.031	75.031	2.0.10.147	2.0.10.242	2.0.10.242	1.0.0.439	7	234	2	3	Verdana	1	80	0	0	0	WM Stimuli\	0.5	1050	1	775	1	1082.9	1	808.2	1	1135.8	1	762.6	0.7	1174.42857142857	1	754.3	12	322055	3	322044	28	40	322083	-999999	322058	0	24	TrialsPROC	TO_016_TOOL16_BA.png	2	2	5	SessionSelectionList														nonlure	3	Tools	2-Back	4	80	3	0	0	0	3	39	45461	2	14	99	43422	-1	45417	1	1995	3	3	2039	53	45475	-54	0																5												
WM080112	101915_fnca	2	1	1	-45025087	1	75.031	75.031	2.0.10.147	2.0.10.242	2.0.10.242	1.0.0.439	7	234	2	3	Verdana	1	80	0	0	0	WM Stimuli\	0.5	1050	1	775	1	1082.9	1	808.2	1	1135.8	1	762.6	0.7	1174.42857142857	1	754.3	12	322055	3	322044	28	40	322083	-999999	322058	0	24	TrialsPROC	TO_014_TOOL14_BA.png	2	2	6	SessionSelectionList														lure	3	Tools	2-Back	5	80	4	0	0	0	1	39	48033	2	14	72	45994	-1	46986	0	992	2	3	2039	53	48047	-54	0																6												
WM080112	101915_fnca	2	1	1	-45025087	1	75.031	75.031	2.0.10.147	2.0.10.242	2.0.10.242	1.0.0.439	7	234	2	3	Verdana	1	80	0	0	0	WM Stimuli\	0.5	1050	1	775	1	1082.9	1	808.2	1	1135.8	1	762.6	0.7	1174.42857142857	1	754.3	12	322055	3	322044	28	40	322083	-999999	322058	0	24	TrialsPROC	TO_016_TOOL16_BA.png	2	2	7	SessionSelectionList														target	2	Tools	2-Back	6	80	5	0	0	0	1	39	50592	3	14	59	48553	-1	49839	0	1286	3	2	2039	53	50606	-54	0																7												
WM080112	101915_fnca	2	1	1	-45025087	1	75.031	75.031	2.0.10.147	2.0.10.242	2.0.10.242	1.0.0.439	7	234	2	3	Verdana	1	80	0	0	0	WM Stimuli\	0.5	1050	1	775	1	1082.9	1	808.2	1	1135.8	1	762.6	0.7	1174.42857142857	1	754.3	12	322055	3	322044	28	40	322083	-999999	322058	0	24	TrialsPROC	TO_018_TOOL18_BA.png	2	2	8	SessionSelectionList														nonlure	3	Tools	2-Back	7	80	6	0	0	0	2	39	53178	1	14	86	51139	-1	52274	1	1135	3	3	2039	53	53192	-54	0																8												
WM080112	101915_fnca	2	1	1	-45025087	1	75.031	75.031	2.0.10.147	2.0.10.242	2.0.10.242	1.0.0.439	7	234	2	3	Verdana	1	80	0	0	0	WM Stimuli\	0.5	1050	1	775	1	1082.9	1	808.2	1	1135.8	1	762.6	0.7	1174.42857142857	1	754.3	12	322055	3	322044	28	40	322083	-999999	322058	0	24	TrialsPROC	TO_017_TOOL17_BA.png	2	2	9	SessionSelectionList														nonlure	3	Tools	2-Back	8	80	7	0	0	0	3	40	55764	2	13	85	53724	-1	54676	1	952	3	3	2040	53	55777	-54	0																9												
WM080112	101915_fnca	2	1	1	-45025087	1	75.031	75.031	2.0.10.147	2.0.10.242	2.0.10.242	1.0.0.439	7	234	2	3	Verdana	1	80	0	0	0	WM Stimuli\	0.5	1050	1	775	1	1082.9	1	808.2	1	1135.8	1	762.6	0.7	1174.42857142857	1	754.3	12	322055	3	322044	28	40	322083	-999999	322058	0	24	TrialsPROC	TO_018_TOOL18_BA.png	2	2	10	SessionSelectionList														target	2	Tools	2-Back	9	80	8	0	0	0	1	40	58323	1	13	59	56283	-1	57196	1	913	2	2	2040	53	58336	-54	0																10												
WM080112	101915_fnca	2	1	1	-45025087	1	75.031	75.031	2.0.10.147	2.0.10.242	2.0.10.242	1.0.0.439	7	234	2	3	Verdana	1	80	0	0	0	WM Stimuli\	0.5	1050	1	775	1	1082.9	1	808.2	1	1135.8	1	762.6	0.7	1174.42857142857	1	754.3	12	322055	3	322044	28	40	322083	-999999	322058	0	24	TrialsPROC	TO_015_TOOL15_BA.png	2	2	11	SessionSelectionList														nonlure	3	Tools	2-Back	10	80	9	0	0	0	1	39	60908	2	14	86	58869	-1	60080	1	1211	3	3	2039	53	60922	-54	0																11												
WM080112	101915_fnca	2	1	1	-45025087	1	75.031	75.031	2.0.10.147	2.0.10.242	2.0.10.242	1.0.0.439	7	234	2	3	Verdana	1	80	0	0	0	WM Stimuli\	0.5	1050	1	775	1	1082.9	1	808.2	1	1135.8	1	762.6	0.7	1174.42857142857	1	754.3	12	322055	3	322044	28	40	322083	-999999	322058	0	24	TrialsPROC	TO_017_TOOL17_BA.png	2	2	12	SessionSelectionList														lure	3	Tools	2-Back	11	80	10	0	0	0	1	39	63467	1	14	59	61428	-1	62476	0	1048	2	3	2039	53	63481	-54	0																12												
WM080112	101915_fnca	2	1	1	-45025087	1	75.031	75.031	2.0.10.147	2.0.10.242	2.0.10.242	1.0.0.439	7	234	2	3	Verdana	1	80	0	0	0	WM Stimuli\	0.5	1050	1	775	1	1082.9	1	808.2	1	1135.8	1	762.6	0.7	1174.42857142857	1	754.3	12	322055	3	322044	28	40	322083	-999999	322058	0	25	Cue0BackPROC	BP_013_BP7_BA.png	2	2	13	SessionSelectionList																																										46	63974	-47	0												13												
WM080112	101915_fnca	2	1	1	-45025087	1	75.031	75.031	2.0.10.147	2.0.10.242	2.0.10.242	1.0.0.439	7	234	2	3	Verdana	1	80	0	0	0	WM Stimuli\	0.5	1050	1	775	1	1082.9	1	808.2	1	1135.8	1	762.6	0.7	1174.42857142857	1	754.3	12	322055	3	322044	28	40	322083	-999999	322058	0	26	TrialsPROC	BP_015_H10-T_BA.png	2	2	14	SessionSelectionList														nonlure	3	Body	0-Back	12	80	11	0	0	100	1	39	68532	2	13	65	66493	-1	67387	1	894	3	3	2039	52	68545	-53	0																14												
WM080112	101915_fnca	2	1	1	-45025087	1	75.031	75.031	2.0.10.147	2.0.10.242	2.0.10.242	1.0.0.439	7	234	2	3	Verdana	1	80	0	0	0	WM Stimuli\	0.5	1050	1	775	1	1082.9	1	808.2	1	1135.8	1	762.6	0.7	1174.42857142857	1	754.3	12	322055	3	322044	28	40	322083	-999999	322058	0	26	TrialsPROC	BP_018_H13-T_BA.png	2	2	15	SessionSelectionList														nonlure	3	Body	0-Back	13	80	12	0	0	100	2	39	71117	3	14	85	69078	-1	69734	1	656	3	3	2039	53	71131	-54	0																15												
WM080112	101915_fnca	2	1	1	-45025087	1	75.031	75.031	2.0.10.147	2.0.10.242	2.0.10.242	1.0.0.439	7	234	2	3	Verdana	1	80	0	0	0	WM Stimuli\	0.5	1050	1	775	1	1082.9	1	808.2	1	1135.8	1	762.6	0.7	1174.42857142857	1	754.3	12	322055	3	322044	28	40	322083	-999999	322058	0	26	TrialsPROC	BP_014_BP9_BA.png	2	2	16	SessionSelectionList														nonlure	3	Body	0-Back	14	80	13	0	0	100	3	39	73716	3	14	99	71677	-1	72649	1	972	3	3	2039	53	73730	-54	0																16												
WM080112	101915_fnca	2	1	1	-45025087	1	75.031	75.031	2.0.10.147	2.0.10.242	2.0.10.242	1.0.0.439	7	234	2	3	Verdana	1	80	0	0	0	WM Stimuli\	0.5	1050	1	775	1	1082.9	1	808.2	1	1135.8	1	762.6	0.7	1174.42857142857	1	754.3	12	322055	3	322044	28	40	322083	-999999	322058	0	26	TrialsPROC	BP_018_H13-T_BA.png	2	2	17	SessionSelectionList														lure	3	Body	0-Back	15	80	14	0	0	100	4	39	76275	3	14	59	74236	-1	74871	1	635	3	3	2039	53	76289	-54	0																17												
WM080112	101915_fnca	2	1	1	-45025087	1	75.031	75.031	2.0.10.147	2.0.10.242	2.0.10.242	1.0.0.439	7	234	2	3	Verdana	1	80	0	0	0	WM Stimuli\	0.5	1050	1	775	1	1082.9	1	808.2	1	1135.8	1	762.6	0.7	1174.42857142857	1	754.3	12	322055	3	322044	28	40	322083	-999999	322058	0	26	TrialsPROC	BP_013_BP7_BA.png	2	2	18	SessionSelectionList														target	2	Body	0-Back	16	80	15	0	0	100	1	39	78834	3	14	59	76795	-1	77556	1	761	2	2	2039	53	78848	-54	0																18												
WM080112	101915_fnca	2	1	1	-45025087	1	75.031	75.031	2.0.10.147	2.0.10.242	2.0.10.242	1.0.0.439	7	234	2	3	Verdana	1	80	0	0	0	WM Stimuli\	0.5	1050	1	775	1	1082.9	1	808.2	1	1135.8	1	762.6	0.7	1174.42857142857	1	754.3	12	322055	3	322044	28	40	322083	-999999	322058	0	26	TrialsPROC	BP_015_H10-T_BA.png	2	2	19	SessionSelectionList														lure	3	Body	0-Back	17	80	16	0	0	100	1	39	81393	2	14	59	79354	-1	80250	1	896	3	3	2039	53	81407	-54	0																19												
WM080112	101915_fnca	2	1	1	-45025087	1	75.031	75.031	2.0.10.147	2.0.10.242	2.0.10.242	1.0.0.439	7	234	2	3	Verdana	1	80	0	0	0	WM Stimuli\	0.5	1050	1	775	1	1082.9	1	808.2	1	1135.8	1	762.6	0.7	1174.42857142857	1	754.3	12	322055	3	322044	28	40	322083	-999999	322058	0	26	TrialsPROC	BP_016_H11-T_BA.png	2	2	20	SessionSelectionList														nonlure	3	Body	0-Back	18	80	17	0	0	100	2	39	83979	2	14	86	81940	-1	82590	1	650	3	3	2039	53	83993	-54	0																20												
WM080112	101915_fnca	2	1	1	-45025087	1	75.031	75.031	2.0.10.147	2.0.10.242	2.0.10.242	1.0.0.439	7	234	2	3	Verdana	1	80	0	0	0	WM Stimuli\	0.5	1050	1	775	1	1082.9	1	808.2	1	1135.8	1	762.6	0.7	1174.42857142857	1	754.3	12	322055	3	322044	28	40	322083	-999999	322058	0	26	TrialsPROC	BP_013_BP7_BA.png	2	2	21	SessionSelectionList														target	2	Body	0-Back	19	80	18	0	0	100	1	39	86538	1	14	59	84499	-1	85183	1	684	2	2	2039	53	86552	-54	0																21												
WM080112	101915_fnca	2	1	1	-45025087	1	75.031	75.031	2.0.10.147	2.0.10.242	2.0.10.242	1.0.0.439	7	234	2	3	Verdana	1	80	0	0	0	WM Stimuli\	0.5	1050	1	775	1	1082.9	1	808.2	1	1135.8	1	762.6	0.7	1174.42857142857	1	754.3	12	322055	3	322044	28	40	322083	-999999	322058	0	26	TrialsPROC	BP_017_H12-T_BA.png	2	2	22	SessionSelectionList														nonlure	3	Body	0-Back	20	80	19	0	0	100	1	39	89123	3	14	85	87084	-1	87696	1	612	3	3	2039	53	89137	-54	0																22												
WM080112	101915_fnca	2	1	1	-45025087	1	75.031	75.031	2.0.10.147	2.0.10.242	2.0.10.242	1.0.0.439	7	234	2	3	Verdana	1	80	0	0	0	WM Stimuli\	0.5	1050	1	775	1	1082.9	1	808.2	1	1135.8	1	762.6	0.7	1174.42857142857	1	754.3	12	322055	3	322044	28	40	322083	-999999	322058	0	26	TrialsPROC	BP_014_BP9_BA.png	2	2	23	SessionSelectionList														lure	3	Body	0-Back	21	80	20	0	0	100	2	39	91682	3	14	59	89643	-1	90633	1	990	3	3	2039	53	91696	-54	0																23												
WM080112	101915_fnca	2	1	1	-45025087	1	75.031	75.031	2.0.10.147	2.0.10.242	2.0.10.242	1.0.0.439	7	234	2	3	Verdana	1	80	0	0	0	WM Stimuli\	0.5	1050	1	775	1	1082.9	1	808.2	1	1135.8	1	762.6	0.7	1174.42857142857	1	754.3	12	322055	3	322044	28	40	322083	-999999	322058	0	27	Fix15secPROC	""	2	2	24	SessionSelectionList																																															6	92149	-7	0							24												
WM080112	101915_fnca	2	1	1	-45025087	1	75.031	75.031	2.0.10.147	2.0.10.242	2.0.10.242	1.0.0.439	7	234	2	3	Verdana	1	80	0	0	0	WM Stimuli\	0.5	1050	1	775	1	1082.9	1	808.2	1	1135.8	1	762.6	0.7	1174.42857142857	1	754.3	12	322055	3	322044	28	40	322083	-999999	322058	0	28	Cue2BackPROC	""	2	2	25	SessionSelectionList									13	107156	-14	0																																													25												
WM080112	101915_fnca	2	1	1	-45025087	1	75.031	75.031	2.0.10.147	2.0.10.242	2.0.10.242	1.0.0.439	7	234	2	3	Verdana	1	80	0	0	0	WM Stimuli\	0.5	1050	1	775	1	1082.9	1	808.2	1	1135.8	1	762.6	0.7	1174.42857142857	1	754.3	12	322055	3	322044	28	40	322083	-999999	322058	0	29	TrialsPROC	FC_015_M8.png	2	2	26	SessionSelectionList														nonlure	3	Face	2-Back	22	80	21	0	0	100	3	39	111781	1	14	99	109742	-1	110861	1	1119	3	3	2039	53	111795	-54	0																26												
WM080112	101915_fnca	2	1	1	-45025087	1	75.031	75.031	2.0.10.147	2.0.10.242	2.0.10.242	1.0.0.439	7	234	2	3	Verdana	1	80	0	0	0	WM Stimuli\	0.5	1050	1	775	1	1082.9	1	808.2	1	1135.8	1	762.6	0.7	1174.42857142857	1	754.3	12	322055	3	322044	28	40	322083	-999999	322058	0	29	TrialsPROC	FC_018_F9.png	2	2	27	SessionSelectionList														nonlure	3	Face	2-Back	23	80	22	0	0	100	4	39	114380	2	14	99	112341	-1	113240	1	899	3	3	2039	53	114394	-54	0																27												
WM080112	101915_fnca	2	1	1	-45025087	1	75.031	75.031	2.0.10.147	2.0.10.242	2.0.10.242	1.0.0.439	7	234	2	3	Verdana	1	80	0	0	0	WM Stimuli\	0.5	1050	1	775	1	1082.9	1	808.2	1	1135.8	1	762.6	0.7	1174.42857142857	1	754.3	12	322055	3	322044	28	40	322083	-999999	322058	0	29	TrialsPROC	FC_018_F9.png	2	2	28	SessionSelectionList														lure	3	Face	2-Back	24	80	23	0	0	100	5	39	116952	2	14	72	114913	-1	116233	1	1320	3	3	2039	53	116966	-54	0																28												
WM080112	101915_fnca	2	1	1	-45025087	1	75.031	75.031	2.0.10.147	2.0.10.242	2.0.10.242	1.0.0.439	7	234	2	3	Verdana	1	80	0	0	0	WM Stimuli\	0.5	1050	1	775	1	1082.9	1	808.2	1	1135.8	1	762.6	0.7	1174.42857142857	1	754.3	12	322055	3	322044	28	40	322083	-999999	322058	0	29	TrialsPROC	FC_017_M9.png	2	2	29	SessionSelectionList														nonlure	3	Face	2-Back	25	80	24	0	0	100	6	39	119551	1	14	99	117512	-1	118496	1	984	3	3	2039	53	119565	-54	0																29												
WM080112	101915_fnca	2	1	1	-45025087	1	75.031	75.031	2.0.10.147	2.0.10.242	2.0.10.242	1.0.0.439	7	234	2	3	Verdana	1	80	0	0	0	WM Stimuli\	0.5	1050	1	775	1	1082.9	1	808.2	1	1135.8	1	762.6	0.7	1174.42857142857	1	754.3	12	322055	3	322044	28	40	322083	-999999	322058	0	29	TrialsPROC	FC_017_M9.png	2	2	30	SessionSelectionList														lure	3	Face	2-Back	26	80	25	0	0	100	7	39	122123	2	14	72	120084	-1	121177	1	1093	3	3	2039	53	122137	-54	0																30												
WM080112	101915_fnca	2	1	1	-45025087	1	75.031	75.031	2.0.10.147	2.0.10.242	2.0.10.242	1.0.0.439	7	234	2	3	Verdana	1	80	0	0	0	WM Stimuli\	0.5	1050	1	775	1	1082.9	1	808.2	1	1135.8	1	762.6	0.7	1174.42857142857	1	754.3	12	322055	3	322044	28	40	322083	-999999	322058	0	29	TrialsPROC	FC_016_F8.png	2	2	31	SessionSelectionList														nonlure	3	Face	2-Back	27	80	26	0	0	100	8	39	124722	2	14	99	122683	-1	123987	1	1304	3	3	2039	53	124736	-54	0																31												
WM080112	101915_fnca	2	1	1	-45025087	1	75.031	75.031	2.0.10.147	2.0.10.242	2.0.10.242	1.0.0.439	7	234	2	3	Verdana	1	80	0	0	0	WM Stimuli\	0.5	1050	1	775	1	1082.9	1	808.2	1	1135.8	1	762.6	0.7	1174.42857142857	1	754.3	12	322055	3	322044	28	40	322083	-999999	322058	0	29	TrialsPROC	FC_013_M7.png	2	2	32	SessionSelectionList														nonlure	3	Face	2-Back	28	80	27	0	0	100	9	39	127321	2	14	99	125282	-1	126203	1	921	3	3	2039	53	127335	-54	0																32												
WM080112	101915_fnca	2	1	1	-45025087	1	75.031	75.031	2.0.10.147	2.0.10.242	2.0.10.242	1.0.0.439	7	234	2	3	Verdana	1	80	0	0	0	WM Stimuli\	0.5	1050	1	775	1	1082.9	1	808.2	1	1135.8	1	762.6	0.7	1174.42857142857	1	754.3	12	322055	3	322044	28	40	322083	-999999	322058	0	29	TrialsPROC	FC_014_F7.png	2	2	33	SessionSelectionList														nonlure	3	Face	2-Back	29	80	28	0	0	100	10	39	129920	3	14	99	127881	-1	128982	1	1101	3	3	2039	53	129934	-54	0																33												
WM080112	101915_fnca	2	1	1	-45025087	1	75.031	75.031	2.0.10.147	2.0.10.242	2.0.10.242	1.0.0.439	7	234	2	3	Verdana	1	80	0	0	0	WM Stimuli\	0.5	1050	1	775	1	1082.9	1	808.2	1	1135.8	1	762.6	0.7	1174.42857142857	1	754.3	12	322055	3	322044	28	40	322083	-999999	322058	0	29	TrialsPROC	FC_013_M7.png	2	2	34	SessionSelectionList														target	2	Face	2-Back	30	80	29	0	0	100	1	39	132492	2	14	72	130453	-1	131275	1	822	2	2	2039	53	132506	-54	0																34												
WM080112	101915_fnca	2	1	1	-45025087	1	75.031	75.031	2.0.10.147	2.0.10.242	2.0.10.242	1.0.0.439	7	234	2	3	Verdana	1	80	0	0	0	WM Stimuli\	0.5	1050	1	775	1	1082.9	1	808.2	1	1135.8	1	762.6	0.7	1174.42857142857	1	754.3	12	322055	3	322044	28	40	322083	-999999	322058	0	29	TrialsPROC	FC_014_F7.png	2	2	35	SessionSelectionList														target	2	Face	2-Back	31	80	30	0	0	100	2	39	135065	1	13	73	133026	-1	134292	1	1266	2	2	2039	52	135078	-53	0																35												
WM080112	101915_fnca	2	1	1	-45025087	1	75.031	75.031	2.0.10.147	2.0.10.242	2.0.10.242	1.0.0.439	7	234	2	3	Verdana	1	80	0	0	0	WM Stimuli\	0.5	1050	1	775	1	1082.9	1	808.2	1	1135.8	1	762.6	0.7	1174.42857142857	1	754.3	12	322055	3	322044	28	40	322083	-999999	322058	0	30	Cue0BackPROC	TO_019_TOOL19_BA.png	2	2	36	SessionSelectionList																																										45	135571	-46	0												36												
WM080112	101915_fnca	2	1	1	-45025087	1	75.031	75.031	2.0.10.147	2.0.10.242	2.0.10.242	1.0.0.439	7	234	2	3	Verdana	1	80	0	0	0	WM Stimuli\	0.5	1050	1	775	1	1082.9	1	808.2	1	1135.8	1	762.6	0.7	1174.42857142857	1	754.3	12	322055	3	322044	28	40	322083	-999999	322058	0	31	TrialsPROC	TO_019_TOOL19_BA.png	2	2	37	SessionSelectionList														target	2	Tools	0-Back	32	80	31	0	0	100	3	39	140116	2	14	51	138077	-1	139293	1	1216	2	2	2039	53	140130	-54	0																37												
WM080112	101915_fnca	2	1	1	-45025087	1	75.031	75.031	2.0.10.147	2.0.10.242	2.0.10.242	1.0.0.439	7	234	2	3	Verdana	1	80	0	0	0	WM Stimuli\	0.5	1050	1	775	1	1082.9	1	808.2	1	1135.8	1	762.6	0.7	1174.42857142857	1	754.3	12	322055	3	322044	28	40	322083	-999999	322058	0	31	TrialsPROC	TO_024_TOOL24_BA.png	2	2	38	SessionSelectionList														nonlure	3	Tools	0-Back	33	80	32	0	0	100	1	39	142715	1	14	99	140676	-1	141323	1	647	3	3	2039	53	142729	-54	0																38												
WM080112	101915_fnca	2	1	1	-45025087	1	75.031	75.031	2.0.10.147	2.0.10.242	2.0.10.242	1.0.0.439	7	234	2	3	Verdana	1	80	0	0	0	WM Stimuli\	0.5	1050	1	775	1	1082.9	1	808.2	1	1135.8	1	762.6	0.7	1174.42857142857	1	754.3	12	322055	3	322044	28	40	322083	-999999	322058	0	31	TrialsPROC	TO_019_TOOL19_BA.png	2	2	39	SessionSelectionList														target	2	Tools	0-Back	34	80	33	0	0	100	1	39	145274	2	14	59	143235	-1	143873	1	638	2	2	2039	53	145288	-54	0																39												
WM080112	101915_fnca	2	1	1	-45025087	1	75.031	75.031	2.0.10.147	2.0.10.242	2.0.10.242	1.0.0.439	7	234	2	3	Verdana	1	80	0	0	0	WM Stimuli\	0.5	1050	1	775	1	1082.9	1	808.2	1	1135.8	1	762.6	0.7	1174.42857142857	1	754.3	12	322055	3	322044	28	40	322083	-999999	322058	0	31	TrialsPROC	TO_023_TOOL23_BA.png	2	2	40	SessionSelectionList														nonlure	3	Tools	0-Back	35	80	34	0	0	100	1	40	147860	2	13	85	145820	-1	146480	1	660	3	3	2040	53	147873	-54	0																40												
WM080112	101915_fnca	2	1	1	-45025087	1	75.031	75.031	2.0.10.147	2.0.10.242	2.0.10.242	1.0.0.439	7	234	2	3	Verdana	1	80	0	0	0	WM Stimuli\	0.5	1050	1	775	1	1082.9	1	808.2	1	1135.8	1	762.6	0.7	1174.42857142857	1	754.3	12	322055	3	322044	28	40	322083	-999999	322058	0	31	TrialsPROC	TO_020_TOOL20_BA.png	2	2	41	SessionSelectionList														nonlure	3	Tools	0-Back	36	80	35	0	0	100	2	39	150458	3	14	99	148419	-1	149122	1	703	3	3	2039	53	150472	-54	0																41												
WM080112	101915_fnca	2	1	1	-45025087	1	75.031	75.031	2.0.10.147	2.0.10.242	2.0.10.242	1.0.0.439	7	234	2	3	Verdana	1	80	0	0	0	WM Stimuli\	0.5	1050	1	775	1	1082.9	1	808.2	1	1135.8	1	762.6	0.7	1174.42857142857	1	754.3	12	322055	3	322044	28	40	322083	-999999	322058	0	31	TrialsPROC	TO_020_TOOL20_BA.png	2	2	42	SessionSelectionList														lure	3	Tools	0-Back	37	80	36	0	0	100	3	39	153017	3	14	59	150978	-1	151915	1	937	3	3	2039	53	153031	-54	0																42												
WM080112	101915_fnca	2	1	1	-45025087	1	75.031	75.031	2.0.10.147	2.0.10.242	2.0.10.242	1.0.0.439	7	234	2	3	Verdana	1	80	0	0	0	WM Stimuli\	0.5	1050	1	775	1	1082.9	1	808.2	1	1135.8	1	762.6	0.7	1174.42857142857	1	754.3	12	322055	3	322044	28	40	322083	-999999	322058	0	31	TrialsPROC	TO_022_TOOL22_BA.png	2	2	43	SessionSelectionList														nonlure	3	Tools	0-Back	38	80	37	0	0	100	4	39	155603	1	14	86	153564	-1	154366	1	802	3	3	2039	53	155617	-54	0																43												
WM080112	101915_fnca	2	1	1	-45025087	1	75.031	75.031	2.0.10.147	2.0.10.242	2.0.10.242	1.0.0.439	7	234	2	3	Verdana	1	80	0	0	0	WM Stimuli\	0.5	1050	1	775	1	1082.9	1	808.2	1	1135.8	1	762.6	0.7	1174.42857142857	1	754.3	12	322055	3	322044	28	40	322083	-999999	322058	0	31	TrialsPROC	TO_022_TOOL22_BA.png	2	2	44	SessionSelectionList														lure	3	Tools	0-Back	39	80	38	0	0	100	5	39	158162	1	14	59	156123	-1	156767	1	644	3	3	2039	53	158176	-54	0																44												
WM080112	101915_fnca	2	1	1	-45025087	1	75.031	75.031	2.0.10.147	2.0.10.242	2.0.10.242	1.0.0.439	7	234	2	3	Verdana	1	80	0	0	0	WM Stimuli\	0.5	1050	1	775	1	1082.9	1	808.2	1	1135.8	1	762.6	0.7	1174.42857142857	1	754.3	12	322055	3	322044	28	40	322083	-999999	322058	0	31	TrialsPROC	TO_021_TOOL21_BA.png	2	2	45	SessionSelectionList														nonlure	3	Tools	0-Back	40	80	39	0	0	100	6	39	160761	1	14	99	158722	-1	159414	1	692	3	3	2039	53	160775	-54	0																45												
WM080112	101915_fnca	2	1	1	-45025087	1	75.031	75.031	2.0.10.147	2.0.10.242	2.0.10.242	1.0.0.439	7	234	2	3	Verdana	1	80	0	0	0	WM Stimuli\	0.5	1050	1	775	1	1082.9	1	808.2	1	1135.8	1	762.6	0.7	1174.42857142857	1	754.3	12	322055	3	322044	28	40	322083	-999999	322058	0	31	TrialsPROC	TO_021_TOOL21_BA.png	2	2	46	SessionSelectionList														lure	3	Tools	0-Back	41	80	40	0	0	100	7	39	163320	1	14	59	161281	-1	161885	1	604	3	3	2039	53	163334	-54	0																46												
WM080112	101915_fnca	2	1	1	-45025087	1	75.031	75.031	2.0.10.147	2.0.10.242	2.0.10.242	1.0.0.439	7	234	2	3	Verdana	1	80	0	0	0	WM Stimuli\	0.5	1050	1	775	1	1082.9	1	808.2	1	1135.8	1	762.6	0.7	1174.42857142857	1	754.3	12	322055	3	322044	28	40	322083	-999999	322058	0	32	Fix15secPROC	""	2	2	47	SessionSelectionList																																															6	163787	-7	0							47												
WM080112	101915_fnca	2	1	1	-45025087	1	75.031	75.031	2.0.10.147	2.0.10.242	2.0.10.242	1.0.0.439	7	234	2	3	Verdana	1	80	0	0	0	WM Stimuli\	0.5	1050	1	775	1	1082.9	1	808.2	1	1135.8	1	762.6	0.7	1174.42857142857	1	754.3	12	322055	3	322044	28	40	322083	-999999	322058	0	33	Cue2BackPROC	""	2	2	48	SessionSelectionList									13	178794	-14	0																																													48												
WM080112	101915_fnca	2	1	1	-45025087	1	75.031	75.031	2.0.10.147	2.0.10.242	2.0.10.242	1.0.0.439	7	234	2	3	Verdana	1	80	0	0	0	WM Stimuli\	0.5	1050	1	775	1	1082.9	1	808.2	1	1135.8	1	762.6	0.7	1174.42857142857	1	754.3	12	322055	3	322044	28	40	322083	-999999	322058	0	34	TrialsPROC	BP_020_H17-T_BA.png	2	2	49	SessionSelectionList														nonlure	3	Body	2-Back	42	80	41	0	0	100	8	39	183405	2	14	85	181366	-1	182757	1	1391	3	3	2039	53	183419	-54	0																49												
WM080112	101915_fnca	2	1	1	-45025087	1	75.031	75.031	2.0.10.147	2.0.10.242	2.0.10.242	1.0.0.439	7	234	2	3	Verdana	1	80	0	0	0	WM Stimuli\	0.5	1050	1	775	1	1082.9	1	808.2	1	1135.8	1	762.6	0.7	1174.42857142857	1	754.3	12	322055	3	322044	28	40	322083	-999999	322058	0	34	TrialsPROC	BP_019_H14-T_BA.png	2	2	50	SessionSelectionList														nonlure	3	Body	2-Back	43	80	41	0	1	100	8	39	185991	1	13	86	183952	-1	0	0	0	""	3	2039	52	186004	-53	0																50												
WM080112	101915_fnca	2	1	1	-45025087	1	75.031	75.031	2.0.10.147	2.0.10.242	2.0.10.242	1.0.0.439	7	234	2	3	Verdana	1	80	0	0	0	WM Stimuli\	0.5	1050	1	775	1	1082.9	1	808.2	1	1135.8	1	762.6	0.7	1174.42857142857	1	754.3	12	322055	3	322044	28	40	322083	-999999	322058	0	34	TrialsPROC	BP_020_H17-T_BA.png	2	2	51	SessionSelectionList														target	2	Body	2-Back	44	80	42	0	0	100	1	39	188550	1	13	59	186511	-1	187488	0	977	3	2	2039	52	188563	-53	0																51												
WM080112	101915_fnca	2	1	1	-45025087	1	75.031	75.031	2.0.10.147	2.0.10.242	2.0.10.242	1.0.0.439	7	234	2	3	Verdana	1	80	0	0	0	WM Stimuli\	0.5	1050	1	775	1	1082.9	1	808.2	1	1135.8	1	762.6	0.7	1174.42857142857	1	754.3	12	322055	3	322044	28	40	322083	-999999	322058	0	34	TrialsPROC	BP_019_H14-T_BA.png	2	2	52	SessionSelectionList														target	2	Body	2-Back	45	80	43	0	0	100	2	39	191109	1	13	59	189070	-1	190739	0	1669	3	2	2039	52	191122	-53	0																52												
WM080112	101915_fnca	2	1	1	-45025087	1	75.031	75.031	2.0.10.147	2.0.10.242	2.0.10.242	1.0.0.439	7	234	2	3	Verdana	1	80	0	0	0	WM Stimuli\	0.5	1050	1	775	1	1082.9	1	808.2	1	1135.8	1	762.6	0.7	1174.42857142857	1	754.3	12	322055	3	322044	28	40	322083	-999999	322058	0	34	TrialsPROC	BP_024_H3-T_BA.png	2	2	53	SessionSelectionList														nonlure	3	Body	2-Back	46	80	44	0	0	100	3	39	193681	1	14	72	191642	-1	192858	1	1216	3	3	2039	53	193695	-54	0																53												
WM080112	101915_fnca	2	1	1	-45025087	1	75.031	75.031	2.0.10.147	2.0.10.242	2.0.10.242	1.0.0.439	7	234	2	3	Verdana	1	80	0	0	0	WM Stimuli\	0.5	1050	1	775	1	1082.9	1	808.2	1	1135.8	1	762.6	0.7	1174.42857142857	1	754.3	12	322055	3	322044	28	40	322083	-999999	322058	0	34	TrialsPROC	BP_024_H3-T_BA.png	2	2	54	SessionSelectionList														lure	3	Body	2-Back	47	80	45	0	0	100	4	39	196240	1	14	59	194201	-1	195335	1	1134	3	3	2039	53	196254	-54	0																54												
WM080112	101915_fnca	2	1	1	-45025087	1	75.031	75.031	2.0.10.147	2.0.10.242	2.0.10.242	1.0.0.439	7	234	2	3	Verdana	1	80	0	0	0	WM Stimuli\	0.5	1050	1	775	1	1082.9	1	808.2	1	1135.8	1	762.6	0.7	1174.42857142857	1	754.3	12	322055	3	322044	28	40	322083	-999999	322058	0	34	TrialsPROC	BP_025_H5-T_BA.png	2	2	55	SessionSelectionList														nonlure	3	Body	2-Back	48	80	46	0	0	100	1	39	198812	3	14	72	196773	-1	197704	0	931	2	3	2039	53	198826	-54	0																55												
WM080112	101915_fnca	2	1	1	-45025087	1	75.031	75.031	2.0.10.147	2.0.10.242	2.0.10.242	1.0.0.439	7	234	2	3	Verdana	1	80	0	0	0	WM Stimuli\	0.5	1050	1	775	1	1082.9	1	808.2	1	1135.8	1	762.6	0.7	1174.42857142857	1	754.3	12	322055	3	322044	28	40	322083	-999999	322058	0	34	TrialsPROC	BP_023_H25-T_BA.png	2	2	56	SessionSelectionList														nonlure	3	Body	2-Back	49	80	47	0	0	100	2	39	201398	2	14	86	199359	-1	200565	0	1206	2	3	2039	53	201412	-54	0																56												
WM080112	101915_fnca	2	1	1	-45025087	1	75.031	75.031	2.0.10.147	2.0.10.242	2.0.10.242	1.0.0.439	7	234	2	3	Verdana	1	80	0	0	0	WM Stimuli\	0.5	1050	1	775	1	1082.9	1	808.2	1	1135.8	1	762.6	0.7	1174.42857142857	1	754.3	12	322055	3	322044	28	40	322083	-999999	322058	0	34	TrialsPROC	BP_022_H24-T_BA.png	2	2	57	SessionSelectionList														nonlure	3	Body	2-Back	50	80	48	0	0	100	1	39	203983	2	14	85	201944	-1	202762	1	818	3	3	2039	53	203997	-54	0																57												
WM080112	101915_fnca	2	1	1	-45025087	1	75.031	75.031	2.0.10.147	2.0.10.242	2.0.10.242	1.0.0.439	7	234	2	3	Verdana	1	80	0	0	0	WM Stimuli\	0.5	1050	1	775	1	1082.9	1	808.2	1	1135.8	1	762.6	0.7	1174.42857142857	1	754.3	12	322055	3	322044	28	40	322083	-999999	322058	0	34	TrialsPROC	BP_022_H24-T_BA.png	2	2	58	SessionSelectionList														lure	3	Body	2-Back	51	80	49	0	0	100	2	39	206542	3	14	59	204503	-1	205194	1	691	3	3	2039	53	206556	-54	0																58												
WM080112	101915_fnca	2	1	1	-45025087	1	75.031	75.031	2.0.10.147	2.0.10.242	2.0.10.242	1.0.0.439	7	234	2	3	Verdana	1	80	0	0	0	WM Stimuli\	0.5	1050	1	775	1	1082.9	1	808.2	1	1135.8	1	762.6	0.7	1174.42857142857	1	754.3	12	322055	3	322044	28	40	322083	-999999	322058	0	35	Cue2BackPROC	""	2	2	59	SessionSelectionList									6	207009	-7	0																																													59												
WM080112	101915_fnca	2	1	1	-45025087	1	75.031	75.031	2.0.10.147	2.0.10.242	2.0.10.242	1.0.0.439	7	234	2	3	Verdana	1	80	0	0	0	WM Stimuli\	0.5	1050	1	775	1	1082.9	1	808.2	1	1135.8	1	762.6	0.7	1174.42857142857	1	754.3	12	322055	3	322044	28	40	322083	-999999	322058	0	36	TrialsPROC	PL_019_SCENE_05.png	2	2	60	SessionSelectionList														nonlure	3	Place	2-Back	52	80	50	0	0	100	3	39	211620	2	14	78	209581	-1	210893	1	1312	3	3	2039	53	211634	-54	0																60												
WM080112	101915_fnca	2	1	1	-45025087	1	75.031	75.031	2.0.10.147	2.0.10.242	2.0.10.242	1.0.0.439	7	234	2	3	Verdana	1	80	0	0	0	WM Stimuli\	0.5	1050	1	775	1	1082.9	1	808.2	1	1135.8	1	762.6	0.7	1174.42857142857	1	754.3	12	322055	3	322044	28	40	322083	-999999	322058	0	36	TrialsPROC	PL_017_SCENE_03.png	2	2	61	SessionSelectionList														nonlure	3	Place	2-Back	53	80	51	0	0	100	4	39	214219	3	14	99	212180	-1	213289	1	1109	3	3	2039	53	214233	-54	0																61												
WM080112	101915_fnca	2	1	1	-45025087	1	75.031	75.031	2.0.10.147	2.0.10.242	2.0.10.242	1.0.0.439	7	234	2	3	Verdana	1	80	0	0	0	WM Stimuli\	0.5	1050	1	775	1	1082.9	1	808.2	1	1135.8	1	762.6	0.7	1174.42857142857	1	754.3	12	322055	3	322044	28	40	322083	-999999	322058	0	36	TrialsPROC	PL_017_SCENE_03.png	2	2	62	SessionSelectionList														lure	3	Place	2-Back	54	80	52	0	0	100	5	40	216792	1	13	72	214752	-1	216232	1	1480	3	3	2040	53	216805	-54	0																62												
WM080112	101915_fnca	2	1	1	-45025087	1	75.031	75.031	2.0.10.147	2.0.10.242	2.0.10.242	1.0.0.439	7	234	2	3	Verdana	1	80	0	0	0	WM Stimuli\	0.5	1050	1	775	1	1082.9	1	808.2	1	1135.8	1	762.6	0.7	1174.42857142857	1	754.3	12	322055	3	322044	28	40	322083	-999999	322058	0	36	TrialsPROC	PL_016_SCENE_02.png	2	2	63	SessionSelectionList														nonlure	3	Place	2-Back	55	80	53	0	0	100	6	39	219377	3	14	86	217338	-1	218802	1	1464	3	3	2039	53	219391	-54	0																63												
WM080112	101915_fnca	2	1	1	-45025087	1	75.031	75.031	2.0.10.147	2.0.10.242	2.0.10.242	1.0.0.439	7	234	2	3	Verdana	1	80	0	0	0	WM Stimuli\	0.5	1050	1	775	1	1082.9	1	808.2	1	1135.8	1	762.6	0.7	1174.42857142857	1	754.3	12	322055	3	322044	28	40	322083	-999999	322058	0	36	TrialsPROC	PL_015_SCENE_01.png	2	2	64	SessionSelectionList														nonlure	3	Place	2-Back	56	80	54	0	0	100	7	39	221963	1	14	86	219924	-1	220908	1	984	3	3	2039	53	221977	-54	0																64												
WM080112	101915_fnca	2	1	1	-45025087	1	75.031	75.031	2.0.10.147	2.0.10.242	2.0.10.242	1.0.0.439	7	234	2	3	Verdana	1	80	0	0	0	WM Stimuli\	0.5	1050	1	775	1	1082.9	1	808.2	1	1135.8	1	762.6	0.7	1174.42857142857	1	754.3	12	322055	3	322044	28	40	322083	-999999	322058	0	36	TrialsPROC	PL_016_SCENE_02.png	2	2	65	SessionSelectionList														target	2	Place	2-Back	57	80	55	0	0	100	1	39	224535	2	14	72	222496	-1	223425	1	929	2	2	2039	53	224549	-54	0																65												
WM080112	101915_fnca	2	1	1	-45025087	1	75.031	75.031	2.0.10.147	2.0.10.242	2.0.10.242	1.0.0.439	7	234	2	3	Verdana	1	80	0	0	0	WM Stimuli\	0.5	1050	1	775	1	1082.9	1	808.2	1	1135.8	1	762.6	0.7	1174.42857142857	1	754.3	12	322055	3	322044	28	40	322083	-999999	322058	0	36	TrialsPROC	PL_015_SCENE_01.png	2	2	66	SessionSelectionList														target	2	Place	2-Back	58	80	56	0	0	100	2	39	227107	2	14	72	225068	-1	226158	1	1090	2	2	2039	53	227121	-54	0																66												
WM080112	101915_fnca	2	1	1	-45025087	1	75.031	75.031	2.0.10.147	2.0.10.242	2.0.10.242	1.0.0.439	7	234	2	3	Verdana	1	80	0	0	0	WM Stimuli\	0.5	1050	1	775	1	1082.9	1	808.2	1	1135.8	1	762.6	0.7	1174.42857142857	1	754.3	12	322055	3	322044	28	40	322083	-999999	322058	0	36	TrialsPROC	PL_020_SCENE_06.png	2	2	67	SessionSelectionList														nonlure	3	Place	2-Back	59	80	57	0	0	100	1	39	229706	3	14	99	227667	-1	228295	1	628	3	3	2039	53	229720	-54	0																67												
WM080112	101915_fnca	2	1	1	-45025087	1	75.031	75.031	2.0.10.147	2.0.10.242	2.0.10.242	1.0.0.439	7	234	2	3	Verdana	1	80	0	0	0	WM Stimuli\	0.5	1050	1	775	1	1082.9	1	808.2	1	1135.8	1	762.6	0.7	1174.42857142857	1	754.3	12	322055	3	322044	28	40	322083	-999999	322058	0	36	TrialsPROC	PL_020_SCENE_06.png	2	2	68	SessionSelectionList														lure	3	Place	2-Back	60	80	58	0	0	100	2	40	232279	2	13	72	230239	-1	231432	1	1193	3	3	2040	53	232292	-54	0																68												
WM080112	101915_fnca	2	1	1	-45025087	1	75.031	75.031	2.0.10.147	2.0.10.242	2.0.10.242	1.0.0.439	7	234	2	3	Verdana	1	80	0	0	0	WM Stimuli\	0.5	1050	1	775	1	1082.9	1	808.2	1	1135.8	1	762.6	0.7	1174.42857142857	1	754.3	12	322055	3	322044	28	40	322083	-999999	322058	0	36	TrialsPROC	PL_018_SCENE_04.png	2	2	69	SessionSelectionList														nonlure	3	Place	2-Back	61	80	59	0	0	100	3	40	234878	1	13	99	232838	-1	234007	1	1169	3	3	2040	53	234891	-54	0																69												
WM080112	101915_fnca	2	1	1	-45025087	1	75.031	75.031	2.0.10.147	2.0.10.242	2.0.10.242	1.0.0.439	7	234	2	3	Verdana	1	80	0	0	0	WM Stimuli\	0.5	1050	1	775	1	1082.9	1	808.2	1	1135.8	1	762.6	0.7	1174.42857142857	1	754.3	12	322055	3	322044	28	40	322083	-999999	322058	0	37	Fix15secPROC	""	2	2	70	SessionSelectionList																																															6	235344	-7	0							70												
WM080112	101915_fnca	2	1	1	-45025087	1	75.031	75.031	2.0.10.147	2.0.10.242	2.0.10.242	1.0.0.439	7	234	2	3	Verdana	1	80	0	0	0	WM Stimuli\	0.5	1050	1	775	1	1082.9	1	808.2	1	1135.8	1	762.6	0.7	1174.42857142857	1	754.3	12	322055	3	322044	28	40	322083	-999999	322058	0	38	Cue0BackPROC	FC_020_F10.png	2	2	71	SessionSelectionList																																										40	250378	-41	0												71												
WM080112	101915_fnca	2	1	1	-45025087	1	75.031	75.031	2.0.10.147	2.0.10.242	2.0.10.242	1.0.0.439	7	234	2	3	Verdana	1	80	0	0	0	WM Stimuli\	0.5	1050	1	775	1	1082.9	1	808.2	1	1135.8	1	762.6	0.7	1174.42857142857	1	754.3	12	322055	3	322044	28	40	322083	-999999	322058	0	39	TrialsPROC	FC_024_F12.png	2	2	72	SessionSelectionList														nonlure	3	Face	0-Back	62	80	60	0	0	100	4	39	254989	3	14	112	252950	-1	253936	1	986	3	3	2039	53	255003	-54	0																72												
WM080112	101915_fnca	2	1	1	-45025087	1	75.031	75.031	2.0.10.147	2.0.10.242	2.0.10.242	1.0.0.439	7	234	2	3	Verdana	1	80	0	0	0	WM Stimuli\	0.5	1050	1	775	1	1082.9	1	808.2	1	1135.8	1	762.6	0.7	1174.42857142857	1	754.3	12	322055	3	322044	28	40	322083	-999999	322058	0	39	TrialsPROC	FC_023_M12.png	2	2	73	SessionSelectionList														nonlure	3	Face	0-Back	63	80	61	0	0	100	5	39	257588	2	14	99	255549	-1	256335	1	786	3	3	2039	53	257602	-54	0																73												
WM080112	101915_fnca	2	1	1	-45025087	1	75.031	75.031	2.0.10.147	2.0.10.242	2.0.10.242	1.0.0.439	7	234	2	3	Verdana	1	80	0	0	0	WM Stimuli\	0.5	1050	1	775	1	1082.9	1	808.2	1	1135.8	1	762.6	0.7	1174.42857142857	1	754.3	12	322055	3	322044	28	40	322083	-999999	322058	0	39	TrialsPROC	FC_020_F10.png	2	2	74	SessionSelectionList														target	2	Face	0-Back	64	80	62	0	0	100	1	40	260161	1	13	72	258121	-1	258972	1	851	2	2	2040	53	260174	-54	0																74												
WM080112	101915_fnca	2	1	1	-45025087	1	75.031	75.031	2.0.10.147	2.0.10.242	2.0.10.242	1.0.0.439	7	234	2	3	Verdana	1	80	0	0	0	WM Stimuli\	0.5	1050	1	775	1	1082.9	1	808.2	1	1135.8	1	762.6	0.7	1174.42857142857	1	754.3	12	322055	3	322044	28	40	322083	-999999	322058	0	39	TrialsPROC	FC_024_F12.png	2	2	75	SessionSelectionList														lure	3	Face	0-Back	65	80	63	0	0	100	1	39	262733	1	14	73	260694	-1	261476	1	782	3	3	2039	53	262747	-54	0																75												
WM080112	101915_fnca	2	1	1	-45025087	1	75.031	75.031	2.0.10.147	2.0.10.242	2.0.10.242	1.0.0.439	7	234	2	3	Verdana	1	80	0	0	0	WM Stimuli\	0.5	1050	1	775	1	1082.9	1	808.2	1	1135.8	1	762.6	0.7	1174.42857142857	1	754.3	12	322055	3	322044	28	40	322083	-999999	322058	0	39	TrialsPROC	FC_020_F10.png	2	2	76	SessionSelectionList														target	2	Face	0-Back	66	80	64	0	0	100	1	39	265305	3	14	72	263266	-1	264094	1	828	2	2	2039	53	265319	-54	0																76												
WM080112	101915_fnca	2	1	1	-45025087	1	75.031	75.031	2.0.10.147	2.0.10.242	2.0.10.242	1.0.0.439	7	234	2	3	Verdana	1	80	0	0	0	WM Stimuli\	0.5	1050	1	775	1	1082.9	1	808.2	1	1135.8	1	762.6	0.7	1174.42857142857	1	754.3	12	322055	3	322044	28	40	322083	-999999	322058	0	39	TrialsPROC	FC_022_F11.png	2	2	77	SessionSelectionList														nonlure	3	Face	0-Back	67	80	65	0	0	100	1	39	267904	2	14	99	265865	-1	266728	1	863	3	3	2039	53	267918	-54	0																77												
WM080112	101915_fnca	2	1	1	-45025087	1	75.031	75.031	2.0.10.147	2.0.10.242	2.0.10.242	1.0.0.439	7	234	2	3	Verdana	1	80	0	0	0	WM Stimuli\	0.5	1050	1	775	1	1082.9	1	808.2	1	1135.8	1	762.6	0.7	1174.42857142857	1	754.3	12	322055	3	322044	28	40	322083	-999999	322058	0	39	TrialsPROC	FC_023_M12.png	2	2	78	SessionSelectionList														lure	3	Face	0-Back	68	80	66	0	0	100	2	39	270476	2	14	72	268437	-1	269208	1	771	3	3	2039	53	270490	-54	0																78												
WM080112	101915_fnca	2	1	1	-45025087	1	75.031	75.031	2.0.10.147	2.0.10.242	2.0.10.242	1.0.0.439	7	234	2	3	Verdana	1	80	0	0	0	WM Stimuli\	0.5	1050	1	775	1	1082.9	1	808.2	1	1135.8	1	762.6	0.7	1174.42857142857	1	754.3	12	322055	3	322044	28	40	322083	-999999	322058	0	39	TrialsPROC	FC_021_M11.png	2	2	79	SessionSelectionList														nonlure	3	Face	0-Back	69	80	67	0	0	100	3	39	273075	2	14	99	271036	-1	271818	1	782	3	3	2039	53	273089	-54	0																79												
WM080112	101915_fnca	2	1	1	-45025087	1	75.031	75.031	2.0.10.147	2.0.10.242	2.0.10.242	1.0.0.439	7	234	2	3	Verdana	1	80	0	0	0	WM Stimuli\	0.5	1050	1	775	1	1082.9	1	808.2	1	1135.8	1	762.6	0.7	1174.42857142857	1	754.3	12	322055	3	322044	28	40	322083	-999999	322058	0	39	TrialsPROC	FC_021_M11.png	2	2	80	SessionSelectionList														lure	3	Face	0-Back	70	80	68	0	0	100	4	40	275648	2	13	72	273608	-1	274167	1	559	3	3	2040	53	275661	-54	0																80												
WM080112	101915_fnca	2	1	1	-45025087	1	75.031	75.031	2.0.10.147	2.0.10.242	2.0.10.242	1.0.0.439	7	234	2	3	Verdana	1	80	0	0	0	WM Stimuli\	0.5	1050	1	775	1	1082.9	1	808.2	1	1135.8	1	762.6	0.7	1174.42857142857	1	754.3	12	322055	3	322044	28	40	322083	-999999	322058	0	39	TrialsPROC	FC_019_M10.png	2	2	81	SessionSelectionList														nonlure	3	Face	0-Back	71	80	69	0	0	100	5	39	278233	3	14	86	276194	-1	277068	1	874	3	3	2039	53	278247	-54	0																81												
WM080112	101915_fnca	2	1	1	-45025087	1	75.031	75.031	2.0.10.147	2.0.10.242	2.0.10.242	1.0.0.439	7	234	2	3	Verdana	1	80	0	0	0	WM Stimuli\	0.5	1050	1	775	1	1082.9	1	808.2	1	1135.8	1	762.6	0.7	1174.42857142857	1	754.3	12	322055	3	322044	28	40	322083	-999999	322058	0	40	Cue0BackPROC	PL_021_SCENE_07.png	2	2	82	SessionSelectionList																																										46	278740	-47	0												82												
WM080112	101915_fnca	2	1	1	-45025087	1	75.031	75.031	2.0.10.147	2.0.10.242	2.0.10.242	1.0.0.439	7	234	2	3	Verdana	1	80	0	0	0	WM Stimuli\	0.5	1050	1	775	1	1082.9	1	808.2	1	1135.8	1	762.6	0.7	1174.42857142857	1	754.3	12	322055	3	322044	28	40	322083	-999999	322058	0	41	TrialsPROC	PL_025_SCENE_18.png	2	2	83	SessionSelectionList														nonlure	3	Place	0-Back	72	80	70	0	0	100	6	39	283351	2	14	118	281312	-1	282278	1	966	3	3	2039	53	283365	-54	0																83												
WM080112	101915_fnca	2	1	1	-45025087	1	75.031	75.031	2.0.10.147	2.0.10.242	2.0.10.242	1.0.0.439	7	234	2	3	Verdana	1	80	0	0	0	WM Stimuli\	0.5	1050	1	775	1	1082.9	1	808.2	1	1135.8	1	762.6	0.7	1174.42857142857	1	754.3	12	322055	3	322044	28	40	322083	-999999	322058	0	41	TrialsPROC	PL_026_SCENE_24.png	2	2	84	SessionSelectionList														nonlure	3	Place	0-Back	73	80	71	0	0	100	7	39	285937	2	14	86	283898	-1	284652	1	754	3	3	2039	53	285951	-54	0																84												
WM080112	101915_fnca	2	1	1	-45025087	1	75.031	75.031	2.0.10.147	2.0.10.242	2.0.10.242	1.0.0.439	7	234	2	3	Verdana	1	80	0	0	0	WM Stimuli\	0.5	1050	1	775	1	1082.9	1	808.2	1	1135.8	1	762.6	0.7	1174.42857142857	1	754.3	12	322055	3	322044	28	40	322083	-999999	322058	0	41	TrialsPROC	PL_025_SCENE_18.png	2	2	85	SessionSelectionList														lure	3	Place	0-Back	74	80	72	0	0	100	8	39	288509	1	14	72	286470	-1	287175	1	705	3	3	2039	53	288523	-54	0																85												
WM080112	101915_fnca	2	1	1	-45025087	1	75.031	75.031	2.0.10.147	2.0.10.242	2.0.10.242	1.0.0.439	7	234	2	3	Verdana	1	80	0	0	0	WM Stimuli\	0.5	1050	1	775	1	1082.9	1	808.2	1	1135.8	1	762.6	0.7	1174.42857142857	1	754.3	12	322055	3	322044	28	40	322083	-999999	322058	0	41	TrialsPROC	PL_022_SCENE_08.png	2	2	86	SessionSelectionList														nonlure	3	Place	0-Back	75	80	73	0	0	100	9	39	291108	1	14	99	289069	-1	289790	1	721	3	3	2039	53	291122	-54	0																86												
WM080112	101915_fnca	2	1	1	-45025087	1	75.031	75.031	2.0.10.147	2.0.10.242	2.0.10.242	1.0.0.439	7	234	2	3	Verdana	1	80	0	0	0	WM Stimuli\	0.5	1050	1	775	1	1082.9	1	808.2	1	1135.8	1	762.6	0.7	1174.42857142857	1	754.3	12	322055	3	322044	28	40	322083	-999999	322058	0	41	TrialsPROC	PL_026_SCENE_24.png	2	2	87	SessionSelectionList														lure	3	Place	0-Back	76	80	74	0	0	100	10	39	293680	2	14	72	291641	-1	292250	1	609	3	3	2039	53	293694	-54	0																87												
WM080112	101915_fnca	2	1	1	-45025087	1	75.031	75.031	2.0.10.147	2.0.10.242	2.0.10.242	1.0.0.439	7	234	2	3	Verdana	1	80	0	0	0	WM Stimuli\	0.5	1050	1	775	1	1082.9	1	808.2	1	1135.8	1	762.6	0.7	1174.42857142857	1	754.3	12	322055	3	322044	28	40	322083	-999999	322058	0	41	TrialsPROC	PL_021_SCENE_07.png	2	2	88	SessionSelectionList														target	2	Place	0-Back	77	80	75	0	0	100	1	40	296253	2	13	72	294213	-1	294779	1	566	2	2	2040	53	296266	-54	0																88												
WM080112	101915_fnca	2	1	1	-45025087	1	75.031	75.031	2.0.10.147	2.0.10.242	2.0.10.242	1.0.0.439	7	234	2	3	Verdana	1	80	0	0	0	WM Stimuli\	0.5	1050	1	775	1	1082.9	1	808.2	1	1135.8	1	762.6	0.7	1174.42857142857	1	754.3	12	322055	3	322044	28	40	322083	-999999	322058	0	41	TrialsPROC	PL_021_SCENE_07.png	2	2	89	SessionSelectionList														target	2	Place	0-Back	78	80	76	0	0	100	2	39	298825	1	14	73	296786	-1	297691	1	905	2	2	2039	53	298839	-54	0																89												
WM080112	101915_fnca	2	1	1	-45025087	1	75.031	75.031	2.0.10.147	2.0.10.242	2.0.10.242	1.0.0.439	7	234	2	3	Verdana	1	80	0	0	0	WM Stimuli\	0.5	1050	1	775	1	1082.9	1	808.2	1	1135.8	1	762.6	0.7	1174.42857142857	1	754.3	12	322055	3	322044	28	40	322083	-999999	322058	0	41	TrialsPROC	PL_023_SCENE_09.png	2	2	90	SessionSelectionList														nonlure	3	Place	0-Back	79	80	77	0	0	100	1	39	301410	2	14	85	299371	-1	299915	1	544	3	3	2039	53	301424	-54	0																90												
WM080112	101915_fnca	2	1	1	-45025087	1	75.031	75.031	2.0.10.147	2.0.10.242	2.0.10.242	1.0.0.439	7	234	2	3	Verdana	1	80	0	0	0	WM Stimuli\	0.5	1050	1	775	1	1082.9	1	808.2	1	1135.8	1	762.6	0.7	1174.42857142857	1	754.3	12	322055	3	322044	28	40	322083	-999999	322058	0	41	TrialsPROC	PL_024_SCENE_10.png	2	2	91	SessionSelectionList														nonlure	3	Place	0-Back	80	80	78	0	0	100	2	39	304009	2	14	99	301970	-1	302833	1	863	3	3	2039	53	304023	-54	0																91												
WM080112	101915_fnca	2	1	1	-45025087	1	75.031	75.031	2.0.10.147	2.0.10.242	2.0.10.242	1.0.0.439	7	234	2	3	Verdana	1	80	0	0	0	WM Stimuli\	0.5	1050	1	775	1	1082.9	1	808.2	1	1135.8	1	762.6	0.7	1174.42857142857	1	754.3	12	322055	3	322044	28	40	322083	-999999	322058	0	41	TrialsPROC	PL_022_SCENE_08.png	2	2	92	SessionSelectionList														lure	3	Place	0-Back	80	80	79	0	0	100	3	39	306582	1	13	73	304543	-1	305536	1	993	3	3	2039	52	306595	-53	0																92												
WM080112	101915_fnca	2	1	1	-45025087	1	75.031	75.031	2.0.10.147	2.0.10.242	2.0.10.242	1.0.0.439	7	234	2	3	Verdana	1	80	0	0	0	WM Stimuli\	0.5	1050	1	775	1	1082.9	1	808.2	1	1135.8	1	762.6	0.7	1174.42857142857	1	754.3	12	322055	3	322044	28	40	322083	-999999	322058	0	42	Fix15secPROC	""	2	2	93	SessionSelectionList																																															6	307049	-7	0							93												
