ExperimentName	HCPID	RunNumber	Subject	Session	RandomSeed	Group	Laptop.RefreshRate	ScannerD2.RefreshRate	StudioVersion	RuntimeVersion	RuntimeVersionExpected	ExperimentVersion	triggercode	Allowed	Target	Nontarget	FontStyle	RunTrialNumber[Session]	TrialsPerRun[Session]	TotalRespGreater200[Session]	ConsecRTLess200[Session]	ConsecNonResp[Session]	StimuliDir	ACC_2_Back_Body	Avg_RT_For_Correct_Trials_2_Back_Body	ACC_0_Back_Body	Avg_RT_For_Correct_Trials_0_Back_Body	ACC_2_Back_Face	Avg_RT_For_Correct_Trials_2_Back_Face	ACC_0_Back_Face	Avg_RT_For_Correct_Trials_0_Back_Face	ACC_2_Back_Place	Avg_RT_For_Correct_Trials_2_Back_Place	ACC_0_Back_Place	Avg_RT_For_Correct_Trials_0_Back_Place	ACC_2_Back_Tools	Avg_RT_For_Correct_Trials_2_Back_Tools	ACC_0_Back_Tools	Avg_RT_For_Correct_Trials_0_Back_Tools	ExpInstrucFeelFreeToRest.OnsetDelay	ExpInstrucFeelFreeToRest.OnsetTime	ExpInstrucFeelFreeToRest.DurationError	ExpInstrucFeelFreeToRest.StartTime	ExpInstrucFeelFreeToRest.OnsetToOnsetTime	FeelFreeToRest.OnsetDelay	FeelFreeToRest.OnsetTime	FeelFreeToRest.DurationError	FeelFreeToRest.StartTime	FeelFreeToRest.OnsetToOnsetTime	SessionSelectionList	Procedure[Block]	Stimulus[Block]	RunNumberFilterValue	SessionSelectionList.Cycle	SessionSelectionList.Sample	Running[Block]	IntroButtonMap.OnsetDelay	IntroButtonMap.OnsetTime	IntroButtonMap.DurationError	IntroButtonMap.OnsetToOnsetTime	GetReady.OnsetDelay	GetReady.OnsetTime	GetReady.DurationError	GetReady.OnsetToOnsetTime	Cue2Back.OnsetDelay	Cue2Back.OnsetTime	Cue2Back.DurationError	Cue2Back.OnsetToOnsetTime	Run1Block1	TargetType	CorrectResponse	StimType	BlockType	RunTrialNumber[Block]	TrialsPerRun[Block]	TotalRespGreater200[Block]	ConsecRTLess200[Block]	ConsecNonResp[Block]	ControlAcc	ConsecSameResp	ExperimenterWindow.OnsetDelay	ExperimenterWindow.OnsetTime	ExperimenterWindow.DurationError	ExperimenterWindow.OnsetToOnsetTime	Stim.OnsetDelay	Stim.OnsetTime	Stim.DurationError	Stim.RTTime	Stim.ACC	Stim.RT	Stim.RESP	Stim.CRESP	Stim.OnsetToOnsetTime	Fix.OnsetDelay	Fix.OnsetTime	Fix.DurationError	Fix.OnsetToOnsetTime	CueTarget.OnsetDelay	CueTarget.OnsetTime	CueTarget.DurationError	CueTarget.OnsetToOnsetTime	Run1Block2	Fix15sec.OnsetDelay	Fix15sec.OnsetTime	Fix15sec.DurationError	Fix15sec.OnsetToOnsetTime	Run1Block3	Run1Block4	Run1Block5	Run1Block6	Run1Block7	Run1Block8	Block	Procedure[Trial]	Stimulus[Trial]	ReadyList	Running[Trial]	ReadyList.Cycle	ReadyList.Sample	SyncSlide.OnsetDelay	SyncSlide.OnsetTime	SyncSlide.DurationError	SyncSlide.FinishTime	SyncSlide.OnsetToOnsetTime	Trial
WM080112	196750_fnca	2	1	1	180368658	1	74.998	75.030	2.0.10.147	2.0.10.242	2.0.10.242	1.0.0.439	7	234	2	3	Verdana	1	80	0	0	0	WM Stimuli\	0.7	1490.42857142857	1	749.5	0.9	1064.77777777778	0.9	676	0.7	1137.28571428571	0.7	1178.14285714286	0.9	773.555555555556	0.9	851.555555555556	13	339521	2	339509	27	40	339548	-999999	339524	0	22	TRSyncPROC	""	2	2	1	SessionSelectionList	118	7388	-999999	0	29	30219	-999999	0																																																	1	InitialTR	4	1	ReadyList	1	1	13	46266	-14	48252	0	1
WM080112	196750_fnca	2	1	1	180368658	1	74.998	75.030	2.0.10.147	2.0.10.242	2.0.10.242	1.0.0.439	7	234	2	3	Verdana	1	80	0	0	0	WM Stimuli\	0.7	1490.42857142857	1	749.5	0.9	1064.77777777778	0.9	676	0.7	1137.28571428571	0.7	1178.14285714286	0.9	773.555555555556	0.9	851.555555555556	13	339521	2	339509	27	40	339548	-999999	339524	0	22	TRSyncPROC	""	2	2	1	SessionSelectionList	118	7388	-999999	0	29	30219	-999999	0																																																	1	InitialTR	3	2	ReadyList	1	2	12	48265	-13	50252	0	2
WM080112	196750_fnca	2	1	1	180368658	1	74.998	75.030	2.0.10.147	2.0.10.242	2.0.10.242	1.0.0.439	7	234	2	3	Verdana	1	80	0	0	0	WM Stimuli\	0.7	1490.42857142857	1	749.5	0.9	1064.77777777778	0.9	676	0.7	1137.28571428571	0.7	1178.14285714286	0.9	773.555555555556	0.9	851.555555555556	13	339521	2	339509	27	40	339548	-999999	339524	0	22	TRSyncPROC	""	2	2	1	SessionSelectionList	118	7388	-999999	0	29	30219	-999999	0																																																	1	InitialTR	2	3	ReadyList	1	3	11	50264	-12	52252	0	3
WM080112	196750_fnca	2	1	1	180368658	1	74.998	75.030	2.0.10.147	2.0.10.242	2.0.10.242	1.0.0.439	7	234	2	3	Verdana	1	80	0	0	0	WM Stimuli\	0.7	1490.42857142857	1	749.5	0.9	1064.77777777778	0.9	676	0.7	1137.28571428571	0.7	1178.14285714286	0.9	773.555555555556	0.9	851.555555555556	13	339521	2	339509	27	40	339548	-999999	339524	0	22	TRSyncPROC	""	2	2	1	SessionSelectionList	118	7388	-999999	0	29	30219	-999999	0																																																	1	InitialTR	1	4	ReadyList	1	4	10	52263	-11	54252	0	4
WM080112	196750_fnca	2	1	1	180368658	1	74.998	75.030	2.0.10.147	2.0.10.242	2.0.10.242	1.0.0.439	7	234	2	3	Verdana	1	80	0	0	0	WM Stimuli\	0.7	1490.42857142857	1	749.5	0.9	1064.77777777778	0.9	676	0.7	1137.28571428571	0.7	1178.14285714286	0.9	773.555555555556	0.9	851.555555555556	13	339521	2	339509	27	40	339548	-999999	339524	0	23	Cue2BackPROC	""	2	2	2	SessionSelectionList									9	54262	-10	0																																													2												
WM080112	196750_fnca	2	1	1	180368658	1	74.998	75.030	2.0.10.147	2.0.10.242	2.0.10.242	1.0.0.439	7	234	2	3	Verdana	1	80	0	0	0	WM Stimuli\	0.7	1490.42857142857	1	749.5	0.9	1064.77777777778	0.9	676	0.7	1137.28571428571	0.7	1178.14285714286	0.9	773.555555555556	0.9	851.555555555556	13	339521	2	339509	27	40	339548	-999999	339524	0	24	TrialsPROC	TO_014_TOOL14_BA.png	2	2	3	SessionSelectionList														nonlure	3	Tools	2-Back	2	80	1	0	0	0	1	52	58887	3	14	82	56835	-1	58308	1	1473	3	3	2052	66	58901	-67	0																3												
WM080112	196750_fnca	2	1	1	180368658	1	74.998	75.030	2.0.10.147	2.0.10.242	2.0.10.242	1.0.0.439	7	234	2	3	Verdana	1	80	0	0	0	WM Stimuli\	0.7	1490.42857142857	1	749.5	0.9	1064.77777777778	0.9	676	0.7	1137.28571428571	0.7	1178.14285714286	0.9	773.555555555556	0.9	851.555555555556	13	339521	2	339509	27	40	339548	-999999	339524	0	24	TrialsPROC	TO_013_TOOL13_BA.png	2	2	4	SessionSelectionList														nonlure	3	Tools	2-Back	3	80	2	0	0	0	2	39	61433	2	13	59	59394	-1	59927	1	533	3	3	2039	52	61446	-53	0																4												
WM080112	196750_fnca	2	1	1	180368658	1	74.998	75.030	2.0.10.147	2.0.10.242	2.0.10.242	1.0.0.439	7	234	2	3	Verdana	1	80	0	0	0	WM Stimuli\	0.7	1490.42857142857	1	749.5	0.9	1064.77777777778	0.9	676	0.7	1137.28571428571	0.7	1178.14285714286	0.9	773.555555555556	0.9	851.555555555556	13	339521	2	339509	27	40	339548	-999999	339524	0	24	TrialsPROC	TO_016_TOOL16_BA.png	2	2	5	SessionSelectionList														nonlure	3	Tools	2-Back	4	80	3	0	0	0	3	39	63992	1	13	59	61953	-1	62528	1	575	3	3	2039	52	64005	-53	0																5												
WM080112	196750_fnca	2	1	1	180368658	1	74.998	75.030	2.0.10.147	2.0.10.242	2.0.10.242	1.0.0.439	7	234	2	3	Verdana	1	80	0	0	0	WM Stimuli\	0.7	1490.42857142857	1	749.5	0.9	1064.77777777778	0.9	676	0.7	1137.28571428571	0.7	1178.14285714286	0.9	773.555555555556	0.9	851.555555555556	13	339521	2	339509	27	40	339548	-999999	339524	0	24	TrialsPROC	TO_014_TOOL14_BA.png	2	2	6	SessionSelectionList														lure	3	Tools	2-Back	5	80	4	0	0	0	4	39	66564	1	13	72	64525	-1	65621	1	1096	3	3	2039	52	66577	-53	0																6												
WM080112	196750_fnca	2	1	1	180368658	1	74.998	75.030	2.0.10.147	2.0.10.242	2.0.10.242	1.0.0.439	7	234	2	3	Verdana	1	80	0	0	0	WM Stimuli\	0.7	1490.42857142857	1	749.5	0.9	1064.77777777778	0.9	676	0.7	1137.28571428571	0.7	1178.14285714286	0.9	773.555555555556	0.9	851.555555555556	13	339521	2	339509	27	40	339548	-999999	339524	0	24	TrialsPROC	TO_016_TOOL16_BA.png	2	2	7	SessionSelectionList														target	2	Tools	2-Back	6	80	5	0	0	0	1	39	69123	1	13	59	67084	-1	67707	1	623	2	2	2039	52	69136	-53	0																7												
WM080112	196750_fnca	2	1	1	180368658	1	74.998	75.030	2.0.10.147	2.0.10.242	2.0.10.242	1.0.0.439	7	234	2	3	Verdana	1	80	0	0	0	WM Stimuli\	0.7	1490.42857142857	1	749.5	0.9	1064.77777777778	0.9	676	0.7	1137.28571428571	0.7	1178.14285714286	0.9	773.555555555556	0.9	851.555555555556	13	339521	2	339509	27	40	339548	-999999	339524	0	24	TrialsPROC	TO_018_TOOL18_BA.png	2	2	8	SessionSelectionList														nonlure	3	Tools	2-Back	7	80	6	0	0	0	1	39	71682	1	13	59	69643	-1	70292	1	649	3	3	2039	52	71695	-53	0																8												
WM080112	196750_fnca	2	1	1	180368658	1	74.998	75.030	2.0.10.147	2.0.10.242	2.0.10.242	1.0.0.439	7	234	2	3	Verdana	1	80	0	0	0	WM Stimuli\	0.7	1490.42857142857	1	749.5	0.9	1064.77777777778	0.9	676	0.7	1137.28571428571	0.7	1178.14285714286	0.9	773.555555555556	0.9	851.555555555556	13	339521	2	339509	27	40	339548	-999999	339524	0	24	TrialsPROC	TO_017_TOOL17_BA.png	2	2	9	SessionSelectionList														nonlure	3	Tools	2-Back	8	80	7	0	0	0	2	39	74241	1	13	59	72202	-1	72786	1	584	3	3	2039	52	74254	-53	0																9												
WM080112	196750_fnca	2	1	1	180368658	1	74.998	75.030	2.0.10.147	2.0.10.242	2.0.10.242	1.0.0.439	7	234	2	3	Verdana	1	80	0	0	0	WM Stimuli\	0.7	1490.42857142857	1	749.5	0.9	1064.77777777778	0.9	676	0.7	1137.28571428571	0.7	1178.14285714286	0.9	773.555555555556	0.9	851.555555555556	13	339521	2	339509	27	40	339548	-999999	339524	0	24	TrialsPROC	TO_018_TOOL18_BA.png	2	2	10	SessionSelectionList														target	2	Tools	2-Back	9	80	8	0	0	0	1	39	76800	1	13	59	74761	-1	75425	1	664	2	2	2039	52	76813	-53	0																10												
WM080112	196750_fnca	2	1	1	180368658	1	74.998	75.030	2.0.10.147	2.0.10.242	2.0.10.242	1.0.0.439	7	234	2	3	Verdana	1	80	0	0	0	WM Stimuli\	0.7	1490.42857142857	1	749.5	0.9	1064.77777777778	0.9	676	0.7	1137.28571428571	0.7	1178.14285714286	0.9	773.555555555556	0.9	851.555555555556	13	339521	2	339509	27	40	339548	-999999	339524	0	24	TrialsPROC	TO_015_TOOL15_BA.png	2	2	11	SessionSelectionList														nonlure	3	Tools	2-Back	10	80	9	0	0	0	1	39	79359	1	13	59	77320	-1	78085	1	765	3	3	2039	52	79372	-53	0																11												
WM080112	196750_fnca	2	1	1	180368658	1	74.998	75.030	2.0.10.147	2.0.10.242	2.0.10.242	1.0.0.439	7	234	2	3	Verdana	1	80	0	0	0	WM Stimuli\	0.7	1490.42857142857	1	749.5	0.9	1064.77777777778	0.9	676	0.7	1137.28571428571	0.7	1178.14285714286	0.9	773.555555555556	0.9	851.555555555556	13	339521	2	339509	27	40	339548	-999999	339524	0	24	TrialsPROC	TO_017_TOOL17_BA.png	2	2	12	SessionSelectionList														lure	3	Tools	2-Back	11	80	10	0	0	0	1	39	81918	1	13	59	79879	-1	81091	0	1212	2	3	2039	52	81931	-53	0																12												
WM080112	196750_fnca	2	1	1	180368658	1	74.998	75.030	2.0.10.147	2.0.10.242	2.0.10.242	1.0.0.439	7	234	2	3	Verdana	1	80	0	0	0	WM Stimuli\	0.7	1490.42857142857	1	749.5	0.9	1064.77777777778	0.9	676	0.7	1137.28571428571	0.7	1178.14285714286	0.9	773.555555555556	0.9	851.555555555556	13	339521	2	339509	27	40	339548	-999999	339524	0	25	Cue0BackPROC	BP_013_BP7_BA.png	2	2	13	SessionSelectionList																																										19	82398	-20	0												13												
WM080112	196750_fnca	2	1	1	180368658	1	74.998	75.030	2.0.10.147	2.0.10.242	2.0.10.242	1.0.0.439	7	234	2	3	Verdana	1	80	0	0	0	WM Stimuli\	0.7	1490.42857142857	1	749.5	0.9	1064.77777777778	0.9	676	0.7	1137.28571428571	0.7	1178.14285714286	0.9	773.555555555556	0.9	851.555555555556	13	339521	2	339509	27	40	339548	-999999	339524	0	26	TrialsPROC	BP_015_H10-T_BA.png	2	2	14	SessionSelectionList														nonlure	3	Body	0-Back	12	80	11	0	0	100	1	39	86969	2	14	51	84930	-1	86006	1	1076	3	3	2039	53	86983	-54	0																14												
WM080112	196750_fnca	2	1	1	180368658	1	74.998	75.030	2.0.10.147	2.0.10.242	2.0.10.242	1.0.0.439	7	234	2	3	Verdana	1	80	0	0	0	WM Stimuli\	0.7	1490.42857142857	1	749.5	0.9	1064.77777777778	0.9	676	0.7	1137.28571428571	0.7	1178.14285714286	0.9	773.555555555556	0.9	851.555555555556	13	339521	2	339509	27	40	339548	-999999	339524	0	26	TrialsPROC	BP_018_H13-T_BA.png	2	2	15	SessionSelectionList														nonlure	3	Body	0-Back	13	80	12	0	0	100	2	39	89528	2	14	59	87489	-1	88069	1	580	3	3	2039	53	89542	-54	0																15												
WM080112	196750_fnca	2	1	1	180368658	1	74.998	75.030	2.0.10.147	2.0.10.242	2.0.10.242	1.0.0.439	7	234	2	3	Verdana	1	80	0	0	0	WM Stimuli\	0.7	1490.42857142857	1	749.5	0.9	1064.77777777778	0.9	676	0.7	1137.28571428571	0.7	1178.14285714286	0.9	773.555555555556	0.9	851.555555555556	13	339521	2	339509	27	40	339548	-999999	339524	0	26	TrialsPROC	BP_014_BP9_BA.png	2	2	16	SessionSelectionList														nonlure	3	Body	0-Back	14	80	13	0	0	100	3	39	92087	2	14	59	90048	-1	91112	1	1064	3	3	2039	53	92101	-54	0																16												
WM080112	196750_fnca	2	1	1	180368658	1	74.998	75.030	2.0.10.147	2.0.10.242	2.0.10.242	1.0.0.439	7	234	2	3	Verdana	1	80	0	0	0	WM Stimuli\	0.7	1490.42857142857	1	749.5	0.9	1064.77777777778	0.9	676	0.7	1137.28571428571	0.7	1178.14285714286	0.9	773.555555555556	0.9	851.555555555556	13	339521	2	339509	27	40	339548	-999999	339524	0	26	TrialsPROC	BP_018_H13-T_BA.png	2	2	17	SessionSelectionList														lure	3	Body	0-Back	15	80	14	0	0	100	4	39	94646	2	14	59	92607	-1	93106	1	499	3	3	2039	53	94660	-54	0																17												
WM080112	196750_fnca	2	1	1	180368658	1	74.998	75.030	2.0.10.147	2.0.10.242	2.0.10.242	1.0.0.439	7	234	2	3	Verdana	1	80	0	0	0	WM Stimuli\	0.7	1490.42857142857	1	749.5	0.9	1064.77777777778	0.9	676	0.7	1137.28571428571	0.7	1178.14285714286	0.9	773.555555555556	0.9	851.555555555556	13	339521	2	339509	27	40	339548	-999999	339524	0	26	TrialsPROC	BP_013_BP7_BA.png	2	2	18	SessionSelectionList														target	2	Body	0-Back	16	80	15	0	0	100	1	39	97205	1	14	59	95166	-1	96020	1	854	2	2	2039	53	97219	-54	0																18												
WM080112	196750_fnca	2	1	1	180368658	1	74.998	75.030	2.0.10.147	2.0.10.242	2.0.10.242	1.0.0.439	7	234	2	3	Verdana	1	80	0	0	0	WM Stimuli\	0.7	1490.42857142857	1	749.5	0.9	1064.77777777778	0.9	676	0.7	1137.28571428571	0.7	1178.14285714286	0.9	773.555555555556	0.9	851.555555555556	13	339521	2	339509	27	40	339548	-999999	339524	0	26	TrialsPROC	BP_015_H10-T_BA.png	2	2	19	SessionSelectionList														lure	3	Body	0-Back	17	80	16	0	0	100	1	39	99764	1	13	59	97725	-1	98303	1	578	3	3	2039	52	99777	-53	0																19												
WM080112	196750_fnca	2	1	1	180368658	1	74.998	75.030	2.0.10.147	2.0.10.242	2.0.10.242	1.0.0.439	7	234	2	3	Verdana	1	80	0	0	0	WM Stimuli\	0.7	1490.42857142857	1	749.5	0.9	1064.77777777778	0.9	676	0.7	1137.28571428571	0.7	1178.14285714286	0.9	773.555555555556	0.9	851.555555555556	13	339521	2	339509	27	40	339548	-999999	339524	0	26	TrialsPROC	BP_016_H11-T_BA.png	2	2	20	SessionSelectionList														nonlure	3	Body	0-Back	18	80	17	0	0	100	2	39	102323	1	13	59	100284	-1	100798	1	514	3	3	2039	52	102336	-53	0																20												
WM080112	196750_fnca	2	1	1	180368658	1	74.998	75.030	2.0.10.147	2.0.10.242	2.0.10.242	1.0.0.439	7	234	2	3	Verdana	1	80	0	0	0	WM Stimuli\	0.7	1490.42857142857	1	749.5	0.9	1064.77777777778	0.9	676	0.7	1137.28571428571	0.7	1178.14285714286	0.9	773.555555555556	0.9	851.555555555556	13	339521	2	339509	27	40	339548	-999999	339524	0	26	TrialsPROC	BP_013_BP7_BA.png	2	2	21	SessionSelectionList														target	2	Body	0-Back	19	80	18	0	0	100	1	39	104882	1	13	59	102843	-1	103757	1	914	2	2	2039	52	104895	-53	0																21												
WM080112	196750_fnca	2	1	1	180368658	1	74.998	75.030	2.0.10.147	2.0.10.242	2.0.10.242	1.0.0.439	7	234	2	3	Verdana	1	80	0	0	0	WM Stimuli\	0.7	1490.42857142857	1	749.5	0.9	1064.77777777778	0.9	676	0.7	1137.28571428571	0.7	1178.14285714286	0.9	773.555555555556	0.9	851.555555555556	13	339521	2	339509	27	40	339548	-999999	339524	0	26	TrialsPROC	BP_017_H12-T_BA.png	2	2	22	SessionSelectionList														nonlure	3	Body	0-Back	20	80	19	0	0	100	1	39	107441	1	13	59	105402	-1	105971	1	569	3	3	2039	52	107454	-53	0																22												
WM080112	196750_fnca	2	1	1	180368658	1	74.998	75.030	2.0.10.147	2.0.10.242	2.0.10.242	1.0.0.439	7	234	2	3	Verdana	1	80	0	0	0	WM Stimuli\	0.7	1490.42857142857	1	749.5	0.9	1064.77777777778	0.9	676	0.7	1137.28571428571	0.7	1178.14285714286	0.9	773.555555555556	0.9	851.555555555556	13	339521	2	339509	27	40	339548	-999999	339524	0	26	TrialsPROC	BP_014_BP9_BA.png	2	2	23	SessionSelectionList														lure	3	Body	0-Back	21	80	20	0	0	100	2	39	110000	1	13	59	107961	-1	108808	1	847	3	3	2039	52	110013	-53	0																23												
WM080112	196750_fnca	2	1	1	180368658	1	74.998	75.030	2.0.10.147	2.0.10.242	2.0.10.242	1.0.0.439	7	234	2	3	Verdana	1	80	0	0	0	WM Stimuli\	0.7	1490.42857142857	1	749.5	0.9	1064.77777777778	0.9	676	0.7	1137.28571428571	0.7	1178.14285714286	0.9	773.555555555556	0.9	851.555555555556	13	339521	2	339509	27	40	339548	-999999	339524	0	27	Fix15secPROC	""	2	2	24	SessionSelectionList																																															6	110467	-7	0							24												
WM080112	196750_fnca	2	1	1	180368658	1	74.998	75.030	2.0.10.147	2.0.10.242	2.0.10.242	1.0.0.439	7	234	2	3	Verdana	1	80	0	0	0	WM Stimuli\	0.7	1490.42857142857	1	749.5	0.9	1064.77777777778	0.9	676	0.7	1137.28571428571	0.7	1178.14285714286	0.9	773.555555555556	0.9	851.555555555556	13	339521	2	339509	27	40	339548	-999999	339524	0	28	Cue2BackPROC	""	2	2	25	SessionSelectionList									13	125474	-14	0																																													25												
WM080112	196750_fnca	2	1	1	180368658	1	74.998	75.030	2.0.10.147	2.0.10.242	2.0.10.242	1.0.0.439	7	234	2	3	Verdana	1	80	0	0	0	WM Stimuli\	0.7	1490.42857142857	1	749.5	0.9	1064.77777777778	0.9	676	0.7	1137.28571428571	0.7	1178.14285714286	0.9	773.555555555556	0.9	851.555555555556	13	339521	2	339509	27	40	339548	-999999	339524	0	29	TrialsPROC	FC_015_M8.png	2	2	26	SessionSelectionList														nonlure	3	Face	2-Back	22	80	21	0	0	100	3	39	130072	1	13	72	128033	-1	129204	1	1171	3	3	2039	52	130085	-53	0																26												
WM080112	196750_fnca	2	1	1	180368658	1	74.998	75.030	2.0.10.147	2.0.10.242	2.0.10.242	1.0.0.439	7	234	2	3	Verdana	1	80	0	0	0	WM Stimuli\	0.7	1490.42857142857	1	749.5	0.9	1064.77777777778	0.9	676	0.7	1137.28571428571	0.7	1178.14285714286	0.9	773.555555555556	0.9	851.555555555556	13	339521	2	339509	27	40	339548	-999999	339524	0	29	TrialsPROC	FC_018_F9.png	2	2	27	SessionSelectionList														nonlure	3	Face	2-Back	23	80	22	0	0	100	4	39	132644	2	14	72	130605	-1	131174	1	569	3	3	2039	53	132658	-54	0																27												
WM080112	196750_fnca	2	1	1	180368658	1	74.998	75.030	2.0.10.147	2.0.10.242	2.0.10.242	1.0.0.439	7	234	2	3	Verdana	1	80	0	0	0	WM Stimuli\	0.7	1490.42857142857	1	749.5	0.9	1064.77777777778	0.9	676	0.7	1137.28571428571	0.7	1178.14285714286	0.9	773.555555555556	0.9	851.555555555556	13	339521	2	339509	27	40	339548	-999999	339524	0	29	TrialsPROC	FC_018_F9.png	2	2	28	SessionSelectionList														lure	3	Face	2-Back	24	80	23	0	0	100	5	39	135216	2	14	72	133177	-1	134780	1	1603	3	3	2039	53	135230	-54	0																28												
WM080112	196750_fnca	2	1	1	180368658	1	74.998	75.030	2.0.10.147	2.0.10.242	2.0.10.242	1.0.0.439	7	234	2	3	Verdana	1	80	0	0	0	WM Stimuli\	0.7	1490.42857142857	1	749.5	0.9	1064.77777777778	0.9	676	0.7	1137.28571428571	0.7	1178.14285714286	0.9	773.555555555556	0.9	851.555555555556	13	339521	2	339509	27	40	339548	-999999	339524	0	29	TrialsPROC	FC_017_M9.png	2	2	29	SessionSelectionList														nonlure	3	Face	2-Back	25	80	24	0	0	100	6	39	137789	1	13	73	135750	-1	137226	1	1476	3	3	2039	52	137802	-53	0																29												
WM080112	196750_fnca	2	1	1	180368658	1	74.998	75.030	2.0.10.147	2.0.10.242	2.0.10.242	1.0.0.439	7	234	2	3	Verdana	1	80	0	0	0	WM Stimuli\	0.7	1490.42857142857	1	749.5	0.9	1064.77777777778	0.9	676	0.7	1137.28571428571	0.7	1178.14285714286	0.9	773.555555555556	0.9	851.555555555556	13	339521	2	339509	27	40	339548	-999999	339524	0	29	TrialsPROC	FC_017_M9.png	2	2	30	SessionSelectionList														lure	3	Face	2-Back	26	80	24	0	1	100	6	39	140361	1	13	72	138322	-1	0	0	0	""	3	2039	52	140374	-53	0																30												
WM080112	196750_fnca	2	1	1	180368658	1	74.998	75.030	2.0.10.147	2.0.10.242	2.0.10.242	1.0.0.439	7	234	2	3	Verdana	1	80	0	0	0	WM Stimuli\	0.7	1490.42857142857	1	749.5	0.9	1064.77777777778	0.9	676	0.7	1137.28571428571	0.7	1178.14285714286	0.9	773.555555555556	0.9	851.555555555556	13	339521	2	339509	27	40	339548	-999999	339524	0	29	TrialsPROC	FC_016_F8.png	2	2	31	SessionSelectionList														nonlure	3	Face	2-Back	27	80	25	0	0	100	1	39	142933	2	14	72	140894	-1	141826	1	932	3	3	2039	53	142947	-54	0																31												
WM080112	196750_fnca	2	1	1	180368658	1	74.998	75.030	2.0.10.147	2.0.10.242	2.0.10.242	1.0.0.439	7	234	2	3	Verdana	1	80	0	0	0	WM Stimuli\	0.7	1490.42857142857	1	749.5	0.9	1064.77777777778	0.9	676	0.7	1137.28571428571	0.7	1178.14285714286	0.9	773.555555555556	0.9	851.555555555556	13	339521	2	339509	27	40	339548	-999999	339524	0	29	TrialsPROC	FC_013_M7.png	2	2	32	SessionSelectionList														nonlure	3	Face	2-Back	28	80	26	0	0	100	2	40	145506	1	13	72	143466	-1	144203	1	737	3	3	2040	53	145519	-54	0																32												
WM080112	196750_fnca	2	1	1	180368658	1	74.998	75.030	2.0.10.147	2.0.10.242	2.0.10.242	1.0.0.439	7	234	2	3	Verdana	1	80	0	0	0	WM Stimuli\	0.7	1490.42857142857	1	749.5	0.9	1064.77777777778	0.9	676	0.7	1137.28571428571	0.7	1178.14285714286	0.9	773.555555555556	0.9	851.555555555556	13	339521	2	339509	27	40	339548	-999999	339524	0	29	TrialsPROC	FC_014_F7.png	2	2	33	SessionSelectionList														nonlure	3	Face	2-Back	29	80	27	0	0	100	3	39	148078	1	13	73	146039	-1	146974	1	935	3	3	2039	52	148091	-53	0																33												
WM080112	196750_fnca	2	1	1	180368658	1	74.998	75.030	2.0.10.147	2.0.10.242	2.0.10.242	1.0.0.439	7	234	2	3	Verdana	1	80	0	0	0	WM Stimuli\	0.7	1490.42857142857	1	749.5	0.9	1064.77777777778	0.9	676	0.7	1137.28571428571	0.7	1178.14285714286	0.9	773.555555555556	0.9	851.555555555556	13	339521	2	339509	27	40	339548	-999999	339524	0	29	TrialsPROC	FC_013_M7.png	2	2	34	SessionSelectionList														target	2	Face	2-Back	30	80	28	0	0	100	1	39	150650	2	14	72	148611	-1	149456	1	845	2	2	2039	53	150664	-54	0																34												
WM080112	196750_fnca	2	1	1	180368658	1	74.998	75.030	2.0.10.147	2.0.10.242	2.0.10.242	1.0.0.439	7	234	2	3	Verdana	1	80	0	0	0	WM Stimuli\	0.7	1490.42857142857	1	749.5	0.9	1064.77777777778	0.9	676	0.7	1137.28571428571	0.7	1178.14285714286	0.9	773.555555555556	0.9	851.555555555556	13	339521	2	339509	27	40	339548	-999999	339524	0	29	TrialsPROC	FC_014_F7.png	2	2	35	SessionSelectionList														target	2	Face	2-Back	31	80	29	0	0	100	2	40	153223	1	13	72	151183	-1	152498	1	1315	2	2	2040	53	153236	-54	0																35												
WM080112	196750_fnca	2	1	1	180368658	1	74.998	75.030	2.0.10.147	2.0.10.242	2.0.10.242	1.0.0.439	7	234	2	3	Verdana	1	80	0	0	0	WM Stimuli\	0.7	1490.42857142857	1	749.5	0.9	1064.77777777778	0.9	676	0.7	1137.28571428571	0.7	1178.14285714286	0.9	773.555555555556	0.9	851.555555555556	13	339521	2	339509	27	40	339548	-999999	339524	0	30	Cue0BackPROC	TO_019_TOOL19_BA.png	2	2	36	SessionSelectionList																																										19	153702	-20	0												36												
WM080112	196750_fnca	2	1	1	180368658	1	74.998	75.030	2.0.10.147	2.0.10.242	2.0.10.242	1.0.0.439	7	234	2	3	Verdana	1	80	0	0	0	WM Stimuli\	0.7	1490.42857142857	1	749.5	0.9	1064.77777777778	0.9	676	0.7	1137.28571428571	0.7	1178.14285714286	0.9	773.555555555556	0.9	851.555555555556	13	339521	2	339509	27	40	339548	-999999	339524	0	31	TrialsPROC	TO_019_TOOL19_BA.png	2	2	37	SessionSelectionList														target	2	Tools	0-Back	32	80	29	0	1	91	2	39	158274	1	13	52	156235	-1	0	0	0	""	2	2039	52	158287	-53	0																37												
WM080112	196750_fnca	2	1	1	180368658	1	74.998	75.030	2.0.10.147	2.0.10.242	2.0.10.242	1.0.0.439	7	234	2	3	Verdana	1	80	0	0	0	WM Stimuli\	0.7	1490.42857142857	1	749.5	0.9	1064.77777777778	0.9	676	0.7	1137.28571428571	0.7	1178.14285714286	0.9	773.555555555556	0.9	851.555555555556	13	339521	2	339509	27	40	339548	-999999	339524	0	31	TrialsPROC	TO_024_TOOL24_BA.png	2	2	38	SessionSelectionList														nonlure	3	Tools	0-Back	33	80	30	0	0	92	1	39	160833	1	13	59	158794	-1	159762	1	968	3	3	2039	52	160846	-53	0																38												
WM080112	196750_fnca	2	1	1	180368658	1	74.998	75.030	2.0.10.147	2.0.10.242	2.0.10.242	1.0.0.439	7	234	2	3	Verdana	1	80	0	0	0	WM Stimuli\	0.7	1490.42857142857	1	749.5	0.9	1064.77777777778	0.9	676	0.7	1137.28571428571	0.7	1178.14285714286	0.9	773.555555555556	0.9	851.555555555556	13	339521	2	339509	27	40	339548	-999999	339524	0	31	TrialsPROC	TO_019_TOOL19_BA.png	2	2	39	SessionSelectionList														target	2	Tools	0-Back	34	80	31	0	0	92	1	39	163392	1	13	59	161353	-1	162012	1	659	2	2	2039	52	163405	-53	0																39												
WM080112	196750_fnca	2	1	1	180368658	1	74.998	75.030	2.0.10.147	2.0.10.242	2.0.10.242	1.0.0.439	7	234	2	3	Verdana	1	80	0	0	0	WM Stimuli\	0.7	1490.42857142857	1	749.5	0.9	1064.77777777778	0.9	676	0.7	1137.28571428571	0.7	1178.14285714286	0.9	773.555555555556	0.9	851.555555555556	13	339521	2	339509	27	40	339548	-999999	339524	0	31	TrialsPROC	TO_023_TOOL23_BA.png	2	2	40	SessionSelectionList														nonlure	3	Tools	0-Back	35	80	32	0	0	93	1	39	165951	1	13	59	163912	-1	164521	1	609	3	3	2039	52	165964	-53	0																40												
WM080112	196750_fnca	2	1	1	180368658	1	74.998	75.030	2.0.10.147	2.0.10.242	2.0.10.242	1.0.0.439	7	234	2	3	Verdana	1	80	0	0	0	WM Stimuli\	0.7	1490.42857142857	1	749.5	0.9	1064.77777777778	0.9	676	0.7	1137.28571428571	0.7	1178.14285714286	0.9	773.555555555556	0.9	851.555555555556	13	339521	2	339509	27	40	339548	-999999	339524	0	31	TrialsPROC	TO_020_TOOL20_BA.png	2	2	41	SessionSelectionList														nonlure	3	Tools	0-Back	36	80	33	0	0	93	2	40	168510	1	13	58	166470	-1	167079	1	609	3	3	2040	53	168523	-54	0																41												
WM080112	196750_fnca	2	1	1	180368658	1	74.998	75.030	2.0.10.147	2.0.10.242	2.0.10.242	1.0.0.439	7	234	2	3	Verdana	1	80	0	0	0	WM Stimuli\	0.7	1490.42857142857	1	749.5	0.9	1064.77777777778	0.9	676	0.7	1137.28571428571	0.7	1178.14285714286	0.9	773.555555555556	0.9	851.555555555556	13	339521	2	339509	27	40	339548	-999999	339524	0	31	TrialsPROC	TO_020_TOOL20_BA.png	2	2	42	SessionSelectionList														lure	3	Tools	0-Back	37	80	34	0	0	94	3	39	171069	1	13	60	169030	-1	169844	1	814	3	3	2039	52	171082	-53	0																42												
WM080112	196750_fnca	2	1	1	180368658	1	74.998	75.030	2.0.10.147	2.0.10.242	2.0.10.242	1.0.0.439	7	234	2	3	Verdana	1	80	0	0	0	WM Stimuli\	0.7	1490.42857142857	1	749.5	0.9	1064.77777777778	0.9	676	0.7	1137.28571428571	0.7	1178.14285714286	0.9	773.555555555556	0.9	851.555555555556	13	339521	2	339509	27	40	339548	-999999	339524	0	31	TrialsPROC	TO_022_TOOL22_BA.png	2	2	43	SessionSelectionList														nonlure	3	Tools	0-Back	38	80	35	0	0	94	4	40	173628	1	13	58	171588	-1	172329	1	741	3	3	2040	53	173641	-54	0																43												
WM080112	196750_fnca	2	1	1	180368658	1	74.998	75.030	2.0.10.147	2.0.10.242	2.0.10.242	1.0.0.439	7	234	2	3	Verdana	1	80	0	0	0	WM Stimuli\	0.7	1490.42857142857	1	749.5	0.9	1064.77777777778	0.9	676	0.7	1137.28571428571	0.7	1178.14285714286	0.9	773.555555555556	0.9	851.555555555556	13	339521	2	339509	27	40	339548	-999999	339524	0	31	TrialsPROC	TO_022_TOOL22_BA.png	2	2	44	SessionSelectionList														lure	3	Tools	0-Back	39	80	36	0	0	94	5	40	176187	1	13	59	174147	-1	174963	1	816	3	3	2040	53	176200	-54	0																44												
WM080112	196750_fnca	2	1	1	180368658	1	74.998	75.030	2.0.10.147	2.0.10.242	2.0.10.242	1.0.0.439	7	234	2	3	Verdana	1	80	0	0	0	WM Stimuli\	0.7	1490.42857142857	1	749.5	0.9	1064.77777777778	0.9	676	0.7	1137.28571428571	0.7	1178.14285714286	0.9	773.555555555556	0.9	851.555555555556	13	339521	2	339509	27	40	339548	-999999	339524	0	31	TrialsPROC	TO_021_TOOL21_BA.png	2	2	45	SessionSelectionList														nonlure	3	Tools	0-Back	40	80	37	0	0	95	6	40	178746	1	13	59	176706	-1	178085	1	1379	3	3	2040	53	178759	-54	0																45												
WM080112	196750_fnca	2	1	1	180368658	1	74.998	75.030	2.0.10.147	2.0.10.242	2.0.10.242	1.0.0.439	7	234	2	3	Verdana	1	80	0	0	0	WM Stimuli\	0.7	1490.42857142857	1	749.5	0.9	1064.77777777778	0.9	676	0.7	1137.28571428571	0.7	1178.14285714286	0.9	773.555555555556	0.9	851.555555555556	13	339521	2	339509	27	40	339548	-999999	339524	0	31	TrialsPROC	TO_021_TOOL21_BA.png	2	2	46	SessionSelectionList														lure	3	Tools	0-Back	41	80	38	0	0	95	7	40	181305	1	13	59	179265	-1	180334	1	1069	3	3	2040	53	181318	-54	0																46												
WM080112	196750_fnca	2	1	1	180368658	1	74.998	75.030	2.0.10.147	2.0.10.242	2.0.10.242	1.0.0.439	7	234	2	3	Verdana	1	80	0	0	0	WM Stimuli\	0.7	1490.42857142857	1	749.5	0.9	1064.77777777778	0.9	676	0.7	1137.28571428571	0.7	1178.14285714286	0.9	773.555555555556	0.9	851.555555555556	13	339521	2	339509	27	40	339548	-999999	339524	0	32	Fix15secPROC	""	2	2	47	SessionSelectionList																																															6	181771	-7	0							47												
WM080112	196750_fnca	2	1	1	180368658	1	74.998	75.030	2.0.10.147	2.0.10.242	2.0.10.242	1.0.0.439	7	234	2	3	Verdana	1	80	0	0	0	WM Stimuli\	0.7	1490.42857142857	1	749.5	0.9	1064.77777777778	0.9	676	0.7	1137.28571428571	0.7	1178.14285714286	0.9	773.555555555556	0.9	851.555555555556	13	339521	2	339509	27	40	339548	-999999	339524	0	33	Cue2BackPROC	""	2	2	48	SessionSelectionList									13	196778	-14	0																																													48												
WM080112	196750_fnca	2	1	1	180368658	1	74.998	75.030	2.0.10.147	2.0.10.242	2.0.10.242	1.0.0.439	7	234	2	3	Verdana	1	80	0	0	0	WM Stimuli\	0.7	1490.42857142857	1	749.5	0.9	1064.77777777778	0.9	676	0.7	1137.28571428571	0.7	1178.14285714286	0.9	773.555555555556	0.9	851.555555555556	13	339521	2	339509	27	40	339548	-999999	339524	0	34	TrialsPROC	BP_020_H17-T_BA.png	2	2	49	SessionSelectionList														nonlure	3	Body	2-Back	42	80	38	0	1	95	7	39	201363	2	14	59	199324	-1	0	0	0	""	3	2039	53	201377	-54	0																49												
WM080112	196750_fnca	2	1	1	180368658	1	74.998	75.030	2.0.10.147	2.0.10.242	2.0.10.242	1.0.0.439	7	234	2	3	Verdana	1	80	0	0	0	WM Stimuli\	0.7	1490.42857142857	1	749.5	0.9	1064.77777777778	0.9	676	0.7	1137.28571428571	0.7	1178.14285714286	0.9	773.555555555556	0.9	851.555555555556	13	339521	2	339509	27	40	339548	-999999	339524	0	34	TrialsPROC	BP_019_H14-T_BA.png	2	2	50	SessionSelectionList														nonlure	3	Body	2-Back	43	80	39	0	0	95	1	39	203922	2	14	59	201883	-1	203323	1	1440	3	3	2039	53	203936	-54	0																50												
WM080112	196750_fnca	2	1	1	180368658	1	74.998	75.030	2.0.10.147	2.0.10.242	2.0.10.242	1.0.0.439	7	234	2	3	Verdana	1	80	0	0	0	WM Stimuli\	0.7	1490.42857142857	1	749.5	0.9	1064.77777777778	0.9	676	0.7	1137.28571428571	0.7	1178.14285714286	0.9	773.555555555556	0.9	851.555555555556	13	339521	2	339509	27	40	339548	-999999	339524	0	34	TrialsPROC	BP_020_H17-T_BA.png	2	2	51	SessionSelectionList														target	2	Body	2-Back	44	80	40	0	0	95	1	39	206481	1	14	59	204442	-1	205310	1	868	2	2	2039	53	206495	-54	0																51												
WM080112	196750_fnca	2	1	1	180368658	1	74.998	75.030	2.0.10.147	2.0.10.242	2.0.10.242	1.0.0.439	7	234	2	3	Verdana	1	80	0	0	0	WM Stimuli\	0.7	1490.42857142857	1	749.5	0.9	1064.77777777778	0.9	676	0.7	1137.28571428571	0.7	1178.14285714286	0.9	773.555555555556	0.9	851.555555555556	13	339521	2	339509	27	40	339548	-999999	339524	0	34	TrialsPROC	BP_019_H14-T_BA.png	2	2	52	SessionSelectionList														target	2	Body	2-Back	45	80	41	0	0	95	2	39	209040	1	13	59	207001	-1	208356	1	1355	2	2	2039	52	209053	-53	0																52												
WM080112	196750_fnca	2	1	1	180368658	1	74.998	75.030	2.0.10.147	2.0.10.242	2.0.10.242	1.0.0.439	7	234	2	3	Verdana	1	80	0	0	0	WM Stimuli\	0.7	1490.42857142857	1	749.5	0.9	1064.77777777778	0.9	676	0.7	1137.28571428571	0.7	1178.14285714286	0.9	773.555555555556	0.9	851.555555555556	13	339521	2	339509	27	40	339548	-999999	339524	0	34	TrialsPROC	BP_024_H3-T_BA.png	2	2	53	SessionSelectionList														nonlure	3	Body	2-Back	46	80	42	0	0	95	1	39	211599	1	13	59	209560	-1	211514	1	1954	3	3	2039	52	211612	-53	0																53												
WM080112	196750_fnca	2	1	1	180368658	1	74.998	75.030	2.0.10.147	2.0.10.242	2.0.10.242	1.0.0.439	7	234	2	3	Verdana	1	80	0	0	0	WM Stimuli\	0.7	1490.42857142857	1	749.5	0.9	1064.77777777778	0.9	676	0.7	1137.28571428571	0.7	1178.14285714286	0.9	773.555555555556	0.9	851.555555555556	13	339521	2	339509	27	40	339548	-999999	339524	0	34	TrialsPROC	BP_024_H3-T_BA.png	2	2	54	SessionSelectionList														lure	3	Body	2-Back	47	80	43	0	0	95	2	39	214158	1	13	59	212119	-1	214078	1	1959	3	3	2039	52	214171	-53	0																54												
WM080112	196750_fnca	2	1	1	180368658	1	74.998	75.030	2.0.10.147	2.0.10.242	2.0.10.242	1.0.0.439	7	234	2	3	Verdana	1	80	0	0	0	WM Stimuli\	0.7	1490.42857142857	1	749.5	0.9	1064.77777777778	0.9	676	0.7	1137.28571428571	0.7	1178.14285714286	0.9	773.555555555556	0.9	851.555555555556	13	339521	2	339509	27	40	339548	-999999	339524	0	34	TrialsPROC	BP_025_H5-T_BA.png	2	2	55	SessionSelectionList														nonlure	3	Body	2-Back	48	80	44	0	0	95	3	39	216717	1	13	59	214678	-1	216380	1	1702	3	3	2039	52	216730	-53	0																55												
WM080112	196750_fnca	2	1	1	180368658	1	74.998	75.030	2.0.10.147	2.0.10.242	2.0.10.242	1.0.0.439	7	234	2	3	Verdana	1	80	0	0	0	WM Stimuli\	0.7	1490.42857142857	1	749.5	0.9	1064.77777777778	0.9	676	0.7	1137.28571428571	0.7	1178.14285714286	0.9	773.555555555556	0.9	851.555555555556	13	339521	2	339509	27	40	339548	-999999	339524	0	34	TrialsPROC	BP_023_H25-T_BA.png	2	2	56	SessionSelectionList														nonlure	3	Body	2-Back	49	80	44	0	1	95	3	39	219276	1	13	59	217237	-1	0	0	0	""	3	2039	52	219289	-53	0																56												
WM080112	196750_fnca	2	1	1	180368658	1	74.998	75.030	2.0.10.147	2.0.10.242	2.0.10.242	1.0.0.439	7	234	2	3	Verdana	1	80	0	0	0	WM Stimuli\	0.7	1490.42857142857	1	749.5	0.9	1064.77777777778	0.9	676	0.7	1137.28571428571	0.7	1178.14285714286	0.9	773.555555555556	0.9	851.555555555556	13	339521	2	339509	27	40	339548	-999999	339524	0	34	TrialsPROC	BP_022_H24-T_BA.png	2	2	57	SessionSelectionList														nonlure	3	Body	2-Back	50	80	44	0	2	95	3	39	221835	1	13	59	219796	-1	0	0	0	""	3	2039	52	221848	-53	0																57												
WM080112	196750_fnca	2	1	1	180368658	1	74.998	75.030	2.0.10.147	2.0.10.242	2.0.10.242	1.0.0.439	7	234	2	3	Verdana	1	80	0	0	0	WM Stimuli\	0.7	1490.42857142857	1	749.5	0.9	1064.77777777778	0.9	676	0.7	1137.28571428571	0.7	1178.14285714286	0.9	773.555555555556	0.9	851.555555555556	13	339521	2	339509	27	40	339548	-999999	339524	0	34	TrialsPROC	BP_022_H24-T_BA.png	2	2	58	SessionSelectionList														lure	3	Body	2-Back	51	80	45	0	0	95	1	39	224394	1	13	59	222355	-1	223510	1	1155	3	3	2039	52	224407	-53	0																58												
WM080112	196750_fnca	2	1	1	180368658	1	74.998	75.030	2.0.10.147	2.0.10.242	2.0.10.242	1.0.0.439	7	234	2	3	Verdana	1	80	0	0	0	WM Stimuli\	0.7	1490.42857142857	1	749.5	0.9	1064.77777777778	0.9	676	0.7	1137.28571428571	0.7	1178.14285714286	0.9	773.555555555556	0.9	851.555555555556	13	339521	2	339509	27	40	339548	-999999	339524	0	35	Cue2BackPROC	""	2	2	59	SessionSelectionList									5	224860	-6	0																																													59												
WM080112	196750_fnca	2	1	1	180368658	1	74.998	75.030	2.0.10.147	2.0.10.242	2.0.10.242	1.0.0.439	7	234	2	3	Verdana	1	80	0	0	0	WM Stimuli\	0.7	1490.42857142857	1	749.5	0.9	1064.77777777778	0.9	676	0.7	1137.28571428571	0.7	1178.14285714286	0.9	773.555555555556	0.9	851.555555555556	13	339521	2	339509	27	40	339548	-999999	339524	0	36	TrialsPROC	PL_019_SCENE_05.png	2	2	60	SessionSelectionList														nonlure	3	Place	2-Back	52	80	45	0	1	95	1	40	229459	1	13	64	227419	-1	0	0	0	""	3	2040	53	229472	-54	0																60												
WM080112	196750_fnca	2	1	1	180368658	1	74.998	75.030	2.0.10.147	2.0.10.242	2.0.10.242	1.0.0.439	7	234	2	3	Verdana	1	80	0	0	0	WM Stimuli\	0.7	1490.42857142857	1	749.5	0.9	1064.77777777778	0.9	676	0.7	1137.28571428571	0.7	1178.14285714286	0.9	773.555555555556	0.9	851.555555555556	13	339521	2	339509	27	40	339548	-999999	339524	0	36	TrialsPROC	PL_017_SCENE_03.png	2	2	61	SessionSelectionList														nonlure	3	Place	2-Back	53	80	45	0	2	95	1	39	232031	1	13	73	229992	-1	0	0	0	""	3	2039	52	232044	-53	0																61												
WM080112	196750_fnca	2	1	1	180368658	1	74.998	75.030	2.0.10.147	2.0.10.242	2.0.10.242	1.0.0.439	7	234	2	3	Verdana	1	80	0	0	0	WM Stimuli\	0.7	1490.42857142857	1	749.5	0.9	1064.77777777778	0.9	676	0.7	1137.28571428571	0.7	1178.14285714286	0.9	773.555555555556	0.9	851.555555555556	13	339521	2	339509	27	40	339548	-999999	339524	0	36	TrialsPROC	PL_017_SCENE_03.png	2	2	62	SessionSelectionList														lure	3	Place	2-Back	54	80	46	0	0	95	1	39	234603	2	14	72	232564	-1	233538	1	974	3	3	2039	53	234617	-54	0																62												
WM080112	196750_fnca	2	1	1	180368658	1	74.998	75.030	2.0.10.147	2.0.10.242	2.0.10.242	1.0.0.439	7	234	2	3	Verdana	1	80	0	0	0	WM Stimuli\	0.7	1490.42857142857	1	749.5	0.9	1064.77777777778	0.9	676	0.7	1137.28571428571	0.7	1178.14285714286	0.9	773.555555555556	0.9	851.555555555556	13	339521	2	339509	27	40	339548	-999999	339524	0	36	TrialsPROC	PL_016_SCENE_02.png	2	2	63	SessionSelectionList														nonlure	3	Place	2-Back	55	80	47	0	0	95	2	39	237175	2	14	72	235136	-1	235922	1	786	3	3	2039	53	237189	-54	0																63												
WM080112	196750_fnca	2	1	1	180368658	1	74.998	75.030	2.0.10.147	2.0.10.242	2.0.10.242	1.0.0.439	7	234	2	3	Verdana	1	80	0	0	0	WM Stimuli\	0.7	1490.42857142857	1	749.5	0.9	1064.77777777778	0.9	676	0.7	1137.28571428571	0.7	1178.14285714286	0.9	773.555555555556	0.9	851.555555555556	13	339521	2	339509	27	40	339548	-999999	339524	0	36	TrialsPROC	PL_015_SCENE_01.png	2	2	64	SessionSelectionList														nonlure	3	Place	2-Back	56	80	48	0	0	95	3	39	239748	1	13	73	237709	-1	239183	1	1474	3	3	2039	52	239761	-53	0																64												
WM080112	196750_fnca	2	1	1	180368658	1	74.998	75.030	2.0.10.147	2.0.10.242	2.0.10.242	1.0.0.439	7	234	2	3	Verdana	1	80	0	0	0	WM Stimuli\	0.7	1490.42857142857	1	749.5	0.9	1064.77777777778	0.9	676	0.7	1137.28571428571	0.7	1178.14285714286	0.9	773.555555555556	0.9	851.555555555556	13	339521	2	339509	27	40	339548	-999999	339524	0	36	TrialsPROC	PL_016_SCENE_02.png	2	2	65	SessionSelectionList														target	2	Place	2-Back	57	80	49	0	0	95	1	39	242320	1	13	72	240281	-1	241178	1	897	2	2	2039	52	242333	-53	0																65												
WM080112	196750_fnca	2	1	1	180368658	1	74.998	75.030	2.0.10.147	2.0.10.242	2.0.10.242	1.0.0.439	7	234	2	3	Verdana	1	80	0	0	0	WM Stimuli\	0.7	1490.42857142857	1	749.5	0.9	1064.77777777778	0.9	676	0.7	1137.28571428571	0.7	1178.14285714286	0.9	773.555555555556	0.9	851.555555555556	13	339521	2	339509	27	40	339548	-999999	339524	0	36	TrialsPROC	PL_015_SCENE_01.png	2	2	66	SessionSelectionList														target	2	Place	2-Back	58	80	50	0	0	95	2	39	244892	2	14	72	242853	-1	244064	1	1211	2	2	2039	53	244906	-54	0																66												
WM080112	196750_fnca	2	1	1	180368658	1	74.998	75.030	2.0.10.147	2.0.10.242	2.0.10.242	1.0.0.439	7	234	2	3	Verdana	1	80	0	0	0	WM Stimuli\	0.7	1490.42857142857	1	749.5	0.9	1064.77777777778	0.9	676	0.7	1137.28571428571	0.7	1178.14285714286	0.9	773.555555555556	0.9	851.555555555556	13	339521	2	339509	27	40	339548	-999999	339524	0	36	TrialsPROC	PL_020_SCENE_06.png	2	2	67	SessionSelectionList														nonlure	3	Place	2-Back	59	80	51	0	0	95	1	40	247465	2	13	72	245425	-1	246580	1	1155	3	3	2040	53	247478	-54	0																67												
WM080112	196750_fnca	2	1	1	180368658	1	74.998	75.030	2.0.10.147	2.0.10.242	2.0.10.242	1.0.0.439	7	234	2	3	Verdana	1	80	0	0	0	WM Stimuli\	0.7	1490.42857142857	1	749.5	0.9	1064.77777777778	0.9	676	0.7	1137.28571428571	0.7	1178.14285714286	0.9	773.555555555556	0.9	851.555555555556	13	339521	2	339509	27	40	339548	-999999	339524	0	36	TrialsPROC	PL_020_SCENE_06.png	2	2	68	SessionSelectionList														lure	3	Place	2-Back	60	80	52	0	0	95	2	39	250037	1	13	73	247998	-1	249462	1	1464	3	3	2039	52	250050	-53	0																68												
WM080112	196750_fnca	2	1	1	180368658	1	74.998	75.030	2.0.10.147	2.0.10.242	2.0.10.242	1.0.0.439	7	234	2	3	Verdana	1	80	0	0	0	WM Stimuli\	0.7	1490.42857142857	1	749.5	0.9	1064.77777777778	0.9	676	0.7	1137.28571428571	0.7	1178.14285714286	0.9	773.555555555556	0.9	851.555555555556	13	339521	2	339509	27	40	339548	-999999	339524	0	36	TrialsPROC	PL_018_SCENE_04.png	2	2	69	SessionSelectionList														nonlure	3	Place	2-Back	61	80	52	0	1	95	2	39	252609	2	14	72	250570	-1	0	0	0	""	3	2039	53	252623	-54	0																69												
WM080112	196750_fnca	2	1	1	180368658	1	74.998	75.030	2.0.10.147	2.0.10.242	2.0.10.242	1.0.0.439	7	234	2	3	Verdana	1	80	0	0	0	WM Stimuli\	0.7	1490.42857142857	1	749.5	0.9	1064.77777777778	0.9	676	0.7	1137.28571428571	0.7	1178.14285714286	0.9	773.555555555556	0.9	851.555555555556	13	339521	2	339509	27	40	339548	-999999	339524	0	37	Fix15secPROC	""	2	2	70	SessionSelectionList																																															6	253076	-7	0							70												
WM080112	196750_fnca	2	1	1	180368658	1	74.998	75.030	2.0.10.147	2.0.10.242	2.0.10.242	1.0.0.439	7	234	2	3	Verdana	1	80	0	0	0	WM Stimuli\	0.7	1490.42857142857	1	749.5	0.9	1064.77777777778	0.9	676	0.7	1137.28571428571	0.7	1178.14285714286	0.9	773.555555555556	0.9	851.555555555556	13	339521	2	339509	27	40	339548	-999999	339524	0	38	Cue0BackPROC	FC_020_F10.png	2	2	71	SessionSelectionList																																										26	268096	-27	0												71												
WM080112	196750_fnca	2	1	1	180368658	1	74.998	75.030	2.0.10.147	2.0.10.242	2.0.10.242	1.0.0.439	7	234	2	3	Verdana	1	80	0	0	0	WM Stimuli\	0.7	1490.42857142857	1	749.5	0.9	1064.77777777778	0.9	676	0.7	1137.28571428571	0.7	1178.14285714286	0.9	773.555555555556	0.9	851.555555555556	13	339521	2	339509	27	40	339548	-999999	339524	0	39	TrialsPROC	FC_024_F12.png	2	2	72	SessionSelectionList														nonlure	3	Face	0-Back	62	80	53	0	0	95	1	39	272681	3	14	72	270642	-1	271454	1	812	3	3	2039	53	272695	-54	0																72												
WM080112	196750_fnca	2	1	1	180368658	1	74.998	75.030	2.0.10.147	2.0.10.242	2.0.10.242	1.0.0.439	7	234	2	3	Verdana	1	80	0	0	0	WM Stimuli\	0.7	1490.42857142857	1	749.5	0.9	1064.77777777778	0.9	676	0.7	1137.28571428571	0.7	1178.14285714286	0.9	773.555555555556	0.9	851.555555555556	13	339521	2	339509	27	40	339548	-999999	339524	0	39	TrialsPROC	FC_023_M12.png	2	2	73	SessionSelectionList														nonlure	3	Face	0-Back	63	80	54	0	0	95	2	39	275253	2	14	72	273214	-1	273694	1	480	3	3	2039	53	275267	-54	0																73												
WM080112	196750_fnca	2	1	1	180368658	1	74.998	75.030	2.0.10.147	2.0.10.242	2.0.10.242	1.0.0.439	7	234	2	3	Verdana	1	80	0	0	0	WM Stimuli\	0.7	1490.42857142857	1	749.5	0.9	1064.77777777778	0.9	676	0.7	1137.28571428571	0.7	1178.14285714286	0.9	773.555555555556	0.9	851.555555555556	13	339521	2	339509	27	40	339548	-999999	339524	0	39	TrialsPROC	FC_020_F10.png	2	2	74	SessionSelectionList														target	2	Face	0-Back	64	80	55	0	0	96	1	39	277826	1	13	73	275787	-1	276968	1	1181	2	2	2039	52	277839	-53	0																74												
WM080112	196750_fnca	2	1	1	180368658	1	74.998	75.030	2.0.10.147	2.0.10.242	2.0.10.242	1.0.0.439	7	234	2	3	Verdana	1	80	0	0	0	WM Stimuli\	0.7	1490.42857142857	1	749.5	0.9	1064.77777777778	0.9	676	0.7	1137.28571428571	0.7	1178.14285714286	0.9	773.555555555556	0.9	851.555555555556	13	339521	2	339509	27	40	339548	-999999	339524	0	39	TrialsPROC	FC_024_F12.png	2	2	75	SessionSelectionList														lure	3	Face	0-Back	65	80	56	0	0	96	1	39	280398	1	13	72	278359	-1	279043	1	684	3	3	2039	52	280411	-53	0																75												
WM080112	196750_fnca	2	1	1	180368658	1	74.998	75.030	2.0.10.147	2.0.10.242	2.0.10.242	1.0.0.439	7	234	2	3	Verdana	1	80	0	0	0	WM Stimuli\	0.7	1490.42857142857	1	749.5	0.9	1064.77777777778	0.9	676	0.7	1137.28571428571	0.7	1178.14285714286	0.9	773.555555555556	0.9	851.555555555556	13	339521	2	339509	27	40	339548	-999999	339524	0	39	TrialsPROC	FC_020_F10.png	2	2	76	SessionSelectionList														target	2	Face	0-Back	66	80	57	0	0	96	1	39	282970	2	14	72	280931	-1	281628	1	697	2	2	2039	53	282984	-54	0																76												
WM080112	196750_fnca	2	1	1	180368658	1	74.998	75.030	2.0.10.147	2.0.10.242	2.0.10.242	1.0.0.439	7	234	2	3	Verdana	1	80	0	0	0	WM Stimuli\	0.7	1490.42857142857	1	749.5	0.9	1064.77777777778	0.9	676	0.7	1137.28571428571	0.7	1178.14285714286	0.9	773.555555555556	0.9	851.555555555556	13	339521	2	339509	27	40	339548	-999999	339524	0	39	TrialsPROC	FC_022_F11.png	2	2	77	SessionSelectionList														nonlure	3	Face	0-Back	67	80	58	0	0	96	1	40	285543	1	13	72	283503	-1	284029	1	526	3	3	2040	53	285556	-54	0																77												
WM080112	196750_fnca	2	1	1	180368658	1	74.998	75.030	2.0.10.147	2.0.10.242	2.0.10.242	1.0.0.439	7	234	2	3	Verdana	1	80	0	0	0	WM Stimuli\	0.7	1490.42857142857	1	749.5	0.9	1064.77777777778	0.9	676	0.7	1137.28571428571	0.7	1178.14285714286	0.9	773.555555555556	0.9	851.555555555556	13	339521	2	339509	27	40	339548	-999999	339524	0	39	TrialsPROC	FC_023_M12.png	2	2	78	SessionSelectionList														lure	3	Face	0-Back	68	80	59	0	0	96	2	39	288115	1	13	73	286076	-1	286692	1	616	3	3	2039	52	288128	-53	0																78												
WM080112	196750_fnca	2	1	1	180368658	1	74.998	75.030	2.0.10.147	2.0.10.242	2.0.10.242	1.0.0.439	7	234	2	3	Verdana	1	80	0	0	0	WM Stimuli\	0.7	1490.42857142857	1	749.5	0.9	1064.77777777778	0.9	676	0.7	1137.28571428571	0.7	1178.14285714286	0.9	773.555555555556	0.9	851.555555555556	13	339521	2	339509	27	40	339548	-999999	339524	0	39	TrialsPROC	FC_021_M11.png	2	2	79	SessionSelectionList														nonlure	3	Face	0-Back	69	80	60	0	0	96	3	39	290687	2	14	72	288648	-1	289062	1	414	3	3	2039	53	290701	-54	0																79												
WM080112	196750_fnca	2	1	1	180368658	1	74.998	75.030	2.0.10.147	2.0.10.242	2.0.10.242	1.0.0.439	7	234	2	3	Verdana	1	80	0	0	0	WM Stimuli\	0.7	1490.42857142857	1	749.5	0.9	1064.77777777778	0.9	676	0.7	1137.28571428571	0.7	1178.14285714286	0.9	773.555555555556	0.9	851.555555555556	13	339521	2	339509	27	40	339548	-999999	339524	0	39	TrialsPROC	FC_021_M11.png	2	2	80	SessionSelectionList														lure	3	Face	0-Back	70	80	61	0	0	97	4	40	293260	1	13	72	291220	-1	291894	1	674	3	3	2040	53	293273	-54	0																80												
WM080112	196750_fnca	2	1	1	180368658	1	74.998	75.030	2.0.10.147	2.0.10.242	2.0.10.242	1.0.0.439	7	234	2	3	Verdana	1	80	0	0	0	WM Stimuli\	0.7	1490.42857142857	1	749.5	0.9	1064.77777777778	0.9	676	0.7	1137.28571428571	0.7	1178.14285714286	0.9	773.555555555556	0.9	851.555555555556	13	339521	2	339509	27	40	339548	-999999	339524	0	39	TrialsPROC	FC_019_M10.png	2	2	81	SessionSelectionList														nonlure	3	Face	0-Back	71	80	61	0	1	93	4	39	295832	1	13	73	293793	-1	0	0	0	""	3	2039	52	295845	-53	0																81												
WM080112	196750_fnca	2	1	1	180368658	1	74.998	75.030	2.0.10.147	2.0.10.242	2.0.10.242	1.0.0.439	7	234	2	3	Verdana	1	80	0	0	0	WM Stimuli\	0.7	1490.42857142857	1	749.5	0.9	1064.77777777778	0.9	676	0.7	1137.28571428571	0.7	1178.14285714286	0.9	773.555555555556	0.9	851.555555555556	13	339521	2	339509	27	40	339548	-999999	339524	0	40	Cue0BackPROC	PL_021_SCENE_07.png	2	2	82	SessionSelectionList																																										19	296312	-20	0												82												
WM080112	196750_fnca	2	1	1	180368658	1	74.998	75.030	2.0.10.147	2.0.10.242	2.0.10.242	1.0.0.439	7	234	2	3	Verdana	1	80	0	0	0	WM Stimuli\	0.7	1490.42857142857	1	749.5	0.9	1064.77777777778	0.9	676	0.7	1137.28571428571	0.7	1178.14285714286	0.9	773.555555555556	0.9	851.555555555556	13	339521	2	339509	27	40	339548	-999999	339524	0	41	TrialsPROC	PL_025_SCENE_18.png	2	2	83	SessionSelectionList														nonlure	3	Place	0-Back	72	80	61	0	2	90	4	39	300896	2	14	64	298857	-1	0	0	0	""	3	2039	53	300910	-54	0																83												
WM080112	196750_fnca	2	1	1	180368658	1	74.998	75.030	2.0.10.147	2.0.10.242	2.0.10.242	1.0.0.439	7	234	2	3	Verdana	1	80	0	0	0	WM Stimuli\	0.7	1490.42857142857	1	749.5	0.9	1064.77777777778	0.9	676	0.7	1137.28571428571	0.7	1178.14285714286	0.9	773.555555555556	0.9	851.555555555556	13	339521	2	339509	27	40	339548	-999999	339524	0	41	TrialsPROC	PL_026_SCENE_24.png	2	2	84	SessionSelectionList														nonlure	3	Place	0-Back	73	80	62	0	0	91	1	39	303469	1	13	73	301430	-1	302257	1	827	3	3	2039	52	303482	-53	0																84												
WM080112	196750_fnca	2	1	1	180368658	1	74.998	75.030	2.0.10.147	2.0.10.242	2.0.10.242	1.0.0.439	7	234	2	3	Verdana	1	80	0	0	0	WM Stimuli\	0.7	1490.42857142857	1	749.5	0.9	1064.77777777778	0.9	676	0.7	1137.28571428571	0.7	1178.14285714286	0.9	773.555555555556	0.9	851.555555555556	13	339521	2	339509	27	40	339548	-999999	339524	0	41	TrialsPROC	PL_025_SCENE_18.png	2	2	85	SessionSelectionList														lure	3	Place	0-Back	74	80	63	0	0	91	2	39	306041	1	13	72	304002	-1	305345	1	1343	3	3	2039	52	306054	-53	0																85												
WM080112	196750_fnca	2	1	1	180368658	1	74.998	75.030	2.0.10.147	2.0.10.242	2.0.10.242	1.0.0.439	7	234	2	3	Verdana	1	80	0	0	0	WM Stimuli\	0.7	1490.42857142857	1	749.5	0.9	1064.77777777778	0.9	676	0.7	1137.28571428571	0.7	1178.14285714286	0.9	773.555555555556	0.9	851.555555555556	13	339521	2	339509	27	40	339548	-999999	339524	0	41	TrialsPROC	PL_022_SCENE_08.png	2	2	86	SessionSelectionList														nonlure	3	Place	0-Back	75	80	64	0	0	91	3	39	308613	2	14	72	306574	-1	307460	1	886	3	3	2039	53	308627	-54	0																86												
WM080112	196750_fnca	2	1	1	180368658	1	74.998	75.030	2.0.10.147	2.0.10.242	2.0.10.242	1.0.0.439	7	234	2	3	Verdana	1	80	0	0	0	WM Stimuli\	0.7	1490.42857142857	1	749.5	0.9	1064.77777777778	0.9	676	0.7	1137.28571428571	0.7	1178.14285714286	0.9	773.555555555556	0.9	851.555555555556	13	339521	2	339509	27	40	339548	-999999	339524	0	41	TrialsPROC	PL_026_SCENE_24.png	2	2	87	SessionSelectionList														lure	3	Place	0-Back	76	80	65	0	0	91	4	40	311186	1	13	72	309146	-1	310750	1	1604	3	3	2040	53	311199	-54	0																87												
WM080112	196750_fnca	2	1	1	180368658	1	74.998	75.030	2.0.10.147	2.0.10.242	2.0.10.242	1.0.0.439	7	234	2	3	Verdana	1	80	0	0	0	WM Stimuli\	0.7	1490.42857142857	1	749.5	0.9	1064.77777777778	0.9	676	0.7	1137.28571428571	0.7	1178.14285714286	0.9	773.555555555556	0.9	851.555555555556	13	339521	2	339509	27	40	339548	-999999	339524	0	41	TrialsPROC	PL_021_SCENE_07.png	2	2	88	SessionSelectionList														target	2	Place	0-Back	77	80	66	0	0	89	5	39	313758	1	13	73	311719	-1	312630	0	911	3	2	2039	52	313771	-53	0																88												
WM080112	196750_fnca	2	1	1	180368658	1	74.998	75.030	2.0.10.147	2.0.10.242	2.0.10.242	1.0.0.439	7	234	2	3	Verdana	1	80	0	0	0	WM Stimuli\	0.7	1490.42857142857	1	749.5	0.9	1064.77777777778	0.9	676	0.7	1137.28571428571	0.7	1178.14285714286	0.9	773.555555555556	0.9	851.555555555556	13	339521	2	339509	27	40	339548	-999999	339524	0	41	TrialsPROC	PL_021_SCENE_07.png	2	2	89	SessionSelectionList														target	2	Place	0-Back	78	80	67	0	0	86	6	39	316330	2	14	72	314291	-1	315551	0	1260	3	2	2039	53	316344	-54	0																89												
WM080112	196750_fnca	2	1	1	180368658	1	74.998	75.030	2.0.10.147	2.0.10.242	2.0.10.242	1.0.0.439	7	234	2	3	Verdana	1	80	0	0	0	WM Stimuli\	0.7	1490.42857142857	1	749.5	0.9	1064.77777777778	0.9	676	0.7	1137.28571428571	0.7	1178.14285714286	0.9	773.555555555556	0.9	851.555555555556	13	339521	2	339509	27	40	339548	-999999	339524	0	41	TrialsPROC	PL_023_SCENE_09.png	2	2	90	SessionSelectionList														nonlure	3	Place	0-Back	79	80	68	0	0	87	7	40	318903	1	13	72	316863	-1	318100	1	1237	3	3	2040	53	318916	-54	0																90												
WM080112	196750_fnca	2	1	1	180368658	1	74.998	75.030	2.0.10.147	2.0.10.242	2.0.10.242	1.0.0.439	7	234	2	3	Verdana	1	80	0	0	0	WM Stimuli\	0.7	1490.42857142857	1	749.5	0.9	1064.77777777778	0.9	676	0.7	1137.28571428571	0.7	1178.14285714286	0.9	773.555555555556	0.9	851.555555555556	13	339521	2	339509	27	40	339548	-999999	339524	0	41	TrialsPROC	PL_024_SCENE_10.png	2	2	91	SessionSelectionList														nonlure	3	Place	0-Back	80	80	69	0	0	87	8	39	321475	1	13	73	319436	-1	320697	1	1261	3	3	2039	52	321488	-53	0																91												
WM080112	196750_fnca	2	1	1	180368658	1	74.998	75.030	2.0.10.147	2.0.10.242	2.0.10.242	1.0.0.439	7	234	2	3	Verdana	1	80	0	0	0	WM Stimuli\	0.7	1490.42857142857	1	749.5	0.9	1064.77777777778	0.9	676	0.7	1137.28571428571	0.7	1178.14285714286	0.9	773.555555555556	0.9	851.555555555556	13	339521	2	339509	27	40	339548	-999999	339524	0	41	TrialsPROC	PL_022_SCENE_08.png	2	2	92	SessionSelectionList														lure	3	Place	0-Back	80	80	70	0	0	88	9	39	324047	2	14	72	322008	-1	323097	1	1089	3	3	2039	53	324061	-54	0																92												
WM080112	196750_fnca	2	1	1	180368658	1	74.998	75.030	2.0.10.147	2.0.10.242	2.0.10.242	1.0.0.439	7	234	2	3	Verdana	1	80	0	0	0	WM Stimuli\	0.7	1490.42857142857	1	749.5	0.9	1064.77777777778	0.9	676	0.7	1137.28571428571	0.7	1178.14285714286	0.9	773.555555555556	0.9	851.555555555556	13	339521	2	339509	27	40	339548	-999999	339524	0	42	Fix15secPROC	""	2	2	93	SessionSelectionList																																															6	324514	-7	0							93												
