ExperimentName	HCPID	RunNumber	Subject	Session	RandomSeed	Group	Laptop.RefreshRate	ScannerD2.RefreshRate	StudioVersion	RuntimeVersion	RuntimeVersionExpected	ExperimentVersion	triggercode	Allowed	Target	Nontarget	FontStyle	RunTrialNumber[Session]	TrialsPerRun[Session]	TotalRespGreater200[Session]	ConsecRTLess200[Session]	ConsecNonResp[Session]	StimuliDir	ACC_2_Back_Body	Avg_RT_For_Correct_Trials_2_Back_Body	ACC_0_Back_Body	Avg_RT_For_Correct_Trials_0_Back_Body	ACC_2_Back_Face	Avg_RT_For_Correct_Trials_2_Back_Face	ACC_0_Back_Face	Avg_RT_For_Correct_Trials_0_Back_Face	ACC_2_Back_Place	Avg_RT_For_Correct_Trials_2_Back_Place	ACC_0_Back_Place	Avg_RT_For_Correct_Trials_0_Back_Place	ACC_2_Back_Tools	Avg_RT_For_Correct_Trials_2_Back_Tools	ACC_0_Back_Tools	Avg_RT_For_Correct_Trials_0_Back_Tools	ExpInstrucFeelFreeToRest.OnsetDelay	ExpInstrucFeelFreeToRest.OnsetTime	ExpInstrucFeelFreeToRest.DurationError	ExpInstrucFeelFreeToRest.StartTime	ExpInstrucFeelFreeToRest.OnsetToOnsetTime	FeelFreeToRest.OnsetDelay	FeelFreeToRest.OnsetTime	FeelFreeToRest.DurationError	FeelFreeToRest.StartTime	FeelFreeToRest.OnsetToOnsetTime	SessionSelectionList	Procedure[Block]	Stimulus[Block]	RunNumberFilterValue	SessionSelectionList.Cycle	SessionSelectionList.Sample	Running[Block]	IntroButtonMap.OnsetDelay	IntroButtonMap.OnsetTime	IntroButtonMap.DurationError	IntroButtonMap.OnsetToOnsetTime	GetReady.OnsetDelay	GetReady.OnsetTime	GetReady.DurationError	GetReady.OnsetToOnsetTime	Cue2Back.OnsetDelay	Cue2Back.OnsetTime	Cue2Back.DurationError	Cue2Back.OnsetToOnsetTime	Run1Block1	TargetType	CorrectResponse	StimType	BlockType	RunTrialNumber[Block]	TrialsPerRun[Block]	TotalRespGreater200[Block]	ConsecRTLess200[Block]	ConsecNonResp[Block]	ControlAcc	ConsecSameResp	ExperimenterWindow.OnsetDelay	ExperimenterWindow.OnsetTime	ExperimenterWindow.DurationError	ExperimenterWindow.OnsetToOnsetTime	Stim.OnsetDelay	Stim.OnsetTime	Stim.DurationError	Stim.RTTime	Stim.ACC	Stim.RT	Stim.RESP	Stim.CRESP	Stim.OnsetToOnsetTime	Fix.OnsetDelay	Fix.OnsetTime	Fix.DurationError	Fix.OnsetToOnsetTime	CueTarget.OnsetDelay	CueTarget.OnsetTime	CueTarget.DurationError	CueTarget.OnsetToOnsetTime	Run1Block2	Fix15sec.OnsetDelay	Fix15sec.OnsetTime	Fix15sec.DurationError	Fix15sec.OnsetToOnsetTime	Run1Block3	Run1Block4	Run1Block5	Run1Block6	Run1Block7	Run1Block8	Block	Procedure[Trial]	Stimulus[Trial]	ReadyList	Running[Trial]	ReadyList.Cycle	ReadyList.Sample	SyncSlide.OnsetDelay	SyncSlide.OnsetTime	SyncSlide.DurationError	SyncSlide.FinishTime	SyncSlide.OnsetToOnsetTime	Trial
WM080112	103414_fnca	1	1	1	626343861	1	75.032	75.031	2.0.10.147	2.0.10.242	2.0.10.242	1.0.0.439	7	234	2	3	Verdana	1	80	0	0	0	WM Stimuli\	0.6	984.833333333333	1	883.4	0.9	940.111111111111	1	777.1	0.9	1117.11111111111	1	771.9	0.6	844.833333333333	0.9	816.333333333333	13	379387	2	379375	27	40	379414	-999999	379390	0	1	TRSyncPROC	""	1	2	1	SessionSelectionList	102	18644	-999999	0	29	70849	-999999	0																																																	1	InitialTR	4	1	ReadyList	1	1	18	86282	-19	88263	0	1
WM080112	103414_fnca	1	1	1	626343861	1	75.032	75.031	2.0.10.147	2.0.10.242	2.0.10.242	1.0.0.439	7	234	2	3	Verdana	1	80	0	0	0	WM Stimuli\	0.6	984.833333333333	1	883.4	0.9	940.111111111111	1	777.1	0.9	1117.11111111111	1	771.9	0.6	844.833333333333	0.9	816.333333333333	13	379387	2	379375	27	40	379414	-999999	379390	0	1	TRSyncPROC	""	1	2	1	SessionSelectionList	102	18644	-999999	0	29	70849	-999999	0																																																	1	InitialTR	3	2	ReadyList	1	2	17	88281	-18	90263	0	2
WM080112	103414_fnca	1	1	1	626343861	1	75.032	75.031	2.0.10.147	2.0.10.242	2.0.10.242	1.0.0.439	7	234	2	3	Verdana	1	80	0	0	0	WM Stimuli\	0.6	984.833333333333	1	883.4	0.9	940.111111111111	1	777.1	0.9	1117.11111111111	1	771.9	0.6	844.833333333333	0.9	816.333333333333	13	379387	2	379375	27	40	379414	-999999	379390	0	1	TRSyncPROC	""	1	2	1	SessionSelectionList	102	18644	-999999	0	29	70849	-999999	0																																																	1	InitialTR	2	3	ReadyList	1	3	3	90267	-4	92263	0	3
WM080112	103414_fnca	1	1	1	626343861	1	75.032	75.031	2.0.10.147	2.0.10.242	2.0.10.242	1.0.0.439	7	234	2	3	Verdana	1	80	0	0	0	WM Stimuli\	0.6	984.833333333333	1	883.4	0.9	940.111111111111	1	777.1	0.9	1117.11111111111	1	771.9	0.6	844.833333333333	0.9	816.333333333333	13	379387	2	379375	27	40	379414	-999999	379390	0	1	TRSyncPROC	""	1	2	1	SessionSelectionList	102	18644	-999999	0	29	70849	-999999	0																																																	1	InitialTR	1	4	ReadyList	1	4	16	92280	-17	94263	0	4
WM080112	103414_fnca	1	1	1	626343861	1	75.032	75.031	2.0.10.147	2.0.10.242	2.0.10.242	1.0.0.439	7	234	2	3	Verdana	1	80	0	0	0	WM Stimuli\	0.6	984.833333333333	1	883.4	0.9	940.111111111111	1	777.1	0.9	1117.11111111111	1	771.9	0.6	844.833333333333	0.9	816.333333333333	13	379387	2	379375	27	40	379414	-999999	379390	0	2	Cue2BackPROC	""	1	2	2	SessionSelectionList									15	94279	-16	0																																													2												
WM080112	103414_fnca	1	1	1	626343861	1	75.032	75.031	2.0.10.147	2.0.10.242	2.0.10.242	1.0.0.439	7	234	2	3	Verdana	1	80	0	0	0	WM Stimuli\	0.6	984.833333333333	1	883.4	0.9	940.111111111111	1	777.1	0.9	1117.11111111111	1	771.9	0.6	844.833333333333	0.9	816.333333333333	13	379387	2	379375	27	40	379414	-999999	379390	0	3	TrialsPROC	BP_002_BP10_BA.png	1	2	3	SessionSelectionList													1	nonlure	3	Body	2-Back	2	80	1	0	0	0	1	52	98890	3	14	74	96838	-1	97582	1	744	3	3	2052	66	98904	-67	0																3												
WM080112	103414_fnca	1	1	1	626343861	1	75.032	75.031	2.0.10.147	2.0.10.242	2.0.10.242	1.0.0.439	7	234	2	3	Verdana	1	80	0	0	0	WM Stimuli\	0.6	984.833333333333	1	883.4	0.9	940.111111111111	1	777.1	0.9	1117.11111111111	1	771.9	0.6	844.833333333333	0.9	816.333333333333	13	379387	2	379375	27	40	379414	-999999	379390	0	3	TrialsPROC	BP_001_BP1_BA.png	1	2	4	SessionSelectionList													2	nonlure	3	Body	2-Back	3	80	2	0	0	0	2	39	101449	3	14	72	99410	-1	100011	1	601	3	3	2039	53	101463	-54	0																4												
WM080112	103414_fnca	1	1	1	626343861	1	75.032	75.031	2.0.10.147	2.0.10.242	2.0.10.242	1.0.0.439	7	234	2	3	Verdana	1	80	0	0	0	WM Stimuli\	0.6	984.833333333333	1	883.4	0.9	940.111111111111	1	777.1	0.9	1117.11111111111	1	771.9	0.6	844.833333333333	0.9	816.333333333333	13	379387	2	379375	27	40	379414	-999999	379390	0	3	TrialsPROC	BP_006_BP2_BA.png	1	2	5	SessionSelectionList													3	nonlure	3	Body	2-Back	4	80	3	0	0	0	1	39	104008	2	14	59	101969	-1	103007	0	1038	2	3	2039	53	104022	-54	0																5												
WM080112	103414_fnca	1	1	1	626343861	1	75.032	75.031	2.0.10.147	2.0.10.242	2.0.10.242	1.0.0.439	7	234	2	3	Verdana	1	80	0	0	0	WM Stimuli\	0.6	984.833333333333	1	883.4	0.9	940.111111111111	1	777.1	0.9	1117.11111111111	1	771.9	0.6	844.833333333333	0.9	816.333333333333	13	379387	2	379375	27	40	379414	-999999	379390	0	3	TrialsPROC	BP_001_BP1_BA.png	1	2	6	SessionSelectionList													4	target	2	Body	2-Back	5	80	4	0	0	0	1	39	106580	2	14	72	104541	-1	105272	0	731	3	2	2039	53	106594	-54	0																6												
WM080112	103414_fnca	1	1	1	626343861	1	75.032	75.031	2.0.10.147	2.0.10.242	2.0.10.242	1.0.0.439	7	234	2	3	Verdana	1	80	0	0	0	WM Stimuli\	0.6	984.833333333333	1	883.4	0.9	940.111111111111	1	777.1	0.9	1117.11111111111	1	771.9	0.6	844.833333333333	0.9	816.333333333333	13	379387	2	379375	27	40	379414	-999999	379390	0	3	TrialsPROC	BP_005_BP19_BA.png	1	2	7	SessionSelectionList													5	nonlure	3	Body	2-Back	6	80	5	0	0	0	2	39	109139	2	14	59	107100	-1	108350	1	1250	3	3	2039	53	109153	-54	0																7												
WM080112	103414_fnca	1	1	1	626343861	1	75.032	75.031	2.0.10.147	2.0.10.242	2.0.10.242	1.0.0.439	7	234	2	3	Verdana	1	80	0	0	0	WM Stimuli\	0.6	984.833333333333	1	883.4	0.9	940.111111111111	1	777.1	0.9	1117.11111111111	1	771.9	0.6	844.833333333333	0.9	816.333333333333	13	379387	2	379375	27	40	379414	-999999	379390	0	3	TrialsPROC	BP_003_BP16_BA.png	1	2	8	SessionSelectionList													6	nonlure	3	Body	2-Back	7	80	6	0	0	0	3	39	111698	2	14	59	109659	-1	110837	1	1178	3	3	2039	53	111712	-54	0																8												
WM080112	103414_fnca	1	1	1	626343861	1	75.032	75.031	2.0.10.147	2.0.10.242	2.0.10.242	1.0.0.439	7	234	2	3	Verdana	1	80	0	0	0	WM Stimuli\	0.6	984.833333333333	1	883.4	0.9	940.111111111111	1	777.1	0.9	1117.11111111111	1	771.9	0.6	844.833333333333	0.9	816.333333333333	13	379387	2	379375	27	40	379414	-999999	379390	0	3	TrialsPROC	BP_006_BP2_BA.png	1	2	9	SessionSelectionList													7	lure	3	Body	2-Back	8	80	7	0	0	0	1	39	114257	2	14	59	112218	-1	113614	0	1396	2	3	2039	53	114271	-54	0																9												
WM080112	103414_fnca	1	1	1	626343861	1	75.032	75.031	2.0.10.147	2.0.10.242	2.0.10.242	1.0.0.439	7	234	2	3	Verdana	1	80	0	0	0	WM Stimuli\	0.6	984.833333333333	1	883.4	0.9	940.111111111111	1	777.1	0.9	1117.11111111111	1	771.9	0.6	844.833333333333	0.9	816.333333333333	13	379387	2	379375	27	40	379414	-999999	379390	0	3	TrialsPROC	BP_004_BP18_BA.png	1	2	10	SessionSelectionList													8	nonlure	3	Body	2-Back	9	80	8	0	0	0	1	39	116816	2	14	59	114777	-1	116115	1	1338	3	3	2039	53	116830	-54	0																10												
WM080112	103414_fnca	1	1	1	626343861	1	75.032	75.031	2.0.10.147	2.0.10.242	2.0.10.242	1.0.0.439	7	234	2	3	Verdana	1	80	0	0	0	WM Stimuli\	0.6	984.833333333333	1	883.4	0.9	940.111111111111	1	777.1	0.9	1117.11111111111	1	771.9	0.6	844.833333333333	0.9	816.333333333333	13	379387	2	379375	27	40	379414	-999999	379390	0	3	TrialsPROC	BP_005_BP19_BA.png	1	2	11	SessionSelectionList													9	lure	3	Body	2-Back	10	80	9	0	0	0	1	39	119375	2	14	59	117336	-1	118730	0	1394	2	3	2039	53	119389	-54	0																11												
WM080112	103414_fnca	1	1	1	626343861	1	75.032	75.031	2.0.10.147	2.0.10.242	2.0.10.242	1.0.0.439	7	234	2	3	Verdana	1	80	0	0	0	WM Stimuli\	0.6	984.833333333333	1	883.4	0.9	940.111111111111	1	777.1	0.9	1117.11111111111	1	771.9	0.6	844.833333333333	0.9	816.333333333333	13	379387	2	379375	27	40	379414	-999999	379390	0	3	TrialsPROC	BP_004_BP18_BA.png	1	2	12	SessionSelectionList													10	target	2	Body	2-Back	11	80	10	0	0	0	2	39	121934	1	14	59	119895	-1	120693	1	798	2	2	2039	53	121948	-54	0																12												
WM080112	103414_fnca	1	1	1	626343861	1	75.032	75.031	2.0.10.147	2.0.10.242	2.0.10.242	1.0.0.439	7	234	2	3	Verdana	1	80	0	0	0	WM Stimuli\	0.6	984.833333333333	1	883.4	0.9	940.111111111111	1	777.1	0.9	1117.11111111111	1	771.9	0.6	844.833333333333	0.9	816.333333333333	13	379387	2	379375	27	40	379414	-999999	379390	0	4	Cue0BackPROC	FC_001_M1.png	1	2	13	SessionSelectionList																																										19	122414	-20	0												13												
WM080112	103414_fnca	1	1	1	626343861	1	75.032	75.031	2.0.10.147	2.0.10.242	2.0.10.242	1.0.0.439	7	234	2	3	Verdana	1	80	0	0	0	WM Stimuli\	0.6	984.833333333333	1	883.4	0.9	940.111111111111	1	777.1	0.9	1117.11111111111	1	771.9	0.6	844.833333333333	0.9	816.333333333333	13	379387	2	379375	27	40	379414	-999999	379390	0	5	TrialsPROC	FC_005_M3.png	1	2	14	SessionSelectionList														nonlure	3	Face	0-Back	12	80	11	0	0	100	1	40	126999	1	13	64	124959	-1	125815	1	856	3	3	2040	53	127012	-54	0					1											14												
WM080112	103414_fnca	1	1	1	626343861	1	75.032	75.031	2.0.10.147	2.0.10.242	2.0.10.242	1.0.0.439	7	234	2	3	Verdana	1	80	0	0	0	WM Stimuli\	0.6	984.833333333333	1	883.4	0.9	940.111111111111	1	777.1	0.9	1117.11111111111	1	771.9	0.6	844.833333333333	0.9	816.333333333333	13	379387	2	379375	27	40	379414	-999999	379390	0	5	TrialsPROC	FC_001_M1.png	1	2	15	SessionSelectionList														target	2	Face	0-Back	13	80	12	0	0	100	1	39	129571	1	13	73	127532	-1	128321	1	789	2	2	2039	52	129584	-53	0					2											15												
WM080112	103414_fnca	1	1	1	626343861	1	75.032	75.031	2.0.10.147	2.0.10.242	2.0.10.242	1.0.0.439	7	234	2	3	Verdana	1	80	0	0	0	WM Stimuli\	0.6	984.833333333333	1	883.4	0.9	940.111111111111	1	777.1	0.9	1117.11111111111	1	771.9	0.6	844.833333333333	0.9	816.333333333333	13	379387	2	379375	27	40	379414	-999999	379390	0	5	TrialsPROC	FC_003_M2.png	1	2	16	SessionSelectionList														nonlure	3	Face	0-Back	14	80	13	0	0	100	1	39	132143	2	14	72	130104	-1	131002	1	898	3	3	2039	53	132157	-54	0					3											16												
WM080112	103414_fnca	1	1	1	626343861	1	75.032	75.031	2.0.10.147	2.0.10.242	2.0.10.242	1.0.0.439	7	234	2	3	Verdana	1	80	0	0	0	WM Stimuli\	0.6	984.833333333333	1	883.4	0.9	940.111111111111	1	777.1	0.9	1117.11111111111	1	771.9	0.6	844.833333333333	0.9	816.333333333333	13	379387	2	379375	27	40	379414	-999999	379390	0	5	TrialsPROC	FC_004_F2.png	1	2	17	SessionSelectionList														nonlure	3	Face	0-Back	15	80	14	0	0	100	2	39	134715	2	14	72	132676	-1	133256	1	580	3	3	2039	53	134729	-54	0					4											17												
WM080112	103414_fnca	1	1	1	626343861	1	75.032	75.031	2.0.10.147	2.0.10.242	2.0.10.242	1.0.0.439	7	234	2	3	Verdana	1	80	0	0	0	WM Stimuli\	0.6	984.833333333333	1	883.4	0.9	940.111111111111	1	777.1	0.9	1117.11111111111	1	771.9	0.6	844.833333333333	0.9	816.333333333333	13	379387	2	379375	27	40	379414	-999999	379390	0	5	TrialsPROC	FC_004_F2.png	1	2	18	SessionSelectionList														lure	3	Face	0-Back	16	80	15	0	0	100	3	39	137288	1	13	73	135249	-1	136079	1	830	3	3	2039	52	137301	-53	0					5											18												
WM080112	103414_fnca	1	1	1	626343861	1	75.032	75.031	2.0.10.147	2.0.10.242	2.0.10.242	1.0.0.439	7	234	2	3	Verdana	1	80	0	0	0	WM Stimuli\	0.6	984.833333333333	1	883.4	0.9	940.111111111111	1	777.1	0.9	1117.11111111111	1	771.9	0.6	844.833333333333	0.9	816.333333333333	13	379387	2	379375	27	40	379414	-999999	379390	0	5	TrialsPROC	FC_001_M1.png	1	2	19	SessionSelectionList														target	2	Face	0-Back	17	80	16	0	0	100	1	39	139860	1	13	72	137821	-1	138668	1	847	2	2	2039	52	139873	-53	0					6											19												
WM080112	103414_fnca	1	1	1	626343861	1	75.032	75.031	2.0.10.147	2.0.10.242	2.0.10.242	1.0.0.439	7	234	2	3	Verdana	1	80	0	0	0	WM Stimuli\	0.6	984.833333333333	1	883.4	0.9	940.111111111111	1	777.1	0.9	1117.11111111111	1	771.9	0.6	844.833333333333	0.9	816.333333333333	13	379387	2	379375	27	40	379414	-999999	379390	0	5	TrialsPROC	FC_006_F3.png	1	2	20	SessionSelectionList														nonlure	3	Face	0-Back	18	80	17	0	0	100	1	39	142432	2	14	72	140393	-1	141059	1	666	3	3	2039	53	142446	-54	0					7											20												
WM080112	103414_fnca	1	1	1	626343861	1	75.032	75.031	2.0.10.147	2.0.10.242	2.0.10.242	1.0.0.439	7	234	2	3	Verdana	1	80	0	0	0	WM Stimuli\	0.6	984.833333333333	1	883.4	0.9	940.111111111111	1	777.1	0.9	1117.11111111111	1	771.9	0.6	844.833333333333	0.9	816.333333333333	13	379387	2	379375	27	40	379414	-999999	379390	0	5	TrialsPROC	FC_006_F3.png	1	2	21	SessionSelectionList														lure	3	Face	0-Back	19	80	18	0	0	100	2	39	145004	2	14	72	142965	-1	143642	1	677	3	3	2039	53	145018	-54	0					8											21												
WM080112	103414_fnca	1	1	1	626343861	1	75.032	75.031	2.0.10.147	2.0.10.242	2.0.10.242	1.0.0.439	7	234	2	3	Verdana	1	80	0	0	0	WM Stimuli\	0.6	984.833333333333	1	883.4	0.9	940.111111111111	1	777.1	0.9	1117.11111111111	1	771.9	0.6	844.833333333333	0.9	816.333333333333	13	379387	2	379375	27	40	379414	-999999	379390	0	5	TrialsPROC	FC_003_M2.png	1	2	22	SessionSelectionList														lure	3	Face	0-Back	20	80	19	0	0	100	3	39	147577	1	13	73	145538	-1	146497	1	959	3	3	2039	52	147590	-53	0					9											22												
WM080112	103414_fnca	1	1	1	626343861	1	75.032	75.031	2.0.10.147	2.0.10.242	2.0.10.242	1.0.0.439	7	234	2	3	Verdana	1	80	0	0	0	WM Stimuli\	0.6	984.833333333333	1	883.4	0.9	940.111111111111	1	777.1	0.9	1117.11111111111	1	771.9	0.6	844.833333333333	0.9	816.333333333333	13	379387	2	379375	27	40	379414	-999999	379390	0	5	TrialsPROC	FC_002_F1.png	1	2	23	SessionSelectionList														nonlure	3	Face	0-Back	21	80	20	0	0	100	4	39	150149	1	13	72	148110	-1	148779	1	669	3	3	2039	52	150162	-53	0					10											23												
WM080112	103414_fnca	1	1	1	626343861	1	75.032	75.031	2.0.10.147	2.0.10.242	2.0.10.242	1.0.0.439	7	234	2	3	Verdana	1	80	0	0	0	WM Stimuli\	0.6	984.833333333333	1	883.4	0.9	940.111111111111	1	777.1	0.9	1117.11111111111	1	771.9	0.6	844.833333333333	0.9	816.333333333333	13	379387	2	379375	27	40	379414	-999999	379390	0	6	Fix15secPROC	""	1	2	24	SessionSelectionList																																															6	150616	-7	0							24												
WM080112	103414_fnca	1	1	1	626343861	1	75.032	75.031	2.0.10.147	2.0.10.242	2.0.10.242	1.0.0.439	7	234	2	3	Verdana	1	80	0	0	0	WM Stimuli\	0.6	984.833333333333	1	883.4	0.9	940.111111111111	1	777.1	0.9	1117.11111111111	1	771.9	0.6	844.833333333333	0.9	816.333333333333	13	379387	2	379375	27	40	379414	-999999	379390	0	7	Cue2BackPROC	""	1	2	25	SessionSelectionList									13	165623	-14	0																																													25												
WM080112	103414_fnca	1	1	1	626343861	1	75.032	75.031	2.0.10.147	2.0.10.242	2.0.10.242	1.0.0.439	7	234	2	3	Verdana	1	80	0	0	0	WM Stimuli\	0.6	984.833333333333	1	883.4	0.9	940.111111111111	1	777.1	0.9	1117.11111111111	1	771.9	0.6	844.833333333333	0.9	816.333333333333	13	379387	2	379375	27	40	379414	-999999	379390	0	8	TrialsPROC	TO_001_TOOL1_BA.png	1	2	26	SessionSelectionList														nonlure	3	Tools	2-Back	22	80	20	0	1	100	4	39	170207	2	14	58	168168	-1	0	0	0	""	3	2039	53	170221	-54	0										1						26												
WM080112	103414_fnca	1	1	1	626343861	1	75.032	75.031	2.0.10.147	2.0.10.242	2.0.10.242	1.0.0.439	7	234	2	3	Verdana	1	80	0	0	0	WM Stimuli\	0.6	984.833333333333	1	883.4	0.9	940.111111111111	1	777.1	0.9	1117.11111111111	1	771.9	0.6	844.833333333333	0.9	816.333333333333	13	379387	2	379375	27	40	379414	-999999	379390	0	8	TrialsPROC	TO_002_TOOL2_BA.png	1	2	27	SessionSelectionList														nonlure	3	Tools	2-Back	23	80	21	0	0	100	1	39	172766	2	14	59	170727	-1	171891	1	1164	3	3	2039	53	172780	-54	0										2						27												
WM080112	103414_fnca	1	1	1	626343861	1	75.032	75.031	2.0.10.147	2.0.10.242	2.0.10.242	1.0.0.439	7	234	2	3	Verdana	1	80	0	0	0	WM Stimuli\	0.6	984.833333333333	1	883.4	0.9	940.111111111111	1	777.1	0.9	1117.11111111111	1	771.9	0.6	844.833333333333	0.9	816.333333333333	13	379387	2	379375	27	40	379414	-999999	379390	0	8	TrialsPROC	TO_004_TOOL4_BA.png	1	2	28	SessionSelectionList														nonlure	3	Tools	2-Back	24	80	22	0	0	100	1	39	175325	2	14	59	173286	-1	174673	0	1387	2	3	2039	53	175339	-54	0										3						28												
WM080112	103414_fnca	1	1	1	626343861	1	75.032	75.031	2.0.10.147	2.0.10.242	2.0.10.242	1.0.0.439	7	234	2	3	Verdana	1	80	0	0	0	WM Stimuli\	0.6	984.833333333333	1	883.4	0.9	940.111111111111	1	777.1	0.9	1117.11111111111	1	771.9	0.6	844.833333333333	0.9	816.333333333333	13	379387	2	379375	27	40	379414	-999999	379390	0	8	TrialsPROC	TO_002_TOOL2_BA.png	1	2	29	SessionSelectionList														target	2	Tools	2-Back	25	80	23	0	0	100	2	39	177884	1	14	59	175845	-1	176938	1	1093	2	2	2039	53	177898	-54	0										4						29												
WM080112	103414_fnca	1	1	1	626343861	1	75.032	75.031	2.0.10.147	2.0.10.242	2.0.10.242	1.0.0.439	7	234	2	3	Verdana	1	80	0	0	0	WM Stimuli\	0.6	984.833333333333	1	883.4	0.9	940.111111111111	1	777.1	0.9	1117.11111111111	1	771.9	0.6	844.833333333333	0.9	816.333333333333	13	379387	2	379375	27	40	379414	-999999	379390	0	8	TrialsPROC	TO_001_TOOL1_BA.png	1	2	30	SessionSelectionList														lure	3	Tools	2-Back	26	80	24	0	0	100	3	39	180443	2	13	59	178404	-1	180246	0	1842	2	3	2039	52	180456	-53	0										5						30												
WM080112	103414_fnca	1	1	1	626343861	1	75.032	75.031	2.0.10.147	2.0.10.242	2.0.10.242	1.0.0.439	7	234	2	3	Verdana	1	80	0	0	0	WM Stimuli\	0.6	984.833333333333	1	883.4	0.9	940.111111111111	1	777.1	0.9	1117.11111111111	1	771.9	0.6	844.833333333333	0.9	816.333333333333	13	379387	2	379375	27	40	379414	-999999	379390	0	8	TrialsPROC	TO_004_TOOL4_BA.png	1	2	31	SessionSelectionList														lure	3	Tools	2-Back	27	80	25	0	0	100	4	39	183002	1	13	59	180963	-1	182376	0	1413	2	3	2039	52	183015	-53	0										6						31												
WM080112	103414_fnca	1	1	1	626343861	1	75.032	75.031	2.0.10.147	2.0.10.242	2.0.10.242	1.0.0.439	7	234	2	3	Verdana	1	80	0	0	0	WM Stimuli\	0.6	984.833333333333	1	883.4	0.9	940.111111111111	1	777.1	0.9	1117.11111111111	1	771.9	0.6	844.833333333333	0.9	816.333333333333	13	379387	2	379375	27	40	379414	-999999	379390	0	8	TrialsPROC	TO_006_TOOL6_BA.png	1	2	32	SessionSelectionList														nonlure	3	Tools	2-Back	28	80	26	0	0	100	1	39	185561	1	13	59	183522	-1	184420	1	898	3	3	2039	52	185574	-53	0										7						32												
WM080112	103414_fnca	1	1	1	626343861	1	75.032	75.031	2.0.10.147	2.0.10.242	2.0.10.242	1.0.0.439	7	234	2	3	Verdana	1	80	0	0	0	WM Stimuli\	0.6	984.833333333333	1	883.4	0.9	940.111111111111	1	777.1	0.9	1117.11111111111	1	771.9	0.6	844.833333333333	0.9	816.333333333333	13	379387	2	379375	27	40	379414	-999999	379390	0	8	TrialsPROC	TO_005_TOOL5_BA.png	1	2	33	SessionSelectionList														nonlure	3	Tools	2-Back	29	80	27	0	0	100	2	39	188120	1	13	59	186081	-1	186818	1	737	3	3	2039	52	188133	-53	0										8						33												
WM080112	103414_fnca	1	1	1	626343861	1	75.032	75.031	2.0.10.147	2.0.10.242	2.0.10.242	1.0.0.439	7	234	2	3	Verdana	1	80	0	0	0	WM Stimuli\	0.6	984.833333333333	1	883.4	0.9	940.111111111111	1	777.1	0.9	1117.11111111111	1	771.9	0.6	844.833333333333	0.9	816.333333333333	13	379387	2	379375	27	40	379414	-999999	379390	0	8	TrialsPROC	TO_006_TOOL6_BA.png	1	2	34	SessionSelectionList														target	2	Tools	2-Back	30	80	28	0	0	100	1	39	190679	1	13	59	188640	-1	189199	1	559	2	2	2039	52	190692	-53	0										9						34												
WM080112	103414_fnca	1	1	1	626343861	1	75.032	75.031	2.0.10.147	2.0.10.242	2.0.10.242	1.0.0.439	7	234	2	3	Verdana	1	80	0	0	0	WM Stimuli\	0.6	984.833333333333	1	883.4	0.9	940.111111111111	1	777.1	0.9	1117.11111111111	1	771.9	0.6	844.833333333333	0.9	816.333333333333	13	379387	2	379375	27	40	379414	-999999	379390	0	8	TrialsPROC	TO_003_TOOL3_BA.png	1	2	35	SessionSelectionList														nonlure	3	Tools	2-Back	31	80	29	0	0	100	1	39	193238	1	13	59	191199	-1	191817	1	618	3	3	2039	52	193251	-53	0										10						35												
WM080112	103414_fnca	1	1	1	626343861	1	75.032	75.031	2.0.10.147	2.0.10.242	2.0.10.242	1.0.0.439	7	234	2	3	Verdana	1	80	0	0	0	WM Stimuli\	0.6	984.833333333333	1	883.4	0.9	940.111111111111	1	777.1	0.9	1117.11111111111	1	771.9	0.6	844.833333333333	0.9	816.333333333333	13	379387	2	379375	27	40	379414	-999999	379390	0	9	Cue0BackPROC	BP_007_BP20_BA.png	1	2	36	SessionSelectionList																																										19	193718	-20	0												36												
WM080112	103414_fnca	1	1	1	626343861	1	75.032	75.031	2.0.10.147	2.0.10.242	2.0.10.242	1.0.0.439	7	234	2	3	Verdana	1	80	0	0	0	WM Stimuli\	0.6	984.833333333333	1	883.4	0.9	940.111111111111	1	777.1	0.9	1117.11111111111	1	771.9	0.6	844.833333333333	0.9	816.333333333333	13	379387	2	379375	27	40	379414	-999999	379390	0	10	TrialsPROC	BP_007_BP20_BA.png	1	2	37	SessionSelectionList														target	2	Body	0-Back	32	80	30	0	0	100	1	39	198289	1	13	51	196250	-1	197133	1	883	2	2	2039	52	198302	-53	0											1					37												
WM080112	103414_fnca	1	1	1	626343861	1	75.032	75.031	2.0.10.147	2.0.10.242	2.0.10.242	1.0.0.439	7	234	2	3	Verdana	1	80	0	0	0	WM Stimuli\	0.6	984.833333333333	1	883.4	0.9	940.111111111111	1	777.1	0.9	1117.11111111111	1	771.9	0.6	844.833333333333	0.9	816.333333333333	13	379387	2	379375	27	40	379414	-999999	379390	0	10	TrialsPROC	BP_011_BP4_BA.png	1	2	38	SessionSelectionList														nonlure	3	Body	0-Back	33	80	31	0	0	100	1	39	200848	1	13	59	198809	-1	199579	1	770	3	3	2039	52	200861	-53	0											2					38												
WM080112	103414_fnca	1	1	1	626343861	1	75.032	75.031	2.0.10.147	2.0.10.242	2.0.10.242	1.0.0.439	7	234	2	3	Verdana	1	80	0	0	0	WM Stimuli\	0.6	984.833333333333	1	883.4	0.9	940.111111111111	1	777.1	0.9	1117.11111111111	1	771.9	0.6	844.833333333333	0.9	816.333333333333	13	379387	2	379375	27	40	379414	-999999	379390	0	10	TrialsPROC	BP_010_BP3_BA.png	1	2	39	SessionSelectionList														nonlure	3	Body	0-Back	34	80	32	0	0	100	2	39	203407	1	13	59	201368	-1	202396	1	1028	3	3	2039	52	203420	-53	0											3					39												
WM080112	103414_fnca	1	1	1	626343861	1	75.032	75.031	2.0.10.147	2.0.10.242	2.0.10.242	1.0.0.439	7	234	2	3	Verdana	1	80	0	0	0	WM Stimuli\	0.6	984.833333333333	1	883.4	0.9	940.111111111111	1	777.1	0.9	1117.11111111111	1	771.9	0.6	844.833333333333	0.9	816.333333333333	13	379387	2	379375	27	40	379414	-999999	379390	0	10	TrialsPROC	BP_008_BP21_BA.png	1	2	40	SessionSelectionList														nonlure	3	Body	0-Back	35	80	33	0	0	100	3	39	205966	1	13	59	203927	-1	205069	1	1142	3	3	2039	52	205979	-53	0											4					40												
WM080112	103414_fnca	1	1	1	626343861	1	75.032	75.031	2.0.10.147	2.0.10.242	2.0.10.242	1.0.0.439	7	234	2	3	Verdana	1	80	0	0	0	WM Stimuli\	0.6	984.833333333333	1	883.4	0.9	940.111111111111	1	777.1	0.9	1117.11111111111	1	771.9	0.6	844.833333333333	0.9	816.333333333333	13	379387	2	379375	27	40	379414	-999999	379390	0	10	TrialsPROC	BP_011_BP4_BA.png	1	2	41	SessionSelectionList														lure	3	Body	0-Back	36	80	34	0	0	100	4	39	208525	1	13	59	206486	-1	207314	1	828	3	3	2039	52	208538	-53	0											5					41												
WM080112	103414_fnca	1	1	1	626343861	1	75.032	75.031	2.0.10.147	2.0.10.242	2.0.10.242	1.0.0.439	7	234	2	3	Verdana	1	80	0	0	0	WM Stimuli\	0.6	984.833333333333	1	883.4	0.9	940.111111111111	1	777.1	0.9	1117.11111111111	1	771.9	0.6	844.833333333333	0.9	816.333333333333	13	379387	2	379375	27	40	379414	-999999	379390	0	10	TrialsPROC	BP_009_BP22_BA.png	1	2	42	SessionSelectionList														nonlure	3	Body	0-Back	37	80	35	0	0	100	5	40	211084	1	13	58	209044	-1	210145	1	1101	3	3	2040	53	211097	-54	0											6					42												
WM080112	103414_fnca	1	1	1	626343861	1	75.032	75.031	2.0.10.147	2.0.10.242	2.0.10.242	1.0.0.439	7	234	2	3	Verdana	1	80	0	0	0	WM Stimuli\	0.6	984.833333333333	1	883.4	0.9	940.111111111111	1	777.1	0.9	1117.11111111111	1	771.9	0.6	844.833333333333	0.9	816.333333333333	13	379387	2	379375	27	40	379414	-999999	379390	0	10	TrialsPROC	BP_009_BP22_BA.png	1	2	43	SessionSelectionList														lure	3	Body	0-Back	38	80	36	0	0	100	6	40	213643	1	13	59	211603	-1	212521	1	918	3	3	2040	53	213656	-54	0											7					43												
WM080112	103414_fnca	1	1	1	626343861	1	75.032	75.031	2.0.10.147	2.0.10.242	2.0.10.242	1.0.0.439	7	234	2	3	Verdana	1	80	0	0	0	WM Stimuli\	0.6	984.833333333333	1	883.4	0.9	940.111111111111	1	777.1	0.9	1117.11111111111	1	771.9	0.6	844.833333333333	0.9	816.333333333333	13	379387	2	379375	27	40	379414	-999999	379390	0	10	TrialsPROC	BP_008_BP21_BA.png	1	2	44	SessionSelectionList														lure	3	Body	0-Back	39	80	37	0	0	100	7	39	216201	2	14	59	214162	-1	214917	1	755	3	3	2039	53	216215	-54	0											8					44												
WM080112	103414_fnca	1	1	1	626343861	1	75.032	75.031	2.0.10.147	2.0.10.242	2.0.10.242	1.0.0.439	7	234	2	3	Verdana	1	80	0	0	0	WM Stimuli\	0.6	984.833333333333	1	883.4	0.9	940.111111111111	1	777.1	0.9	1117.11111111111	1	771.9	0.6	844.833333333333	0.9	816.333333333333	13	379387	2	379375	27	40	379414	-999999	379390	0	10	TrialsPROC	BP_007_BP20_BA.png	1	2	45	SessionSelectionList														target	2	Body	0-Back	40	80	38	0	0	100	1	39	218760	2	14	59	216721	-1	217455	1	734	2	2	2039	53	218774	-54	0											9					45												
WM080112	103414_fnca	1	1	1	626343861	1	75.032	75.031	2.0.10.147	2.0.10.242	2.0.10.242	1.0.0.439	7	234	2	3	Verdana	1	80	0	0	0	WM Stimuli\	0.6	984.833333333333	1	883.4	0.9	940.111111111111	1	777.1	0.9	1117.11111111111	1	771.9	0.6	844.833333333333	0.9	816.333333333333	13	379387	2	379375	27	40	379414	-999999	379390	0	10	TrialsPROC	BP_012_BP5_BA.png	1	2	46	SessionSelectionList														nonlure	3	Body	0-Back	41	80	39	0	0	100	1	39	221319	2	14	59	219280	-1	219955	1	675	3	3	2039	53	221333	-54	0											10					46												
WM080112	103414_fnca	1	1	1	626343861	1	75.032	75.031	2.0.10.147	2.0.10.242	2.0.10.242	1.0.0.439	7	234	2	3	Verdana	1	80	0	0	0	WM Stimuli\	0.6	984.833333333333	1	883.4	0.9	940.111111111111	1	777.1	0.9	1117.11111111111	1	771.9	0.6	844.833333333333	0.9	816.333333333333	13	379387	2	379375	27	40	379414	-999999	379390	0	11	Fix15secPROC	""	1	2	47	SessionSelectionList																																															6	221786	-7	0							47												
WM080112	103414_fnca	1	1	1	626343861	1	75.032	75.031	2.0.10.147	2.0.10.242	2.0.10.242	1.0.0.439	7	234	2	3	Verdana	1	80	0	0	0	WM Stimuli\	0.6	984.833333333333	1	883.4	0.9	940.111111111111	1	777.1	0.9	1117.11111111111	1	771.9	0.6	844.833333333333	0.9	816.333333333333	13	379387	2	379375	27	40	379414	-999999	379390	0	12	Cue0BackPROC	PL_001_92012.png	1	2	48	SessionSelectionList																																										13	236793	-14	0												48												
WM080112	103414_fnca	1	1	1	626343861	1	75.032	75.031	2.0.10.147	2.0.10.242	2.0.10.242	1.0.0.439	7	234	2	3	Verdana	1	80	0	0	0	WM Stimuli\	0.6	984.833333333333	1	883.4	0.9	940.111111111111	1	777.1	0.9	1117.11111111111	1	771.9	0.6	844.833333333333	0.9	816.333333333333	13	379387	2	379375	27	40	379414	-999999	379390	0	13	TrialsPROC	PL_003_92016.png	1	2	49	SessionSelectionList														nonlure	3	Place	0-Back	42	80	40	0	0	100	2	39	241378	1	13	59	239339	-1	240753	1	1414	3	3	2039	52	241391	-53	0												1				49												
WM080112	103414_fnca	1	1	1	626343861	1	75.032	75.031	2.0.10.147	2.0.10.242	2.0.10.242	1.0.0.439	7	234	2	3	Verdana	1	80	0	0	0	WM Stimuli\	0.6	984.833333333333	1	883.4	0.9	940.111111111111	1	777.1	0.9	1117.11111111111	1	771.9	0.6	844.833333333333	0.9	816.333333333333	13	379387	2	379375	27	40	379414	-999999	379390	0	13	TrialsPROC	PL_003_92016.png	1	2	50	SessionSelectionList														lure	3	Place	0-Back	43	80	41	0	0	100	3	40	243937	1	13	58	241897	-1	243102	1	1205	3	3	2040	53	243950	-54	0												2				50												
WM080112	103414_fnca	1	1	1	626343861	1	75.032	75.031	2.0.10.147	2.0.10.242	2.0.10.242	1.0.0.439	7	234	2	3	Verdana	1	80	0	0	0	WM Stimuli\	0.6	984.833333333333	1	883.4	0.9	940.111111111111	1	777.1	0.9	1117.11111111111	1	771.9	0.6	844.833333333333	0.9	816.333333333333	13	379387	2	379375	27	40	379414	-999999	379390	0	13	TrialsPROC	PL_006_92025.png	1	2	51	SessionSelectionList														nonlure	3	Place	0-Back	44	80	42	0	0	100	4	40	246496	1	13	59	244456	-1	245152	1	696	3	3	2040	53	246509	-54	0												3				51												
WM080112	103414_fnca	1	1	1	626343861	1	75.032	75.031	2.0.10.147	2.0.10.242	2.0.10.242	1.0.0.439	7	234	2	3	Verdana	1	80	0	0	0	WM Stimuli\	0.6	984.833333333333	1	883.4	0.9	940.111111111111	1	777.1	0.9	1117.11111111111	1	771.9	0.6	844.833333333333	0.9	816.333333333333	13	379387	2	379375	27	40	379414	-999999	379390	0	13	TrialsPROC	PL_001_92012.png	1	2	52	SessionSelectionList														target	2	Place	0-Back	45	80	43	0	0	100	1	39	249068	1	13	73	247029	-1	247636	1	607	2	2	2039	52	249081	-53	0												4				52												
WM080112	103414_fnca	1	1	1	626343861	1	75.032	75.031	2.0.10.147	2.0.10.242	2.0.10.242	1.0.0.439	7	234	2	3	Verdana	1	80	0	0	0	WM Stimuli\	0.6	984.833333333333	1	883.4	0.9	940.111111111111	1	777.1	0.9	1117.11111111111	1	771.9	0.6	844.833333333333	0.9	816.333333333333	13	379387	2	379375	27	40	379414	-999999	379390	0	13	TrialsPROC	PL_004_92023.png	1	2	53	SessionSelectionList														nonlure	3	Place	0-Back	46	80	44	0	0	100	1	39	251640	1	14	72	249601	-1	250158	1	557	3	3	2039	53	251654	-54	0												5				53												
WM080112	103414_fnca	1	1	1	626343861	1	75.032	75.031	2.0.10.147	2.0.10.242	2.0.10.242	1.0.0.439	7	234	2	3	Verdana	1	80	0	0	0	WM Stimuli\	0.6	984.833333333333	1	883.4	0.9	940.111111111111	1	777.1	0.9	1117.11111111111	1	771.9	0.6	844.833333333333	0.9	816.333333333333	13	379387	2	379375	27	40	379414	-999999	379390	0	13	TrialsPROC	PL_005_92024.png	1	2	54	SessionSelectionList														nonlure	3	Place	0-Back	47	80	45	0	0	100	2	39	254212	2	14	72	252173	-1	252960	1	787	3	3	2039	53	254226	-54	0												6				54												
WM080112	103414_fnca	1	1	1	626343861	1	75.032	75.031	2.0.10.147	2.0.10.242	2.0.10.242	1.0.0.439	7	234	2	3	Verdana	1	80	0	0	0	WM Stimuli\	0.6	984.833333333333	1	883.4	0.9	940.111111111111	1	777.1	0.9	1117.11111111111	1	771.9	0.6	844.833333333333	0.9	816.333333333333	13	379387	2	379375	27	40	379414	-999999	379390	0	13	TrialsPROC	PL_001_92012.png	1	2	55	SessionSelectionList														target	2	Place	0-Back	48	80	46	0	0	100	1	39	256771	2	14	59	254732	-1	255252	1	520	2	2	2039	53	256785	-54	0												7				55												
WM080112	103414_fnca	1	1	1	626343861	1	75.032	75.031	2.0.10.147	2.0.10.242	2.0.10.242	1.0.0.439	7	234	2	3	Verdana	1	80	0	0	0	WM Stimuli\	0.6	984.833333333333	1	883.4	0.9	940.111111111111	1	777.1	0.9	1117.11111111111	1	771.9	0.6	844.833333333333	0.9	816.333333333333	13	379387	2	379375	27	40	379414	-999999	379390	0	13	TrialsPROC	PL_002_92014.png	1	2	56	SessionSelectionList														nonlure	3	Place	0-Back	49	80	47	0	0	100	1	40	259344	1	13	72	257304	-1	257885	1	581	3	3	2040	53	259357	-54	0												8				56												
WM080112	103414_fnca	1	1	1	626343861	1	75.032	75.031	2.0.10.147	2.0.10.242	2.0.10.242	1.0.0.439	7	234	2	3	Verdana	1	80	0	0	0	WM Stimuli\	0.6	984.833333333333	1	883.4	0.9	940.111111111111	1	777.1	0.9	1117.11111111111	1	771.9	0.6	844.833333333333	0.9	816.333333333333	13	379387	2	379375	27	40	379414	-999999	379390	0	13	TrialsPROC	PL_004_92023.png	1	2	57	SessionSelectionList														lure	3	Place	0-Back	50	80	48	0	0	100	2	39	261916	1	13	73	259877	-1	260610	1	733	3	3	2039	52	261929	-53	0												9				57												
WM080112	103414_fnca	1	1	1	626343861	1	75.032	75.031	2.0.10.147	2.0.10.242	2.0.10.242	1.0.0.439	7	234	2	3	Verdana	1	80	0	0	0	WM Stimuli\	0.6	984.833333333333	1	883.4	0.9	940.111111111111	1	777.1	0.9	1117.11111111111	1	771.9	0.6	844.833333333333	0.9	816.333333333333	13	379387	2	379375	27	40	379414	-999999	379390	0	13	TrialsPROC	PL_006_92025.png	1	2	58	SessionSelectionList														lure	3	Place	0-Back	51	80	49	0	0	100	3	39	264488	1	14	72	262449	-1	263068	1	619	3	3	2039	53	264502	-54	0												10				58												
WM080112	103414_fnca	1	1	1	626343861	1	75.032	75.031	2.0.10.147	2.0.10.242	2.0.10.242	1.0.0.439	7	234	2	3	Verdana	1	80	0	0	0	WM Stimuli\	0.6	984.833333333333	1	883.4	0.9	940.111111111111	1	777.1	0.9	1117.11111111111	1	771.9	0.6	844.833333333333	0.9	816.333333333333	13	379387	2	379375	27	40	379414	-999999	379390	0	14	Cue2BackPROC	""	1	2	59	SessionSelectionList									6	264955	-7	0																																													59												
WM080112	103414_fnca	1	1	1	626343861	1	75.032	75.031	2.0.10.147	2.0.10.242	2.0.10.242	1.0.0.439	7	234	2	3	Verdana	1	80	0	0	0	WM Stimuli\	0.6	984.833333333333	1	883.4	0.9	940.111111111111	1	777.1	0.9	1117.11111111111	1	771.9	0.6	844.833333333333	0.9	816.333333333333	13	379387	2	379375	27	40	379414	-999999	379390	0	15	TrialsPROC	FC_010_F5.png	1	2	60	SessionSelectionList														nonlure	3	Face	2-Back	52	80	49	0	1	100	3	40	269553	1	13	64	267513	-1	0	0	0	""	3	2040	53	269566	-54	0													1			60												
WM080112	103414_fnca	1	1	1	626343861	1	75.032	75.031	2.0.10.147	2.0.10.242	2.0.10.242	1.0.0.439	7	234	2	3	Verdana	1	80	0	0	0	WM Stimuli\	0.6	984.833333333333	1	883.4	0.9	940.111111111111	1	777.1	0.9	1117.11111111111	1	771.9	0.6	844.833333333333	0.9	816.333333333333	13	379387	2	379375	27	40	379414	-999999	379390	0	15	TrialsPROC	FC_012_F6.png	1	2	61	SessionSelectionList														nonlure	3	Face	2-Back	53	80	50	0	0	100	1	39	272125	1	13	73	270086	-1	270709	1	623	3	3	2039	52	272138	-53	0													2			61												
WM080112	103414_fnca	1	1	1	626343861	1	75.032	75.031	2.0.10.147	2.0.10.242	2.0.10.242	1.0.0.439	7	234	2	3	Verdana	1	80	0	0	0	WM Stimuli\	0.6	984.833333333333	1	883.4	0.9	940.111111111111	1	777.1	0.9	1117.11111111111	1	771.9	0.6	844.833333333333	0.9	816.333333333333	13	379387	2	379375	27	40	379414	-999999	379390	0	15	TrialsPROC	FC_010_F5.png	1	2	62	SessionSelectionList														target	2	Face	2-Back	54	80	51	0	0	100	1	39	274697	2	14	72	272658	-1	273245	1	587	2	2	2039	53	274711	-54	0													3			62												
WM080112	103414_fnca	1	1	1	626343861	1	75.032	75.031	2.0.10.147	2.0.10.242	2.0.10.242	1.0.0.439	7	234	2	3	Verdana	1	80	0	0	0	WM Stimuli\	0.6	984.833333333333	1	883.4	0.9	940.111111111111	1	777.1	0.9	1117.11111111111	1	771.9	0.6	844.833333333333	0.9	816.333333333333	13	379387	2	379375	27	40	379414	-999999	379390	0	15	TrialsPROC	FC_008_F4.png	1	2	63	SessionSelectionList														nonlure	3	Face	2-Back	55	80	52	0	0	100	1	39	277269	2	14	72	275230	-1	276069	1	839	3	3	2039	53	277283	-54	0													4			63												
WM080112	103414_fnca	1	1	1	626343861	1	75.032	75.031	2.0.10.147	2.0.10.242	2.0.10.242	1.0.0.439	7	234	2	3	Verdana	1	80	0	0	0	WM Stimuli\	0.6	984.833333333333	1	883.4	0.9	940.111111111111	1	777.1	0.9	1117.11111111111	1	771.9	0.6	844.833333333333	0.9	816.333333333333	13	379387	2	379375	27	40	379414	-999999	379390	0	15	TrialsPROC	FC_012_F6.png	1	2	64	SessionSelectionList														lure	3	Face	2-Back	56	80	53	0	0	100	2	39	279842	1	13	73	277803	-1	278415	1	612	3	3	2039	52	279855	-53	0													5			64												
WM080112	103414_fnca	1	1	1	626343861	1	75.032	75.031	2.0.10.147	2.0.10.242	2.0.10.242	1.0.0.439	7	234	2	3	Verdana	1	80	0	0	0	WM Stimuli\	0.6	984.833333333333	1	883.4	0.9	940.111111111111	1	777.1	0.9	1117.11111111111	1	771.9	0.6	844.833333333333	0.9	816.333333333333	13	379387	2	379375	27	40	379414	-999999	379390	0	15	TrialsPROC	FC_008_F4.png	1	2	65	SessionSelectionList														target	2	Face	2-Back	57	80	54	0	0	100	1	39	282414	2	13	72	280375	-1	281418	1	1043	2	2	2039	52	282427	-53	0													6			65												
WM080112	103414_fnca	1	1	1	626343861	1	75.032	75.031	2.0.10.147	2.0.10.242	2.0.10.242	1.0.0.439	7	234	2	3	Verdana	1	80	0	0	0	WM Stimuli\	0.6	984.833333333333	1	883.4	0.9	940.111111111111	1	777.1	0.9	1117.11111111111	1	771.9	0.6	844.833333333333	0.9	816.333333333333	13	379387	2	379375	27	40	379414	-999999	379390	0	15	TrialsPROC	FC_007_M4.png	1	2	66	SessionSelectionList														nonlure	3	Face	2-Back	58	80	55	0	0	100	1	39	284986	2	14	72	282947	-1	284122	1	1175	3	3	2039	53	285000	-54	0													7			66												
WM080112	103414_fnca	1	1	1	626343861	1	75.032	75.031	2.0.10.147	2.0.10.242	2.0.10.242	1.0.0.439	7	234	2	3	Verdana	1	80	0	0	0	WM Stimuli\	0.6	984.833333333333	1	883.4	0.9	940.111111111111	1	777.1	0.9	1117.11111111111	1	771.9	0.6	844.833333333333	0.9	816.333333333333	13	379387	2	379375	27	40	379414	-999999	379390	0	15	TrialsPROC	FC_007_M4.png	1	2	67	SessionSelectionList														lure	3	Face	2-Back	59	80	56	0	0	100	2	39	287558	2	14	72	285519	-1	286542	1	1023	3	3	2039	53	287572	-54	0													8			67												
WM080112	103414_fnca	1	1	1	626343861	1	75.032	75.031	2.0.10.147	2.0.10.242	2.0.10.242	1.0.0.439	7	234	2	3	Verdana	1	80	0	0	0	WM Stimuli\	0.6	984.833333333333	1	883.4	0.9	940.111111111111	1	777.1	0.9	1117.11111111111	1	771.9	0.6	844.833333333333	0.9	816.333333333333	13	379387	2	379375	27	40	379414	-999999	379390	0	15	TrialsPROC	FC_009_M5.png	1	2	68	SessionSelectionList														nonlure	3	Face	2-Back	60	80	57	0	0	100	3	39	290131	1	13	73	288092	-1	289393	1	1301	3	3	2039	52	290144	-53	0													9			68												
WM080112	103414_fnca	1	1	1	626343861	1	75.032	75.031	2.0.10.147	2.0.10.242	2.0.10.242	1.0.0.439	7	234	2	3	Verdana	1	80	0	0	0	WM Stimuli\	0.6	984.833333333333	1	883.4	0.9	940.111111111111	1	777.1	0.9	1117.11111111111	1	771.9	0.6	844.833333333333	0.9	816.333333333333	13	379387	2	379375	27	40	379414	-999999	379390	0	15	TrialsPROC	FC_011_M6.png	1	2	69	SessionSelectionList														nonlure	3	Face	2-Back	61	80	58	0	0	100	4	39	292703	1	13	72	290664	-1	291922	1	1258	3	3	2039	52	292716	-53	0													10			69												
WM080112	103414_fnca	1	1	1	626343861	1	75.032	75.031	2.0.10.147	2.0.10.242	2.0.10.242	1.0.0.439	7	234	2	3	Verdana	1	80	0	0	0	WM Stimuli\	0.6	984.833333333333	1	883.4	0.9	940.111111111111	1	777.1	0.9	1117.11111111111	1	771.9	0.6	844.833333333333	0.9	816.333333333333	13	379387	2	379375	27	40	379414	-999999	379390	0	16	Fix15secPROC	""	1	2	70	SessionSelectionList																																															6	293170	-7	0							70												
WM080112	103414_fnca	1	1	1	626343861	1	75.032	75.031	2.0.10.147	2.0.10.242	2.0.10.242	1.0.0.439	7	234	2	3	Verdana	1	80	0	0	0	WM Stimuli\	0.6	984.833333333333	1	883.4	0.9	940.111111111111	1	777.1	0.9	1117.11111111111	1	771.9	0.6	844.833333333333	0.9	816.333333333333	13	379387	2	379375	27	40	379414	-999999	379390	0	17	Cue0BackPROC	TO_007_TOOL7_BA.png	1	2	71	SessionSelectionList																																										13	308177	-14	0												71												
WM080112	103414_fnca	1	1	1	626343861	1	75.032	75.031	2.0.10.147	2.0.10.242	2.0.10.242	1.0.0.439	7	234	2	3	Verdana	1	80	0	0	0	WM Stimuli\	0.6	984.833333333333	1	883.4	0.9	940.111111111111	1	777.1	0.9	1117.11111111111	1	771.9	0.6	844.833333333333	0.9	816.333333333333	13	379387	2	379375	27	40	379414	-999999	379390	0	18	TrialsPROC	TO_010_TOOL10_BA.png	1	2	72	SessionSelectionList														nonlure	3	Tools	0-Back	62	80	59	0	0	100	5	39	312761	2	14	58	310722	-1	311708	1	986	3	3	2039	53	312775	-54	0														1		72												
WM080112	103414_fnca	1	1	1	626343861	1	75.032	75.031	2.0.10.147	2.0.10.242	2.0.10.242	1.0.0.439	7	234	2	3	Verdana	1	80	0	0	0	WM Stimuli\	0.6	984.833333333333	1	883.4	0.9	940.111111111111	1	777.1	0.9	1117.11111111111	1	771.9	0.6	844.833333333333	0.9	816.333333333333	13	379387	2	379375	27	40	379414	-999999	379390	0	18	TrialsPROC	TO_009_TOOL9_BA.png	1	2	73	SessionSelectionList														nonlure	3	Tools	0-Back	63	80	60	0	0	100	6	39	315320	2	14	59	313281	-1	314007	1	726	3	3	2039	53	315334	-54	0														2		73												
WM080112	103414_fnca	1	1	1	626343861	1	75.032	75.031	2.0.10.147	2.0.10.242	2.0.10.242	1.0.0.439	7	234	2	3	Verdana	1	80	0	0	0	WM Stimuli\	0.6	984.833333333333	1	883.4	0.9	940.111111111111	1	777.1	0.9	1117.11111111111	1	771.9	0.6	844.833333333333	0.9	816.333333333333	13	379387	2	379375	27	40	379414	-999999	379390	0	18	TrialsPROC	TO_009_TOOL9_BA.png	1	2	74	SessionSelectionList														lure	3	Tools	0-Back	64	80	61	0	0	100	7	39	317879	2	14	59	315840	-1	316614	1	774	3	3	2039	53	317893	-54	0														3		74												
WM080112	103414_fnca	1	1	1	626343861	1	75.032	75.031	2.0.10.147	2.0.10.242	2.0.10.242	1.0.0.439	7	234	2	3	Verdana	1	80	0	0	0	WM Stimuli\	0.6	984.833333333333	1	883.4	0.9	940.111111111111	1	777.1	0.9	1117.11111111111	1	771.9	0.6	844.833333333333	0.9	816.333333333333	13	379387	2	379375	27	40	379414	-999999	379390	0	18	TrialsPROC	TO_008_TOOL8_BA.png	1	2	75	SessionSelectionList														nonlure	3	Tools	0-Back	65	80	62	0	0	100	8	39	320438	2	14	59	318399	-1	319112	1	713	3	3	2039	53	320452	-54	0														4		75												
WM080112	103414_fnca	1	1	1	626343861	1	75.032	75.031	2.0.10.147	2.0.10.242	2.0.10.242	1.0.0.439	7	234	2	3	Verdana	1	80	0	0	0	WM Stimuli\	0.6	984.833333333333	1	883.4	0.9	940.111111111111	1	777.1	0.9	1117.11111111111	1	771.9	0.6	844.833333333333	0.9	816.333333333333	13	379387	2	379375	27	40	379414	-999999	379390	0	18	TrialsPROC	TO_011_TOOL11_BA.png	1	2	76	SessionSelectionList														nonlure	3	Tools	0-Back	66	80	63	0	0	100	9	39	322997	1	14	59	320958	-1	321731	1	773	3	3	2039	53	323011	-54	0														5		76												
WM080112	103414_fnca	1	1	1	626343861	1	75.032	75.031	2.0.10.147	2.0.10.242	2.0.10.242	1.0.0.439	7	234	2	3	Verdana	1	80	0	0	0	WM Stimuli\	0.6	984.833333333333	1	883.4	0.9	940.111111111111	1	777.1	0.9	1117.11111111111	1	771.9	0.6	844.833333333333	0.9	816.333333333333	13	379387	2	379375	27	40	379414	-999999	379390	0	18	TrialsPROC	TO_012_TOOL12_BA.png	1	2	77	SessionSelectionList														nonlure	3	Tools	0-Back	67	80	64	0	0	100	10	39	325556	1	13	59	323517	-1	324111	1	594	3	3	2039	52	325569	-53	0														6		77												
WM080112	103414_fnca	1	1	1	626343861	1	75.032	75.031	2.0.10.147	2.0.10.242	2.0.10.242	1.0.0.439	7	234	2	3	Verdana	1	80	0	0	0	WM Stimuli\	0.6	984.833333333333	1	883.4	0.9	940.111111111111	1	777.1	0.9	1117.11111111111	1	771.9	0.6	844.833333333333	0.9	816.333333333333	13	379387	2	379375	27	40	379414	-999999	379390	0	18	TrialsPROC	TO_010_TOOL10_BA.png	1	2	78	SessionSelectionList														lure	3	Tools	0-Back	68	80	65	0	0	97	1	39	328115	1	13	59	326076	-1	326724	0	648	2	3	2039	52	328128	-53	0														7		78												
WM080112	103414_fnca	1	1	1	626343861	1	75.032	75.031	2.0.10.147	2.0.10.242	2.0.10.242	1.0.0.439	7	234	2	3	Verdana	1	80	0	0	0	WM Stimuli\	0.6	984.833333333333	1	883.4	0.9	940.111111111111	1	777.1	0.9	1117.11111111111	1	771.9	0.6	844.833333333333	0.9	816.333333333333	13	379387	2	379375	27	40	379414	-999999	379390	0	18	TrialsPROC	TO_007_TOOL7_BA.png	1	2	79	SessionSelectionList														target	2	Tools	0-Back	69	80	66	0	0	97	2	39	330674	1	13	59	328635	-1	330128	1	1493	2	2	2039	52	330687	-53	0														8		79												
WM080112	103414_fnca	1	1	1	626343861	1	75.032	75.031	2.0.10.147	2.0.10.242	2.0.10.242	1.0.0.439	7	234	2	3	Verdana	1	80	0	0	0	WM Stimuli\	0.6	984.833333333333	1	883.4	0.9	940.111111111111	1	777.1	0.9	1117.11111111111	1	771.9	0.6	844.833333333333	0.9	816.333333333333	13	379387	2	379375	27	40	379414	-999999	379390	0	18	TrialsPROC	TO_008_TOOL8_BA.png	1	2	80	SessionSelectionList														lure	3	Tools	0-Back	70	80	67	0	0	97	1	39	333233	1	13	59	331194	-1	331739	1	545	3	3	2039	52	333246	-53	0														9		80												
WM080112	103414_fnca	1	1	1	626343861	1	75.032	75.031	2.0.10.147	2.0.10.242	2.0.10.242	1.0.0.439	7	234	2	3	Verdana	1	80	0	0	0	WM Stimuli\	0.6	984.833333333333	1	883.4	0.9	940.111111111111	1	777.1	0.9	1117.11111111111	1	771.9	0.6	844.833333333333	0.9	816.333333333333	13	379387	2	379375	27	40	379414	-999999	379390	0	18	TrialsPROC	TO_007_TOOL7_BA.png	1	2	81	SessionSelectionList														target	2	Tools	0-Back	71	80	68	0	0	98	1	39	335792	1	13	59	333753	-1	334496	1	743	2	2	2039	52	335805	-53	0														10		81												
WM080112	103414_fnca	1	1	1	626343861	1	75.032	75.031	2.0.10.147	2.0.10.242	2.0.10.242	1.0.0.439	7	234	2	3	Verdana	1	80	0	0	0	WM Stimuli\	0.6	984.833333333333	1	883.4	0.9	940.111111111111	1	777.1	0.9	1117.11111111111	1	771.9	0.6	844.833333333333	0.9	816.333333333333	13	379387	2	379375	27	40	379414	-999999	379390	0	19	Cue2BackPROC	""	1	2	82	SessionSelectionList									5	336258	-6	0																																													82												
WM080112	103414_fnca	1	1	1	626343861	1	75.032	75.031	2.0.10.147	2.0.10.242	2.0.10.242	1.0.0.439	7	234	2	3	Verdana	1	80	0	0	0	WM Stimuli\	0.6	984.833333333333	1	883.4	0.9	940.111111111111	1	777.1	0.9	1117.11111111111	1	771.9	0.6	844.833333333333	0.9	816.333333333333	13	379387	2	379375	27	40	379414	-999999	379390	0	20	TrialsPROC	PL_007_92026.png	1	2	83	SessionSelectionList														nonlure	3	Place	2-Back	72	80	69	0	0	98	1	39	340843	1	13	51	338804	-1	340114	1	1310	3	3	2039	52	340856	-53	0															1	83												
WM080112	103414_fnca	1	1	1	626343861	1	75.032	75.031	2.0.10.147	2.0.10.242	2.0.10.242	1.0.0.439	7	234	2	3	Verdana	1	80	0	0	0	WM Stimuli\	0.6	984.833333333333	1	883.4	0.9	940.111111111111	1	777.1	0.9	1117.11111111111	1	771.9	0.6	844.833333333333	0.9	816.333333333333	13	379387	2	379375	27	40	379414	-999999	379390	0	20	TrialsPROC	PL_007_92026.png	1	2	84	SessionSelectionList														lure	3	Place	2-Back	73	80	70	0	0	98	2	39	343415	2	14	72	341376	-1	342223	1	847	3	3	2039	53	343429	-54	0															2	84												
WM080112	103414_fnca	1	1	1	626343861	1	75.032	75.031	2.0.10.147	2.0.10.242	2.0.10.242	1.0.0.439	7	234	2	3	Verdana	1	80	0	0	0	WM Stimuli\	0.6	984.833333333333	1	883.4	0.9	940.111111111111	1	777.1	0.9	1117.11111111111	1	771.9	0.6	844.833333333333	0.9	816.333333333333	13	379387	2	379375	27	40	379414	-999999	379390	0	20	TrialsPROC	PL_010_92038.png	1	2	85	SessionSelectionList														nonlure	3	Place	2-Back	74	80	71	0	0	98	3	39	345974	2	14	59	343935	-1	345148	1	1213	3	3	2039	53	345988	-54	0															3	85												
WM080112	103414_fnca	1	1	1	626343861	1	75.032	75.031	2.0.10.147	2.0.10.242	2.0.10.242	1.0.0.439	7	234	2	3	Verdana	1	80	0	0	0	WM Stimuli\	0.6	984.833333333333	1	883.4	0.9	940.111111111111	1	777.1	0.9	1117.11111111111	1	771.9	0.6	844.833333333333	0.9	816.333333333333	13	379387	2	379375	27	40	379414	-999999	379390	0	20	TrialsPROC	PL_009_92037.png	1	2	86	SessionSelectionList														nonlure	3	Place	2-Back	75	80	72	0	0	98	4	39	348533	2	14	59	346494	-1	347208	1	714	3	3	2039	53	348547	-54	0															4	86												
WM080112	103414_fnca	1	1	1	626343861	1	75.032	75.031	2.0.10.147	2.0.10.242	2.0.10.242	1.0.0.439	7	234	2	3	Verdana	1	80	0	0	0	WM Stimuli\	0.6	984.833333333333	1	883.4	0.9	940.111111111111	1	777.1	0.9	1117.11111111111	1	771.9	0.6	844.833333333333	0.9	816.333333333333	13	379387	2	379375	27	40	379414	-999999	379390	0	20	TrialsPROC	PL_010_92038.png	1	2	87	SessionSelectionList														target	2	Place	2-Back	76	80	73	0	0	98	1	39	351105	2	14	72	349066	-1	349677	1	611	2	2	2039	53	351119	-54	0															5	87												
WM080112	103414_fnca	1	1	1	626343861	1	75.032	75.031	2.0.10.147	2.0.10.242	2.0.10.242	1.0.0.439	7	234	2	3	Verdana	1	80	0	0	0	WM Stimuli\	0.6	984.833333333333	1	883.4	0.9	940.111111111111	1	777.1	0.9	1117.11111111111	1	771.9	0.6	844.833333333333	0.9	816.333333333333	13	379387	2	379375	27	40	379414	-999999	379390	0	20	TrialsPROC	PL_009_92037.png	1	2	88	SessionSelectionList														target	2	Place	2-Back	77	80	74	0	0	98	1	39	353664	2	14	59	351625	-1	352628	0	1003	3	2	2039	53	353678	-54	0															6	88												
WM080112	103414_fnca	1	1	1	626343861	1	75.032	75.031	2.0.10.147	2.0.10.242	2.0.10.242	1.0.0.439	7	234	2	3	Verdana	1	80	0	0	0	WM Stimuli\	0.6	984.833333333333	1	883.4	0.9	940.111111111111	1	777.1	0.9	1117.11111111111	1	771.9	0.6	844.833333333333	0.9	816.333333333333	13	379387	2	379375	27	40	379414	-999999	379390	0	20	TrialsPROC	PL_008_92033.png	1	2	89	SessionSelectionList														nonlure	3	Place	2-Back	78	80	75	0	0	98	2	39	356223	2	14	59	354184	-1	355716	1	1532	3	3	2039	53	356237	-54	0															7	89												
WM080112	103414_fnca	1	1	1	626343861	1	75.032	75.031	2.0.10.147	2.0.10.242	2.0.10.242	1.0.0.439	7	234	2	3	Verdana	1	80	0	0	0	WM Stimuli\	0.6	984.833333333333	1	883.4	0.9	940.111111111111	1	777.1	0.9	1117.11111111111	1	771.9	0.6	844.833333333333	0.9	816.333333333333	13	379387	2	379375	27	40	379414	-999999	379390	0	20	TrialsPROC	PL_012_92047.png	1	2	90	SessionSelectionList														nonlure	3	Place	2-Back	79	80	76	0	0	98	3	39	358782	2	14	59	356743	-1	357962	1	1219	3	3	2039	53	358796	-54	0															8	90												
WM080112	103414_fnca	1	1	1	626343861	1	75.032	75.031	2.0.10.147	2.0.10.242	2.0.10.242	1.0.0.439	7	234	2	3	Verdana	1	80	0	0	0	WM Stimuli\	0.6	984.833333333333	1	883.4	0.9	940.111111111111	1	777.1	0.9	1117.11111111111	1	771.9	0.6	844.833333333333	0.9	816.333333333333	13	379387	2	379375	27	40	379414	-999999	379390	0	20	TrialsPROC	PL_012_92047.png	1	2	91	SessionSelectionList														lure	3	Place	2-Back	80	80	77	0	0	98	4	39	361354	2	14	72	359315	-1	360530	1	1215	3	3	2039	53	361368	-54	0															9	91												
WM080112	103414_fnca	1	1	1	626343861	1	75.032	75.031	2.0.10.147	2.0.10.242	2.0.10.242	1.0.0.439	7	234	2	3	Verdana	1	80	0	0	0	WM Stimuli\	0.6	984.833333333333	1	883.4	0.9	940.111111111111	1	777.1	0.9	1117.11111111111	1	771.9	0.6	844.833333333333	0.9	816.333333333333	13	379387	2	379375	27	40	379414	-999999	379390	0	20	TrialsPROC	PL_011_92044.png	1	2	92	SessionSelectionList														nonlure	3	Place	2-Back	80	80	78	0	0	98	5	39	363913	2	14	59	361874	-1	363267	1	1393	3	3	2039	53	363927	-54	0															10	92												
WM080112	103414_fnca	1	1	1	626343861	1	75.032	75.031	2.0.10.147	2.0.10.242	2.0.10.242	1.0.0.439	7	234	2	3	Verdana	1	80	0	0	0	WM Stimuli\	0.6	984.833333333333	1	883.4	0.9	940.111111111111	1	777.1	0.9	1117.11111111111	1	771.9	0.6	844.833333333333	0.9	816.333333333333	13	379387	2	379375	27	40	379414	-999999	379390	0	21	Fix15secPROC	""	1	2	93	SessionSelectionList																																															6	364380	-7	0							93												
