ExperimentName	HCPID	RunNumber	Subject	Session	RandomSeed	Group	Laptop.RefreshRate	ScannerD2.RefreshRate	StudioVersion	RuntimeVersion	RuntimeVersionExpected	ExperimentVersion	triggercode	Allowed	Target	Nontarget	FontStyle	RunTrialNumber[Session]	TrialsPerRun[Session]	TotalRespGreater200[Session]	ConsecRTLess200[Session]	ConsecNonResp[Session]	StimuliDir	ACC_2_Back_Body	Avg_RT_For_Correct_Trials_2_Back_Body	ACC_0_Back_Body	Avg_RT_For_Correct_Trials_0_Back_Body	ACC_2_Back_Face	Avg_RT_For_Correct_Trials_2_Back_Face	ACC_0_Back_Face	Avg_RT_For_Correct_Trials_0_Back_Face	ACC_2_Back_Place	Avg_RT_For_Correct_Trials_2_Back_Place	ACC_0_Back_Place	Avg_RT_For_Correct_Trials_0_Back_Place	ACC_2_Back_Tools	Avg_RT_For_Correct_Trials_2_Back_Tools	ACC_0_Back_Tools	Avg_RT_For_Correct_Trials_0_Back_Tools	ExpInstrucFeelFreeToRest.OnsetDelay	ExpInstrucFeelFreeToRest.OnsetTime	ExpInstrucFeelFreeToRest.DurationError	ExpInstrucFeelFreeToRest.StartTime	ExpInstrucFeelFreeToRest.OnsetToOnsetTime	FeelFreeToRest.OnsetDelay	FeelFreeToRest.OnsetTime	FeelFreeToRest.DurationError	FeelFreeToRest.StartTime	FeelFreeToRest.OnsetToOnsetTime	SessionSelectionList	Procedure[Block]	Stimulus[Block]	RunNumberFilterValue	SessionSelectionList.Cycle	SessionSelectionList.Sample	Running[Block]	IntroButtonMap.OnsetDelay	IntroButtonMap.OnsetTime	IntroButtonMap.DurationError	IntroButtonMap.OnsetToOnsetTime	GetReady.OnsetDelay	GetReady.OnsetTime	GetReady.DurationError	GetReady.OnsetToOnsetTime	Cue2Back.OnsetDelay	Cue2Back.OnsetTime	Cue2Back.DurationError	Cue2Back.OnsetToOnsetTime	Run1Block1	TargetType	CorrectResponse	StimType	BlockType	RunTrialNumber[Block]	TrialsPerRun[Block]	TotalRespGreater200[Block]	ConsecRTLess200[Block]	ConsecNonResp[Block]	ControlAcc	ConsecSameResp	ExperimenterWindow.OnsetDelay	ExperimenterWindow.OnsetTime	ExperimenterWindow.DurationError	ExperimenterWindow.OnsetToOnsetTime	Stim.OnsetDelay	Stim.OnsetTime	Stim.DurationError	Stim.RTTime	Stim.ACC	Stim.RT	Stim.RESP	Stim.CRESP	Stim.OnsetToOnsetTime	Fix.OnsetDelay	Fix.OnsetTime	Fix.DurationError	Fix.OnsetToOnsetTime	CueTarget.OnsetDelay	CueTarget.OnsetTime	CueTarget.DurationError	CueTarget.OnsetToOnsetTime	Run1Block2	Fix15sec.OnsetDelay	Fix15sec.OnsetTime	Fix15sec.DurationError	Fix15sec.OnsetToOnsetTime	Run1Block3	Run1Block4	Run1Block5	Run1Block6	Run1Block7	Run1Block8	Block	Procedure[Trial]	Stimulus[Trial]	ReadyList	Running[Trial]	ReadyList.Cycle	ReadyList.Sample	SyncSlide.OnsetDelay	SyncSlide.OnsetTime	SyncSlide.DurationError	SyncSlide.FinishTime	SyncSlide.OnsetToOnsetTime	Trial
WM080112	127933_fnca	1	1	1	1770420550	1	75.031	75.031	2.0.10.147	2.0.10.242	2.0.10.242	1.0.0.439	7	234	2	3	Verdana	1	80	0	0	0	WM Stimuli\	0.6	1236.16666666667	0.8	1209.375	0.8	1070.875	1	963	1	1253.9	1	823.1	0.9	1237.77777777778	1	814.2	13	382587	2	382575	27	40	382614	-999999	382590	0	1	TRSyncPROC	""	1	2	1	SessionSelectionList	113	17818	-999999	0	33	75995	-999999	0																																																	1	InitialTR	4	1	ReadyList	1	1	16	89002	-17	90985	0	1
WM080112	127933_fnca	1	1	1	1770420550	1	75.031	75.031	2.0.10.147	2.0.10.242	2.0.10.242	1.0.0.439	7	234	2	3	Verdana	1	80	0	0	0	WM Stimuli\	0.6	1236.16666666667	0.8	1209.375	0.8	1070.875	1	963	1	1253.9	1	823.1	0.9	1237.77777777778	1	814.2	13	382587	2	382575	27	40	382614	-999999	382590	0	1	TRSyncPROC	""	1	2	1	SessionSelectionList	113	17818	-999999	0	33	75995	-999999	0																																																	1	InitialTR	3	2	ReadyList	1	2	15	91001	-16	92985	0	2
WM080112	127933_fnca	1	1	1	1770420550	1	75.031	75.031	2.0.10.147	2.0.10.242	2.0.10.242	1.0.0.439	7	234	2	3	Verdana	1	80	0	0	0	WM Stimuli\	0.6	1236.16666666667	0.8	1209.375	0.8	1070.875	1	963	1	1253.9	1	823.1	0.9	1237.77777777778	1	814.2	13	382587	2	382575	27	40	382614	-999999	382590	0	1	TRSyncPROC	""	1	2	1	SessionSelectionList	113	17818	-999999	0	33	75995	-999999	0																																																	1	InitialTR	2	3	ReadyList	1	3	15	93001	-16	94985	0	3
WM080112	127933_fnca	1	1	1	1770420550	1	75.031	75.031	2.0.10.147	2.0.10.242	2.0.10.242	1.0.0.439	7	234	2	3	Verdana	1	80	0	0	0	WM Stimuli\	0.6	1236.16666666667	0.8	1209.375	0.8	1070.875	1	963	1	1253.9	1	823.1	0.9	1237.77777777778	1	814.2	13	382587	2	382575	27	40	382614	-999999	382590	0	1	TRSyncPROC	""	1	2	1	SessionSelectionList	113	17818	-999999	0	33	75995	-999999	0																																																	1	InitialTR	1	4	ReadyList	1	4	14	95000	-15	96985	0	4
WM080112	127933_fnca	1	1	1	1770420550	1	75.031	75.031	2.0.10.147	2.0.10.242	2.0.10.242	1.0.0.439	7	234	2	3	Verdana	1	80	0	0	0	WM Stimuli\	0.6	1236.16666666667	0.8	1209.375	0.8	1070.875	1	963	1	1253.9	1	823.1	0.9	1237.77777777778	1	814.2	13	382587	2	382575	27	40	382614	-999999	382590	0	2	Cue2BackPROC	""	1	2	2	SessionSelectionList									13	96999	-14	0																																													2												
WM080112	127933_fnca	1	1	1	1770420550	1	75.031	75.031	2.0.10.147	2.0.10.242	2.0.10.242	1.0.0.439	7	234	2	3	Verdana	1	80	0	0	0	WM Stimuli\	0.6	1236.16666666667	0.8	1209.375	0.8	1070.875	1	963	1	1253.9	1	823.1	0.9	1237.77777777778	1	814.2	13	382587	2	382575	27	40	382614	-999999	382590	0	3	TrialsPROC	BP_002_BP10_BA.png	1	2	3	SessionSelectionList													1	nonlure	3	Body	2-Back	2	80	1	0	0	0	1	53	101624	3	13	85	99571	-1	100777	1	1206	3	3	2053	66	101637	-67	0																3												
WM080112	127933_fnca	1	1	1	1770420550	1	75.031	75.031	2.0.10.147	2.0.10.242	2.0.10.242	1.0.0.439	7	234	2	3	Verdana	1	80	0	0	0	WM Stimuli\	0.6	1236.16666666667	0.8	1209.375	0.8	1070.875	1	963	1	1253.9	1	823.1	0.9	1237.77777777778	1	814.2	13	382587	2	382575	27	40	382614	-999999	382590	0	3	TrialsPROC	BP_001_BP1_BA.png	1	2	4	SessionSelectionList													2	nonlure	3	Body	2-Back	3	80	2	0	0	0	2	40	104183	2	13	72	102143	-1	103343	1	1200	3	3	2040	53	104196	-54	0																4												
WM080112	127933_fnca	1	1	1	1770420550	1	75.031	75.031	2.0.10.147	2.0.10.242	2.0.10.242	1.0.0.439	7	234	2	3	Verdana	1	80	0	0	0	WM Stimuli\	0.6	1236.16666666667	0.8	1209.375	0.8	1070.875	1	963	1	1253.9	1	823.1	0.9	1237.77777777778	1	814.2	13	382587	2	382575	27	40	382614	-999999	382590	0	3	TrialsPROC	BP_006_BP2_BA.png	1	2	5	SessionSelectionList													3	nonlure	3	Body	2-Back	4	80	3	0	0	0	3	40	106742	1	13	59	104702	-1	106392	1	1690	3	3	2040	53	106755	-54	0																5												
WM080112	127933_fnca	1	1	1	1770420550	1	75.031	75.031	2.0.10.147	2.0.10.242	2.0.10.242	1.0.0.439	7	234	2	3	Verdana	1	80	0	0	0	WM Stimuli\	0.6	1236.16666666667	0.8	1209.375	0.8	1070.875	1	963	1	1253.9	1	823.1	0.9	1237.77777777778	1	814.2	13	382587	2	382575	27	40	382614	-999999	382590	0	3	TrialsPROC	BP_001_BP1_BA.png	1	2	6	SessionSelectionList													4	target	2	Body	2-Back	5	80	3	0	1	0	3	39	109314	1	14	73	107275	-1	0	0	0	""	2	2039	53	109328	-54	0																6												
WM080112	127933_fnca	1	1	1	1770420550	1	75.031	75.031	2.0.10.147	2.0.10.242	2.0.10.242	1.0.0.439	7	234	2	3	Verdana	1	80	0	0	0	WM Stimuli\	0.6	1236.16666666667	0.8	1209.375	0.8	1070.875	1	963	1	1253.9	1	823.1	0.9	1237.77777777778	1	814.2	13	382587	2	382575	27	40	382614	-999999	382590	0	3	TrialsPROC	BP_005_BP19_BA.png	1	2	7	SessionSelectionList													5	nonlure	3	Body	2-Back	6	80	4	0	0	0	1	39	111886	2	14	72	109847	-1	111065	1	1218	3	3	2039	53	111900	-54	0																7												
WM080112	127933_fnca	1	1	1	1770420550	1	75.031	75.031	2.0.10.147	2.0.10.242	2.0.10.242	1.0.0.439	7	234	2	3	Verdana	1	80	0	0	0	WM Stimuli\	0.6	1236.16666666667	0.8	1209.375	0.8	1070.875	1	963	1	1253.9	1	823.1	0.9	1237.77777777778	1	814.2	13	382587	2	382575	27	40	382614	-999999	382590	0	3	TrialsPROC	BP_003_BP16_BA.png	1	2	8	SessionSelectionList													6	nonlure	3	Body	2-Back	7	80	5	0	0	0	2	39	114445	2	14	59	112406	-1	113434	1	1028	3	3	2039	53	114459	-54	0																8												
WM080112	127933_fnca	1	1	1	1770420550	1	75.031	75.031	2.0.10.147	2.0.10.242	2.0.10.242	1.0.0.439	7	234	2	3	Verdana	1	80	0	0	0	WM Stimuli\	0.6	1236.16666666667	0.8	1209.375	0.8	1070.875	1	963	1	1253.9	1	823.1	0.9	1237.77777777778	1	814.2	13	382587	2	382575	27	40	382614	-999999	382590	0	3	TrialsPROC	BP_006_BP2_BA.png	1	2	9	SessionSelectionList													7	lure	3	Body	2-Back	8	80	6	0	0	0	1	39	117004	1	14	59	114965	-1	116407	0	1442	2	3	2039	53	117018	-54	0																9												
WM080112	127933_fnca	1	1	1	1770420550	1	75.031	75.031	2.0.10.147	2.0.10.242	2.0.10.242	1.0.0.439	7	234	2	3	Verdana	1	80	0	0	0	WM Stimuli\	0.6	1236.16666666667	0.8	1209.375	0.8	1070.875	1	963	1	1253.9	1	823.1	0.9	1237.77777777778	1	814.2	13	382587	2	382575	27	40	382614	-999999	382590	0	3	TrialsPROC	BP_004_BP18_BA.png	1	2	10	SessionSelectionList													8	nonlure	3	Body	2-Back	9	80	7	0	0	0	1	39	119563	1	14	59	117524	-1	118599	1	1075	3	3	2039	53	119577	-54	0																10												
WM080112	127933_fnca	1	1	1	1770420550	1	75.031	75.031	2.0.10.147	2.0.10.242	2.0.10.242	1.0.0.439	7	234	2	3	Verdana	1	80	0	0	0	WM Stimuli\	0.6	1236.16666666667	0.8	1209.375	0.8	1070.875	1	963	1	1253.9	1	823.1	0.9	1237.77777777778	1	814.2	13	382587	2	382575	27	40	382614	-999999	382590	0	3	TrialsPROC	BP_005_BP19_BA.png	1	2	11	SessionSelectionList													9	lure	3	Body	2-Back	10	80	8	0	0	0	1	39	122122	1	14	59	120083	-1	121104	0	1021	2	3	2039	53	122136	-54	0																11												
WM080112	127933_fnca	1	1	1	1770420550	1	75.031	75.031	2.0.10.147	2.0.10.242	2.0.10.242	1.0.0.439	7	234	2	3	Verdana	1	80	0	0	0	WM Stimuli\	0.6	1236.16666666667	0.8	1209.375	0.8	1070.875	1	963	1	1253.9	1	823.1	0.9	1237.77777777778	1	814.2	13	382587	2	382575	27	40	382614	-999999	382590	0	3	TrialsPROC	BP_004_BP18_BA.png	1	2	12	SessionSelectionList													10	target	2	Body	2-Back	11	80	9	0	0	0	1	39	124681	1	14	59	122642	-1	123548	0	906	3	2	2039	53	124695	-54	0																12												
WM080112	127933_fnca	1	1	1	1770420550	1	75.031	75.031	2.0.10.147	2.0.10.242	2.0.10.242	1.0.0.439	7	234	2	3	Verdana	1	80	0	0	0	WM Stimuli\	0.6	1236.16666666667	0.8	1209.375	0.8	1070.875	1	963	1	1253.9	1	823.1	0.9	1237.77777777778	1	814.2	13	382587	2	382575	27	40	382614	-999999	382590	0	4	Cue0BackPROC	FC_001_M1.png	1	2	13	SessionSelectionList																																										19	125161	-20	0												13												
WM080112	127933_fnca	1	1	1	1770420550	1	75.031	75.031	2.0.10.147	2.0.10.242	2.0.10.242	1.0.0.439	7	234	2	3	Verdana	1	80	0	0	0	WM Stimuli\	0.6	1236.16666666667	0.8	1209.375	0.8	1070.875	1	963	1	1253.9	1	823.1	0.9	1237.77777777778	1	814.2	13	382587	2	382575	27	40	382614	-999999	382590	0	5	TrialsPROC	FC_005_M3.png	1	2	14	SessionSelectionList														nonlure	3	Face	0-Back	12	80	10	0	0	100	2	39	129745	2	14	64	127706	-1	128831	1	1125	3	3	2039	53	129759	-54	0					1											14												
WM080112	127933_fnca	1	1	1	1770420550	1	75.031	75.031	2.0.10.147	2.0.10.242	2.0.10.242	1.0.0.439	7	234	2	3	Verdana	1	80	0	0	0	WM Stimuli\	0.6	1236.16666666667	0.8	1209.375	0.8	1070.875	1	963	1	1253.9	1	823.1	0.9	1237.77777777778	1	814.2	13	382587	2	382575	27	40	382614	-999999	382590	0	5	TrialsPROC	FC_001_M1.png	1	2	15	SessionSelectionList														target	2	Face	0-Back	13	80	11	0	0	100	1	40	132318	1	13	72	130278	-1	131075	1	797	2	2	2040	53	132331	-54	0					2											15												
WM080112	127933_fnca	1	1	1	1770420550	1	75.031	75.031	2.0.10.147	2.0.10.242	2.0.10.242	1.0.0.439	7	234	2	3	Verdana	1	80	0	0	0	WM Stimuli\	0.6	1236.16666666667	0.8	1209.375	0.8	1070.875	1	963	1	1253.9	1	823.1	0.9	1237.77777777778	1	814.2	13	382587	2	382575	27	40	382614	-999999	382590	0	5	TrialsPROC	FC_003_M2.png	1	2	16	SessionSelectionList														nonlure	3	Face	0-Back	14	80	12	0	0	100	1	39	134890	1	14	73	132851	-1	134386	1	1535	3	3	2039	53	134904	-54	0					3											16												
WM080112	127933_fnca	1	1	1	1770420550	1	75.031	75.031	2.0.10.147	2.0.10.242	2.0.10.242	1.0.0.439	7	234	2	3	Verdana	1	80	0	0	0	WM Stimuli\	0.6	1236.16666666667	0.8	1209.375	0.8	1070.875	1	963	1	1253.9	1	823.1	0.9	1237.77777777778	1	814.2	13	382587	2	382575	27	40	382614	-999999	382590	0	5	TrialsPROC	FC_004_F2.png	1	2	17	SessionSelectionList														nonlure	3	Face	0-Back	15	80	13	0	0	100	2	39	137462	2	14	72	135423	-1	136308	1	885	3	3	2039	53	137476	-54	0					4											17												
WM080112	127933_fnca	1	1	1	1770420550	1	75.031	75.031	2.0.10.147	2.0.10.242	2.0.10.242	1.0.0.439	7	234	2	3	Verdana	1	80	0	0	0	WM Stimuli\	0.6	1236.16666666667	0.8	1209.375	0.8	1070.875	1	963	1	1253.9	1	823.1	0.9	1237.77777777778	1	814.2	13	382587	2	382575	27	40	382614	-999999	382590	0	5	TrialsPROC	FC_004_F2.png	1	2	18	SessionSelectionList														lure	3	Face	0-Back	16	80	14	0	0	100	3	39	140034	3	14	72	137995	-1	138993	1	998	3	3	2039	53	140048	-54	0					5											18												
WM080112	127933_fnca	1	1	1	1770420550	1	75.031	75.031	2.0.10.147	2.0.10.242	2.0.10.242	1.0.0.439	7	234	2	3	Verdana	1	80	0	0	0	WM Stimuli\	0.6	1236.16666666667	0.8	1209.375	0.8	1070.875	1	963	1	1253.9	1	823.1	0.9	1237.77777777778	1	814.2	13	382587	2	382575	27	40	382614	-999999	382590	0	5	TrialsPROC	FC_001_M1.png	1	2	19	SessionSelectionList														target	2	Face	0-Back	17	80	15	0	0	100	1	39	142607	1	13	73	140568	-1	141320	1	752	2	2	2039	52	142620	-53	0					6											19												
WM080112	127933_fnca	1	1	1	1770420550	1	75.031	75.031	2.0.10.147	2.0.10.242	2.0.10.242	1.0.0.439	7	234	2	3	Verdana	1	80	0	0	0	WM Stimuli\	0.6	1236.16666666667	0.8	1209.375	0.8	1070.875	1	963	1	1253.9	1	823.1	0.9	1237.77777777778	1	814.2	13	382587	2	382575	27	40	382614	-999999	382590	0	5	TrialsPROC	FC_006_F3.png	1	2	20	SessionSelectionList														nonlure	3	Face	0-Back	18	80	16	0	0	100	1	39	145179	2	14	72	143140	-1	143974	1	834	3	3	2039	53	145193	-54	0					7											20												
WM080112	127933_fnca	1	1	1	1770420550	1	75.031	75.031	2.0.10.147	2.0.10.242	2.0.10.242	1.0.0.439	7	234	2	3	Verdana	1	80	0	0	0	WM Stimuli\	0.6	1236.16666666667	0.8	1209.375	0.8	1070.875	1	963	1	1253.9	1	823.1	0.9	1237.77777777778	1	814.2	13	382587	2	382575	27	40	382614	-999999	382590	0	5	TrialsPROC	FC_006_F3.png	1	2	21	SessionSelectionList														lure	3	Face	0-Back	19	80	17	0	0	100	2	39	147751	2	14	72	145712	-1	146530	1	818	3	3	2039	53	147765	-54	0					8											21												
WM080112	127933_fnca	1	1	1	1770420550	1	75.031	75.031	2.0.10.147	2.0.10.242	2.0.10.242	1.0.0.439	7	234	2	3	Verdana	1	80	0	0	0	WM Stimuli\	0.6	1236.16666666667	0.8	1209.375	0.8	1070.875	1	963	1	1253.9	1	823.1	0.9	1237.77777777778	1	814.2	13	382587	2	382575	27	40	382614	-999999	382590	0	5	TrialsPROC	FC_003_M2.png	1	2	22	SessionSelectionList														lure	3	Face	0-Back	20	80	18	0	0	100	3	39	150323	2	14	72	148284	-1	149434	1	1150	3	3	2039	53	150337	-54	0					9											22												
WM080112	127933_fnca	1	1	1	1770420550	1	75.031	75.031	2.0.10.147	2.0.10.242	2.0.10.242	1.0.0.439	7	234	2	3	Verdana	1	80	0	0	0	WM Stimuli\	0.6	1236.16666666667	0.8	1209.375	0.8	1070.875	1	963	1	1253.9	1	823.1	0.9	1237.77777777778	1	814.2	13	382587	2	382575	27	40	382614	-999999	382590	0	5	TrialsPROC	FC_002_F1.png	1	2	23	SessionSelectionList														nonlure	3	Face	0-Back	21	80	19	0	0	100	4	39	152896	1	14	73	150857	-1	151593	1	736	3	3	2039	53	152910	-54	0					10											23												
WM080112	127933_fnca	1	1	1	1770420550	1	75.031	75.031	2.0.10.147	2.0.10.242	2.0.10.242	1.0.0.439	7	234	2	3	Verdana	1	80	0	0	0	WM Stimuli\	0.6	1236.16666666667	0.8	1209.375	0.8	1070.875	1	963	1	1253.9	1	823.1	0.9	1237.77777777778	1	814.2	13	382587	2	382575	27	40	382614	-999999	382590	0	6	Fix15secPROC	""	1	2	24	SessionSelectionList																																															6	153363	-7	0							24												
WM080112	127933_fnca	1	1	1	1770420550	1	75.031	75.031	2.0.10.147	2.0.10.242	2.0.10.242	1.0.0.439	7	234	2	3	Verdana	1	80	0	0	0	WM Stimuli\	0.6	1236.16666666667	0.8	1209.375	0.8	1070.875	1	963	1	1253.9	1	823.1	0.9	1237.77777777778	1	814.2	13	382587	2	382575	27	40	382614	-999999	382590	0	7	Cue2BackPROC	""	1	2	25	SessionSelectionList									12	168369	-13	0																																													25												
WM080112	127933_fnca	1	1	1	1770420550	1	75.031	75.031	2.0.10.147	2.0.10.242	2.0.10.242	1.0.0.439	7	234	2	3	Verdana	1	80	0	0	0	WM Stimuli\	0.6	1236.16666666667	0.8	1209.375	0.8	1070.875	1	963	1	1253.9	1	823.1	0.9	1237.77777777778	1	814.2	13	382587	2	382575	27	40	382614	-999999	382590	0	8	TrialsPROC	TO_001_TOOL1_BA.png	1	2	26	SessionSelectionList														nonlure	3	Tools	2-Back	22	80	20	0	0	100	5	39	172954	1	14	58	170915	-1	172215	1	1300	3	3	2039	53	172968	-54	0										1						26												
WM080112	127933_fnca	1	1	1	1770420550	1	75.031	75.031	2.0.10.147	2.0.10.242	2.0.10.242	1.0.0.439	7	234	2	3	Verdana	1	80	0	0	0	WM Stimuli\	0.6	1236.16666666667	0.8	1209.375	0.8	1070.875	1	963	1	1253.9	1	823.1	0.9	1237.77777777778	1	814.2	13	382587	2	382575	27	40	382614	-999999	382590	0	8	TrialsPROC	TO_002_TOOL2_BA.png	1	2	27	SessionSelectionList														nonlure	3	Tools	2-Back	23	80	21	0	0	100	6	39	175513	1	14	59	173474	-1	174782	1	1308	3	3	2039	53	175527	-54	0										2						27												
WM080112	127933_fnca	1	1	1	1770420550	1	75.031	75.031	2.0.10.147	2.0.10.242	2.0.10.242	1.0.0.439	7	234	2	3	Verdana	1	80	0	0	0	WM Stimuli\	0.6	1236.16666666667	0.8	1209.375	0.8	1070.875	1	963	1	1253.9	1	823.1	0.9	1237.77777777778	1	814.2	13	382587	2	382575	27	40	382614	-999999	382590	0	8	TrialsPROC	TO_004_TOOL4_BA.png	1	2	28	SessionSelectionList														nonlure	3	Tools	2-Back	24	80	22	0	0	100	7	39	178072	1	14	59	176033	-1	177473	1	1440	3	3	2039	53	178086	-54	0										3						28												
WM080112	127933_fnca	1	1	1	1770420550	1	75.031	75.031	2.0.10.147	2.0.10.242	2.0.10.242	1.0.0.439	7	234	2	3	Verdana	1	80	0	0	0	WM Stimuli\	0.6	1236.16666666667	0.8	1209.375	0.8	1070.875	1	963	1	1253.9	1	823.1	0.9	1237.77777777778	1	814.2	13	382587	2	382575	27	40	382614	-999999	382590	0	8	TrialsPROC	TO_002_TOOL2_BA.png	1	2	29	SessionSelectionList														target	2	Tools	2-Back	25	80	23	0	0	100	1	39	180631	1	14	59	178592	-1	179524	1	932	2	2	2039	53	180645	-54	0										4						29												
WM080112	127933_fnca	1	1	1	1770420550	1	75.031	75.031	2.0.10.147	2.0.10.242	2.0.10.242	1.0.0.439	7	234	2	3	Verdana	1	80	0	0	0	WM Stimuli\	0.6	1236.16666666667	0.8	1209.375	0.8	1070.875	1	963	1	1253.9	1	823.1	0.9	1237.77777777778	1	814.2	13	382587	2	382575	27	40	382614	-999999	382590	0	8	TrialsPROC	TO_001_TOOL1_BA.png	1	2	30	SessionSelectionList														lure	3	Tools	2-Back	26	80	24	0	0	100	1	39	183190	1	14	59	181151	-1	182673	1	1522	3	3	2039	53	183204	-54	0										5						30												
WM080112	127933_fnca	1	1	1	1770420550	1	75.031	75.031	2.0.10.147	2.0.10.242	2.0.10.242	1.0.0.439	7	234	2	3	Verdana	1	80	0	0	0	WM Stimuli\	0.6	1236.16666666667	0.8	1209.375	0.8	1070.875	1	963	1	1253.9	1	823.1	0.9	1237.77777777778	1	814.2	13	382587	2	382575	27	40	382614	-999999	382590	0	8	TrialsPROC	TO_004_TOOL4_BA.png	1	2	31	SessionSelectionList														lure	3	Tools	2-Back	27	80	25	0	0	100	1	39	185749	1	14	59	183710	-1	185577	0	1867	2	3	2039	53	185763	-54	0										6						31												
WM080112	127933_fnca	1	1	1	1770420550	1	75.031	75.031	2.0.10.147	2.0.10.242	2.0.10.242	1.0.0.439	7	234	2	3	Verdana	1	80	0	0	0	WM Stimuli\	0.6	1236.16666666667	0.8	1209.375	0.8	1070.875	1	963	1	1253.9	1	823.1	0.9	1237.77777777778	1	814.2	13	382587	2	382575	27	40	382614	-999999	382590	0	8	TrialsPROC	TO_006_TOOL6_BA.png	1	2	32	SessionSelectionList														nonlure	3	Tools	2-Back	28	80	26	0	0	100	1	39	188308	1	13	59	186269	-1	187594	1	1325	3	3	2039	52	188321	-53	0										7						32												
WM080112	127933_fnca	1	1	1	1770420550	1	75.031	75.031	2.0.10.147	2.0.10.242	2.0.10.242	1.0.0.439	7	234	2	3	Verdana	1	80	0	0	0	WM Stimuli\	0.6	1236.16666666667	0.8	1209.375	0.8	1070.875	1	963	1	1253.9	1	823.1	0.9	1237.77777777778	1	814.2	13	382587	2	382575	27	40	382614	-999999	382590	0	8	TrialsPROC	TO_005_TOOL5_BA.png	1	2	33	SessionSelectionList														nonlure	3	Tools	2-Back	29	80	27	0	0	100	2	39	190867	1	13	59	188828	-1	189864	1	1036	3	3	2039	52	190880	-53	0										8						33												
WM080112	127933_fnca	1	1	1	1770420550	1	75.031	75.031	2.0.10.147	2.0.10.242	2.0.10.242	1.0.0.439	7	234	2	3	Verdana	1	80	0	0	0	WM Stimuli\	0.6	1236.16666666667	0.8	1209.375	0.8	1070.875	1	963	1	1253.9	1	823.1	0.9	1237.77777777778	1	814.2	13	382587	2	382575	27	40	382614	-999999	382590	0	8	TrialsPROC	TO_006_TOOL6_BA.png	1	2	34	SessionSelectionList														target	2	Tools	2-Back	30	80	28	0	0	100	1	40	193426	1	13	58	191386	-1	192424	1	1038	2	2	2040	53	193439	-54	0										9						34												
WM080112	127933_fnca	1	1	1	1770420550	1	75.031	75.031	2.0.10.147	2.0.10.242	2.0.10.242	1.0.0.439	7	234	2	3	Verdana	1	80	0	0	0	WM Stimuli\	0.6	1236.16666666667	0.8	1209.375	0.8	1070.875	1	963	1	1253.9	1	823.1	0.9	1237.77777777778	1	814.2	13	382587	2	382575	27	40	382614	-999999	382590	0	8	TrialsPROC	TO_003_TOOL3_BA.png	1	2	35	SessionSelectionList														nonlure	3	Tools	2-Back	31	80	29	0	0	100	1	40	195985	1	13	59	193945	-1	195184	1	1239	3	3	2040	53	195998	-54	0										10						35												
WM080112	127933_fnca	1	1	1	1770420550	1	75.031	75.031	2.0.10.147	2.0.10.242	2.0.10.242	1.0.0.439	7	234	2	3	Verdana	1	80	0	0	0	WM Stimuli\	0.6	1236.16666666667	0.8	1209.375	0.8	1070.875	1	963	1	1253.9	1	823.1	0.9	1237.77777777778	1	814.2	13	382587	2	382575	27	40	382614	-999999	382590	0	9	Cue0BackPROC	BP_007_BP20_BA.png	1	2	36	SessionSelectionList																																										19	196464	-20	0												36												
WM080112	127933_fnca	1	1	1	1770420550	1	75.031	75.031	2.0.10.147	2.0.10.242	2.0.10.242	1.0.0.439	7	234	2	3	Verdana	1	80	0	0	0	WM Stimuli\	0.6	1236.16666666667	0.8	1209.375	0.8	1070.875	1	963	1	1253.9	1	823.1	0.9	1237.77777777778	1	814.2	13	382587	2	382575	27	40	382614	-999999	382590	0	10	TrialsPROC	BP_007_BP20_BA.png	1	2	37	SessionSelectionList														target	2	Body	0-Back	32	80	29	0	1	91	1	39	201036	1	14	52	198997	-1	0	0	0	""	2	2039	53	201050	-54	0											1					37												
WM080112	127933_fnca	1	1	1	1770420550	1	75.031	75.031	2.0.10.147	2.0.10.242	2.0.10.242	1.0.0.439	7	234	2	3	Verdana	1	80	0	0	0	WM Stimuli\	0.6	1236.16666666667	0.8	1209.375	0.8	1070.875	1	963	1	1253.9	1	823.1	0.9	1237.77777777778	1	814.2	13	382587	2	382575	27	40	382614	-999999	382590	0	10	TrialsPROC	BP_011_BP4_BA.png	1	2	38	SessionSelectionList														nonlure	3	Body	0-Back	33	80	30	0	0	92	1	39	203608	1	14	72	201569	-1	202697	1	1128	3	3	2039	53	203622	-54	0											2					38												
WM080112	127933_fnca	1	1	1	1770420550	1	75.031	75.031	2.0.10.147	2.0.10.242	2.0.10.242	1.0.0.439	7	234	2	3	Verdana	1	80	0	0	0	WM Stimuli\	0.6	1236.16666666667	0.8	1209.375	0.8	1070.875	1	963	1	1253.9	1	823.1	0.9	1237.77777777778	1	814.2	13	382587	2	382575	27	40	382614	-999999	382590	0	10	TrialsPROC	BP_010_BP3_BA.png	1	2	39	SessionSelectionList														nonlure	3	Body	0-Back	34	80	31	0	0	92	2	39	206167	1	14	59	204128	-1	206117	1	1989	3	3	2039	53	206181	-54	0											3					39												
WM080112	127933_fnca	1	1	1	1770420550	1	75.031	75.031	2.0.10.147	2.0.10.242	2.0.10.242	1.0.0.439	7	234	2	3	Verdana	1	80	0	0	0	WM Stimuli\	0.6	1236.16666666667	0.8	1209.375	0.8	1070.875	1	963	1	1253.9	1	823.1	0.9	1237.77777777778	1	814.2	13	382587	2	382575	27	40	382614	-999999	382590	0	10	TrialsPROC	BP_008_BP21_BA.png	1	2	40	SessionSelectionList														nonlure	3	Body	0-Back	35	80	32	0	0	93	3	39	208726	1	14	59	206687	-1	207663	1	976	3	3	2039	53	208740	-54	0											4					40												
WM080112	127933_fnca	1	1	1	1770420550	1	75.031	75.031	2.0.10.147	2.0.10.242	2.0.10.242	1.0.0.439	7	234	2	3	Verdana	1	80	0	0	0	WM Stimuli\	0.6	1236.16666666667	0.8	1209.375	0.8	1070.875	1	963	1	1253.9	1	823.1	0.9	1237.77777777778	1	814.2	13	382587	2	382575	27	40	382614	-999999	382590	0	10	TrialsPROC	BP_011_BP4_BA.png	1	2	41	SessionSelectionList														lure	3	Body	0-Back	36	80	33	0	0	93	4	39	211298	2	14	72	209259	-1	210343	1	1084	3	3	2039	53	211312	-54	0											5					41												
WM080112	127933_fnca	1	1	1	1770420550	1	75.031	75.031	2.0.10.147	2.0.10.242	2.0.10.242	1.0.0.439	7	234	2	3	Verdana	1	80	0	0	0	WM Stimuli\	0.6	1236.16666666667	0.8	1209.375	0.8	1070.875	1	963	1	1253.9	1	823.1	0.9	1237.77777777778	1	814.2	13	382587	2	382575	27	40	382614	-999999	382590	0	10	TrialsPROC	BP_009_BP22_BA.png	1	2	42	SessionSelectionList														nonlure	3	Body	0-Back	37	80	34	0	0	94	5	39	213857	2	14	59	211818	-1	212763	1	945	3	3	2039	53	213871	-54	0											6					42												
WM080112	127933_fnca	1	1	1	1770420550	1	75.031	75.031	2.0.10.147	2.0.10.242	2.0.10.242	1.0.0.439	7	234	2	3	Verdana	1	80	0	0	0	WM Stimuli\	0.6	1236.16666666667	0.8	1209.375	0.8	1070.875	1	963	1	1253.9	1	823.1	0.9	1237.77777777778	1	814.2	13	382587	2	382575	27	40	382614	-999999	382590	0	10	TrialsPROC	BP_009_BP22_BA.png	1	2	43	SessionSelectionList														lure	3	Body	0-Back	38	80	35	0	0	94	6	39	216416	1	14	59	214377	-1	215367	1	990	3	3	2039	53	216430	-54	0											7					43												
WM080112	127933_fnca	1	1	1	1770420550	1	75.031	75.031	2.0.10.147	2.0.10.242	2.0.10.242	1.0.0.439	7	234	2	3	Verdana	1	80	0	0	0	WM Stimuli\	0.6	1236.16666666667	0.8	1209.375	0.8	1070.875	1	963	1	1253.9	1	823.1	0.9	1237.77777777778	1	814.2	13	382587	2	382575	27	40	382614	-999999	382590	0	10	TrialsPROC	BP_008_BP21_BA.png	1	2	44	SessionSelectionList														lure	3	Body	0-Back	39	80	36	0	0	94	7	39	218975	2	14	59	216936	-1	218581	1	1645	3	3	2039	53	218989	-54	0											8					44												
WM080112	127933_fnca	1	1	1	1770420550	1	75.031	75.031	2.0.10.147	2.0.10.242	2.0.10.242	1.0.0.439	7	234	2	3	Verdana	1	80	0	0	0	WM Stimuli\	0.6	1236.16666666667	0.8	1209.375	0.8	1070.875	1	963	1	1253.9	1	823.1	0.9	1237.77777777778	1	814.2	13	382587	2	382575	27	40	382614	-999999	382590	0	10	TrialsPROC	BP_007_BP20_BA.png	1	2	45	SessionSelectionList														target	2	Body	0-Back	40	80	37	0	0	89	8	39	221534	1	14	59	219495	-1	220543	0	1048	3	2	2039	53	221548	-54	0											9					45												
WM080112	127933_fnca	1	1	1	1770420550	1	75.031	75.031	2.0.10.147	2.0.10.242	2.0.10.242	1.0.0.439	7	234	2	3	Verdana	1	80	0	0	0	WM Stimuli\	0.6	1236.16666666667	0.8	1209.375	0.8	1070.875	1	963	1	1253.9	1	823.1	0.9	1237.77777777778	1	814.2	13	382587	2	382575	27	40	382614	-999999	382590	0	10	TrialsPROC	BP_012_BP5_BA.png	1	2	46	SessionSelectionList														nonlure	3	Body	0-Back	41	80	38	0	0	90	9	39	224106	2	14	72	222067	-1	222985	1	918	3	3	2039	53	224120	-54	0											10					46												
WM080112	127933_fnca	1	1	1	1770420550	1	75.031	75.031	2.0.10.147	2.0.10.242	2.0.10.242	1.0.0.439	7	234	2	3	Verdana	1	80	0	0	0	WM Stimuli\	0.6	1236.16666666667	0.8	1209.375	0.8	1070.875	1	963	1	1253.9	1	823.1	0.9	1237.77777777778	1	814.2	13	382587	2	382575	27	40	382614	-999999	382590	0	11	Fix15secPROC	""	1	2	47	SessionSelectionList																																															6	224573	-7	0							47												
WM080112	127933_fnca	1	1	1	1770420550	1	75.031	75.031	2.0.10.147	2.0.10.242	2.0.10.242	1.0.0.439	7	234	2	3	Verdana	1	80	0	0	0	WM Stimuli\	0.6	1236.16666666667	0.8	1209.375	0.8	1070.875	1	963	1	1253.9	1	823.1	0.9	1237.77777777778	1	814.2	13	382587	2	382575	27	40	382614	-999999	382590	0	12	Cue0BackPROC	PL_001_92012.png	1	2	48	SessionSelectionList																																										13	239580	-14	0												48												
WM080112	127933_fnca	1	1	1	1770420550	1	75.031	75.031	2.0.10.147	2.0.10.242	2.0.10.242	1.0.0.439	7	234	2	3	Verdana	1	80	0	0	0	WM Stimuli\	0.6	1236.16666666667	0.8	1209.375	0.8	1070.875	1	963	1	1253.9	1	823.1	0.9	1237.77777777778	1	814.2	13	382587	2	382575	27	40	382614	-999999	382590	0	13	TrialsPROC	PL_003_92016.png	1	2	49	SessionSelectionList														nonlure	3	Place	0-Back	42	80	39	0	0	90	10	39	244178	1	14	72	242139	-1	242927	1	788	3	3	2039	53	244192	-54	0												1				49												
WM080112	127933_fnca	1	1	1	1770420550	1	75.031	75.031	2.0.10.147	2.0.10.242	2.0.10.242	1.0.0.439	7	234	2	3	Verdana	1	80	0	0	0	WM Stimuli\	0.6	1236.16666666667	0.8	1209.375	0.8	1070.875	1	963	1	1253.9	1	823.1	0.9	1237.77777777778	1	814.2	13	382587	2	382575	27	40	382614	-999999	382590	0	13	TrialsPROC	PL_003_92016.png	1	2	50	SessionSelectionList														lure	3	Place	0-Back	43	80	40	0	0	91	11	39	246750	2	14	72	244711	-1	245771	1	1060	3	3	2039	53	246764	-54	0												2				50												
WM080112	127933_fnca	1	1	1	1770420550	1	75.031	75.031	2.0.10.147	2.0.10.242	2.0.10.242	1.0.0.439	7	234	2	3	Verdana	1	80	0	0	0	WM Stimuli\	0.6	1236.16666666667	0.8	1209.375	0.8	1070.875	1	963	1	1253.9	1	823.1	0.9	1237.77777777778	1	814.2	13	382587	2	382575	27	40	382614	-999999	382590	0	13	TrialsPROC	PL_006_92025.png	1	2	51	SessionSelectionList														nonlure	3	Place	0-Back	44	80	41	0	0	91	12	39	249309	1	14	59	247270	-1	248084	1	814	3	3	2039	53	249323	-54	0												3				51												
WM080112	127933_fnca	1	1	1	1770420550	1	75.031	75.031	2.0.10.147	2.0.10.242	2.0.10.242	1.0.0.439	7	234	2	3	Verdana	1	80	0	0	0	WM Stimuli\	0.6	1236.16666666667	0.8	1209.375	0.8	1070.875	1	963	1	1253.9	1	823.1	0.9	1237.77777777778	1	814.2	13	382587	2	382575	27	40	382614	-999999	382590	0	13	TrialsPROC	PL_001_92012.png	1	2	52	SessionSelectionList														target	2	Place	0-Back	45	80	42	0	0	92	1	39	251881	2	14	72	249842	-1	250617	1	775	2	2	2039	53	251895	-54	0												4				52												
WM080112	127933_fnca	1	1	1	1770420550	1	75.031	75.031	2.0.10.147	2.0.10.242	2.0.10.242	1.0.0.439	7	234	2	3	Verdana	1	80	0	0	0	WM Stimuli\	0.6	1236.16666666667	0.8	1209.375	0.8	1070.875	1	963	1	1253.9	1	823.1	0.9	1237.77777777778	1	814.2	13	382587	2	382575	27	40	382614	-999999	382590	0	13	TrialsPROC	PL_004_92023.png	1	2	53	SessionSelectionList														nonlure	3	Place	0-Back	46	80	43	0	0	92	1	40	254454	1	13	72	252414	-1	253024	1	610	3	3	2040	53	254467	-54	0												5				53												
WM080112	127933_fnca	1	1	1	1770420550	1	75.031	75.031	2.0.10.147	2.0.10.242	2.0.10.242	1.0.0.439	7	234	2	3	Verdana	1	80	0	0	0	WM Stimuli\	0.6	1236.16666666667	0.8	1209.375	0.8	1070.875	1	963	1	1253.9	1	823.1	0.9	1237.77777777778	1	814.2	13	382587	2	382575	27	40	382614	-999999	382590	0	13	TrialsPROC	PL_005_92024.png	1	2	54	SessionSelectionList														nonlure	3	Place	0-Back	47	80	44	0	0	92	2	39	257026	1	14	73	254987	-1	255767	1	780	3	3	2039	53	257040	-54	0												6				54												
WM080112	127933_fnca	1	1	1	1770420550	1	75.031	75.031	2.0.10.147	2.0.10.242	2.0.10.242	1.0.0.439	7	234	2	3	Verdana	1	80	0	0	0	WM Stimuli\	0.6	1236.16666666667	0.8	1209.375	0.8	1070.875	1	963	1	1253.9	1	823.1	0.9	1237.77777777778	1	814.2	13	382587	2	382575	27	40	382614	-999999	382590	0	13	TrialsPROC	PL_001_92012.png	1	2	55	SessionSelectionList														target	2	Place	0-Back	48	80	45	0	0	93	1	39	259598	2	14	72	257559	-1	258361	1	802	2	2	2039	53	259612	-54	0												7				55												
WM080112	127933_fnca	1	1	1	1770420550	1	75.031	75.031	2.0.10.147	2.0.10.242	2.0.10.242	1.0.0.439	7	234	2	3	Verdana	1	80	0	0	0	WM Stimuli\	0.6	1236.16666666667	0.8	1209.375	0.8	1070.875	1	963	1	1253.9	1	823.1	0.9	1237.77777777778	1	814.2	13	382587	2	382575	27	40	382614	-999999	382590	0	13	TrialsPROC	PL_002_92014.png	1	2	56	SessionSelectionList														nonlure	3	Place	0-Back	49	80	46	0	0	93	1	39	262170	2	14	72	260131	-1	260840	1	709	3	3	2039	53	262184	-54	0												8				56												
WM080112	127933_fnca	1	1	1	1770420550	1	75.031	75.031	2.0.10.147	2.0.10.242	2.0.10.242	1.0.0.439	7	234	2	3	Verdana	1	80	0	0	0	WM Stimuli\	0.6	1236.16666666667	0.8	1209.375	0.8	1070.875	1	963	1	1253.9	1	823.1	0.9	1237.77777777778	1	814.2	13	382587	2	382575	27	40	382614	-999999	382590	0	13	TrialsPROC	PL_004_92023.png	1	2	57	SessionSelectionList														lure	3	Place	0-Back	50	80	47	0	0	93	2	40	264743	1	13	72	262703	-1	263519	1	816	3	3	2040	53	264756	-54	0												9				57												
WM080112	127933_fnca	1	1	1	1770420550	1	75.031	75.031	2.0.10.147	2.0.10.242	2.0.10.242	1.0.0.439	7	234	2	3	Verdana	1	80	0	0	0	WM Stimuli\	0.6	1236.16666666667	0.8	1209.375	0.8	1070.875	1	963	1	1253.9	1	823.1	0.9	1237.77777777778	1	814.2	13	382587	2	382575	27	40	382614	-999999	382590	0	13	TrialsPROC	PL_006_92025.png	1	2	58	SessionSelectionList														lure	3	Place	0-Back	51	80	48	0	0	93	3	39	267315	1	14	73	265276	-1	266353	1	1077	3	3	2039	53	267329	-54	0												10				58												
WM080112	127933_fnca	1	1	1	1770420550	1	75.031	75.031	2.0.10.147	2.0.10.242	2.0.10.242	1.0.0.439	7	234	2	3	Verdana	1	80	0	0	0	WM Stimuli\	0.6	1236.16666666667	0.8	1209.375	0.8	1070.875	1	963	1	1253.9	1	823.1	0.9	1237.77777777778	1	814.2	13	382587	2	382575	27	40	382614	-999999	382590	0	14	Cue2BackPROC	""	1	2	59	SessionSelectionList									5	267781	-6	0																																													59												
WM080112	127933_fnca	1	1	1	1770420550	1	75.031	75.031	2.0.10.147	2.0.10.242	2.0.10.242	1.0.0.439	7	234	2	3	Verdana	1	80	0	0	0	WM Stimuli\	0.6	1236.16666666667	0.8	1209.375	0.8	1070.875	1	963	1	1253.9	1	823.1	0.9	1237.77777777778	1	814.2	13	382587	2	382575	27	40	382614	-999999	382590	0	15	TrialsPROC	FC_010_F5.png	1	2	60	SessionSelectionList														nonlure	3	Face	2-Back	52	80	49	0	0	93	4	39	272379	2	14	64	270340	-1	271126	1	786	3	3	2039	53	272393	-54	0													1			60												
WM080112	127933_fnca	1	1	1	1770420550	1	75.031	75.031	2.0.10.147	2.0.10.242	2.0.10.242	1.0.0.439	7	234	2	3	Verdana	1	80	0	0	0	WM Stimuli\	0.6	1236.16666666667	0.8	1209.375	0.8	1070.875	1	963	1	1253.9	1	823.1	0.9	1237.77777777778	1	814.2	13	382587	2	382575	27	40	382614	-999999	382590	0	15	TrialsPROC	FC_012_F6.png	1	2	61	SessionSelectionList														nonlure	3	Face	2-Back	53	80	50	0	0	93	5	39	274952	1	14	73	272913	-1	273790	1	877	3	3	2039	53	274966	-54	0													2			61												
WM080112	127933_fnca	1	1	1	1770420550	1	75.031	75.031	2.0.10.147	2.0.10.242	2.0.10.242	1.0.0.439	7	234	2	3	Verdana	1	80	0	0	0	WM Stimuli\	0.6	1236.16666666667	0.8	1209.375	0.8	1070.875	1	963	1	1253.9	1	823.1	0.9	1237.77777777778	1	814.2	13	382587	2	382575	27	40	382614	-999999	382590	0	15	TrialsPROC	FC_010_F5.png	1	2	62	SessionSelectionList														target	2	Face	2-Back	54	80	51	0	0	93	1	39	277524	1	14	72	275485	-1	276265	1	780	2	2	2039	53	277538	-54	0													3			62												
WM080112	127933_fnca	1	1	1	1770420550	1	75.031	75.031	2.0.10.147	2.0.10.242	2.0.10.242	1.0.0.439	7	234	2	3	Verdana	1	80	0	0	0	WM Stimuli\	0.6	1236.16666666667	0.8	1209.375	0.8	1070.875	1	963	1	1253.9	1	823.1	0.9	1237.77777777778	1	814.2	13	382587	2	382575	27	40	382614	-999999	382590	0	15	TrialsPROC	FC_008_F4.png	1	2	63	SessionSelectionList														nonlure	3	Face	2-Back	55	80	52	0	0	93	2	39	280123	1	14	99	278084	-1	279240	0	1156	2	3	2039	53	280137	-54	0													4			63												
WM080112	127933_fnca	1	1	1	1770420550	1	75.031	75.031	2.0.10.147	2.0.10.242	2.0.10.242	1.0.0.439	7	234	2	3	Verdana	1	80	0	0	0	WM Stimuli\	0.6	1236.16666666667	0.8	1209.375	0.8	1070.875	1	963	1	1253.9	1	823.1	0.9	1237.77777777778	1	814.2	13	382587	2	382575	27	40	382614	-999999	382590	0	15	TrialsPROC	FC_012_F6.png	1	2	64	SessionSelectionList														lure	3	Face	2-Back	56	80	53	0	0	93	1	39	282695	2	14	72	280656	-1	281916	1	1260	3	3	2039	53	282709	-54	0													5			64												
WM080112	127933_fnca	1	1	1	1770420550	1	75.031	75.031	2.0.10.147	2.0.10.242	2.0.10.242	1.0.0.439	7	234	2	3	Verdana	1	80	0	0	0	WM Stimuli\	0.6	1236.16666666667	0.8	1209.375	0.8	1070.875	1	963	1	1253.9	1	823.1	0.9	1237.77777777778	1	814.2	13	382587	2	382575	27	40	382614	-999999	382590	0	15	TrialsPROC	FC_008_F4.png	1	2	65	SessionSelectionList														target	2	Face	2-Back	57	80	54	0	0	93	1	39	285267	2	14	72	283228	-1	284642	1	1414	2	2	2039	53	285281	-54	0													6			65												
WM080112	127933_fnca	1	1	1	1770420550	1	75.031	75.031	2.0.10.147	2.0.10.242	2.0.10.242	1.0.0.439	7	234	2	3	Verdana	1	80	0	0	0	WM Stimuli\	0.6	1236.16666666667	0.8	1209.375	0.8	1070.875	1	963	1	1253.9	1	823.1	0.9	1237.77777777778	1	814.2	13	382587	2	382575	27	40	382614	-999999	382590	0	15	TrialsPROC	FC_007_M4.png	1	2	66	SessionSelectionList														nonlure	3	Face	2-Back	58	80	55	0	0	93	1	39	287853	1	14	86	285814	-1	286941	1	1127	3	3	2039	53	287867	-54	0													7			66												
WM080112	127933_fnca	1	1	1	1770420550	1	75.031	75.031	2.0.10.147	2.0.10.242	2.0.10.242	1.0.0.439	7	234	2	3	Verdana	1	80	0	0	0	WM Stimuli\	0.6	1236.16666666667	0.8	1209.375	0.8	1070.875	1	963	1	1253.9	1	823.1	0.9	1237.77777777778	1	814.2	13	382587	2	382575	27	40	382614	-999999	382590	0	15	TrialsPROC	FC_007_M4.png	1	2	67	SessionSelectionList														lure	3	Face	2-Back	59	80	56	0	0	93	2	39	290425	2	14	72	288386	-1	289577	1	1191	3	3	2039	53	290439	-54	0													8			67												
WM080112	127933_fnca	1	1	1	1770420550	1	75.031	75.031	2.0.10.147	2.0.10.242	2.0.10.242	1.0.0.439	7	234	2	3	Verdana	1	80	0	0	0	WM Stimuli\	0.6	1236.16666666667	0.8	1209.375	0.8	1070.875	1	963	1	1253.9	1	823.1	0.9	1237.77777777778	1	814.2	13	382587	2	382575	27	40	382614	-999999	382590	0	15	TrialsPROC	FC_009_M5.png	1	2	68	SessionSelectionList														nonlure	3	Face	2-Back	60	80	57	0	0	93	3	39	293011	1	14	86	290972	-1	292104	1	1132	3	3	2039	53	293025	-54	0													9			68												
WM080112	127933_fnca	1	1	1	1770420550	1	75.031	75.031	2.0.10.147	2.0.10.242	2.0.10.242	1.0.0.439	7	234	2	3	Verdana	1	80	0	0	0	WM Stimuli\	0.6	1236.16666666667	0.8	1209.375	0.8	1070.875	1	963	1	1253.9	1	823.1	0.9	1237.77777777778	1	814.2	13	382587	2	382575	27	40	382614	-999999	382590	0	15	TrialsPROC	FC_011_M6.png	1	2	69	SessionSelectionList														nonlure	3	Face	2-Back	61	80	58	0	0	93	1	40	295597	1	13	85	293557	-1	294874	0	1317	2	3	2040	53	295610	-54	0													10			69												
WM080112	127933_fnca	1	1	1	1770420550	1	75.031	75.031	2.0.10.147	2.0.10.242	2.0.10.242	1.0.0.439	7	234	2	3	Verdana	1	80	0	0	0	WM Stimuli\	0.6	1236.16666666667	0.8	1209.375	0.8	1070.875	1	963	1	1253.9	1	823.1	0.9	1237.77777777778	1	814.2	13	382587	2	382575	27	40	382614	-999999	382590	0	16	Fix15secPROC	""	1	2	70	SessionSelectionList																																															6	296063	-7	0							70												
WM080112	127933_fnca	1	1	1	1770420550	1	75.031	75.031	2.0.10.147	2.0.10.242	2.0.10.242	1.0.0.439	7	234	2	3	Verdana	1	80	0	0	0	WM Stimuli\	0.6	1236.16666666667	0.8	1209.375	0.8	1070.875	1	963	1	1253.9	1	823.1	0.9	1237.77777777778	1	814.2	13	382587	2	382575	27	40	382614	-999999	382590	0	17	Cue0BackPROC	TO_007_TOOL7_BA.png	1	2	71	SessionSelectionList																																										40	311097	-41	0												71												
WM080112	127933_fnca	1	1	1	1770420550	1	75.031	75.031	2.0.10.147	2.0.10.242	2.0.10.242	1.0.0.439	7	234	2	3	Verdana	1	80	0	0	0	WM Stimuli\	0.6	1236.16666666667	0.8	1209.375	0.8	1070.875	1	963	1	1253.9	1	823.1	0.9	1237.77777777778	1	814.2	13	382587	2	382575	27	40	382614	-999999	382590	0	18	TrialsPROC	TO_010_TOOL10_BA.png	1	2	72	SessionSelectionList														nonlure	3	Tools	0-Back	62	80	59	0	0	94	1	39	315681	2	14	85	313642	-1	314963	1	1321	3	3	2039	53	315695	-54	0														1		72												
WM080112	127933_fnca	1	1	1	1770420550	1	75.031	75.031	2.0.10.147	2.0.10.242	2.0.10.242	1.0.0.439	7	234	2	3	Verdana	1	80	0	0	0	WM Stimuli\	0.6	1236.16666666667	0.8	1209.375	0.8	1070.875	1	963	1	1253.9	1	823.1	0.9	1237.77777777778	1	814.2	13	382587	2	382575	27	40	382614	-999999	382590	0	18	TrialsPROC	TO_009_TOOL9_BA.png	1	2	73	SessionSelectionList														nonlure	3	Tools	0-Back	63	80	60	0	0	94	2	39	318267	2	14	86	316228	-1	316984	1	756	3	3	2039	53	318281	-54	0														2		73												
WM080112	127933_fnca	1	1	1	1770420550	1	75.031	75.031	2.0.10.147	2.0.10.242	2.0.10.242	1.0.0.439	7	234	2	3	Verdana	1	80	0	0	0	WM Stimuli\	0.6	1236.16666666667	0.8	1209.375	0.8	1070.875	1	963	1	1253.9	1	823.1	0.9	1237.77777777778	1	814.2	13	382587	2	382575	27	40	382614	-999999	382590	0	18	TrialsPROC	TO_009_TOOL9_BA.png	1	2	74	SessionSelectionList														lure	3	Tools	0-Back	64	80	61	0	0	94	3	39	320826	2	14	59	318787	-1	319633	1	846	3	3	2039	53	320840	-54	0														3		74												
WM080112	127933_fnca	1	1	1	1770420550	1	75.031	75.031	2.0.10.147	2.0.10.242	2.0.10.242	1.0.0.439	7	234	2	3	Verdana	1	80	0	0	0	WM Stimuli\	0.6	1236.16666666667	0.8	1209.375	0.8	1070.875	1	963	1	1253.9	1	823.1	0.9	1237.77777777778	1	814.2	13	382587	2	382575	27	40	382614	-999999	382590	0	18	TrialsPROC	TO_008_TOOL8_BA.png	1	2	75	SessionSelectionList														nonlure	3	Tools	0-Back	65	80	62	0	0	94	4	40	323412	1	13	85	321372	-1	322283	1	911	3	3	2040	53	323425	-54	0														4		75												
WM080112	127933_fnca	1	1	1	1770420550	1	75.031	75.031	2.0.10.147	2.0.10.242	2.0.10.242	1.0.0.439	7	234	2	3	Verdana	1	80	0	0	0	WM Stimuli\	0.6	1236.16666666667	0.8	1209.375	0.8	1070.875	1	963	1	1253.9	1	823.1	0.9	1237.77777777778	1	814.2	13	382587	2	382575	27	40	382614	-999999	382590	0	18	TrialsPROC	TO_011_TOOL11_BA.png	1	2	76	SessionSelectionList														nonlure	3	Tools	0-Back	66	80	63	0	0	94	5	39	325997	2	14	86	323958	-1	324788	1	830	3	3	2039	53	326011	-54	0														5		76												
WM080112	127933_fnca	1	1	1	1770420550	1	75.031	75.031	2.0.10.147	2.0.10.242	2.0.10.242	1.0.0.439	7	234	2	3	Verdana	1	80	0	0	0	WM Stimuli\	0.6	1236.16666666667	0.8	1209.375	0.8	1070.875	1	963	1	1253.9	1	823.1	0.9	1237.77777777778	1	814.2	13	382587	2	382575	27	40	382614	-999999	382590	0	18	TrialsPROC	TO_012_TOOL12_BA.png	1	2	77	SessionSelectionList														nonlure	3	Tools	0-Back	67	80	64	0	0	94	6	39	328583	1	14	86	326544	-1	327445	1	901	3	3	2039	53	328597	-54	0														6		77												
WM080112	127933_fnca	1	1	1	1770420550	1	75.031	75.031	2.0.10.147	2.0.10.242	2.0.10.242	1.0.0.439	7	234	2	3	Verdana	1	80	0	0	0	WM Stimuli\	0.6	1236.16666666667	0.8	1209.375	0.8	1070.875	1	963	1	1253.9	1	823.1	0.9	1237.77777777778	1	814.2	13	382587	2	382575	27	40	382614	-999999	382590	0	18	TrialsPROC	TO_010_TOOL10_BA.png	1	2	78	SessionSelectionList														lure	3	Tools	0-Back	68	80	65	0	0	95	7	39	331142	1	14	59	329103	-1	329781	1	678	3	3	2039	53	331156	-54	0														7		78												
WM080112	127933_fnca	1	1	1	1770420550	1	75.031	75.031	2.0.10.147	2.0.10.242	2.0.10.242	1.0.0.439	7	234	2	3	Verdana	1	80	0	0	0	WM Stimuli\	0.6	1236.16666666667	0.8	1209.375	0.8	1070.875	1	963	1	1253.9	1	823.1	0.9	1237.77777777778	1	814.2	13	382587	2	382575	27	40	382614	-999999	382590	0	18	TrialsPROC	TO_007_TOOL7_BA.png	1	2	79	SessionSelectionList														target	2	Tools	0-Back	69	80	66	0	0	95	1	39	333701	1	13	59	331662	-1	332377	1	715	2	2	2039	52	333714	-53	0														8		79												
WM080112	127933_fnca	1	1	1	1770420550	1	75.031	75.031	2.0.10.147	2.0.10.242	2.0.10.242	1.0.0.439	7	234	2	3	Verdana	1	80	0	0	0	WM Stimuli\	0.6	1236.16666666667	0.8	1209.375	0.8	1070.875	1	963	1	1253.9	1	823.1	0.9	1237.77777777778	1	814.2	13	382587	2	382575	27	40	382614	-999999	382590	0	18	TrialsPROC	TO_008_TOOL8_BA.png	1	2	80	SessionSelectionList														lure	3	Tools	0-Back	70	80	67	0	0	95	1	40	336260	1	13	58	334220	-1	334832	1	612	3	3	2040	53	336273	-54	0														9		80												
WM080112	127933_fnca	1	1	1	1770420550	1	75.031	75.031	2.0.10.147	2.0.10.242	2.0.10.242	1.0.0.439	7	234	2	3	Verdana	1	80	0	0	0	WM Stimuli\	0.6	1236.16666666667	0.8	1209.375	0.8	1070.875	1	963	1	1253.9	1	823.1	0.9	1237.77777777778	1	814.2	13	382587	2	382575	27	40	382614	-999999	382590	0	18	TrialsPROC	TO_007_TOOL7_BA.png	1	2	81	SessionSelectionList														target	2	Tools	0-Back	71	80	68	0	0	95	1	40	338819	1	13	59	336779	-1	337351	1	572	2	2	2040	53	338832	-54	0														10		81												
WM080112	127933_fnca	1	1	1	1770420550	1	75.031	75.031	2.0.10.147	2.0.10.242	2.0.10.242	1.0.0.439	7	234	2	3	Verdana	1	80	0	0	0	WM Stimuli\	0.6	1236.16666666667	0.8	1209.375	0.8	1070.875	1	963	1	1253.9	1	823.1	0.9	1237.77777777778	1	814.2	13	382587	2	382575	27	40	382614	-999999	382590	0	19	Cue2BackPROC	""	1	2	82	SessionSelectionList									6	339285	-7	0																																													82												
WM080112	127933_fnca	1	1	1	1770420550	1	75.031	75.031	2.0.10.147	2.0.10.242	2.0.10.242	1.0.0.439	7	234	2	3	Verdana	1	80	0	0	0	WM Stimuli\	0.6	1236.16666666667	0.8	1209.375	0.8	1070.875	1	963	1	1253.9	1	823.1	0.9	1237.77777777778	1	814.2	13	382587	2	382575	27	40	382614	-999999	382590	0	20	TrialsPROC	PL_007_92026.png	1	2	83	SessionSelectionList														nonlure	3	Place	2-Back	72	80	69	0	0	95	1	39	343896	2	14	78	341857	-1	343484	1	1627	3	3	2039	53	343910	-54	0															1	83												
WM080112	127933_fnca	1	1	1	1770420550	1	75.031	75.031	2.0.10.147	2.0.10.242	2.0.10.242	1.0.0.439	7	234	2	3	Verdana	1	80	0	0	0	WM Stimuli\	0.6	1236.16666666667	0.8	1209.375	0.8	1070.875	1	963	1	1253.9	1	823.1	0.9	1237.77777777778	1	814.2	13	382587	2	382575	27	40	382614	-999999	382590	0	20	TrialsPROC	PL_007_92026.png	1	2	84	SessionSelectionList														lure	3	Place	2-Back	73	80	70	0	0	95	2	39	346469	2	14	73	344430	-1	346216	1	1786	3	3	2039	53	346483	-54	0															2	84												
WM080112	127933_fnca	1	1	1	1770420550	1	75.031	75.031	2.0.10.147	2.0.10.242	2.0.10.242	1.0.0.439	7	234	2	3	Verdana	1	80	0	0	0	WM Stimuli\	0.6	1236.16666666667	0.8	1209.375	0.8	1070.875	1	963	1	1253.9	1	823.1	0.9	1237.77777777778	1	814.2	13	382587	2	382575	27	40	382614	-999999	382590	0	20	TrialsPROC	PL_010_92038.png	1	2	85	SessionSelectionList														nonlure	3	Place	2-Back	74	80	71	0	0	95	3	39	349054	3	14	85	347015	-1	348662	1	1647	3	3	2039	53	349068	-54	0															3	85												
WM080112	127933_fnca	1	1	1	1770420550	1	75.031	75.031	2.0.10.147	2.0.10.242	2.0.10.242	1.0.0.439	7	234	2	3	Verdana	1	80	0	0	0	WM Stimuli\	0.6	1236.16666666667	0.8	1209.375	0.8	1070.875	1	963	1	1253.9	1	823.1	0.9	1237.77777777778	1	814.2	13	382587	2	382575	27	40	382614	-999999	382590	0	20	TrialsPROC	PL_009_92037.png	1	2	86	SessionSelectionList														nonlure	3	Place	2-Back	75	80	72	0	0	95	4	39	351640	1	14	86	349601	-1	350810	1	1209	3	3	2039	53	351654	-54	0															4	86												
WM080112	127933_fnca	1	1	1	1770420550	1	75.031	75.031	2.0.10.147	2.0.10.242	2.0.10.242	1.0.0.439	7	234	2	3	Verdana	1	80	0	0	0	WM Stimuli\	0.6	1236.16666666667	0.8	1209.375	0.8	1070.875	1	963	1	1253.9	1	823.1	0.9	1237.77777777778	1	814.2	13	382587	2	382575	27	40	382614	-999999	382590	0	20	TrialsPROC	PL_010_92038.png	1	2	87	SessionSelectionList														target	2	Place	2-Back	76	80	73	0	0	95	1	39	354212	2	14	72	352173	-1	353026	1	853	2	2	2039	53	354226	-54	0															5	87												
WM080112	127933_fnca	1	1	1	1770420550	1	75.031	75.031	2.0.10.147	2.0.10.242	2.0.10.242	1.0.0.439	7	234	2	3	Verdana	1	80	0	0	0	WM Stimuli\	0.6	1236.16666666667	0.8	1209.375	0.8	1070.875	1	963	1	1253.9	1	823.1	0.9	1237.77777777778	1	814.2	13	382587	2	382575	27	40	382614	-999999	382590	0	20	TrialsPROC	PL_009_92037.png	1	2	88	SessionSelectionList														target	2	Place	2-Back	77	80	74	0	0	95	2	39	356771	2	14	59	354732	-1	355980	1	1248	2	2	2039	53	356785	-54	0															6	88												
WM080112	127933_fnca	1	1	1	1770420550	1	75.031	75.031	2.0.10.147	2.0.10.242	2.0.10.242	1.0.0.439	7	234	2	3	Verdana	1	80	0	0	0	WM Stimuli\	0.6	1236.16666666667	0.8	1209.375	0.8	1070.875	1	963	1	1253.9	1	823.1	0.9	1237.77777777778	1	814.2	13	382587	2	382575	27	40	382614	-999999	382590	0	20	TrialsPROC	PL_008_92033.png	1	2	89	SessionSelectionList														nonlure	3	Place	2-Back	78	80	75	0	0	95	1	39	359357	1	13	86	357318	-1	358418	1	1100	3	3	2039	52	359370	-53	0															7	89												
WM080112	127933_fnca	1	1	1	1770420550	1	75.031	75.031	2.0.10.147	2.0.10.242	2.0.10.242	1.0.0.439	7	234	2	3	Verdana	1	80	0	0	0	WM Stimuli\	0.6	1236.16666666667	0.8	1209.375	0.8	1070.875	1	963	1	1253.9	1	823.1	0.9	1237.77777777778	1	814.2	13	382587	2	382575	27	40	382614	-999999	382590	0	20	TrialsPROC	PL_012_92047.png	1	2	90	SessionSelectionList														nonlure	3	Place	2-Back	79	80	76	0	0	95	2	39	361942	2	14	85	359903	-1	360889	1	986	3	3	2039	53	361956	-54	0															8	90												
WM080112	127933_fnca	1	1	1	1770420550	1	75.031	75.031	2.0.10.147	2.0.10.242	2.0.10.242	1.0.0.439	7	234	2	3	Verdana	1	80	0	0	0	WM Stimuli\	0.6	1236.16666666667	0.8	1209.375	0.8	1070.875	1	963	1	1253.9	1	823.1	0.9	1237.77777777778	1	814.2	13	382587	2	382575	27	40	382614	-999999	382590	0	20	TrialsPROC	PL_012_92047.png	1	2	91	SessionSelectionList														lure	3	Place	2-Back	80	80	77	0	0	95	3	40	364515	1	13	72	362475	-1	363568	1	1093	3	3	2040	53	364528	-54	0															9	91												
WM080112	127933_fnca	1	1	1	1770420550	1	75.031	75.031	2.0.10.147	2.0.10.242	2.0.10.242	1.0.0.439	7	234	2	3	Verdana	1	80	0	0	0	WM Stimuli\	0.6	1236.16666666667	0.8	1209.375	0.8	1070.875	1	963	1	1253.9	1	823.1	0.9	1237.77777777778	1	814.2	13	382587	2	382575	27	40	382614	-999999	382590	0	20	TrialsPROC	PL_011_92044.png	1	2	92	SessionSelectionList														nonlure	3	Place	2-Back	80	80	78	0	0	95	4	39	367113	2	14	99	365074	-1	366064	1	990	3	3	2039	53	367127	-54	0															10	92												
WM080112	127933_fnca	1	1	1	1770420550	1	75.031	75.031	2.0.10.147	2.0.10.242	2.0.10.242	1.0.0.439	7	234	2	3	Verdana	1	80	0	0	0	WM Stimuli\	0.6	1236.16666666667	0.8	1209.375	0.8	1070.875	1	963	1	1253.9	1	823.1	0.9	1237.77777777778	1	814.2	13	382587	2	382575	27	40	382614	-999999	382590	0	21	Fix15secPROC	""	1	2	93	SessionSelectionList																																															6	367580	-7	0							93												
