ExperimentName	HCPID	RunNumber	Subject	Session	RandomSeed	Group	Laptop.RefreshRate	ScannerD2.RefreshRate	StudioVersion	RuntimeVersion	RuntimeVersionExpected	ExperimentVersion	triggercode	Allowed	Target	Nontarget	FontStyle	RunTrialNumber[Session]	TrialsPerRun[Session]	TotalRespGreater200[Session]	ConsecRTLess200[Session]	ConsecNonResp[Session]	StimuliDir	ACC_2_Back_Body	Avg_RT_For_Correct_Trials_2_Back_Body	ACC_0_Back_Body	Avg_RT_For_Correct_Trials_0_Back_Body	ACC_2_Back_Face	Avg_RT_For_Correct_Trials_2_Back_Face	ACC_0_Back_Face	Avg_RT_For_Correct_Trials_0_Back_Face	ACC_2_Back_Place	Avg_RT_For_Correct_Trials_2_Back_Place	ACC_0_Back_Place	Avg_RT_For_Correct_Trials_0_Back_Place	ACC_2_Back_Tools	Avg_RT_For_Correct_Trials_2_Back_Tools	ACC_0_Back_Tools	Avg_RT_For_Correct_Trials_0_Back_Tools	ExpInstrucFeelFreeToRest.OnsetDelay	ExpInstrucFeelFreeToRest.OnsetTime	ExpInstrucFeelFreeToRest.DurationError	ExpInstrucFeelFreeToRest.StartTime	ExpInstrucFeelFreeToRest.OnsetToOnsetTime	FeelFreeToRest.OnsetDelay	FeelFreeToRest.OnsetTime	FeelFreeToRest.DurationError	FeelFreeToRest.StartTime	FeelFreeToRest.OnsetToOnsetTime	SessionSelectionList	Procedure[Block]	Stimulus[Block]	RunNumberFilterValue	SessionSelectionList.Cycle	SessionSelectionList.Sample	Running[Block]	IntroButtonMap.OnsetDelay	IntroButtonMap.OnsetTime	IntroButtonMap.DurationError	IntroButtonMap.OnsetToOnsetTime	GetReady.OnsetDelay	GetReady.OnsetTime	GetReady.DurationError	GetReady.OnsetToOnsetTime	Cue2Back.OnsetDelay	Cue2Back.OnsetTime	Cue2Back.DurationError	Cue2Back.OnsetToOnsetTime	Run1Block1	TargetType	CorrectResponse	StimType	BlockType	RunTrialNumber[Block]	TrialsPerRun[Block]	TotalRespGreater200[Block]	ConsecRTLess200[Block]	ConsecNonResp[Block]	ControlAcc	ConsecSameResp	ExperimenterWindow.OnsetDelay	ExperimenterWindow.OnsetTime	ExperimenterWindow.DurationError	ExperimenterWindow.OnsetToOnsetTime	Stim.OnsetDelay	Stim.OnsetTime	Stim.DurationError	Stim.RTTime	Stim.ACC	Stim.RT	Stim.RESP	Stim.CRESP	Stim.OnsetToOnsetTime	Fix.OnsetDelay	Fix.OnsetTime	Fix.DurationError	Fix.OnsetToOnsetTime	CueTarget.OnsetDelay	CueTarget.OnsetTime	CueTarget.DurationError	CueTarget.OnsetToOnsetTime	Run1Block2	Fix15sec.OnsetDelay	Fix15sec.OnsetTime	Fix15sec.DurationError	Fix15sec.OnsetToOnsetTime	Run1Block3	Run1Block4	Run1Block5	Run1Block6	Run1Block7	Run1Block8	Block	Procedure[Trial]	Stimulus[Trial]	ReadyList	Running[Trial]	ReadyList.Cycle	ReadyList.Sample	SyncSlide.OnsetDelay	SyncSlide.OnsetTime	SyncSlide.DurationError	SyncSlide.FinishTime	SyncSlide.OnsetToOnsetTime	Trial
WM080112	123925_fnca	1	1	1	-1505644436	1	75.032	75.031	2.0.10.147	2.0.10.242	2.0.10.242	1.0.0.439	7	234	2	3	Verdana	1	80	0	0	0	WM Stimuli\	0.7	923.142857142857	0.9	933.888888888889	1	810.8	1	836.3	1	749.6	1	673	0.9	867.666666666667	1	649.5	13	421964	1	421952	13	26	421977	-999999	421966	0	1	TRSyncPROC	""	1	2	1	SessionSelectionList	115	11678	-999999	0	29	114236	-999999	0																																																	1	InitialTR	4	1	ReadyList	1	1	18	127910	-19	129891	0	1
WM080112	123925_fnca	1	1	1	-1505644436	1	75.032	75.031	2.0.10.147	2.0.10.242	2.0.10.242	1.0.0.439	7	234	2	3	Verdana	1	80	0	0	0	WM Stimuli\	0.7	923.142857142857	0.9	933.888888888889	1	810.8	1	836.3	1	749.6	1	673	0.9	867.666666666667	1	649.5	13	421964	1	421952	13	26	421977	-999999	421966	0	1	TRSyncPROC	""	1	2	1	SessionSelectionList	115	11678	-999999	0	29	114236	-999999	0																																																	1	InitialTR	3	2	ReadyList	1	2	18	129910	-19	131891	0	2
WM080112	123925_fnca	1	1	1	-1505644436	1	75.032	75.031	2.0.10.147	2.0.10.242	2.0.10.242	1.0.0.439	7	234	2	3	Verdana	1	80	0	0	0	WM Stimuli\	0.7	923.142857142857	0.9	933.888888888889	1	810.8	1	836.3	1	749.6	1	673	0.9	867.666666666667	1	649.5	13	421964	1	421952	13	26	421977	-999999	421966	0	1	TRSyncPROC	""	1	2	1	SessionSelectionList	115	11678	-999999	0	29	114236	-999999	0																																																	1	InitialTR	2	3	ReadyList	1	3	3	131895	-4	133891	0	3
WM080112	123925_fnca	1	1	1	-1505644436	1	75.032	75.031	2.0.10.147	2.0.10.242	2.0.10.242	1.0.0.439	7	234	2	3	Verdana	1	80	0	0	0	WM Stimuli\	0.7	923.142857142857	0.9	933.888888888889	1	810.8	1	836.3	1	749.6	1	673	0.9	867.666666666667	1	649.5	13	421964	1	421952	13	26	421977	-999999	421966	0	1	TRSyncPROC	""	1	2	1	SessionSelectionList	115	11678	-999999	0	29	114236	-999999	0																																																	1	InitialTR	1	4	ReadyList	1	4	16	133908	-17	135891	0	4
WM080112	123925_fnca	1	1	1	-1505644436	1	75.032	75.031	2.0.10.147	2.0.10.242	2.0.10.242	1.0.0.439	7	234	2	3	Verdana	1	80	0	0	0	WM Stimuli\	0.7	923.142857142857	0.9	933.888888888889	1	810.8	1	836.3	1	749.6	1	673	0.9	867.666666666667	1	649.5	13	421964	1	421952	13	26	421977	-999999	421966	0	2	Cue2BackPROC	""	1	2	2	SessionSelectionList									15	135907	-16	0																																													2												
WM080112	123925_fnca	1	1	1	-1505644436	1	75.032	75.031	2.0.10.147	2.0.10.242	2.0.10.242	1.0.0.439	7	234	2	3	Verdana	1	80	0	0	0	WM Stimuli\	0.7	923.142857142857	0.9	933.888888888889	1	810.8	1	836.3	1	749.6	1	673	0.9	867.666666666667	1	649.5	13	421964	1	421952	13	26	421977	-999999	421966	0	3	TrialsPROC	BP_002_BP10_BA.png	1	2	3	SessionSelectionList													1	nonlure	3	Body	2-Back	2	80	1	0	0	0	1	52	140545	3	14	101	138493	-1	139678	1	1185	3	3	2052	66	140559	-67	0																3												
WM080112	123925_fnca	1	1	1	-1505644436	1	75.032	75.031	2.0.10.147	2.0.10.242	2.0.10.242	1.0.0.439	7	234	2	3	Verdana	1	80	0	0	0	WM Stimuli\	0.7	923.142857142857	0.9	933.888888888889	1	810.8	1	836.3	1	749.6	1	673	0.9	867.666666666667	1	649.5	13	421964	1	421952	13	26	421977	-999999	421966	0	3	TrialsPROC	BP_001_BP1_BA.png	1	2	4	SessionSelectionList													2	nonlure	3	Body	2-Back	3	80	2	0	0	0	2	39	143104	3	14	72	141065	-1	141935	1	870	3	3	2039	53	143118	-54	0																4												
WM080112	123925_fnca	1	1	1	-1505644436	1	75.032	75.031	2.0.10.147	2.0.10.242	2.0.10.242	1.0.0.439	7	234	2	3	Verdana	1	80	0	0	0	WM Stimuli\	0.7	923.142857142857	0.9	933.888888888889	1	810.8	1	836.3	1	749.6	1	673	0.9	867.666666666667	1	649.5	13	421964	1	421952	13	26	421977	-999999	421966	0	3	TrialsPROC	BP_006_BP2_BA.png	1	2	5	SessionSelectionList													3	nonlure	3	Body	2-Back	4	80	3	0	0	0	1	39	145690	1	13	86	143651	-1	144484	0	833	2	3	2039	52	145703	-53	0																5												
WM080112	123925_fnca	1	1	1	-1505644436	1	75.032	75.031	2.0.10.147	2.0.10.242	2.0.10.242	1.0.0.439	7	234	2	3	Verdana	1	80	0	0	0	WM Stimuli\	0.7	923.142857142857	0.9	933.888888888889	1	810.8	1	836.3	1	749.6	1	673	0.9	867.666666666667	1	649.5	13	421964	1	421952	13	26	421977	-999999	421966	0	3	TrialsPROC	BP_001_BP1_BA.png	1	2	6	SessionSelectionList													4	target	2	Body	2-Back	5	80	4	0	0	0	2	39	148262	1	14	72	146223	-1	147162	1	939	2	2	2039	53	148276	-54	0																6												
WM080112	123925_fnca	1	1	1	-1505644436	1	75.032	75.031	2.0.10.147	2.0.10.242	2.0.10.242	1.0.0.439	7	234	2	3	Verdana	1	80	0	0	0	WM Stimuli\	0.7	923.142857142857	0.9	933.888888888889	1	810.8	1	836.3	1	749.6	1	673	0.9	867.666666666667	1	649.5	13	421964	1	421952	13	26	421977	-999999	421966	0	3	TrialsPROC	BP_005_BP19_BA.png	1	2	7	SessionSelectionList													5	nonlure	3	Body	2-Back	6	80	5	0	0	0	1	39	150834	2	14	72	148795	-1	149569	1	774	3	3	2039	53	150848	-54	0																7												
WM080112	123925_fnca	1	1	1	-1505644436	1	75.032	75.031	2.0.10.147	2.0.10.242	2.0.10.242	1.0.0.439	7	234	2	3	Verdana	1	80	0	0	0	WM Stimuli\	0.7	923.142857142857	0.9	933.888888888889	1	810.8	1	836.3	1	749.6	1	673	0.9	867.666666666667	1	649.5	13	421964	1	421952	13	26	421977	-999999	421966	0	3	TrialsPROC	BP_003_BP16_BA.png	1	2	8	SessionSelectionList													6	nonlure	3	Body	2-Back	7	80	6	0	0	0	2	39	153420	1	14	86	151381	-1	152008	1	627	3	3	2039	53	153434	-54	0																8												
WM080112	123925_fnca	1	1	1	-1505644436	1	75.032	75.031	2.0.10.147	2.0.10.242	2.0.10.242	1.0.0.439	7	234	2	3	Verdana	1	80	0	0	0	WM Stimuli\	0.7	923.142857142857	0.9	933.888888888889	1	810.8	1	836.3	1	749.6	1	673	0.9	867.666666666667	1	649.5	13	421964	1	421952	13	26	421977	-999999	421966	0	3	TrialsPROC	BP_006_BP2_BA.png	1	2	9	SessionSelectionList													7	lure	3	Body	2-Back	8	80	7	0	0	0	3	39	155979	1	14	59	153940	-1	155191	1	1251	3	3	2039	53	155993	-54	0																9												
WM080112	123925_fnca	1	1	1	-1505644436	1	75.032	75.031	2.0.10.147	2.0.10.242	2.0.10.242	1.0.0.439	7	234	2	3	Verdana	1	80	0	0	0	WM Stimuli\	0.7	923.142857142857	0.9	933.888888888889	1	810.8	1	836.3	1	749.6	1	673	0.9	867.666666666667	1	649.5	13	421964	1	421952	13	26	421977	-999999	421966	0	3	TrialsPROC	BP_004_BP18_BA.png	1	2	10	SessionSelectionList													8	nonlure	3	Body	2-Back	9	80	8	0	0	0	4	39	158564	2	14	85	156525	-1	157341	1	816	3	3	2039	53	158578	-54	0																10												
WM080112	123925_fnca	1	1	1	-1505644436	1	75.032	75.031	2.0.10.147	2.0.10.242	2.0.10.242	1.0.0.439	7	234	2	3	Verdana	1	80	0	0	0	WM Stimuli\	0.7	923.142857142857	0.9	933.888888888889	1	810.8	1	836.3	1	749.6	1	673	0.9	867.666666666667	1	649.5	13	421964	1	421952	13	26	421977	-999999	421966	0	3	TrialsPROC	BP_005_BP19_BA.png	1	2	11	SessionSelectionList													9	lure	3	Body	2-Back	10	80	9	0	0	0	1	39	161123	2	14	59	159084	-1	159846	0	762	2	3	2039	53	161137	-54	0																11												
WM080112	123925_fnca	1	1	1	-1505644436	1	75.032	75.031	2.0.10.147	2.0.10.242	2.0.10.242	1.0.0.439	7	234	2	3	Verdana	1	80	0	0	0	WM Stimuli\	0.7	923.142857142857	0.9	933.888888888889	1	810.8	1	836.3	1	749.6	1	673	0.9	867.666666666667	1	649.5	13	421964	1	421952	13	26	421977	-999999	421966	0	3	TrialsPROC	BP_004_BP18_BA.png	1	2	12	SessionSelectionList													10	target	2	Body	2-Back	11	80	10	0	0	0	1	39	163682	2	14	59	161643	-1	162729	0	1086	3	2	2039	53	163696	-54	0																12												
WM080112	123925_fnca	1	1	1	-1505644436	1	75.032	75.031	2.0.10.147	2.0.10.242	2.0.10.242	1.0.0.439	7	234	2	3	Verdana	1	80	0	0	0	WM Stimuli\	0.7	923.142857142857	0.9	933.888888888889	1	810.8	1	836.3	1	749.6	1	673	0.9	867.666666666667	1	649.5	13	421964	1	421952	13	26	421977	-999999	421966	0	4	Cue0BackPROC	FC_001_M1.png	1	2	13	SessionSelectionList																																										33	164176	-34	0												13												
WM080112	123925_fnca	1	1	1	-1505644436	1	75.032	75.031	2.0.10.147	2.0.10.242	2.0.10.242	1.0.0.439	7	234	2	3	Verdana	1	80	0	0	0	WM Stimuli\	0.7	923.142857142857	0.9	933.888888888889	1	810.8	1	836.3	1	749.6	1	673	0.9	867.666666666667	1	649.5	13	421964	1	421952	13	26	421977	-999999	421966	0	5	TrialsPROC	FC_005_M3.png	1	2	14	SessionSelectionList														nonlure	3	Face	0-Back	12	80	11	0	0	100	2	39	168760	2	14	78	166721	-1	168707	1	1986	3	3	2039	53	168774	-54	0					1											14												
WM080112	123925_fnca	1	1	1	-1505644436	1	75.032	75.031	2.0.10.147	2.0.10.242	2.0.10.242	1.0.0.439	7	234	2	3	Verdana	1	80	0	0	0	WM Stimuli\	0.7	923.142857142857	0.9	933.888888888889	1	810.8	1	836.3	1	749.6	1	673	0.9	867.666666666667	1	649.5	13	421964	1	421952	13	26	421977	-999999	421966	0	5	TrialsPROC	FC_001_M1.png	1	2	15	SessionSelectionList														target	2	Face	0-Back	13	80	12	0	0	100	1	40	171333	1	13	72	169293	-1	170144	1	851	2	2	2040	53	171346	-54	0					2											15												
WM080112	123925_fnca	1	1	1	-1505644436	1	75.032	75.031	2.0.10.147	2.0.10.242	2.0.10.242	1.0.0.439	7	234	2	3	Verdana	1	80	0	0	0	WM Stimuli\	0.7	923.142857142857	0.9	933.888888888889	1	810.8	1	836.3	1	749.6	1	673	0.9	867.666666666667	1	649.5	13	421964	1	421952	13	26	421977	-999999	421966	0	5	TrialsPROC	FC_003_M2.png	1	2	16	SessionSelectionList														nonlure	3	Face	0-Back	14	80	13	0	0	100	1	39	173918	2	14	86	171879	-1	172671	1	792	3	3	2039	53	173932	-54	0					3											16												
WM080112	123925_fnca	1	1	1	-1505644436	1	75.032	75.031	2.0.10.147	2.0.10.242	2.0.10.242	1.0.0.439	7	234	2	3	Verdana	1	80	0	0	0	WM Stimuli\	0.7	923.142857142857	0.9	933.888888888889	1	810.8	1	836.3	1	749.6	1	673	0.9	867.666666666667	1	649.5	13	421964	1	421952	13	26	421977	-999999	421966	0	5	TrialsPROC	FC_004_F2.png	1	2	17	SessionSelectionList														nonlure	3	Face	0-Back	15	80	14	0	0	100	2	39	176504	1	14	86	174465	-1	175261	1	796	3	3	2039	53	176518	-54	0					4											17												
WM080112	123925_fnca	1	1	1	-1505644436	1	75.032	75.031	2.0.10.147	2.0.10.242	2.0.10.242	1.0.0.439	7	234	2	3	Verdana	1	80	0	0	0	WM Stimuli\	0.7	923.142857142857	0.9	933.888888888889	1	810.8	1	836.3	1	749.6	1	673	0.9	867.666666666667	1	649.5	13	421964	1	421952	13	26	421977	-999999	421966	0	5	TrialsPROC	FC_004_F2.png	1	2	18	SessionSelectionList														lure	3	Face	0-Back	16	80	15	0	0	100	3	39	179076	2	14	72	177037	-1	177675	1	638	3	3	2039	53	179090	-54	0					5											18												
WM080112	123925_fnca	1	1	1	-1505644436	1	75.032	75.031	2.0.10.147	2.0.10.242	2.0.10.242	1.0.0.439	7	234	2	3	Verdana	1	80	0	0	0	WM Stimuli\	0.7	923.142857142857	0.9	933.888888888889	1	810.8	1	836.3	1	749.6	1	673	0.9	867.666666666667	1	649.5	13	421964	1	421952	13	26	421977	-999999	421966	0	5	TrialsPROC	FC_001_M1.png	1	2	19	SessionSelectionList														target	2	Face	0-Back	17	80	16	0	0	100	1	39	181648	2	14	72	179609	-1	180190	1	581	2	2	2039	53	181662	-54	0					6											19												
WM080112	123925_fnca	1	1	1	-1505644436	1	75.032	75.031	2.0.10.147	2.0.10.242	2.0.10.242	1.0.0.439	7	234	2	3	Verdana	1	80	0	0	0	WM Stimuli\	0.7	923.142857142857	0.9	933.888888888889	1	810.8	1	836.3	1	749.6	1	673	0.9	867.666666666667	1	649.5	13	421964	1	421952	13	26	421977	-999999	421966	0	5	TrialsPROC	FC_006_F3.png	1	2	20	SessionSelectionList														nonlure	3	Face	0-Back	18	80	17	0	0	100	1	39	184247	2	14	99	182208	-1	182734	1	526	3	3	2039	53	184261	-54	0					7											20												
WM080112	123925_fnca	1	1	1	-1505644436	1	75.032	75.031	2.0.10.147	2.0.10.242	2.0.10.242	1.0.0.439	7	234	2	3	Verdana	1	80	0	0	0	WM Stimuli\	0.7	923.142857142857	0.9	933.888888888889	1	810.8	1	836.3	1	749.6	1	673	0.9	867.666666666667	1	649.5	13	421964	1	421952	13	26	421977	-999999	421966	0	5	TrialsPROC	FC_006_F3.png	1	2	21	SessionSelectionList														lure	3	Face	0-Back	19	80	18	0	0	100	2	40	186820	1	13	72	184780	-1	185286	1	506	3	3	2040	53	186833	-54	0					8											21												
WM080112	123925_fnca	1	1	1	-1505644436	1	75.032	75.031	2.0.10.147	2.0.10.242	2.0.10.242	1.0.0.439	7	234	2	3	Verdana	1	80	0	0	0	WM Stimuli\	0.7	923.142857142857	0.9	933.888888888889	1	810.8	1	836.3	1	749.6	1	673	0.9	867.666666666667	1	649.5	13	421964	1	421952	13	26	421977	-999999	421966	0	5	TrialsPROC	FC_003_M2.png	1	2	22	SessionSelectionList														lure	3	Face	0-Back	20	80	19	0	0	100	3	39	189392	1	14	73	187353	-1	188198	1	845	3	3	2039	53	189406	-54	0					9											22												
WM080112	123925_fnca	1	1	1	-1505644436	1	75.032	75.031	2.0.10.147	2.0.10.242	2.0.10.242	1.0.0.439	7	234	2	3	Verdana	1	80	0	0	0	WM Stimuli\	0.7	923.142857142857	0.9	933.888888888889	1	810.8	1	836.3	1	749.6	1	673	0.9	867.666666666667	1	649.5	13	421964	1	421952	13	26	421977	-999999	421966	0	5	TrialsPROC	FC_002_F1.png	1	2	23	SessionSelectionList														nonlure	3	Face	0-Back	21	80	20	0	0	100	4	40	191978	1	13	85	189938	-1	190780	1	842	3	3	2040	53	191991	-54	0					10											23												
WM080112	123925_fnca	1	1	1	-1505644436	1	75.032	75.031	2.0.10.147	2.0.10.242	2.0.10.242	1.0.0.439	7	234	2	3	Verdana	1	80	0	0	0	WM Stimuli\	0.7	923.142857142857	0.9	933.888888888889	1	810.8	1	836.3	1	749.6	1	673	0.9	867.666666666667	1	649.5	13	421964	1	421952	13	26	421977	-999999	421966	0	6	Fix15secPROC	""	1	2	24	SessionSelectionList																																															6	192444	-7	0							24												
WM080112	123925_fnca	1	1	1	-1505644436	1	75.032	75.031	2.0.10.147	2.0.10.242	2.0.10.242	1.0.0.439	7	234	2	3	Verdana	1	80	0	0	0	WM Stimuli\	0.7	923.142857142857	0.9	933.888888888889	1	810.8	1	836.3	1	749.6	1	673	0.9	867.666666666667	1	649.5	13	421964	1	421952	13	26	421977	-999999	421966	0	7	Cue2BackPROC	""	1	2	25	SessionSelectionList									13	207451	-14	0																																													25												
WM080112	123925_fnca	1	1	1	-1505644436	1	75.032	75.031	2.0.10.147	2.0.10.242	2.0.10.242	1.0.0.439	7	234	2	3	Verdana	1	80	0	0	0	WM Stimuli\	0.7	923.142857142857	0.9	933.888888888889	1	810.8	1	836.3	1	749.6	1	673	0.9	867.666666666667	1	649.5	13	421964	1	421952	13	26	421977	-999999	421966	0	8	TrialsPROC	TO_001_TOOL1_BA.png	1	2	26	SessionSelectionList														nonlure	3	Tools	2-Back	22	80	21	0	0	100	5	39	212063	1	13	86	210024	-1	211277	1	1253	3	3	2039	52	212076	-53	0										1						26												
WM080112	123925_fnca	1	1	1	-1505644436	1	75.032	75.031	2.0.10.147	2.0.10.242	2.0.10.242	1.0.0.439	7	234	2	3	Verdana	1	80	0	0	0	WM Stimuli\	0.7	923.142857142857	0.9	933.888888888889	1	810.8	1	836.3	1	749.6	1	673	0.9	867.666666666667	1	649.5	13	421964	1	421952	13	26	421977	-999999	421966	0	8	TrialsPROC	TO_002_TOOL2_BA.png	1	2	27	SessionSelectionList														nonlure	3	Tools	2-Back	23	80	22	0	0	100	6	39	214648	2	14	85	212609	-1	213404	1	795	3	3	2039	53	214662	-54	0										2						27												
WM080112	123925_fnca	1	1	1	-1505644436	1	75.032	75.031	2.0.10.147	2.0.10.242	2.0.10.242	1.0.0.439	7	234	2	3	Verdana	1	80	0	0	0	WM Stimuli\	0.7	923.142857142857	0.9	933.888888888889	1	810.8	1	836.3	1	749.6	1	673	0.9	867.666666666667	1	649.5	13	421964	1	421952	13	26	421977	-999999	421966	0	8	TrialsPROC	TO_004_TOOL4_BA.png	1	2	28	SessionSelectionList														nonlure	3	Tools	2-Back	24	80	23	0	0	100	7	39	217234	1	14	86	215195	-1	216143	1	948	3	3	2039	53	217248	-54	0										3						28												
WM080112	123925_fnca	1	1	1	-1505644436	1	75.032	75.031	2.0.10.147	2.0.10.242	2.0.10.242	1.0.0.439	7	234	2	3	Verdana	1	80	0	0	0	WM Stimuli\	0.7	923.142857142857	0.9	933.888888888889	1	810.8	1	836.3	1	749.6	1	673	0.9	867.666666666667	1	649.5	13	421964	1	421952	13	26	421977	-999999	421966	0	8	TrialsPROC	TO_002_TOOL2_BA.png	1	2	29	SessionSelectionList														target	2	Tools	2-Back	25	80	24	0	0	100	1	39	219793	1	14	59	217754	-1	218608	1	854	2	2	2039	53	219807	-54	0										4						29												
WM080112	123925_fnca	1	1	1	-1505644436	1	75.032	75.031	2.0.10.147	2.0.10.242	2.0.10.242	1.0.0.439	7	234	2	3	Verdana	1	80	0	0	0	WM Stimuli\	0.7	923.142857142857	0.9	933.888888888889	1	810.8	1	836.3	1	749.6	1	673	0.9	867.666666666667	1	649.5	13	421964	1	421952	13	26	421977	-999999	421966	0	8	TrialsPROC	TO_001_TOOL1_BA.png	1	2	30	SessionSelectionList														lure	3	Tools	2-Back	26	80	25	0	0	100	1	39	222352	1	13	59	220313	-1	221140	1	827	3	3	2039	52	222365	-53	0										5						30												
WM080112	123925_fnca	1	1	1	-1505644436	1	75.032	75.031	2.0.10.147	2.0.10.242	2.0.10.242	1.0.0.439	7	234	2	3	Verdana	1	80	0	0	0	WM Stimuli\	0.7	923.142857142857	0.9	933.888888888889	1	810.8	1	836.3	1	749.6	1	673	0.9	867.666666666667	1	649.5	13	421964	1	421952	13	26	421977	-999999	421966	0	8	TrialsPROC	TO_004_TOOL4_BA.png	1	2	31	SessionSelectionList														lure	3	Tools	2-Back	27	80	26	0	0	100	1	39	224911	1	13	59	222872	-1	223574	0	702	2	3	2039	52	224924	-53	0										6						31												
WM080112	123925_fnca	1	1	1	-1505644436	1	75.032	75.031	2.0.10.147	2.0.10.242	2.0.10.242	1.0.0.439	7	234	2	3	Verdana	1	80	0	0	0	WM Stimuli\	0.7	923.142857142857	0.9	933.888888888889	1	810.8	1	836.3	1	749.6	1	673	0.9	867.666666666667	1	649.5	13	421964	1	421952	13	26	421977	-999999	421966	0	8	TrialsPROC	TO_006_TOOL6_BA.png	1	2	32	SessionSelectionList														nonlure	3	Tools	2-Back	28	80	27	0	0	100	1	39	227483	1	14	72	225444	-1	226282	1	838	3	3	2039	53	227497	-54	0										7						32												
WM080112	123925_fnca	1	1	1	-1505644436	1	75.032	75.031	2.0.10.147	2.0.10.242	2.0.10.242	1.0.0.439	7	234	2	3	Verdana	1	80	0	0	0	WM Stimuli\	0.7	923.142857142857	0.9	933.888888888889	1	810.8	1	836.3	1	749.6	1	673	0.9	867.666666666667	1	649.5	13	421964	1	421952	13	26	421977	-999999	421966	0	8	TrialsPROC	TO_005_TOOL5_BA.png	1	2	33	SessionSelectionList														nonlure	3	Tools	2-Back	29	80	28	0	0	100	2	40	230069	1	13	85	228029	-1	228896	1	867	3	3	2040	53	230082	-54	0										8						33												
WM080112	123925_fnca	1	1	1	-1505644436	1	75.032	75.031	2.0.10.147	2.0.10.242	2.0.10.242	1.0.0.439	7	234	2	3	Verdana	1	80	0	0	0	WM Stimuli\	0.7	923.142857142857	0.9	933.888888888889	1	810.8	1	836.3	1	749.6	1	673	0.9	867.666666666667	1	649.5	13	421964	1	421952	13	26	421977	-999999	421966	0	8	TrialsPROC	TO_006_TOOL6_BA.png	1	2	34	SessionSelectionList														target	2	Tools	2-Back	30	80	29	0	0	100	1	40	232628	1	13	59	230588	-1	231348	1	760	2	2	2040	53	232641	-54	0										9						34												
WM080112	123925_fnca	1	1	1	-1505644436	1	75.032	75.031	2.0.10.147	2.0.10.242	2.0.10.242	1.0.0.439	7	234	2	3	Verdana	1	80	0	0	0	WM Stimuli\	0.7	923.142857142857	0.9	933.888888888889	1	810.8	1	836.3	1	749.6	1	673	0.9	867.666666666667	1	649.5	13	421964	1	421952	13	26	421977	-999999	421966	0	8	TrialsPROC	TO_003_TOOL3_BA.png	1	2	35	SessionSelectionList														nonlure	3	Tools	2-Back	31	80	30	0	0	100	1	39	235213	2	14	86	233174	-1	233841	1	667	3	3	2039	53	235227	-54	0										10						35												
WM080112	123925_fnca	1	1	1	-1505644436	1	75.032	75.031	2.0.10.147	2.0.10.242	2.0.10.242	1.0.0.439	7	234	2	3	Verdana	1	80	0	0	0	WM Stimuli\	0.7	923.142857142857	0.9	933.888888888889	1	810.8	1	836.3	1	749.6	1	673	0.9	867.666666666667	1	649.5	13	421964	1	421952	13	26	421977	-999999	421966	0	9	Cue0BackPROC	BP_007_BP20_BA.png	1	2	36	SessionSelectionList																																										32	235706	-33	0												36												
WM080112	123925_fnca	1	1	1	-1505644436	1	75.032	75.031	2.0.10.147	2.0.10.242	2.0.10.242	1.0.0.439	7	234	2	3	Verdana	1	80	0	0	0	WM Stimuli\	0.7	923.142857142857	0.9	933.888888888889	1	810.8	1	836.3	1	749.6	1	673	0.9	867.666666666667	1	649.5	13	421964	1	421952	13	26	421977	-999999	421966	0	10	TrialsPROC	BP_007_BP20_BA.png	1	2	37	SessionSelectionList														target	2	Body	0-Back	32	80	30	0	1	91	1	39	240264	2	14	51	238225	-1	0	0	0	""	2	2039	53	240278	-54	0											1					37												
WM080112	123925_fnca	1	1	1	-1505644436	1	75.032	75.031	2.0.10.147	2.0.10.242	2.0.10.242	1.0.0.439	7	234	2	3	Verdana	1	80	0	0	0	WM Stimuli\	0.7	923.142857142857	0.9	933.888888888889	1	810.8	1	836.3	1	749.6	1	673	0.9	867.666666666667	1	649.5	13	421964	1	421952	13	26	421977	-999999	421966	0	10	TrialsPROC	BP_011_BP4_BA.png	1	2	38	SessionSelectionList														nonlure	3	Body	0-Back	33	80	31	0	0	92	1	39	242850	1	14	86	240811	-1	242090	1	1279	3	3	2039	53	242864	-54	0											2					38												
WM080112	123925_fnca	1	1	1	-1505644436	1	75.032	75.031	2.0.10.147	2.0.10.242	2.0.10.242	1.0.0.439	7	234	2	3	Verdana	1	80	0	0	0	WM Stimuli\	0.7	923.142857142857	0.9	933.888888888889	1	810.8	1	836.3	1	749.6	1	673	0.9	867.666666666667	1	649.5	13	421964	1	421952	13	26	421977	-999999	421966	0	10	TrialsPROC	BP_010_BP3_BA.png	1	2	39	SessionSelectionList														nonlure	3	Body	0-Back	34	80	32	0	0	92	2	39	245436	1	13	86	243397	-1	244260	1	863	3	3	2039	52	245449	-53	0											3					39												
WM080112	123925_fnca	1	1	1	-1505644436	1	75.032	75.031	2.0.10.147	2.0.10.242	2.0.10.242	1.0.0.439	7	234	2	3	Verdana	1	80	0	0	0	WM Stimuli\	0.7	923.142857142857	0.9	933.888888888889	1	810.8	1	836.3	1	749.6	1	673	0.9	867.666666666667	1	649.5	13	421964	1	421952	13	26	421977	-999999	421966	0	10	TrialsPROC	BP_008_BP21_BA.png	1	2	40	SessionSelectionList														nonlure	3	Body	0-Back	35	80	33	0	0	93	3	39	248021	2	14	85	245982	-1	246759	1	777	3	3	2039	53	248035	-54	0											4					40												
WM080112	123925_fnca	1	1	1	-1505644436	1	75.032	75.031	2.0.10.147	2.0.10.242	2.0.10.242	1.0.0.439	7	234	2	3	Verdana	1	80	0	0	0	WM Stimuli\	0.7	923.142857142857	0.9	933.888888888889	1	810.8	1	836.3	1	749.6	1	673	0.9	867.666666666667	1	649.5	13	421964	1	421952	13	26	421977	-999999	421966	0	10	TrialsPROC	BP_011_BP4_BA.png	1	2	41	SessionSelectionList														lure	3	Body	0-Back	36	80	34	0	0	93	4	38	250580	2	14	60	248542	-1	249251	1	709	3	3	2038	52	250594	-53	0											5					41												
WM080112	123925_fnca	1	1	1	-1505644436	1	75.032	75.031	2.0.10.147	2.0.10.242	2.0.10.242	1.0.0.439	7	234	2	3	Verdana	1	80	0	0	0	WM Stimuli\	0.7	923.142857142857	0.9	933.888888888889	1	810.8	1	836.3	1	749.6	1	673	0.9	867.666666666667	1	649.5	13	421964	1	421952	13	26	421977	-999999	421966	0	10	TrialsPROC	BP_009_BP22_BA.png	1	2	42	SessionSelectionList														nonlure	3	Body	0-Back	37	80	35	0	0	94	5	39	253166	1	14	85	251127	-1	251836	1	709	3	3	2039	53	253180	-54	0											6					42												
WM080112	123925_fnca	1	1	1	-1505644436	1	75.032	75.031	2.0.10.147	2.0.10.242	2.0.10.242	1.0.0.439	7	234	2	3	Verdana	1	80	0	0	0	WM Stimuli\	0.7	923.142857142857	0.9	933.888888888889	1	810.8	1	836.3	1	749.6	1	673	0.9	867.666666666667	1	649.5	13	421964	1	421952	13	26	421977	-999999	421966	0	10	TrialsPROC	BP_009_BP22_BA.png	1	2	43	SessionSelectionList														lure	3	Body	0-Back	38	80	36	0	0	94	6	39	255725	1	14	59	253686	-1	255025	1	1339	3	3	2039	53	255739	-54	0											7					43												
WM080112	123925_fnca	1	1	1	-1505644436	1	75.032	75.031	2.0.10.147	2.0.10.242	2.0.10.242	1.0.0.439	7	234	2	3	Verdana	1	80	0	0	0	WM Stimuli\	0.7	923.142857142857	0.9	933.888888888889	1	810.8	1	836.3	1	749.6	1	673	0.9	867.666666666667	1	649.5	13	421964	1	421952	13	26	421977	-999999	421966	0	10	TrialsPROC	BP_008_BP21_BA.png	1	2	44	SessionSelectionList														lure	3	Body	0-Back	39	80	37	0	0	94	7	39	258284	1	13	59	256245	-1	257484	1	1239	3	3	2039	52	258297	-53	0											8					44												
WM080112	123925_fnca	1	1	1	-1505644436	1	75.032	75.031	2.0.10.147	2.0.10.242	2.0.10.242	1.0.0.439	7	234	2	3	Verdana	1	80	0	0	0	WM Stimuli\	0.7	923.142857142857	0.9	933.888888888889	1	810.8	1	836.3	1	749.6	1	673	0.9	867.666666666667	1	649.5	13	421964	1	421952	13	26	421977	-999999	421966	0	10	TrialsPROC	BP_007_BP20_BA.png	1	2	45	SessionSelectionList														target	2	Body	0-Back	40	80	38	0	0	95	1	39	260843	1	13	59	258804	-1	259591	1	787	2	2	2039	52	260856	-53	0											9					45												
WM080112	123925_fnca	1	1	1	-1505644436	1	75.032	75.031	2.0.10.147	2.0.10.242	2.0.10.242	1.0.0.439	7	234	2	3	Verdana	1	80	0	0	0	WM Stimuli\	0.7	923.142857142857	0.9	933.888888888889	1	810.8	1	836.3	1	749.6	1	673	0.9	867.666666666667	1	649.5	13	421964	1	421952	13	26	421977	-999999	421966	0	10	TrialsPROC	BP_012_BP5_BA.png	1	2	46	SessionSelectionList														nonlure	3	Body	0-Back	41	80	39	0	0	95	1	39	263428	2	14	85	261389	-1	262092	1	703	3	3	2039	53	263442	-54	0											10					46												
WM080112	123925_fnca	1	1	1	-1505644436	1	75.032	75.031	2.0.10.147	2.0.10.242	2.0.10.242	1.0.0.439	7	234	2	3	Verdana	1	80	0	0	0	WM Stimuli\	0.7	923.142857142857	0.9	933.888888888889	1	810.8	1	836.3	1	749.6	1	673	0.9	867.666666666667	1	649.5	13	421964	1	421952	13	26	421977	-999999	421966	0	11	Fix15secPROC	""	1	2	47	SessionSelectionList																																															6	263895	-7	0							47												
WM080112	123925_fnca	1	1	1	-1505644436	1	75.032	75.031	2.0.10.147	2.0.10.242	2.0.10.242	1.0.0.439	7	234	2	3	Verdana	1	80	0	0	0	WM Stimuli\	0.7	923.142857142857	0.9	933.888888888889	1	810.8	1	836.3	1	749.6	1	673	0.9	867.666666666667	1	649.5	13	421964	1	421952	13	26	421977	-999999	421966	0	12	Cue0BackPROC	PL_001_92012.png	1	2	48	SessionSelectionList																																										26	278915	-27	0												48												
WM080112	123925_fnca	1	1	1	-1505644436	1	75.032	75.031	2.0.10.147	2.0.10.242	2.0.10.242	1.0.0.439	7	234	2	3	Verdana	1	80	0	0	0	WM Stimuli\	0.7	923.142857142857	0.9	933.888888888889	1	810.8	1	836.3	1	749.6	1	673	0.9	867.666666666667	1	649.5	13	421964	1	421952	13	26	421977	-999999	421966	0	13	TrialsPROC	PL_003_92016.png	1	2	49	SessionSelectionList														nonlure	3	Place	0-Back	42	80	40	0	0	95	2	39	283513	2	14	85	281474	-1	282293	1	819	3	3	2039	53	283527	-54	0												1				49												
WM080112	123925_fnca	1	1	1	-1505644436	1	75.032	75.031	2.0.10.147	2.0.10.242	2.0.10.242	1.0.0.439	7	234	2	3	Verdana	1	80	0	0	0	WM Stimuli\	0.7	923.142857142857	0.9	933.888888888889	1	810.8	1	836.3	1	749.6	1	673	0.9	867.666666666667	1	649.5	13	421964	1	421952	13	26	421977	-999999	421966	0	13	TrialsPROC	PL_003_92016.png	1	2	50	SessionSelectionList														lure	3	Place	0-Back	43	80	41	0	0	95	3	39	286086	1	13	73	284047	-1	285043	1	996	3	3	2039	52	286099	-53	0												2				50												
WM080112	123925_fnca	1	1	1	-1505644436	1	75.032	75.031	2.0.10.147	2.0.10.242	2.0.10.242	1.0.0.439	7	234	2	3	Verdana	1	80	0	0	0	WM Stimuli\	0.7	923.142857142857	0.9	933.888888888889	1	810.8	1	836.3	1	749.6	1	673	0.9	867.666666666667	1	649.5	13	421964	1	421952	13	26	421977	-999999	421966	0	13	TrialsPROC	PL_006_92025.png	1	2	51	SessionSelectionList														nonlure	3	Place	0-Back	44	80	42	0	0	96	4	39	288658	2	14	72	286619	-1	287309	1	690	3	3	2039	53	288672	-54	0												3				51												
WM080112	123925_fnca	1	1	1	-1505644436	1	75.032	75.031	2.0.10.147	2.0.10.242	2.0.10.242	1.0.0.439	7	234	2	3	Verdana	1	80	0	0	0	WM Stimuli\	0.7	923.142857142857	0.9	933.888888888889	1	810.8	1	836.3	1	749.6	1	673	0.9	867.666666666667	1	649.5	13	421964	1	421952	13	26	421977	-999999	421966	0	13	TrialsPROC	PL_001_92012.png	1	2	52	SessionSelectionList														target	2	Place	0-Back	45	80	43	0	0	96	1	39	291217	1	14	59	289178	-1	289800	1	622	2	2	2039	53	291231	-54	0												4				52												
WM080112	123925_fnca	1	1	1	-1505644436	1	75.032	75.031	2.0.10.147	2.0.10.242	2.0.10.242	1.0.0.439	7	234	2	3	Verdana	1	80	0	0	0	WM Stimuli\	0.7	923.142857142857	0.9	933.888888888889	1	810.8	1	836.3	1	749.6	1	673	0.9	867.666666666667	1	649.5	13	421964	1	421952	13	26	421977	-999999	421966	0	13	TrialsPROC	PL_004_92023.png	1	2	53	SessionSelectionList														nonlure	3	Place	0-Back	46	80	44	0	0	96	1	40	293803	1	13	85	291763	-1	292295	1	532	3	3	2040	53	293816	-54	0												5				53												
WM080112	123925_fnca	1	1	1	-1505644436	1	75.032	75.031	2.0.10.147	2.0.10.242	2.0.10.242	1.0.0.439	7	234	2	3	Verdana	1	80	0	0	0	WM Stimuli\	0.7	923.142857142857	0.9	933.888888888889	1	810.8	1	836.3	1	749.6	1	673	0.9	867.666666666667	1	649.5	13	421964	1	421952	13	26	421977	-999999	421966	0	13	TrialsPROC	PL_005_92024.png	1	2	54	SessionSelectionList														nonlure	3	Place	0-Back	47	80	45	0	0	96	2	39	296388	2	14	86	294349	-1	295083	1	734	3	3	2039	53	296402	-54	0												6				54												
WM080112	123925_fnca	1	1	1	-1505644436	1	75.032	75.031	2.0.10.147	2.0.10.242	2.0.10.242	1.0.0.439	7	234	2	3	Verdana	1	80	0	0	0	WM Stimuli\	0.7	923.142857142857	0.9	933.888888888889	1	810.8	1	836.3	1	749.6	1	673	0.9	867.666666666667	1	649.5	13	421964	1	421952	13	26	421977	-999999	421966	0	13	TrialsPROC	PL_001_92012.png	1	2	55	SessionSelectionList														target	2	Place	0-Back	48	80	46	0	0	96	1	39	298947	2	14	59	296908	-1	297382	1	474	2	2	2039	53	298961	-54	0												7				55												
WM080112	123925_fnca	1	1	1	-1505644436	1	75.032	75.031	2.0.10.147	2.0.10.242	2.0.10.242	1.0.0.439	7	234	2	3	Verdana	1	80	0	0	0	WM Stimuli\	0.7	923.142857142857	0.9	933.888888888889	1	810.8	1	836.3	1	749.6	1	673	0.9	867.666666666667	1	649.5	13	421964	1	421952	13	26	421977	-999999	421966	0	13	TrialsPROC	PL_002_92014.png	1	2	56	SessionSelectionList														nonlure	3	Place	0-Back	49	80	47	0	0	96	1	39	301519	2	14	72	299480	-1	300045	1	565	3	3	2039	53	301533	-54	0												8				56												
WM080112	123925_fnca	1	1	1	-1505644436	1	75.032	75.031	2.0.10.147	2.0.10.242	2.0.10.242	1.0.0.439	7	234	2	3	Verdana	1	80	0	0	0	WM Stimuli\	0.7	923.142857142857	0.9	933.888888888889	1	810.8	1	836.3	1	749.6	1	673	0.9	867.666666666667	1	649.5	13	421964	1	421952	13	26	421977	-999999	421966	0	13	TrialsPROC	PL_004_92023.png	1	2	57	SessionSelectionList														lure	3	Place	0-Back	50	80	48	0	0	97	2	39	304092	1	13	73	302053	-1	302681	1	628	3	3	2039	52	304105	-53	0												9				57												
WM080112	123925_fnca	1	1	1	-1505644436	1	75.032	75.031	2.0.10.147	2.0.10.242	2.0.10.242	1.0.0.439	7	234	2	3	Verdana	1	80	0	0	0	WM Stimuli\	0.7	923.142857142857	0.9	933.888888888889	1	810.8	1	836.3	1	749.6	1	673	0.9	867.666666666667	1	649.5	13	421964	1	421952	13	26	421977	-999999	421966	0	13	TrialsPROC	PL_006_92025.png	1	2	58	SessionSelectionList														lure	3	Place	0-Back	51	80	49	0	0	97	3	39	306664	1	14	72	304625	-1	305295	1	670	3	3	2039	53	306678	-54	0												10				58												
WM080112	123925_fnca	1	1	1	-1505644436	1	75.032	75.031	2.0.10.147	2.0.10.242	2.0.10.242	1.0.0.439	7	234	2	3	Verdana	1	80	0	0	0	WM Stimuli\	0.7	923.142857142857	0.9	933.888888888889	1	810.8	1	836.3	1	749.6	1	673	0.9	867.666666666667	1	649.5	13	421964	1	421952	13	26	421977	-999999	421966	0	14	Cue2BackPROC	""	1	2	59	SessionSelectionList									5	307130	-6	0																																													59												
WM080112	123925_fnca	1	1	1	-1505644436	1	75.032	75.031	2.0.10.147	2.0.10.242	2.0.10.242	1.0.0.439	7	234	2	3	Verdana	1	80	0	0	0	WM Stimuli\	0.7	923.142857142857	0.9	933.888888888889	1	810.8	1	836.3	1	749.6	1	673	0.9	867.666666666667	1	649.5	13	421964	1	421952	13	26	421977	-999999	421966	0	15	TrialsPROC	FC_010_F5.png	1	2	60	SessionSelectionList														nonlure	3	Face	2-Back	52	80	50	0	0	97	4	39	311742	1	14	78	309703	-1	311218	1	1515	3	3	2039	53	311756	-54	0													1			60												
WM080112	123925_fnca	1	1	1	-1505644436	1	75.032	75.031	2.0.10.147	2.0.10.242	2.0.10.242	1.0.0.439	7	234	2	3	Verdana	1	80	0	0	0	WM Stimuli\	0.7	923.142857142857	0.9	933.888888888889	1	810.8	1	836.3	1	749.6	1	673	0.9	867.666666666667	1	649.5	13	421964	1	421952	13	26	421977	-999999	421966	0	15	TrialsPROC	FC_012_F6.png	1	2	61	SessionSelectionList														nonlure	3	Face	2-Back	53	80	51	0	0	97	5	40	314328	1	13	85	312288	-1	313085	1	797	3	3	2040	53	314341	-54	0													2			61												
WM080112	123925_fnca	1	1	1	-1505644436	1	75.032	75.031	2.0.10.147	2.0.10.242	2.0.10.242	1.0.0.439	7	234	2	3	Verdana	1	80	0	0	0	WM Stimuli\	0.7	923.142857142857	0.9	933.888888888889	1	810.8	1	836.3	1	749.6	1	673	0.9	867.666666666667	1	649.5	13	421964	1	421952	13	26	421977	-999999	421966	0	15	TrialsPROC	FC_010_F5.png	1	2	62	SessionSelectionList														target	2	Face	2-Back	54	80	52	0	0	97	1	39	316900	1	14	73	314861	-1	315518	1	657	2	2	2039	53	316914	-54	0													3			62												
WM080112	123925_fnca	1	1	1	-1505644436	1	75.032	75.031	2.0.10.147	2.0.10.242	2.0.10.242	1.0.0.439	7	234	2	3	Verdana	1	80	0	0	0	WM Stimuli\	0.7	923.142857142857	0.9	933.888888888889	1	810.8	1	836.3	1	749.6	1	673	0.9	867.666666666667	1	649.5	13	421964	1	421952	13	26	421977	-999999	421966	0	15	TrialsPROC	FC_008_F4.png	1	2	63	SessionSelectionList														nonlure	3	Face	2-Back	55	80	53	0	0	97	1	39	319499	1	13	99	317460	-1	318140	1	680	3	3	2039	52	319512	-53	0													4			63												
WM080112	123925_fnca	1	1	1	-1505644436	1	75.032	75.031	2.0.10.147	2.0.10.242	2.0.10.242	1.0.0.439	7	234	2	3	Verdana	1	80	0	0	0	WM Stimuli\	0.7	923.142857142857	0.9	933.888888888889	1	810.8	1	836.3	1	749.6	1	673	0.9	867.666666666667	1	649.5	13	421964	1	421952	13	26	421977	-999999	421966	0	15	TrialsPROC	FC_012_F6.png	1	2	64	SessionSelectionList														lure	3	Face	2-Back	56	80	54	0	0	97	2	39	322071	2	14	72	320032	-1	320896	1	864	3	3	2039	53	322085	-54	0													5			64												
WM080112	123925_fnca	1	1	1	-1505644436	1	75.032	75.031	2.0.10.147	2.0.10.242	2.0.10.242	1.0.0.439	7	234	2	3	Verdana	1	80	0	0	0	WM Stimuli\	0.7	923.142857142857	0.9	933.888888888889	1	810.8	1	836.3	1	749.6	1	673	0.9	867.666666666667	1	649.5	13	421964	1	421952	13	26	421977	-999999	421966	0	15	TrialsPROC	FC_008_F4.png	1	2	65	SessionSelectionList														target	2	Face	2-Back	57	80	55	0	0	97	1	39	324643	2	14	72	322604	-1	323199	1	595	2	2	2039	53	324657	-54	0													6			65												
WM080112	123925_fnca	1	1	1	-1505644436	1	75.032	75.031	2.0.10.147	2.0.10.242	2.0.10.242	1.0.0.439	7	234	2	3	Verdana	1	80	0	0	0	WM Stimuli\	0.7	923.142857142857	0.9	933.888888888889	1	810.8	1	836.3	1	749.6	1	673	0.9	867.666666666667	1	649.5	13	421964	1	421952	13	26	421977	-999999	421966	0	15	TrialsPROC	FC_007_M4.png	1	2	66	SessionSelectionList														nonlure	3	Face	2-Back	58	80	56	0	0	97	1	39	327242	2	14	99	325203	-1	325898	1	695	3	3	2039	53	327256	-54	0													7			66												
WM080112	123925_fnca	1	1	1	-1505644436	1	75.032	75.031	2.0.10.147	2.0.10.242	2.0.10.242	1.0.0.439	7	234	2	3	Verdana	1	80	0	0	0	WM Stimuli\	0.7	923.142857142857	0.9	933.888888888889	1	810.8	1	836.3	1	749.6	1	673	0.9	867.666666666667	1	649.5	13	421964	1	421952	13	26	421977	-999999	421966	0	15	TrialsPROC	FC_007_M4.png	1	2	67	SessionSelectionList														lure	3	Face	2-Back	59	80	57	0	0	97	2	40	329815	1	13	72	327775	-1	328555	1	780	3	3	2040	53	329828	-54	0													8			67												
WM080112	123925_fnca	1	1	1	-1505644436	1	75.032	75.031	2.0.10.147	2.0.10.242	2.0.10.242	1.0.0.439	7	234	2	3	Verdana	1	80	0	0	0	WM Stimuli\	0.7	923.142857142857	0.9	933.888888888889	1	810.8	1	836.3	1	749.6	1	673	0.9	867.666666666667	1	649.5	13	421964	1	421952	13	26	421977	-999999	421966	0	15	TrialsPROC	FC_009_M5.png	1	2	68	SessionSelectionList														nonlure	3	Face	2-Back	60	80	58	0	0	97	3	39	332400	2	14	86	330361	-1	331146	1	785	3	3	2039	53	332414	-54	0													9			68												
WM080112	123925_fnca	1	1	1	-1505644436	1	75.032	75.031	2.0.10.147	2.0.10.242	2.0.10.242	1.0.0.439	7	234	2	3	Verdana	1	80	0	0	0	WM Stimuli\	0.7	923.142857142857	0.9	933.888888888889	1	810.8	1	836.3	1	749.6	1	673	0.9	867.666666666667	1	649.5	13	421964	1	421952	13	26	421977	-999999	421966	0	15	TrialsPROC	FC_011_M6.png	1	2	69	SessionSelectionList														nonlure	3	Face	2-Back	61	80	59	0	0	97	4	39	334986	1	13	86	332947	-1	333687	1	740	3	3	2039	52	334999	-53	0													10			69												
WM080112	123925_fnca	1	1	1	-1505644436	1	75.032	75.031	2.0.10.147	2.0.10.242	2.0.10.242	1.0.0.439	7	234	2	3	Verdana	1	80	0	0	0	WM Stimuli\	0.7	923.142857142857	0.9	933.888888888889	1	810.8	1	836.3	1	749.6	1	673	0.9	867.666666666667	1	649.5	13	421964	1	421952	13	26	421977	-999999	421966	0	16	Fix15secPROC	""	1	2	70	SessionSelectionList																																															6	335453	-7	0							70												
WM080112	123925_fnca	1	1	1	-1505644436	1	75.032	75.031	2.0.10.147	2.0.10.242	2.0.10.242	1.0.0.439	7	234	2	3	Verdana	1	80	0	0	0	WM Stimuli\	0.7	923.142857142857	0.9	933.888888888889	1	810.8	1	836.3	1	749.6	1	673	0.9	867.666666666667	1	649.5	13	421964	1	421952	13	26	421977	-999999	421966	0	17	Cue0BackPROC	TO_007_TOOL7_BA.png	1	2	71	SessionSelectionList																																										26	350473	-27	0												71												
WM080112	123925_fnca	1	1	1	-1505644436	1	75.032	75.031	2.0.10.147	2.0.10.242	2.0.10.242	1.0.0.439	7	234	2	3	Verdana	1	80	0	0	0	WM Stimuli\	0.7	923.142857142857	0.9	933.888888888889	1	810.8	1	836.3	1	749.6	1	673	0.9	867.666666666667	1	649.5	13	421964	1	421952	13	26	421977	-999999	421966	0	18	TrialsPROC	TO_010_TOOL10_BA.png	1	2	72	SessionSelectionList														nonlure	3	Tools	0-Back	62	80	60	0	0	97	5	39	355071	1	14	85	353032	-1	353740	1	708	3	3	2039	53	355085	-54	0														1		72												
WM080112	123925_fnca	1	1	1	-1505644436	1	75.032	75.031	2.0.10.147	2.0.10.242	2.0.10.242	1.0.0.439	7	234	2	3	Verdana	1	80	0	0	0	WM Stimuli\	0.7	923.142857142857	0.9	933.888888888889	1	810.8	1	836.3	1	749.6	1	673	0.9	867.666666666667	1	649.5	13	421964	1	421952	13	26	421977	-999999	421966	0	18	TrialsPROC	TO_009_TOOL9_BA.png	1	2	73	SessionSelectionList														nonlure	3	Tools	0-Back	63	80	61	0	0	97	6	39	357670	1	14	99	355631	-1	356286	1	655	3	3	2039	53	357684	-54	0														2		73												
WM080112	123925_fnca	1	1	1	-1505644436	1	75.032	75.031	2.0.10.147	2.0.10.242	2.0.10.242	1.0.0.439	7	234	2	3	Verdana	1	80	0	0	0	WM Stimuli\	0.7	923.142857142857	0.9	933.888888888889	1	810.8	1	836.3	1	749.6	1	673	0.9	867.666666666667	1	649.5	13	421964	1	421952	13	26	421977	-999999	421966	0	18	TrialsPROC	TO_009_TOOL9_BA.png	1	2	74	SessionSelectionList														lure	3	Tools	0-Back	64	80	62	0	0	97	7	39	360229	1	13	59	358190	-1	358814	1	624	3	3	2039	52	360242	-53	0														3		74												
WM080112	123925_fnca	1	1	1	-1505644436	1	75.032	75.031	2.0.10.147	2.0.10.242	2.0.10.242	1.0.0.439	7	234	2	3	Verdana	1	80	0	0	0	WM Stimuli\	0.7	923.142857142857	0.9	933.888888888889	1	810.8	1	836.3	1	749.6	1	673	0.9	867.666666666667	1	649.5	13	421964	1	421952	13	26	421977	-999999	421966	0	18	TrialsPROC	TO_008_TOOL8_BA.png	1	2	75	SessionSelectionList														nonlure	3	Tools	0-Back	65	80	63	0	0	97	8	39	362814	2	14	85	360775	-1	361476	1	701	3	3	2039	53	362828	-54	0														4		75												
WM080112	123925_fnca	1	1	1	-1505644436	1	75.032	75.031	2.0.10.147	2.0.10.242	2.0.10.242	1.0.0.439	7	234	2	3	Verdana	1	80	0	0	0	WM Stimuli\	0.7	923.142857142857	0.9	933.888888888889	1	810.8	1	836.3	1	749.6	1	673	0.9	867.666666666667	1	649.5	13	421964	1	421952	13	26	421977	-999999	421966	0	18	TrialsPROC	TO_011_TOOL11_BA.png	1	2	76	SessionSelectionList														nonlure	3	Tools	0-Back	66	80	64	0	0	97	9	39	365400	1	14	86	363361	-1	363992	1	631	3	3	2039	53	365414	-54	0														5		76												
WM080112	123925_fnca	1	1	1	-1505644436	1	75.032	75.031	2.0.10.147	2.0.10.242	2.0.10.242	1.0.0.439	7	234	2	3	Verdana	1	80	0	0	0	WM Stimuli\	0.7	923.142857142857	0.9	933.888888888889	1	810.8	1	836.3	1	749.6	1	673	0.9	867.666666666667	1	649.5	13	421964	1	421952	13	26	421977	-999999	421966	0	18	TrialsPROC	TO_012_TOOL12_BA.png	1	2	77	SessionSelectionList														nonlure	3	Tools	0-Back	67	80	65	0	0	97	10	39	367986	1	13	86	365947	-1	366456	1	509	3	3	2039	52	367999	-53	0														6		77												
WM080112	123925_fnca	1	1	1	-1505644436	1	75.032	75.031	2.0.10.147	2.0.10.242	2.0.10.242	1.0.0.439	7	234	2	3	Verdana	1	80	0	0	0	WM Stimuli\	0.7	923.142857142857	0.9	933.888888888889	1	810.8	1	836.3	1	749.6	1	673	0.9	867.666666666667	1	649.5	13	421964	1	421952	13	26	421977	-999999	421966	0	18	TrialsPROC	TO_010_TOOL10_BA.png	1	2	78	SessionSelectionList														lure	3	Tools	0-Back	68	80	66	0	0	97	11	40	370545	1	13	58	368505	-1	369049	1	544	3	3	2040	53	370558	-54	0														7		78												
WM080112	123925_fnca	1	1	1	-1505644436	1	75.032	75.031	2.0.10.147	2.0.10.242	2.0.10.242	1.0.0.439	7	234	2	3	Verdana	1	80	0	0	0	WM Stimuli\	0.7	923.142857142857	0.9	933.888888888889	1	810.8	1	836.3	1	749.6	1	673	0.9	867.666666666667	1	649.5	13	421964	1	421952	13	26	421977	-999999	421966	0	18	TrialsPROC	TO_007_TOOL7_BA.png	1	2	79	SessionSelectionList														target	2	Tools	0-Back	69	80	67	0	0	97	1	40	373104	1	13	59	371064	-1	371887	1	823	2	2	2040	53	373117	-54	0														8		79												
WM080112	123925_fnca	1	1	1	-1505644436	1	75.032	75.031	2.0.10.147	2.0.10.242	2.0.10.242	1.0.0.439	7	234	2	3	Verdana	1	80	0	0	0	WM Stimuli\	0.7	923.142857142857	0.9	933.888888888889	1	810.8	1	836.3	1	749.6	1	673	0.9	867.666666666667	1	649.5	13	421964	1	421952	13	26	421977	-999999	421966	0	18	TrialsPROC	TO_008_TOOL8_BA.png	1	2	80	SessionSelectionList														lure	3	Tools	0-Back	70	80	68	0	0	97	1	40	375663	1	13	59	373623	-1	374277	1	654	3	3	2040	53	375676	-54	0														9		80												
WM080112	123925_fnca	1	1	1	-1505644436	1	75.032	75.031	2.0.10.147	2.0.10.242	2.0.10.242	1.0.0.439	7	234	2	3	Verdana	1	80	0	0	0	WM Stimuli\	0.7	923.142857142857	0.9	933.888888888889	1	810.8	1	836.3	1	749.6	1	673	0.9	867.666666666667	1	649.5	13	421964	1	421952	13	26	421977	-999999	421966	0	18	TrialsPROC	TO_007_TOOL7_BA.png	1	2	81	SessionSelectionList														target	2	Tools	0-Back	71	80	69	0	0	98	1	39	378221	2	14	59	376182	-1	376828	1	646	2	2	2039	53	378235	-54	0														10		81												
WM080112	123925_fnca	1	1	1	-1505644436	1	75.032	75.031	2.0.10.147	2.0.10.242	2.0.10.242	1.0.0.439	7	234	2	3	Verdana	1	80	0	0	0	WM Stimuli\	0.7	923.142857142857	0.9	933.888888888889	1	810.8	1	836.3	1	749.6	1	673	0.9	867.666666666667	1	649.5	13	421964	1	421952	13	26	421977	-999999	421966	0	19	Cue2BackPROC	""	1	2	82	SessionSelectionList									6	378688	-7	0																																													82												
WM080112	123925_fnca	1	1	1	-1505644436	1	75.032	75.031	2.0.10.147	2.0.10.242	2.0.10.242	1.0.0.439	7	234	2	3	Verdana	1	80	0	0	0	WM Stimuli\	0.7	923.142857142857	0.9	933.888888888889	1	810.8	1	836.3	1	749.6	1	673	0.9	867.666666666667	1	649.5	13	421964	1	421952	13	26	421977	-999999	421966	0	20	TrialsPROC	PL_007_92026.png	1	2	83	SessionSelectionList														nonlure	3	Place	2-Back	72	80	70	0	0	98	1	39	383299	2	14	78	381260	-1	382363	1	1103	3	3	2039	53	383313	-54	0															1	83												
WM080112	123925_fnca	1	1	1	-1505644436	1	75.032	75.031	2.0.10.147	2.0.10.242	2.0.10.242	1.0.0.439	7	234	2	3	Verdana	1	80	0	0	0	WM Stimuli\	0.7	923.142857142857	0.9	933.888888888889	1	810.8	1	836.3	1	749.6	1	673	0.9	867.666666666667	1	649.5	13	421964	1	421952	13	26	421977	-999999	421966	0	20	TrialsPROC	PL_007_92026.png	1	2	84	SessionSelectionList														lure	3	Place	2-Back	73	80	71	0	0	98	2	39	385858	2	14	59	383819	-1	384622	1	803	3	3	2039	53	385872	-54	0															2	84												
WM080112	123925_fnca	1	1	1	-1505644436	1	75.032	75.031	2.0.10.147	2.0.10.242	2.0.10.242	1.0.0.439	7	234	2	3	Verdana	1	80	0	0	0	WM Stimuli\	0.7	923.142857142857	0.9	933.888888888889	1	810.8	1	836.3	1	749.6	1	673	0.9	867.666666666667	1	649.5	13	421964	1	421952	13	26	421977	-999999	421966	0	20	TrialsPROC	PL_010_92038.png	1	2	85	SessionSelectionList														nonlure	3	Place	2-Back	74	80	72	0	0	98	3	39	388444	1	14	86	386405	-1	387384	1	979	3	3	2039	53	388458	-54	0															3	85												
WM080112	123925_fnca	1	1	1	-1505644436	1	75.032	75.031	2.0.10.147	2.0.10.242	2.0.10.242	1.0.0.439	7	234	2	3	Verdana	1	80	0	0	0	WM Stimuli\	0.7	923.142857142857	0.9	933.888888888889	1	810.8	1	836.3	1	749.6	1	673	0.9	867.666666666667	1	649.5	13	421964	1	421952	13	26	421977	-999999	421966	0	20	TrialsPROC	PL_009_92037.png	1	2	86	SessionSelectionList														nonlure	3	Place	2-Back	75	80	73	0	0	98	4	40	391030	1	13	85	388990	-1	389677	1	687	3	3	2040	53	391043	-54	0															4	86												
WM080112	123925_fnca	1	1	1	-1505644436	1	75.032	75.031	2.0.10.147	2.0.10.242	2.0.10.242	1.0.0.439	7	234	2	3	Verdana	1	80	0	0	0	WM Stimuli\	0.7	923.142857142857	0.9	933.888888888889	1	810.8	1	836.3	1	749.6	1	673	0.9	867.666666666667	1	649.5	13	421964	1	421952	13	26	421977	-999999	421966	0	20	TrialsPROC	PL_010_92038.png	1	2	87	SessionSelectionList														target	2	Place	2-Back	76	80	74	0	0	98	1	39	393602	1	14	73	391563	-1	392140	1	577	2	2	2039	53	393616	-54	0															5	87												
WM080112	123925_fnca	1	1	1	-1505644436	1	75.032	75.031	2.0.10.147	2.0.10.242	2.0.10.242	1.0.0.439	7	234	2	3	Verdana	1	80	0	0	0	WM Stimuli\	0.7	923.142857142857	0.9	933.888888888889	1	810.8	1	836.3	1	749.6	1	673	0.9	867.666666666667	1	649.5	13	421964	1	421952	13	26	421977	-999999	421966	0	20	TrialsPROC	PL_009_92037.png	1	2	88	SessionSelectionList														target	2	Place	2-Back	77	80	75	0	0	98	2	39	396174	2	14	72	394135	-1	394943	1	808	2	2	2039	53	396188	-54	0															6	88												
WM080112	123925_fnca	1	1	1	-1505644436	1	75.032	75.031	2.0.10.147	2.0.10.242	2.0.10.242	1.0.0.439	7	234	2	3	Verdana	1	80	0	0	0	WM Stimuli\	0.7	923.142857142857	0.9	933.888888888889	1	810.8	1	836.3	1	749.6	1	673	0.9	867.666666666667	1	649.5	13	421964	1	421952	13	26	421977	-999999	421966	0	20	TrialsPROC	PL_008_92033.png	1	2	89	SessionSelectionList														nonlure	3	Place	2-Back	78	80	76	0	0	98	1	39	398760	1	13	86	396721	-1	397232	1	511	3	3	2039	52	398773	-53	0															7	89												
WM080112	123925_fnca	1	1	1	-1505644436	1	75.032	75.031	2.0.10.147	2.0.10.242	2.0.10.242	1.0.0.439	7	234	2	3	Verdana	1	80	0	0	0	WM Stimuli\	0.7	923.142857142857	0.9	933.888888888889	1	810.8	1	836.3	1	749.6	1	673	0.9	867.666666666667	1	649.5	13	421964	1	421952	13	26	421977	-999999	421966	0	20	TrialsPROC	PL_012_92047.png	1	2	90	SessionSelectionList														nonlure	3	Place	2-Back	79	80	77	0	0	98	2	39	401345	2	14	85	399306	-1	399864	1	558	3	3	2039	53	401359	-54	0															8	90												
WM080112	123925_fnca	1	1	1	-1505644436	1	75.032	75.031	2.0.10.147	2.0.10.242	2.0.10.242	1.0.0.439	7	234	2	3	Verdana	1	80	0	0	0	WM Stimuli\	0.7	923.142857142857	0.9	933.888888888889	1	810.8	1	836.3	1	749.6	1	673	0.9	867.666666666667	1	649.5	13	421964	1	421952	13	26	421977	-999999	421966	0	20	TrialsPROC	PL_012_92047.png	1	2	91	SessionSelectionList														lure	3	Place	2-Back	80	80	78	0	0	98	3	39	403904	2	14	59	401865	-1	402520	1	655	3	3	2039	53	403918	-54	0															9	91												
WM080112	123925_fnca	1	1	1	-1505644436	1	75.032	75.031	2.0.10.147	2.0.10.242	2.0.10.242	1.0.0.439	7	234	2	3	Verdana	1	80	0	0	0	WM Stimuli\	0.7	923.142857142857	0.9	933.888888888889	1	810.8	1	836.3	1	749.6	1	673	0.9	867.666666666667	1	649.5	13	421964	1	421952	13	26	421977	-999999	421966	0	20	TrialsPROC	PL_011_92044.png	1	2	92	SessionSelectionList														nonlure	3	Place	2-Back	80	80	79	0	0	98	4	39	406490	1	14	86	404451	-1	405266	1	815	3	3	2039	53	406504	-54	0															10	92												
WM080112	123925_fnca	1	1	1	-1505644436	1	75.032	75.031	2.0.10.147	2.0.10.242	2.0.10.242	1.0.0.439	7	234	2	3	Verdana	1	80	0	0	0	WM Stimuli\	0.7	923.142857142857	0.9	933.888888888889	1	810.8	1	836.3	1	749.6	1	673	0.9	867.666666666667	1	649.5	13	421964	1	421952	13	26	421977	-999999	421966	0	21	Fix15secPROC	""	1	2	93	SessionSelectionList																																															6	406957	-7	0							93												
