ExperimentName	HCPID	RunNumber	Subject	Session	RandomSeed	Group	Laptop.RefreshRate	ScannerD2.RefreshRate	StudioVersion	RuntimeVersion	RuntimeVersionExpected	ExperimentVersion	triggercode	Allowed	Target	Nontarget	FontStyle	RunTrialNumber[Session]	TrialsPerRun[Session]	TotalRespGreater200[Session]	ConsecRTLess200[Session]	ConsecNonResp[Session]	StimuliDir	ACC_2_Back_Body	Avg_RT_For_Correct_Trials_2_Back_Body	ACC_0_Back_Body	Avg_RT_For_Correct_Trials_0_Back_Body	ACC_2_Back_Face	Avg_RT_For_Correct_Trials_2_Back_Face	ACC_0_Back_Face	Avg_RT_For_Correct_Trials_0_Back_Face	ACC_2_Back_Place	Avg_RT_For_Correct_Trials_2_Back_Place	ACC_0_Back_Place	Avg_RT_For_Correct_Trials_0_Back_Place	ACC_2_Back_Tools	Avg_RT_For_Correct_Trials_2_Back_Tools	ACC_0_Back_Tools	Avg_RT_For_Correct_Trials_0_Back_Tools	ExpInstrucFeelFreeToRest.OnsetDelay	ExpInstrucFeelFreeToRest.OnsetTime	ExpInstrucFeelFreeToRest.DurationError	ExpInstrucFeelFreeToRest.StartTime	ExpInstrucFeelFreeToRest.OnsetToOnsetTime	FeelFreeToRest.OnsetDelay	FeelFreeToRest.OnsetTime	FeelFreeToRest.DurationError	FeelFreeToRest.StartTime	FeelFreeToRest.OnsetToOnsetTime	SessionSelectionList	Procedure[Block]	Stimulus[Block]	RunNumberFilterValue	SessionSelectionList.Cycle	SessionSelectionList.Sample	Running[Block]	IntroButtonMap.OnsetDelay	IntroButtonMap.OnsetTime	IntroButtonMap.DurationError	IntroButtonMap.OnsetToOnsetTime	GetReady.OnsetDelay	GetReady.OnsetTime	GetReady.DurationError	GetReady.OnsetToOnsetTime	Cue2Back.OnsetDelay	Cue2Back.OnsetTime	Cue2Back.DurationError	Cue2Back.OnsetToOnsetTime	Run1Block1	TargetType	CorrectResponse	StimType	BlockType	RunTrialNumber[Block]	TrialsPerRun[Block]	TotalRespGreater200[Block]	ConsecRTLess200[Block]	ConsecNonResp[Block]	ControlAcc	ConsecSameResp	ExperimenterWindow.OnsetDelay	ExperimenterWindow.OnsetTime	ExperimenterWindow.DurationError	ExperimenterWindow.OnsetToOnsetTime	Stim.OnsetDelay	Stim.OnsetTime	Stim.DurationError	Stim.RTTime	Stim.ACC	Stim.RT	Stim.RESP	Stim.CRESP	Stim.OnsetToOnsetTime	Fix.OnsetDelay	Fix.OnsetTime	Fix.DurationError	Fix.OnsetToOnsetTime	CueTarget.OnsetDelay	CueTarget.OnsetTime	CueTarget.DurationError	CueTarget.OnsetToOnsetTime	Run1Block2	Fix15sec.OnsetDelay	Fix15sec.OnsetTime	Fix15sec.DurationError	Fix15sec.OnsetToOnsetTime	Run1Block3	Run1Block4	Run1Block5	Run1Block6	Run1Block7	Run1Block8	Block	Procedure[Trial]	Stimulus[Trial]	ReadyList	Running[Trial]	ReadyList.Cycle	ReadyList.Sample	SyncSlide.OnsetDelay	SyncSlide.OnsetTime	SyncSlide.DurationError	SyncSlide.FinishTime	SyncSlide.OnsetToOnsetTime	Trial
WM080112	135225_fnca	1	1	1	-118753518	1	75.032	75.031	2.0.10.147	2.0.10.242	2.0.10.242	1.0.0.439	7	234	2	3	Verdana	1	80	0	0	0	WM Stimuli\	0.6	1288	0.7	1040	0.7	1133.42857142857	1	758.9	0.7	876.571428571429	1	772.6	0.9	1301.55555555556	1	574.9	13	402964	1	402952	13	26	402977	-999999	402966	0	1	TRSyncPROC	""	1	2	1	SessionSelectionList	94	15363	-999999	0	39	96703	-999999	0																																																	1	InitialTR	4	1	ReadyList	1	1	18	109911	-19	111892	0	1
WM080112	135225_fnca	1	1	1	-118753518	1	75.032	75.031	2.0.10.147	2.0.10.242	2.0.10.242	1.0.0.439	7	234	2	3	Verdana	1	80	0	0	0	WM Stimuli\	0.6	1288	0.7	1040	0.7	1133.42857142857	1	758.9	0.7	876.571428571429	1	772.6	0.9	1301.55555555556	1	574.9	13	402964	1	402952	13	26	402977	-999999	402966	0	1	TRSyncPROC	""	1	2	1	SessionSelectionList	94	15363	-999999	0	39	96703	-999999	0																																																	1	InitialTR	3	2	ReadyList	1	2	17	111910	-18	113892	0	2
WM080112	135225_fnca	1	1	1	-118753518	1	75.032	75.031	2.0.10.147	2.0.10.242	2.0.10.242	1.0.0.439	7	234	2	3	Verdana	1	80	0	0	0	WM Stimuli\	0.6	1288	0.7	1040	0.7	1133.42857142857	1	758.9	0.7	876.571428571429	1	772.6	0.9	1301.55555555556	1	574.9	13	402964	1	402952	13	26	402977	-999999	402966	0	1	TRSyncPROC	""	1	2	1	SessionSelectionList	94	15363	-999999	0	39	96703	-999999	0																																																	1	InitialTR	2	3	ReadyList	1	3	3	113896	-4	115892	0	3
WM080112	135225_fnca	1	1	1	-118753518	1	75.032	75.031	2.0.10.147	2.0.10.242	2.0.10.242	1.0.0.439	7	234	2	3	Verdana	1	80	0	0	0	WM Stimuli\	0.6	1288	0.7	1040	0.7	1133.42857142857	1	758.9	0.7	876.571428571429	1	772.6	0.9	1301.55555555556	1	574.9	13	402964	1	402952	13	26	402977	-999999	402966	0	1	TRSyncPROC	""	1	2	1	SessionSelectionList	94	15363	-999999	0	39	96703	-999999	0																																																	1	InitialTR	1	4	ReadyList	1	4	16	115909	-17	117892	0	4
WM080112	135225_fnca	1	1	1	-118753518	1	75.032	75.031	2.0.10.147	2.0.10.242	2.0.10.242	1.0.0.439	7	234	2	3	Verdana	1	80	0	0	0	WM Stimuli\	0.6	1288	0.7	1040	0.7	1133.42857142857	1	758.9	0.7	876.571428571429	1	772.6	0.9	1301.55555555556	1	574.9	13	402964	1	402952	13	26	402977	-999999	402966	0	2	Cue2BackPROC	""	1	2	2	SessionSelectionList									15	117908	-16	0																																													2												
WM080112	135225_fnca	1	1	1	-118753518	1	75.032	75.031	2.0.10.147	2.0.10.242	2.0.10.242	1.0.0.439	7	234	2	3	Verdana	1	80	0	0	0	WM Stimuli\	0.6	1288	0.7	1040	0.7	1133.42857142857	1	758.9	0.7	876.571428571429	1	772.6	0.9	1301.55555555556	1	574.9	13	402964	1	402952	13	26	402977	-999999	402966	0	3	TrialsPROC	BP_002_BP10_BA.png	1	2	3	SessionSelectionList													1	nonlure	3	Body	2-Back	2	80	1	0	0	0	1	52	122519	3	14	74	120467	-1	121944	1	1477	3	3	2052	66	122533	-67	0																3												
WM080112	135225_fnca	1	1	1	-118753518	1	75.032	75.031	2.0.10.147	2.0.10.242	2.0.10.242	1.0.0.439	7	234	2	3	Verdana	1	80	0	0	0	WM Stimuli\	0.6	1288	0.7	1040	0.7	1133.42857142857	1	758.9	0.7	876.571428571429	1	772.6	0.9	1301.55555555556	1	574.9	13	402964	1	402952	13	26	402977	-999999	402966	0	3	TrialsPROC	BP_001_BP1_BA.png	1	2	4	SessionSelectionList													2	nonlure	3	Body	2-Back	3	80	2	0	0	0	2	39	125078	2	14	72	123039	-1	123889	1	850	3	3	2039	53	125092	-54	0																4												
WM080112	135225_fnca	1	1	1	-118753518	1	75.032	75.031	2.0.10.147	2.0.10.242	2.0.10.242	1.0.0.439	7	234	2	3	Verdana	1	80	0	0	0	WM Stimuli\	0.6	1288	0.7	1040	0.7	1133.42857142857	1	758.9	0.7	876.571428571429	1	772.6	0.9	1301.55555555556	1	574.9	13	402964	1	402952	13	26	402977	-999999	402966	0	3	TrialsPROC	BP_006_BP2_BA.png	1	2	5	SessionSelectionList													3	nonlure	3	Body	2-Back	4	80	3	0	0	0	1	39	127637	1	14	59	125598	-1	126443	0	845	2	3	2039	53	127651	-54	0																5												
WM080112	135225_fnca	1	1	1	-118753518	1	75.032	75.031	2.0.10.147	2.0.10.242	2.0.10.242	1.0.0.439	7	234	2	3	Verdana	1	80	0	0	0	WM Stimuli\	0.6	1288	0.7	1040	0.7	1133.42857142857	1	758.9	0.7	876.571428571429	1	772.6	0.9	1301.55555555556	1	574.9	13	402964	1	402952	13	26	402977	-999999	402966	0	3	TrialsPROC	BP_001_BP1_BA.png	1	2	6	SessionSelectionList													4	target	2	Body	2-Back	5	80	4	0	0	0	2	39	130209	2	14	72	128170	-1	129060	1	890	2	2	2039	53	130223	-54	0																6												
WM080112	135225_fnca	1	1	1	-118753518	1	75.032	75.031	2.0.10.147	2.0.10.242	2.0.10.242	1.0.0.439	7	234	2	3	Verdana	1	80	0	0	0	WM Stimuli\	0.6	1288	0.7	1040	0.7	1133.42857142857	1	758.9	0.7	876.571428571429	1	772.6	0.9	1301.55555555556	1	574.9	13	402964	1	402952	13	26	402977	-999999	402966	0	3	TrialsPROC	BP_005_BP19_BA.png	1	2	7	SessionSelectionList													5	nonlure	3	Body	2-Back	6	80	5	0	0	0	1	40	132782	1	13	72	130742	-1	131967	1	1225	3	3	2040	53	132795	-54	0																7												
WM080112	135225_fnca	1	1	1	-118753518	1	75.032	75.031	2.0.10.147	2.0.10.242	2.0.10.242	1.0.0.439	7	234	2	3	Verdana	1	80	0	0	0	WM Stimuli\	0.6	1288	0.7	1040	0.7	1133.42857142857	1	758.9	0.7	876.571428571429	1	772.6	0.9	1301.55555555556	1	574.9	13	402964	1	402952	13	26	402977	-999999	402966	0	3	TrialsPROC	BP_003_BP16_BA.png	1	2	8	SessionSelectionList													6	nonlure	3	Body	2-Back	7	80	5	0	1	0	1	39	135340	2	14	59	133301	-1	0	0	0	""	3	2039	53	135354	-54	0																8												
WM080112	135225_fnca	1	1	1	-118753518	1	75.032	75.031	2.0.10.147	2.0.10.242	2.0.10.242	1.0.0.439	7	234	2	3	Verdana	1	80	0	0	0	WM Stimuli\	0.6	1288	0.7	1040	0.7	1133.42857142857	1	758.9	0.7	876.571428571429	1	772.6	0.9	1301.55555555556	1	574.9	13	402964	1	402952	13	26	402977	-999999	402966	0	3	TrialsPROC	BP_006_BP2_BA.png	1	2	9	SessionSelectionList													7	lure	3	Body	2-Back	8	80	6	0	0	0	1	39	137899	2	14	59	135860	-1	137365	1	1505	3	3	2039	53	137913	-54	0																9												
WM080112	135225_fnca	1	1	1	-118753518	1	75.032	75.031	2.0.10.147	2.0.10.242	2.0.10.242	1.0.0.439	7	234	2	3	Verdana	1	80	0	0	0	WM Stimuli\	0.6	1288	0.7	1040	0.7	1133.42857142857	1	758.9	0.7	876.571428571429	1	772.6	0.9	1301.55555555556	1	574.9	13	402964	1	402952	13	26	402977	-999999	402966	0	3	TrialsPROC	BP_004_BP18_BA.png	1	2	10	SessionSelectionList													8	nonlure	3	Body	2-Back	9	80	7	0	0	0	2	39	140458	2	14	59	138419	-1	140200	1	1781	3	3	2039	53	140472	-54	0																10												
WM080112	135225_fnca	1	1	1	-118753518	1	75.032	75.031	2.0.10.147	2.0.10.242	2.0.10.242	1.0.0.439	7	234	2	3	Verdana	1	80	0	0	0	WM Stimuli\	0.6	1288	0.7	1040	0.7	1133.42857142857	1	758.9	0.7	876.571428571429	1	772.6	0.9	1301.55555555556	1	574.9	13	402964	1	402952	13	26	402977	-999999	402966	0	3	TrialsPROC	BP_005_BP19_BA.png	1	2	11	SessionSelectionList													9	lure	3	Body	2-Back	10	80	8	0	0	0	1	39	143017	2	14	59	140978	-1	141871	0	893	2	3	2039	53	143031	-54	0																11												
WM080112	135225_fnca	1	1	1	-118753518	1	75.032	75.031	2.0.10.147	2.0.10.242	2.0.10.242	1.0.0.439	7	234	2	3	Verdana	1	80	0	0	0	WM Stimuli\	0.6	1288	0.7	1040	0.7	1133.42857142857	1	758.9	0.7	876.571428571429	1	772.6	0.9	1301.55555555556	1	574.9	13	402964	1	402952	13	26	402977	-999999	402966	0	3	TrialsPROC	BP_004_BP18_BA.png	1	2	12	SessionSelectionList													10	target	2	Body	2-Back	11	80	8	0	1	0	1	39	145576	2	14	59	143537	-1	0	0	0	""	2	2039	53	145590	-54	0																12												
WM080112	135225_fnca	1	1	1	-118753518	1	75.032	75.031	2.0.10.147	2.0.10.242	2.0.10.242	1.0.0.439	7	234	2	3	Verdana	1	80	0	0	0	WM Stimuli\	0.6	1288	0.7	1040	0.7	1133.42857142857	1	758.9	0.7	876.571428571429	1	772.6	0.9	1301.55555555556	1	574.9	13	402964	1	402952	13	26	402977	-999999	402966	0	4	Cue0BackPROC	FC_001_M1.png	1	2	13	SessionSelectionList																																										19	146056	-20	0												13												
WM080112	135225_fnca	1	1	1	-118753518	1	75.032	75.031	2.0.10.147	2.0.10.242	2.0.10.242	1.0.0.439	7	234	2	3	Verdana	1	80	0	0	0	WM Stimuli\	0.6	1288	0.7	1040	0.7	1133.42857142857	1	758.9	0.7	876.571428571429	1	772.6	0.9	1301.55555555556	1	574.9	13	402964	1	402952	13	26	402977	-999999	402966	0	5	TrialsPROC	FC_005_M3.png	1	2	14	SessionSelectionList														nonlure	3	Face	0-Back	12	80	9	0	0	100	1	39	150641	1	14	65	148602	-1	149478	1	876	3	3	2039	53	150655	-54	0					1											14												
WM080112	135225_fnca	1	1	1	-118753518	1	75.032	75.031	2.0.10.147	2.0.10.242	2.0.10.242	1.0.0.439	7	234	2	3	Verdana	1	80	0	0	0	WM Stimuli\	0.6	1288	0.7	1040	0.7	1133.42857142857	1	758.9	0.7	876.571428571429	1	772.6	0.9	1301.55555555556	1	574.9	13	402964	1	402952	13	26	402977	-999999	402966	0	5	TrialsPROC	FC_001_M1.png	1	2	15	SessionSelectionList														target	2	Face	0-Back	13	80	10	0	0	100	1	39	153213	1	14	72	151174	-1	151919	1	745	2	2	2039	53	153227	-54	0					2											15												
WM080112	135225_fnca	1	1	1	-118753518	1	75.032	75.031	2.0.10.147	2.0.10.242	2.0.10.242	1.0.0.439	7	234	2	3	Verdana	1	80	0	0	0	WM Stimuli\	0.6	1288	0.7	1040	0.7	1133.42857142857	1	758.9	0.7	876.571428571429	1	772.6	0.9	1301.55555555556	1	574.9	13	402964	1	402952	13	26	402977	-999999	402966	0	5	TrialsPROC	FC_003_M2.png	1	2	16	SessionSelectionList														nonlure	3	Face	0-Back	14	80	11	0	0	100	1	39	155785	2	14	72	153746	-1	154329	1	583	3	3	2039	53	155799	-54	0					3											16												
WM080112	135225_fnca	1	1	1	-118753518	1	75.032	75.031	2.0.10.147	2.0.10.242	2.0.10.242	1.0.0.439	7	234	2	3	Verdana	1	80	0	0	0	WM Stimuli\	0.6	1288	0.7	1040	0.7	1133.42857142857	1	758.9	0.7	876.571428571429	1	772.6	0.9	1301.55555555556	1	574.9	13	402964	1	402952	13	26	402977	-999999	402966	0	5	TrialsPROC	FC_004_F2.png	1	2	17	SessionSelectionList														nonlure	3	Face	0-Back	15	80	12	0	0	100	2	39	158358	1	13	73	156319	-1	157003	1	684	3	3	2039	52	158371	-53	0					4											17												
WM080112	135225_fnca	1	1	1	-118753518	1	75.032	75.031	2.0.10.147	2.0.10.242	2.0.10.242	1.0.0.439	7	234	2	3	Verdana	1	80	0	0	0	WM Stimuli\	0.6	1288	0.7	1040	0.7	1133.42857142857	1	758.9	0.7	876.571428571429	1	772.6	0.9	1301.55555555556	1	574.9	13	402964	1	402952	13	26	402977	-999999	402966	0	5	TrialsPROC	FC_004_F2.png	1	2	18	SessionSelectionList														lure	3	Face	0-Back	16	80	13	0	0	100	3	39	160930	1	14	72	158891	-1	160352	1	1461	3	3	2039	53	160944	-54	0					5											18												
WM080112	135225_fnca	1	1	1	-118753518	1	75.032	75.031	2.0.10.147	2.0.10.242	2.0.10.242	1.0.0.439	7	234	2	3	Verdana	1	80	0	0	0	WM Stimuli\	0.6	1288	0.7	1040	0.7	1133.42857142857	1	758.9	0.7	876.571428571429	1	772.6	0.9	1301.55555555556	1	574.9	13	402964	1	402952	13	26	402977	-999999	402966	0	5	TrialsPROC	FC_001_M1.png	1	2	19	SessionSelectionList														target	2	Face	0-Back	17	80	14	0	0	100	1	39	163502	2	14	72	161463	-1	161993	1	530	2	2	2039	53	163516	-54	0					6											19												
WM080112	135225_fnca	1	1	1	-118753518	1	75.032	75.031	2.0.10.147	2.0.10.242	2.0.10.242	1.0.0.439	7	234	2	3	Verdana	1	80	0	0	0	WM Stimuli\	0.6	1288	0.7	1040	0.7	1133.42857142857	1	758.9	0.7	876.571428571429	1	772.6	0.9	1301.55555555556	1	574.9	13	402964	1	402952	13	26	402977	-999999	402966	0	5	TrialsPROC	FC_006_F3.png	1	2	20	SessionSelectionList														nonlure	3	Face	0-Back	18	80	15	0	0	100	1	40	166075	1	13	72	164035	-1	164585	1	550	3	3	2040	53	166088	-54	0					7											20												
WM080112	135225_fnca	1	1	1	-118753518	1	75.032	75.031	2.0.10.147	2.0.10.242	2.0.10.242	1.0.0.439	7	234	2	3	Verdana	1	80	0	0	0	WM Stimuli\	0.6	1288	0.7	1040	0.7	1133.42857142857	1	758.9	0.7	876.571428571429	1	772.6	0.9	1301.55555555556	1	574.9	13	402964	1	402952	13	26	402977	-999999	402966	0	5	TrialsPROC	FC_006_F3.png	1	2	21	SessionSelectionList														lure	3	Face	0-Back	19	80	16	0	0	100	2	39	168647	1	13	73	166608	-1	167158	1	550	3	3	2039	52	168660	-53	0					8											21												
WM080112	135225_fnca	1	1	1	-118753518	1	75.032	75.031	2.0.10.147	2.0.10.242	2.0.10.242	1.0.0.439	7	234	2	3	Verdana	1	80	0	0	0	WM Stimuli\	0.6	1288	0.7	1040	0.7	1133.42857142857	1	758.9	0.7	876.571428571429	1	772.6	0.9	1301.55555555556	1	574.9	13	402964	1	402952	13	26	402977	-999999	402966	0	5	TrialsPROC	FC_003_M2.png	1	2	22	SessionSelectionList														lure	3	Face	0-Back	20	80	17	0	0	100	3	39	171219	1	14	72	169180	-1	170101	1	921	3	3	2039	53	171233	-54	0					9											22												
WM080112	135225_fnca	1	1	1	-118753518	1	75.032	75.031	2.0.10.147	2.0.10.242	2.0.10.242	1.0.0.439	7	234	2	3	Verdana	1	80	0	0	0	WM Stimuli\	0.6	1288	0.7	1040	0.7	1133.42857142857	1	758.9	0.7	876.571428571429	1	772.6	0.9	1301.55555555556	1	574.9	13	402964	1	402952	13	26	402977	-999999	402966	0	5	TrialsPROC	FC_002_F1.png	1	2	23	SessionSelectionList														nonlure	3	Face	0-Back	21	80	18	0	0	100	4	39	173791	2	14	72	171752	-1	172441	1	689	3	3	2039	53	173805	-54	0					10											23												
WM080112	135225_fnca	1	1	1	-118753518	1	75.032	75.031	2.0.10.147	2.0.10.242	2.0.10.242	1.0.0.439	7	234	2	3	Verdana	1	80	0	0	0	WM Stimuli\	0.6	1288	0.7	1040	0.7	1133.42857142857	1	758.9	0.7	876.571428571429	1	772.6	0.9	1301.55555555556	1	574.9	13	402964	1	402952	13	26	402977	-999999	402966	0	6	Fix15secPROC	""	1	2	24	SessionSelectionList																																															6	174258	-7	0							24												
WM080112	135225_fnca	1	1	1	-118753518	1	75.032	75.031	2.0.10.147	2.0.10.242	2.0.10.242	1.0.0.439	7	234	2	3	Verdana	1	80	0	0	0	WM Stimuli\	0.6	1288	0.7	1040	0.7	1133.42857142857	1	758.9	0.7	876.571428571429	1	772.6	0.9	1301.55555555556	1	574.9	13	402964	1	402952	13	26	402977	-999999	402966	0	7	Cue2BackPROC	""	1	2	25	SessionSelectionList									13	189265	-14	0																																													25												
WM080112	135225_fnca	1	1	1	-118753518	1	75.032	75.031	2.0.10.147	2.0.10.242	2.0.10.242	1.0.0.439	7	234	2	3	Verdana	1	80	0	0	0	WM Stimuli\	0.6	1288	0.7	1040	0.7	1133.42857142857	1	758.9	0.7	876.571428571429	1	772.6	0.9	1301.55555555556	1	574.9	13	402964	1	402952	13	26	402977	-999999	402966	0	8	TrialsPROC	TO_001_TOOL1_BA.png	1	2	26	SessionSelectionList														nonlure	3	Tools	2-Back	22	80	19	0	0	100	5	39	193850	1	13	59	191811	-1	193506	1	1695	3	3	2039	52	193863	-53	0										1						26												
WM080112	135225_fnca	1	1	1	-118753518	1	75.032	75.031	2.0.10.147	2.0.10.242	2.0.10.242	1.0.0.439	7	234	2	3	Verdana	1	80	0	0	0	WM Stimuli\	0.6	1288	0.7	1040	0.7	1133.42857142857	1	758.9	0.7	876.571428571429	1	772.6	0.9	1301.55555555556	1	574.9	13	402964	1	402952	13	26	402977	-999999	402966	0	8	TrialsPROC	TO_002_TOOL2_BA.png	1	2	27	SessionSelectionList														nonlure	3	Tools	2-Back	23	80	20	0	0	100	6	39	196409	1	13	59	194370	-1	195686	1	1316	3	3	2039	52	196422	-53	0										2						27												
WM080112	135225_fnca	1	1	1	-118753518	1	75.032	75.031	2.0.10.147	2.0.10.242	2.0.10.242	1.0.0.439	7	234	2	3	Verdana	1	80	0	0	0	WM Stimuli\	0.6	1288	0.7	1040	0.7	1133.42857142857	1	758.9	0.7	876.571428571429	1	772.6	0.9	1301.55555555556	1	574.9	13	402964	1	402952	13	26	402977	-999999	402966	0	8	TrialsPROC	TO_004_TOOL4_BA.png	1	2	28	SessionSelectionList														nonlure	3	Tools	2-Back	24	80	21	0	0	100	7	40	198968	1	13	58	196928	-1	198617	1	1689	3	3	2040	53	198981	-54	0										3						28												
WM080112	135225_fnca	1	1	1	-118753518	1	75.032	75.031	2.0.10.147	2.0.10.242	2.0.10.242	1.0.0.439	7	234	2	3	Verdana	1	80	0	0	0	WM Stimuli\	0.6	1288	0.7	1040	0.7	1133.42857142857	1	758.9	0.7	876.571428571429	1	772.6	0.9	1301.55555555556	1	574.9	13	402964	1	402952	13	26	402977	-999999	402966	0	8	TrialsPROC	TO_002_TOOL2_BA.png	1	2	29	SessionSelectionList														target	2	Tools	2-Back	25	80	22	0	0	100	1	40	201527	1	13	59	199487	-1	200911	1	1424	2	2	2040	53	201540	-54	0										4						29												
WM080112	135225_fnca	1	1	1	-118753518	1	75.032	75.031	2.0.10.147	2.0.10.242	2.0.10.242	1.0.0.439	7	234	2	3	Verdana	1	80	0	0	0	WM Stimuli\	0.6	1288	0.7	1040	0.7	1133.42857142857	1	758.9	0.7	876.571428571429	1	772.6	0.9	1301.55555555556	1	574.9	13	402964	1	402952	13	26	402977	-999999	402966	0	8	TrialsPROC	TO_001_TOOL1_BA.png	1	2	30	SessionSelectionList														lure	3	Tools	2-Back	26	80	23	0	0	100	1	40	204086	2	13	59	202046	-1	203819	1	1773	3	3	2040	53	204099	-54	0										5						30												
WM080112	135225_fnca	1	1	1	-118753518	1	75.032	75.031	2.0.10.147	2.0.10.242	2.0.10.242	1.0.0.439	7	234	2	3	Verdana	1	80	0	0	0	WM Stimuli\	0.6	1288	0.7	1040	0.7	1133.42857142857	1	758.9	0.7	876.571428571429	1	772.6	0.9	1301.55555555556	1	574.9	13	402964	1	402952	13	26	402977	-999999	402966	0	8	TrialsPROC	TO_004_TOOL4_BA.png	1	2	31	SessionSelectionList														lure	3	Tools	2-Back	27	80	24	0	0	100	1	40	206645	1	13	59	204605	-1	205891	0	1286	2	3	2040	53	206658	-54	0										6						31												
WM080112	135225_fnca	1	1	1	-118753518	1	75.032	75.031	2.0.10.147	2.0.10.242	2.0.10.242	1.0.0.439	7	234	2	3	Verdana	1	80	0	0	0	WM Stimuli\	0.6	1288	0.7	1040	0.7	1133.42857142857	1	758.9	0.7	876.571428571429	1	772.6	0.9	1301.55555555556	1	574.9	13	402964	1	402952	13	26	402977	-999999	402966	0	8	TrialsPROC	TO_006_TOOL6_BA.png	1	2	32	SessionSelectionList														nonlure	3	Tools	2-Back	28	80	25	0	0	100	1	39	209203	2	14	59	207164	-1	208190	1	1026	3	3	2039	53	209217	-54	0										7						32												
WM080112	135225_fnca	1	1	1	-118753518	1	75.032	75.031	2.0.10.147	2.0.10.242	2.0.10.242	1.0.0.439	7	234	2	3	Verdana	1	80	0	0	0	WM Stimuli\	0.6	1288	0.7	1040	0.7	1133.42857142857	1	758.9	0.7	876.571428571429	1	772.6	0.9	1301.55555555556	1	574.9	13	402964	1	402952	13	26	402977	-999999	402966	0	8	TrialsPROC	TO_005_TOOL5_BA.png	1	2	33	SessionSelectionList														nonlure	3	Tools	2-Back	29	80	26	0	0	100	2	39	211762	2	14	59	209723	-1	210780	1	1057	3	3	2039	53	211776	-54	0										8						33												
WM080112	135225_fnca	1	1	1	-118753518	1	75.032	75.031	2.0.10.147	2.0.10.242	2.0.10.242	1.0.0.439	7	234	2	3	Verdana	1	80	0	0	0	WM Stimuli\	0.6	1288	0.7	1040	0.7	1133.42857142857	1	758.9	0.7	876.571428571429	1	772.6	0.9	1301.55555555556	1	574.9	13	402964	1	402952	13	26	402977	-999999	402966	0	8	TrialsPROC	TO_006_TOOL6_BA.png	1	2	34	SessionSelectionList														target	2	Tools	2-Back	30	80	27	0	0	100	1	39	214321	2	14	59	212282	-1	213122	1	840	2	2	2039	53	214335	-54	0										9						34												
WM080112	135225_fnca	1	1	1	-118753518	1	75.032	75.031	2.0.10.147	2.0.10.242	2.0.10.242	1.0.0.439	7	234	2	3	Verdana	1	80	0	0	0	WM Stimuli\	0.6	1288	0.7	1040	0.7	1133.42857142857	1	758.9	0.7	876.571428571429	1	772.6	0.9	1301.55555555556	1	574.9	13	402964	1	402952	13	26	402977	-999999	402966	0	8	TrialsPROC	TO_003_TOOL3_BA.png	1	2	35	SessionSelectionList														nonlure	3	Tools	2-Back	31	80	28	0	0	100	1	39	216880	2	14	59	214841	-1	215735	1	894	3	3	2039	53	216894	-54	0										10						35												
WM080112	135225_fnca	1	1	1	-118753518	1	75.032	75.031	2.0.10.147	2.0.10.242	2.0.10.242	1.0.0.439	7	234	2	3	Verdana	1	80	0	0	0	WM Stimuli\	0.6	1288	0.7	1040	0.7	1133.42857142857	1	758.9	0.7	876.571428571429	1	772.6	0.9	1301.55555555556	1	574.9	13	402964	1	402952	13	26	402977	-999999	402966	0	9	Cue0BackPROC	BP_007_BP20_BA.png	1	2	36	SessionSelectionList																																										19	217360	-20	0												36												
WM080112	135225_fnca	1	1	1	-118753518	1	75.032	75.031	2.0.10.147	2.0.10.242	2.0.10.242	1.0.0.439	7	234	2	3	Verdana	1	80	0	0	0	WM Stimuli\	0.6	1288	0.7	1040	0.7	1133.42857142857	1	758.9	0.7	876.571428571429	1	772.6	0.9	1301.55555555556	1	574.9	13	402964	1	402952	13	26	402977	-999999	402966	0	10	TrialsPROC	BP_007_BP20_BA.png	1	2	37	SessionSelectionList														target	2	Body	0-Back	32	80	29	0	0	91	2	40	221932	1	13	51	219892	-1	221669	0	1777	3	2	2040	53	221945	-54	0											1					37												
WM080112	135225_fnca	1	1	1	-118753518	1	75.032	75.031	2.0.10.147	2.0.10.242	2.0.10.242	1.0.0.439	7	234	2	3	Verdana	1	80	0	0	0	WM Stimuli\	0.6	1288	0.7	1040	0.7	1133.42857142857	1	758.9	0.7	876.571428571429	1	772.6	0.9	1301.55555555556	1	574.9	13	402964	1	402952	13	26	402977	-999999	402966	0	10	TrialsPROC	BP_011_BP4_BA.png	1	2	38	SessionSelectionList														nonlure	3	Body	0-Back	33	80	30	0	0	92	3	38	224490	2	14	60	222452	-1	224298	1	1846	3	3	2038	52	224504	-53	0											2					38												
WM080112	135225_fnca	1	1	1	-118753518	1	75.032	75.031	2.0.10.147	2.0.10.242	2.0.10.242	1.0.0.439	7	234	2	3	Verdana	1	80	0	0	0	WM Stimuli\	0.6	1288	0.7	1040	0.7	1133.42857142857	1	758.9	0.7	876.571428571429	1	772.6	0.9	1301.55555555556	1	574.9	13	402964	1	402952	13	26	402977	-999999	402966	0	10	TrialsPROC	BP_010_BP3_BA.png	1	2	39	SessionSelectionList														nonlure	3	Body	0-Back	34	80	31	0	0	92	4	39	227049	3	14	58	225010	-1	226062	1	1052	3	3	2039	53	227063	-54	0											3					39												
WM080112	135225_fnca	1	1	1	-118753518	1	75.032	75.031	2.0.10.147	2.0.10.242	2.0.10.242	1.0.0.439	7	234	2	3	Verdana	1	80	0	0	0	WM Stimuli\	0.6	1288	0.7	1040	0.7	1133.42857142857	1	758.9	0.7	876.571428571429	1	772.6	0.9	1301.55555555556	1	574.9	13	402964	1	402952	13	26	402977	-999999	402966	0	10	TrialsPROC	BP_008_BP21_BA.png	1	2	40	SessionSelectionList														nonlure	3	Body	0-Back	35	80	32	0	0	93	5	39	229608	2	14	59	227569	-1	228352	1	783	3	3	2039	53	229622	-54	0											4					40												
WM080112	135225_fnca	1	1	1	-118753518	1	75.032	75.031	2.0.10.147	2.0.10.242	2.0.10.242	1.0.0.439	7	234	2	3	Verdana	1	80	0	0	0	WM Stimuli\	0.6	1288	0.7	1040	0.7	1133.42857142857	1	758.9	0.7	876.571428571429	1	772.6	0.9	1301.55555555556	1	574.9	13	402964	1	402952	13	26	402977	-999999	402966	0	10	TrialsPROC	BP_011_BP4_BA.png	1	2	41	SessionSelectionList														lure	3	Body	0-Back	36	80	33	0	0	87	1	39	232167	2	14	59	230128	-1	231134	0	1006	2	3	2039	53	232181	-54	0											5					41												
WM080112	135225_fnca	1	1	1	-118753518	1	75.032	75.031	2.0.10.147	2.0.10.242	2.0.10.242	1.0.0.439	7	234	2	3	Verdana	1	80	0	0	0	WM Stimuli\	0.6	1288	0.7	1040	0.7	1133.42857142857	1	758.9	0.7	876.571428571429	1	772.6	0.9	1301.55555555556	1	574.9	13	402964	1	402952	13	26	402977	-999999	402966	0	10	TrialsPROC	BP_009_BP22_BA.png	1	2	42	SessionSelectionList														nonlure	3	Body	0-Back	37	80	34	0	0	88	1	39	234726	2	14	59	232687	-1	233494	1	807	3	3	2039	53	234740	-54	0											6					42												
WM080112	135225_fnca	1	1	1	-118753518	1	75.032	75.031	2.0.10.147	2.0.10.242	2.0.10.242	1.0.0.439	7	234	2	3	Verdana	1	80	0	0	0	WM Stimuli\	0.6	1288	0.7	1040	0.7	1133.42857142857	1	758.9	0.7	876.571428571429	1	772.6	0.9	1301.55555555556	1	574.9	13	402964	1	402952	13	26	402977	-999999	402966	0	10	TrialsPROC	BP_009_BP22_BA.png	1	2	43	SessionSelectionList														lure	3	Body	0-Back	38	80	35	0	0	88	2	39	237285	2	14	59	235246	-1	236060	1	814	3	3	2039	53	237299	-54	0											7					43												
WM080112	135225_fnca	1	1	1	-118753518	1	75.032	75.031	2.0.10.147	2.0.10.242	2.0.10.242	1.0.0.439	7	234	2	3	Verdana	1	80	0	0	0	WM Stimuli\	0.6	1288	0.7	1040	0.7	1133.42857142857	1	758.9	0.7	876.571428571429	1	772.6	0.9	1301.55555555556	1	574.9	13	402964	1	402952	13	26	402977	-999999	402966	0	10	TrialsPROC	BP_008_BP21_BA.png	1	2	44	SessionSelectionList														lure	3	Body	0-Back	39	80	36	0	0	89	3	39	239844	1	14	59	237805	-1	238814	1	1009	3	3	2039	53	239858	-54	0											8					44												
WM080112	135225_fnca	1	1	1	-118753518	1	75.032	75.031	2.0.10.147	2.0.10.242	2.0.10.242	1.0.0.439	7	234	2	3	Verdana	1	80	0	0	0	WM Stimuli\	0.6	1288	0.7	1040	0.7	1133.42857142857	1	758.9	0.7	876.571428571429	1	772.6	0.9	1301.55555555556	1	574.9	13	402964	1	402952	13	26	402977	-999999	402966	0	10	TrialsPROC	BP_007_BP20_BA.png	1	2	45	SessionSelectionList														target	2	Body	0-Back	40	80	37	0	0	84	4	39	242403	1	14	59	240364	-1	241658	0	1294	3	2	2039	53	242417	-54	0											9					45												
WM080112	135225_fnca	1	1	1	-118753518	1	75.032	75.031	2.0.10.147	2.0.10.242	2.0.10.242	1.0.0.439	7	234	2	3	Verdana	1	80	0	0	0	WM Stimuli\	0.6	1288	0.7	1040	0.7	1133.42857142857	1	758.9	0.7	876.571428571429	1	772.6	0.9	1301.55555555556	1	574.9	13	402964	1	402952	13	26	402977	-999999	402966	0	10	TrialsPROC	BP_012_BP5_BA.png	1	2	46	SessionSelectionList														nonlure	3	Body	0-Back	41	80	38	0	0	85	5	39	244962	2	14	59	242923	-1	243892	1	969	3	3	2039	53	244976	-54	0											10					46												
WM080112	135225_fnca	1	1	1	-118753518	1	75.032	75.031	2.0.10.147	2.0.10.242	2.0.10.242	1.0.0.439	7	234	2	3	Verdana	1	80	0	0	0	WM Stimuli\	0.6	1288	0.7	1040	0.7	1133.42857142857	1	758.9	0.7	876.571428571429	1	772.6	0.9	1301.55555555556	1	574.9	13	402964	1	402952	13	26	402977	-999999	402966	0	11	Fix15secPROC	""	1	2	47	SessionSelectionList																																															6	245429	-7	0							47												
WM080112	135225_fnca	1	1	1	-118753518	1	75.032	75.031	2.0.10.147	2.0.10.242	2.0.10.242	1.0.0.439	7	234	2	3	Verdana	1	80	0	0	0	WM Stimuli\	0.6	1288	0.7	1040	0.7	1133.42857142857	1	758.9	0.7	876.571428571429	1	772.6	0.9	1301.55555555556	1	574.9	13	402964	1	402952	13	26	402977	-999999	402966	0	12	Cue0BackPROC	PL_001_92012.png	1	2	48	SessionSelectionList																																										13	260436	-14	0												48												
WM080112	135225_fnca	1	1	1	-118753518	1	75.032	75.031	2.0.10.147	2.0.10.242	2.0.10.242	1.0.0.439	7	234	2	3	Verdana	1	80	0	0	0	WM Stimuli\	0.6	1288	0.7	1040	0.7	1133.42857142857	1	758.9	0.7	876.571428571429	1	772.6	0.9	1301.55555555556	1	574.9	13	402964	1	402952	13	26	402977	-999999	402966	0	13	TrialsPROC	PL_003_92016.png	1	2	49	SessionSelectionList														nonlure	3	Place	0-Back	42	80	39	0	0	86	6	39	265034	1	14	72	262995	-1	264257	1	1262	3	3	2039	53	265048	-54	0												1				49												
WM080112	135225_fnca	1	1	1	-118753518	1	75.032	75.031	2.0.10.147	2.0.10.242	2.0.10.242	1.0.0.439	7	234	2	3	Verdana	1	80	0	0	0	WM Stimuli\	0.6	1288	0.7	1040	0.7	1133.42857142857	1	758.9	0.7	876.571428571429	1	772.6	0.9	1301.55555555556	1	574.9	13	402964	1	402952	13	26	402977	-999999	402966	0	13	TrialsPROC	PL_003_92016.png	1	2	50	SessionSelectionList														lure	3	Place	0-Back	43	80	40	0	0	86	7	39	267593	1	13	59	265554	-1	266290	1	736	3	3	2039	52	267606	-53	0												2				50												
WM080112	135225_fnca	1	1	1	-118753518	1	75.032	75.031	2.0.10.147	2.0.10.242	2.0.10.242	1.0.0.439	7	234	2	3	Verdana	1	80	0	0	0	WM Stimuli\	0.6	1288	0.7	1040	0.7	1133.42857142857	1	758.9	0.7	876.571428571429	1	772.6	0.9	1301.55555555556	1	574.9	13	402964	1	402952	13	26	402977	-999999	402966	0	13	TrialsPROC	PL_006_92025.png	1	2	51	SessionSelectionList														nonlure	3	Place	0-Back	44	80	41	0	0	87	8	39	270152	1	13	59	268113	-1	268820	1	707	3	3	2039	52	270165	-53	0												3				51												
WM080112	135225_fnca	1	1	1	-118753518	1	75.032	75.031	2.0.10.147	2.0.10.242	2.0.10.242	1.0.0.439	7	234	2	3	Verdana	1	80	0	0	0	WM Stimuli\	0.6	1288	0.7	1040	0.7	1133.42857142857	1	758.9	0.7	876.571428571429	1	772.6	0.9	1301.55555555556	1	574.9	13	402964	1	402952	13	26	402977	-999999	402966	0	13	TrialsPROC	PL_001_92012.png	1	2	52	SessionSelectionList														target	2	Place	0-Back	45	80	42	0	0	88	1	39	272711	1	13	59	270672	-1	271716	1	1044	2	2	2039	52	272724	-53	0												4				52												
WM080112	135225_fnca	1	1	1	-118753518	1	75.032	75.031	2.0.10.147	2.0.10.242	2.0.10.242	1.0.0.439	7	234	2	3	Verdana	1	80	0	0	0	WM Stimuli\	0.6	1288	0.7	1040	0.7	1133.42857142857	1	758.9	0.7	876.571428571429	1	772.6	0.9	1301.55555555556	1	574.9	13	402964	1	402952	13	26	402977	-999999	402966	0	13	TrialsPROC	PL_004_92023.png	1	2	53	SessionSelectionList														nonlure	3	Place	0-Back	46	80	43	0	0	88	1	39	275270	1	13	59	273231	-1	273834	1	603	3	3	2039	52	275283	-53	0												5				53												
WM080112	135225_fnca	1	1	1	-118753518	1	75.032	75.031	2.0.10.147	2.0.10.242	2.0.10.242	1.0.0.439	7	234	2	3	Verdana	1	80	0	0	0	WM Stimuli\	0.6	1288	0.7	1040	0.7	1133.42857142857	1	758.9	0.7	876.571428571429	1	772.6	0.9	1301.55555555556	1	574.9	13	402964	1	402952	13	26	402977	-999999	402966	0	13	TrialsPROC	PL_005_92024.png	1	2	54	SessionSelectionList														nonlure	3	Place	0-Back	47	80	44	0	0	88	2	39	277829	1	13	59	275790	-1	276476	1	686	3	3	2039	52	277842	-53	0												6				54												
WM080112	135225_fnca	1	1	1	-118753518	1	75.032	75.031	2.0.10.147	2.0.10.242	2.0.10.242	1.0.0.439	7	234	2	3	Verdana	1	80	0	0	0	WM Stimuli\	0.6	1288	0.7	1040	0.7	1133.42857142857	1	758.9	0.7	876.571428571429	1	772.6	0.9	1301.55555555556	1	574.9	13	402964	1	402952	13	26	402977	-999999	402966	0	13	TrialsPROC	PL_001_92012.png	1	2	55	SessionSelectionList														target	2	Place	0-Back	48	80	45	0	0	89	1	39	280388	1	13	59	278349	-1	279112	1	763	2	2	2039	52	280401	-53	0												7				55												
WM080112	135225_fnca	1	1	1	-118753518	1	75.032	75.031	2.0.10.147	2.0.10.242	2.0.10.242	1.0.0.439	7	234	2	3	Verdana	1	80	0	0	0	WM Stimuli\	0.6	1288	0.7	1040	0.7	1133.42857142857	1	758.9	0.7	876.571428571429	1	772.6	0.9	1301.55555555556	1	574.9	13	402964	1	402952	13	26	402977	-999999	402966	0	13	TrialsPROC	PL_002_92014.png	1	2	56	SessionSelectionList														nonlure	3	Place	0-Back	49	80	46	0	0	89	1	39	282960	1	13	72	280921	-1	281500	1	579	3	3	2039	52	282973	-53	0												8				56												
WM080112	135225_fnca	1	1	1	-118753518	1	75.032	75.031	2.0.10.147	2.0.10.242	2.0.10.242	1.0.0.439	7	234	2	3	Verdana	1	80	0	0	0	WM Stimuli\	0.6	1288	0.7	1040	0.7	1133.42857142857	1	758.9	0.7	876.571428571429	1	772.6	0.9	1301.55555555556	1	574.9	13	402964	1	402952	13	26	402977	-999999	402966	0	13	TrialsPROC	PL_004_92023.png	1	2	57	SessionSelectionList														lure	3	Place	0-Back	50	80	47	0	0	90	2	39	285519	1	13	59	283480	-1	284098	1	618	3	3	2039	52	285532	-53	0												9				57												
WM080112	135225_fnca	1	1	1	-118753518	1	75.032	75.031	2.0.10.147	2.0.10.242	2.0.10.242	1.0.0.439	7	234	2	3	Verdana	1	80	0	0	0	WM Stimuli\	0.6	1288	0.7	1040	0.7	1133.42857142857	1	758.9	0.7	876.571428571429	1	772.6	0.9	1301.55555555556	1	574.9	13	402964	1	402952	13	26	402977	-999999	402966	0	13	TrialsPROC	PL_006_92025.png	1	2	58	SessionSelectionList														lure	3	Place	0-Back	51	80	48	0	0	90	3	39	288078	1	13	59	286039	-1	286767	1	728	3	3	2039	52	288091	-53	0												10				58												
WM080112	135225_fnca	1	1	1	-118753518	1	75.032	75.031	2.0.10.147	2.0.10.242	2.0.10.242	1.0.0.439	7	234	2	3	Verdana	1	80	0	0	0	WM Stimuli\	0.6	1288	0.7	1040	0.7	1133.42857142857	1	758.9	0.7	876.571428571429	1	772.6	0.9	1301.55555555556	1	574.9	13	402964	1	402952	13	26	402977	-999999	402966	0	14	Cue2BackPROC	""	1	2	59	SessionSelectionList									5	288544	-6	0																																													59												
WM080112	135225_fnca	1	1	1	-118753518	1	75.032	75.031	2.0.10.147	2.0.10.242	2.0.10.242	1.0.0.439	7	234	2	3	Verdana	1	80	0	0	0	WM Stimuli\	0.6	1288	0.7	1040	0.7	1133.42857142857	1	758.9	0.7	876.571428571429	1	772.6	0.9	1301.55555555556	1	574.9	13	402964	1	402952	13	26	402977	-999999	402966	0	15	TrialsPROC	FC_010_F5.png	1	2	60	SessionSelectionList														nonlure	3	Face	2-Back	52	80	48	0	1	90	3	39	293142	2	14	64	291103	-1	0	0	0	""	3	2039	53	293156	-54	0													1			60												
WM080112	135225_fnca	1	1	1	-118753518	1	75.032	75.031	2.0.10.147	2.0.10.242	2.0.10.242	1.0.0.439	7	234	2	3	Verdana	1	80	0	0	0	WM Stimuli\	0.6	1288	0.7	1040	0.7	1133.42857142857	1	758.9	0.7	876.571428571429	1	772.6	0.9	1301.55555555556	1	574.9	13	402964	1	402952	13	26	402977	-999999	402966	0	15	TrialsPROC	FC_012_F6.png	1	2	61	SessionSelectionList														nonlure	3	Face	2-Back	53	80	49	0	0	90	1	40	295715	1	13	72	293675	-1	295472	1	1797	3	3	2040	53	295728	-54	0													2			61												
WM080112	135225_fnca	1	1	1	-118753518	1	75.032	75.031	2.0.10.147	2.0.10.242	2.0.10.242	1.0.0.439	7	234	2	3	Verdana	1	80	0	0	0	WM Stimuli\	0.6	1288	0.7	1040	0.7	1133.42857142857	1	758.9	0.7	876.571428571429	1	772.6	0.9	1301.55555555556	1	574.9	13	402964	1	402952	13	26	402977	-999999	402966	0	15	TrialsPROC	FC_010_F5.png	1	2	62	SessionSelectionList														target	2	Face	2-Back	54	80	50	0	0	90	2	39	298287	1	13	73	296248	-1	297721	0	1473	3	2	2039	52	298300	-53	0													3			62												
WM080112	135225_fnca	1	1	1	-118753518	1	75.032	75.031	2.0.10.147	2.0.10.242	2.0.10.242	1.0.0.439	7	234	2	3	Verdana	1	80	0	0	0	WM Stimuli\	0.6	1288	0.7	1040	0.7	1133.42857142857	1	758.9	0.7	876.571428571429	1	772.6	0.9	1301.55555555556	1	574.9	13	402964	1	402952	13	26	402977	-999999	402966	0	15	TrialsPROC	FC_008_F4.png	1	2	63	SessionSelectionList														nonlure	3	Face	2-Back	55	80	50	0	1	90	2	39	300859	1	14	72	298820	-1	0	0	0	""	3	2039	53	300873	-54	0													4			63												
WM080112	135225_fnca	1	1	1	-118753518	1	75.032	75.031	2.0.10.147	2.0.10.242	2.0.10.242	1.0.0.439	7	234	2	3	Verdana	1	80	0	0	0	WM Stimuli\	0.6	1288	0.7	1040	0.7	1133.42857142857	1	758.9	0.7	876.571428571429	1	772.6	0.9	1301.55555555556	1	574.9	13	402964	1	402952	13	26	402977	-999999	402966	0	15	TrialsPROC	FC_012_F6.png	1	2	64	SessionSelectionList														lure	3	Face	2-Back	56	80	51	0	0	90	1	39	303431	2	14	72	301392	-1	302589	1	1197	3	3	2039	53	303445	-54	0													5			64												
WM080112	135225_fnca	1	1	1	-118753518	1	75.032	75.031	2.0.10.147	2.0.10.242	2.0.10.242	1.0.0.439	7	234	2	3	Verdana	1	80	0	0	0	WM Stimuli\	0.6	1288	0.7	1040	0.7	1133.42857142857	1	758.9	0.7	876.571428571429	1	772.6	0.9	1301.55555555556	1	574.9	13	402964	1	402952	13	26	402977	-999999	402966	0	15	TrialsPROC	FC_008_F4.png	1	2	65	SessionSelectionList														target	2	Face	2-Back	57	80	52	0	0	90	1	40	306004	1	13	72	303964	-1	304809	1	845	2	2	2040	53	306017	-54	0													6			65												
WM080112	135225_fnca	1	1	1	-118753518	1	75.032	75.031	2.0.10.147	2.0.10.242	2.0.10.242	1.0.0.439	7	234	2	3	Verdana	1	80	0	0	0	WM Stimuli\	0.6	1288	0.7	1040	0.7	1133.42857142857	1	758.9	0.7	876.571428571429	1	772.6	0.9	1301.55555555556	1	574.9	13	402964	1	402952	13	26	402977	-999999	402966	0	15	TrialsPROC	FC_007_M4.png	1	2	66	SessionSelectionList														nonlure	3	Face	2-Back	58	80	53	0	0	90	1	39	308576	1	14	73	306537	-1	307705	1	1168	3	3	2039	53	308590	-54	0													7			66												
WM080112	135225_fnca	1	1	1	-118753518	1	75.032	75.031	2.0.10.147	2.0.10.242	2.0.10.242	1.0.0.439	7	234	2	3	Verdana	1	80	0	0	0	WM Stimuli\	0.6	1288	0.7	1040	0.7	1133.42857142857	1	758.9	0.7	876.571428571429	1	772.6	0.9	1301.55555555556	1	574.9	13	402964	1	402952	13	26	402977	-999999	402966	0	15	TrialsPROC	FC_007_M4.png	1	2	67	SessionSelectionList														lure	3	Face	2-Back	59	80	54	0	0	90	2	39	311148	1	14	72	309109	-1	310178	1	1069	3	3	2039	53	311162	-54	0													8			67												
WM080112	135225_fnca	1	1	1	-118753518	1	75.032	75.031	2.0.10.147	2.0.10.242	2.0.10.242	1.0.0.439	7	234	2	3	Verdana	1	80	0	0	0	WM Stimuli\	0.6	1288	0.7	1040	0.7	1133.42857142857	1	758.9	0.7	876.571428571429	1	772.6	0.9	1301.55555555556	1	574.9	13	402964	1	402952	13	26	402977	-999999	402966	0	15	TrialsPROC	FC_009_M5.png	1	2	68	SessionSelectionList														nonlure	3	Face	2-Back	60	80	55	0	0	90	3	39	313720	2	14	72	311681	-1	312569	1	888	3	3	2039	53	313734	-54	0													9			68												
WM080112	135225_fnca	1	1	1	-118753518	1	75.032	75.031	2.0.10.147	2.0.10.242	2.0.10.242	1.0.0.439	7	234	2	3	Verdana	1	80	0	0	0	WM Stimuli\	0.6	1288	0.7	1040	0.7	1133.42857142857	1	758.9	0.7	876.571428571429	1	772.6	0.9	1301.55555555556	1	574.9	13	402964	1	402952	13	26	402977	-999999	402966	0	15	TrialsPROC	FC_011_M6.png	1	2	69	SessionSelectionList														nonlure	3	Face	2-Back	61	80	56	0	0	90	4	39	316293	1	13	73	314254	-1	315224	1	970	3	3	2039	52	316306	-53	0													10			69												
WM080112	135225_fnca	1	1	1	-118753518	1	75.032	75.031	2.0.10.147	2.0.10.242	2.0.10.242	1.0.0.439	7	234	2	3	Verdana	1	80	0	0	0	WM Stimuli\	0.6	1288	0.7	1040	0.7	1133.42857142857	1	758.9	0.7	876.571428571429	1	772.6	0.9	1301.55555555556	1	574.9	13	402964	1	402952	13	26	402977	-999999	402966	0	16	Fix15secPROC	""	1	2	70	SessionSelectionList																																															6	316760	-7	0							70												
WM080112	135225_fnca	1	1	1	-118753518	1	75.032	75.031	2.0.10.147	2.0.10.242	2.0.10.242	1.0.0.439	7	234	2	3	Verdana	1	80	0	0	0	WM Stimuli\	0.6	1288	0.7	1040	0.7	1133.42857142857	1	758.9	0.7	876.571428571429	1	772.6	0.9	1301.55555555556	1	574.9	13	402964	1	402952	13	26	402977	-999999	402966	0	17	Cue0BackPROC	TO_007_TOOL7_BA.png	1	2	71	SessionSelectionList																																										12	331766	-13	0												71												
WM080112	135225_fnca	1	1	1	-118753518	1	75.032	75.031	2.0.10.147	2.0.10.242	2.0.10.242	1.0.0.439	7	234	2	3	Verdana	1	80	0	0	0	WM Stimuli\	0.6	1288	0.7	1040	0.7	1133.42857142857	1	758.9	0.7	876.571428571429	1	772.6	0.9	1301.55555555556	1	574.9	13	402964	1	402952	13	26	402977	-999999	402966	0	18	TrialsPROC	TO_010_TOOL10_BA.png	1	2	72	SessionSelectionList														nonlure	3	Tools	0-Back	62	80	57	0	0	90	5	39	336351	1	14	58	334312	-1	335250	1	938	3	3	2039	53	336365	-54	0														1		72												
WM080112	135225_fnca	1	1	1	-118753518	1	75.032	75.031	2.0.10.147	2.0.10.242	2.0.10.242	1.0.0.439	7	234	2	3	Verdana	1	80	0	0	0	WM Stimuli\	0.6	1288	0.7	1040	0.7	1133.42857142857	1	758.9	0.7	876.571428571429	1	772.6	0.9	1301.55555555556	1	574.9	13	402964	1	402952	13	26	402977	-999999	402966	0	18	TrialsPROC	TO_009_TOOL9_BA.png	1	2	73	SessionSelectionList														nonlure	3	Tools	0-Back	63	80	58	0	0	91	6	39	338910	1	14	59	336871	-1	337559	1	688	3	3	2039	53	338924	-54	0														2		73												
WM080112	135225_fnca	1	1	1	-118753518	1	75.032	75.031	2.0.10.147	2.0.10.242	2.0.10.242	1.0.0.439	7	234	2	3	Verdana	1	80	0	0	0	WM Stimuli\	0.6	1288	0.7	1040	0.7	1133.42857142857	1	758.9	0.7	876.571428571429	1	772.6	0.9	1301.55555555556	1	574.9	13	402964	1	402952	13	26	402977	-999999	402966	0	18	TrialsPROC	TO_009_TOOL9_BA.png	1	2	74	SessionSelectionList														lure	3	Tools	0-Back	64	80	59	0	0	91	7	39	341469	1	14	59	339430	-1	339880	1	450	3	3	2039	53	341483	-54	0														3		74												
WM080112	135225_fnca	1	1	1	-118753518	1	75.032	75.031	2.0.10.147	2.0.10.242	2.0.10.242	1.0.0.439	7	234	2	3	Verdana	1	80	0	0	0	WM Stimuli\	0.6	1288	0.7	1040	0.7	1133.42857142857	1	758.9	0.7	876.571428571429	1	772.6	0.9	1301.55555555556	1	574.9	13	402964	1	402952	13	26	402977	-999999	402966	0	18	TrialsPROC	TO_008_TOOL8_BA.png	1	2	75	SessionSelectionList														nonlure	3	Tools	0-Back	65	80	60	0	0	91	8	39	344028	1	14	59	341989	-1	342421	1	432	3	3	2039	53	344042	-54	0														4		75												
WM080112	135225_fnca	1	1	1	-118753518	1	75.032	75.031	2.0.10.147	2.0.10.242	2.0.10.242	1.0.0.439	7	234	2	3	Verdana	1	80	0	0	0	WM Stimuli\	0.6	1288	0.7	1040	0.7	1133.42857142857	1	758.9	0.7	876.571428571429	1	772.6	0.9	1301.55555555556	1	574.9	13	402964	1	402952	13	26	402977	-999999	402966	0	18	TrialsPROC	TO_011_TOOL11_BA.png	1	2	76	SessionSelectionList														nonlure	3	Tools	0-Back	66	80	61	0	0	91	9	39	346587	1	14	59	344548	-1	344942	1	394	3	3	2039	53	346601	-54	0														5		76												
WM080112	135225_fnca	1	1	1	-118753518	1	75.032	75.031	2.0.10.147	2.0.10.242	2.0.10.242	1.0.0.439	7	234	2	3	Verdana	1	80	0	0	0	WM Stimuli\	0.6	1288	0.7	1040	0.7	1133.42857142857	1	758.9	0.7	876.571428571429	1	772.6	0.9	1301.55555555556	1	574.9	13	402964	1	402952	13	26	402977	-999999	402966	0	18	TrialsPROC	TO_012_TOOL12_BA.png	1	2	77	SessionSelectionList														nonlure	3	Tools	0-Back	67	80	62	0	0	92	10	39	349146	1	14	59	347107	-1	347585	1	478	3	3	2039	53	349160	-54	0														6		77												
WM080112	135225_fnca	1	1	1	-118753518	1	75.032	75.031	2.0.10.147	2.0.10.242	2.0.10.242	1.0.0.439	7	234	2	3	Verdana	1	80	0	0	0	WM Stimuli\	0.6	1288	0.7	1040	0.7	1133.42857142857	1	758.9	0.7	876.571428571429	1	772.6	0.9	1301.55555555556	1	574.9	13	402964	1	402952	13	26	402977	-999999	402966	0	18	TrialsPROC	TO_010_TOOL10_BA.png	1	2	78	SessionSelectionList														lure	3	Tools	0-Back	68	80	63	0	0	92	11	39	351705	1	14	59	349666	-1	350199	1	533	3	3	2039	53	351719	-54	0														7		78												
WM080112	135225_fnca	1	1	1	-118753518	1	75.032	75.031	2.0.10.147	2.0.10.242	2.0.10.242	1.0.0.439	7	234	2	3	Verdana	1	80	0	0	0	WM Stimuli\	0.6	1288	0.7	1040	0.7	1133.42857142857	1	758.9	0.7	876.571428571429	1	772.6	0.9	1301.55555555556	1	574.9	13	402964	1	402952	13	26	402977	-999999	402966	0	18	TrialsPROC	TO_007_TOOL7_BA.png	1	2	79	SessionSelectionList														target	2	Tools	0-Back	69	80	64	0	0	92	1	39	354264	1	13	59	352225	-1	352785	1	560	2	2	2039	52	354277	-53	0														8		79												
WM080112	135225_fnca	1	1	1	-118753518	1	75.032	75.031	2.0.10.147	2.0.10.242	2.0.10.242	1.0.0.439	7	234	2	3	Verdana	1	80	0	0	0	WM Stimuli\	0.6	1288	0.7	1040	0.7	1133.42857142857	1	758.9	0.7	876.571428571429	1	772.6	0.9	1301.55555555556	1	574.9	13	402964	1	402952	13	26	402977	-999999	402966	0	18	TrialsPROC	TO_008_TOOL8_BA.png	1	2	80	SessionSelectionList														lure	3	Tools	0-Back	70	80	65	0	0	92	1	39	356823	1	13	59	354784	-1	355410	1	626	3	3	2039	52	356836	-53	0														9		80												
WM080112	135225_fnca	1	1	1	-118753518	1	75.032	75.031	2.0.10.147	2.0.10.242	2.0.10.242	1.0.0.439	7	234	2	3	Verdana	1	80	0	0	0	WM Stimuli\	0.6	1288	0.7	1040	0.7	1133.42857142857	1	758.9	0.7	876.571428571429	1	772.6	0.9	1301.55555555556	1	574.9	13	402964	1	402952	13	26	402977	-999999	402966	0	18	TrialsPROC	TO_007_TOOL7_BA.png	1	2	81	SessionSelectionList														target	2	Tools	0-Back	71	80	66	0	0	92	1	39	359382	1	13	59	357343	-1	357993	1	650	2	2	2039	52	359395	-53	0														10		81												
WM080112	135225_fnca	1	1	1	-118753518	1	75.032	75.031	2.0.10.147	2.0.10.242	2.0.10.242	1.0.0.439	7	234	2	3	Verdana	1	80	0	0	0	WM Stimuli\	0.6	1288	0.7	1040	0.7	1133.42857142857	1	758.9	0.7	876.571428571429	1	772.6	0.9	1301.55555555556	1	574.9	13	402964	1	402952	13	26	402977	-999999	402966	0	19	Cue2BackPROC	""	1	2	82	SessionSelectionList									5	359848	-6	0																																													82												
WM080112	135225_fnca	1	1	1	-118753518	1	75.032	75.031	2.0.10.147	2.0.10.242	2.0.10.242	1.0.0.439	7	234	2	3	Verdana	1	80	0	0	0	WM Stimuli\	0.6	1288	0.7	1040	0.7	1133.42857142857	1	758.9	0.7	876.571428571429	1	772.6	0.9	1301.55555555556	1	574.9	13	402964	1	402952	13	26	402977	-999999	402966	0	20	TrialsPROC	PL_007_92026.png	1	2	83	SessionSelectionList														nonlure	3	Place	2-Back	72	80	66	0	1	92	1	39	364446	2	14	64	362407	-1	0	0	0	""	3	2039	53	364460	-54	0															1	83												
WM080112	135225_fnca	1	1	1	-118753518	1	75.032	75.031	2.0.10.147	2.0.10.242	2.0.10.242	1.0.0.439	7	234	2	3	Verdana	1	80	0	0	0	WM Stimuli\	0.6	1288	0.7	1040	0.7	1133.42857142857	1	758.9	0.7	876.571428571429	1	772.6	0.9	1301.55555555556	1	574.9	13	402964	1	402952	13	26	402977	-999999	402966	0	20	TrialsPROC	PL_007_92026.png	1	2	84	SessionSelectionList														lure	3	Place	2-Back	73	80	67	0	0	92	1	38	367005	2	14	60	364967	-1	365642	1	675	3	3	2038	52	367019	-53	0															2	84												
WM080112	135225_fnca	1	1	1	-118753518	1	75.032	75.031	2.0.10.147	2.0.10.242	2.0.10.242	1.0.0.439	7	234	2	3	Verdana	1	80	0	0	0	WM Stimuli\	0.6	1288	0.7	1040	0.7	1133.42857142857	1	758.9	0.7	876.571428571429	1	772.6	0.9	1301.55555555556	1	574.9	13	402964	1	402952	13	26	402977	-999999	402966	0	20	TrialsPROC	PL_010_92038.png	1	2	85	SessionSelectionList														nonlure	3	Place	2-Back	74	80	68	0	0	92	2	39	369564	2	14	58	367525	-1	368434	1	909	3	3	2039	53	369578	-54	0															3	85												
WM080112	135225_fnca	1	1	1	-118753518	1	75.032	75.031	2.0.10.147	2.0.10.242	2.0.10.242	1.0.0.439	7	234	2	3	Verdana	1	80	0	0	0	WM Stimuli\	0.6	1288	0.7	1040	0.7	1133.42857142857	1	758.9	0.7	876.571428571429	1	772.6	0.9	1301.55555555556	1	574.9	13	402964	1	402952	13	26	402977	-999999	402966	0	20	TrialsPROC	PL_009_92037.png	1	2	86	SessionSelectionList														nonlure	3	Place	2-Back	75	80	69	0	0	92	3	39	372123	1	14	59	370084	-1	370792	1	708	3	3	2039	53	372137	-54	0															4	86												
WM080112	135225_fnca	1	1	1	-118753518	1	75.032	75.031	2.0.10.147	2.0.10.242	2.0.10.242	1.0.0.439	7	234	2	3	Verdana	1	80	0	0	0	WM Stimuli\	0.6	1288	0.7	1040	0.7	1133.42857142857	1	758.9	0.7	876.571428571429	1	772.6	0.9	1301.55555555556	1	574.9	13	402964	1	402952	13	26	402977	-999999	402966	0	20	TrialsPROC	PL_010_92038.png	1	2	87	SessionSelectionList														target	2	Place	2-Back	76	80	70	0	0	92	4	39	374682	1	14	59	372643	-1	373439	0	796	3	2	2039	53	374696	-54	0															5	87												
WM080112	135225_fnca	1	1	1	-118753518	1	75.032	75.031	2.0.10.147	2.0.10.242	2.0.10.242	1.0.0.439	7	234	2	3	Verdana	1	80	0	0	0	WM Stimuli\	0.6	1288	0.7	1040	0.7	1133.42857142857	1	758.9	0.7	876.571428571429	1	772.6	0.9	1301.55555555556	1	574.9	13	402964	1	402952	13	26	402977	-999999	402966	0	20	TrialsPROC	PL_009_92037.png	1	2	88	SessionSelectionList														target	2	Place	2-Back	77	80	71	0	0	92	1	39	377241	1	14	59	375202	-1	375959	1	757	2	2	2039	53	377255	-54	0															6	88												
WM080112	135225_fnca	1	1	1	-118753518	1	75.032	75.031	2.0.10.147	2.0.10.242	2.0.10.242	1.0.0.439	7	234	2	3	Verdana	1	80	0	0	0	WM Stimuli\	0.6	1288	0.7	1040	0.7	1133.42857142857	1	758.9	0.7	876.571428571429	1	772.6	0.9	1301.55555555556	1	574.9	13	402964	1	402952	13	26	402977	-999999	402966	0	20	TrialsPROC	PL_008_92033.png	1	2	89	SessionSelectionList														nonlure	3	Place	2-Back	78	80	72	0	0	92	1	39	379800	1	14	59	377761	-1	378628	1	867	3	3	2039	53	379814	-54	0															7	89												
WM080112	135225_fnca	1	1	1	-118753518	1	75.032	75.031	2.0.10.147	2.0.10.242	2.0.10.242	1.0.0.439	7	234	2	3	Verdana	1	80	0	0	0	WM Stimuli\	0.6	1288	0.7	1040	0.7	1133.42857142857	1	758.9	0.7	876.571428571429	1	772.6	0.9	1301.55555555556	1	574.9	13	402964	1	402952	13	26	402977	-999999	402966	0	20	TrialsPROC	PL_012_92047.png	1	2	90	SessionSelectionList														nonlure	3	Place	2-Back	79	80	73	0	0	92	1	39	382359	1	14	59	380320	-1	380895	0	575	2	3	2039	53	382373	-54	0															8	90												
WM080112	135225_fnca	1	1	1	-118753518	1	75.032	75.031	2.0.10.147	2.0.10.242	2.0.10.242	1.0.0.439	7	234	2	3	Verdana	1	80	0	0	0	WM Stimuli\	0.6	1288	0.7	1040	0.7	1133.42857142857	1	758.9	0.7	876.571428571429	1	772.6	0.9	1301.55555555556	1	574.9	13	402964	1	402952	13	26	402977	-999999	402966	0	20	TrialsPROC	PL_012_92047.png	1	2	91	SessionSelectionList														lure	3	Place	2-Back	80	80	74	0	0	92	1	39	384918	1	14	59	382879	-1	383718	1	839	3	3	2039	53	384932	-54	0															9	91												
WM080112	135225_fnca	1	1	1	-118753518	1	75.032	75.031	2.0.10.147	2.0.10.242	2.0.10.242	1.0.0.439	7	234	2	3	Verdana	1	80	0	0	0	WM Stimuli\	0.6	1288	0.7	1040	0.7	1133.42857142857	1	758.9	0.7	876.571428571429	1	772.6	0.9	1301.55555555556	1	574.9	13	402964	1	402952	13	26	402977	-999999	402966	0	20	TrialsPROC	PL_011_92044.png	1	2	92	SessionSelectionList														nonlure	3	Place	2-Back	80	80	75	0	0	92	2	39	387490	1	14	72	385451	-1	386832	1	1381	3	3	2039	53	387504	-54	0															10	92												
WM080112	135225_fnca	1	1	1	-118753518	1	75.032	75.031	2.0.10.147	2.0.10.242	2.0.10.242	1.0.0.439	7	234	2	3	Verdana	1	80	0	0	0	WM Stimuli\	0.6	1288	0.7	1040	0.7	1133.42857142857	1	758.9	0.7	876.571428571429	1	772.6	0.9	1301.55555555556	1	574.9	13	402964	1	402952	13	26	402977	-999999	402966	0	21	Fix15secPROC	""	1	2	93	SessionSelectionList																																															6	387957	-7	0							93												
