ExperimentName	HCPID	RunNumber	Subject	Session	RandomSeed	Group	Laptop.RefreshRate	ScannerD2.RefreshRate	StudioVersion	RuntimeVersion	RuntimeVersionExpected	ExperimentVersion	triggercode	Allowed	Target	Nontarget	FontStyle	RunTrialNumber[Session]	TrialsPerRun[Session]	TotalRespGreater200[Session]	ConsecRTLess200[Session]	ConsecNonResp[Session]	StimuliDir	ACC_2_Back_Body	Avg_RT_For_Correct_Trials_2_Back_Body	ACC_0_Back_Body	Avg_RT_For_Correct_Trials_0_Back_Body	ACC_2_Back_Face	Avg_RT_For_Correct_Trials_2_Back_Face	ACC_0_Back_Face	Avg_RT_For_Correct_Trials_0_Back_Face	ACC_2_Back_Place	Avg_RT_For_Correct_Trials_2_Back_Place	ACC_0_Back_Place	Avg_RT_For_Correct_Trials_0_Back_Place	ACC_2_Back_Tools	Avg_RT_For_Correct_Trials_2_Back_Tools	ACC_0_Back_Tools	Avg_RT_For_Correct_Trials_0_Back_Tools	ExpInstrucFeelFreeToRest.OnsetDelay	ExpInstrucFeelFreeToRest.OnsetTime	ExpInstrucFeelFreeToRest.DurationError	ExpInstrucFeelFreeToRest.StartTime	ExpInstrucFeelFreeToRest.OnsetToOnsetTime	FeelFreeToRest.OnsetDelay	FeelFreeToRest.OnsetTime	FeelFreeToRest.DurationError	FeelFreeToRest.StartTime	FeelFreeToRest.OnsetToOnsetTime	SessionSelectionList	Procedure[Block]	Stimulus[Block]	RunNumberFilterValue	SessionSelectionList.Cycle	SessionSelectionList.Sample	Running[Block]	IntroButtonMap.OnsetDelay	IntroButtonMap.OnsetTime	IntroButtonMap.DurationError	IntroButtonMap.OnsetToOnsetTime	GetReady.OnsetDelay	GetReady.OnsetTime	GetReady.DurationError	GetReady.OnsetToOnsetTime	Cue2Back.OnsetDelay	Cue2Back.OnsetTime	Cue2Back.DurationError	Cue2Back.OnsetToOnsetTime	Run1Block1	TargetType	CorrectResponse	StimType	BlockType	RunTrialNumber[Block]	TrialsPerRun[Block]	TotalRespGreater200[Block]	ConsecRTLess200[Block]	ConsecNonResp[Block]	ControlAcc	ConsecSameResp	ExperimenterWindow.OnsetDelay	ExperimenterWindow.OnsetTime	ExperimenterWindow.DurationError	ExperimenterWindow.OnsetToOnsetTime	Stim.OnsetDelay	Stim.OnsetTime	Stim.DurationError	Stim.RTTime	Stim.ACC	Stim.RT	Stim.RESP	Stim.CRESP	Stim.OnsetToOnsetTime	Fix.OnsetDelay	Fix.OnsetTime	Fix.DurationError	Fix.OnsetToOnsetTime	CueTarget.OnsetDelay	CueTarget.OnsetTime	CueTarget.DurationError	CueTarget.OnsetToOnsetTime	Run1Block2	Fix15sec.OnsetDelay	Fix15sec.OnsetTime	Fix15sec.DurationError	Fix15sec.OnsetToOnsetTime	Run1Block3	Run1Block4	Run1Block5	Run1Block6	Run1Block7	Run1Block8	Block	Procedure[Trial]	Stimulus[Trial]	ReadyList	Running[Trial]	ReadyList.Cycle	ReadyList.Sample	SyncSlide.OnsetDelay	SyncSlide.OnsetTime	SyncSlide.DurationError	SyncSlide.FinishTime	SyncSlide.OnsetToOnsetTime	Trial
WM080112	176542_fnca	1	1	1	389016735	1	75.031	75.030	2.0.10.147	2.0.10.242	2.0.10.242	1.0.0.439	7	234	2	3	Verdana	1	80	0	0	0	WM Stimuli\	0.4	1099.25	0.8	1005.125	0.7	936.571428571429	0.8	1176.5	0.6	1351.5	0.9	795	0.9	938.222222222222	0.7	1166	13	415967	3	415955	27	40	415994	-999999	415970	0	1	TRSyncPROC	""	1	2	1	SessionSelectionList	97	18969	-999999	0	37	109879	-999999	0																																																	1	InitialTR	4	1	ReadyList	1	1	15	122673	-16	124657	0	1
WM080112	176542_fnca	1	1	1	389016735	1	75.031	75.030	2.0.10.147	2.0.10.242	2.0.10.242	1.0.0.439	7	234	2	3	Verdana	1	80	0	0	0	WM Stimuli\	0.4	1099.25	0.8	1005.125	0.7	936.571428571429	0.8	1176.5	0.6	1351.5	0.9	795	0.9	938.222222222222	0.7	1166	13	415967	3	415955	27	40	415994	-999999	415970	0	1	TRSyncPROC	""	1	2	1	SessionSelectionList	97	18969	-999999	0	37	109879	-999999	0																																																	1	InitialTR	3	2	ReadyList	1	2	14	124672	-15	126657	0	2
WM080112	176542_fnca	1	1	1	389016735	1	75.031	75.030	2.0.10.147	2.0.10.242	2.0.10.242	1.0.0.439	7	234	2	3	Verdana	1	80	0	0	0	WM Stimuli\	0.4	1099.25	0.8	1005.125	0.7	936.571428571429	0.8	1176.5	0.6	1351.5	0.9	795	0.9	938.222222222222	0.7	1166	13	415967	3	415955	27	40	415994	-999999	415970	0	1	TRSyncPROC	""	1	2	1	SessionSelectionList	97	18969	-999999	0	37	109879	-999999	0																																																	1	InitialTR	2	3	ReadyList	1	3	14	126672	-15	128657	0	3
WM080112	176542_fnca	1	1	1	389016735	1	75.031	75.030	2.0.10.147	2.0.10.242	2.0.10.242	1.0.0.439	7	234	2	3	Verdana	1	80	0	0	0	WM Stimuli\	0.4	1099.25	0.8	1005.125	0.7	936.571428571429	0.8	1176.5	0.6	1351.5	0.9	795	0.9	938.222222222222	0.7	1166	13	415967	3	415955	27	40	415994	-999999	415970	0	1	TRSyncPROC	""	1	2	1	SessionSelectionList	97	18969	-999999	0	37	109879	-999999	0																																																	1	InitialTR	1	4	ReadyList	1	4	13	128671	-14	130657	0	4
WM080112	176542_fnca	1	1	1	389016735	1	75.031	75.030	2.0.10.147	2.0.10.242	2.0.10.242	1.0.0.439	7	234	2	3	Verdana	1	80	0	0	0	WM Stimuli\	0.4	1099.25	0.8	1005.125	0.7	936.571428571429	0.8	1176.5	0.6	1351.5	0.9	795	0.9	938.222222222222	0.7	1166	13	415967	3	415955	27	40	415994	-999999	415970	0	2	Cue2BackPROC	""	1	2	2	SessionSelectionList									12	130670	-13	0																																													2												
WM080112	176542_fnca	1	1	1	389016735	1	75.031	75.030	2.0.10.147	2.0.10.242	2.0.10.242	1.0.0.439	7	234	2	3	Verdana	1	80	0	0	0	WM Stimuli\	0.4	1099.25	0.8	1005.125	0.7	936.571428571429	0.8	1176.5	0.6	1351.5	0.9	795	0.9	938.222222222222	0.7	1166	13	415967	3	415955	27	40	415994	-999999	415970	0	3	TrialsPROC	BP_002_BP10_BA.png	1	2	3	SessionSelectionList													1	nonlure	3	Body	2-Back	2	80	1	0	0	0	1	53	135295	3	13	84	133242	-1	133909	1	667	3	3	2053	66	135308	-67	0																3												
WM080112	176542_fnca	1	1	1	389016735	1	75.031	75.030	2.0.10.147	2.0.10.242	2.0.10.242	1.0.0.439	7	234	2	3	Verdana	1	80	0	0	0	WM Stimuli\	0.4	1099.25	0.8	1005.125	0.7	936.571428571429	0.8	1176.5	0.6	1351.5	0.9	795	0.9	938.222222222222	0.7	1166	13	415967	3	415955	27	40	415994	-999999	415970	0	3	TrialsPROC	BP_001_BP1_BA.png	1	2	4	SessionSelectionList													2	nonlure	3	Body	2-Back	3	80	2	0	0	0	2	40	137854	2	13	72	135814	-1	137145	1	1331	3	3	2040	53	137867	-54	0																4												
WM080112	176542_fnca	1	1	1	389016735	1	75.031	75.030	2.0.10.147	2.0.10.242	2.0.10.242	1.0.0.439	7	234	2	3	Verdana	1	80	0	0	0	WM Stimuli\	0.4	1099.25	0.8	1005.125	0.7	936.571428571429	0.8	1176.5	0.6	1351.5	0.9	795	0.9	938.222222222222	0.7	1166	13	415967	3	415955	27	40	415994	-999999	415970	0	3	TrialsPROC	BP_006_BP2_BA.png	1	2	5	SessionSelectionList													3	nonlure	3	Body	2-Back	4	80	3	0	0	0	1	40	140413	1	13	59	138373	-1	139969	0	1596	2	3	2040	53	140426	-54	0																5												
WM080112	176542_fnca	1	1	1	389016735	1	75.031	75.030	2.0.10.147	2.0.10.242	2.0.10.242	1.0.0.439	7	234	2	3	Verdana	1	80	0	0	0	WM Stimuli\	0.4	1099.25	0.8	1005.125	0.7	936.571428571429	0.8	1176.5	0.6	1351.5	0.9	795	0.9	938.222222222222	0.7	1166	13	415967	3	415955	27	40	415994	-999999	415970	0	3	TrialsPROC	BP_001_BP1_BA.png	1	2	6	SessionSelectionList													4	target	2	Body	2-Back	5	80	4	0	0	0	1	39	142985	1	14	73	140946	-1	142791	0	1845	3	2	2039	53	142999	-54	0																6												
WM080112	176542_fnca	1	1	1	389016735	1	75.031	75.030	2.0.10.147	2.0.10.242	2.0.10.242	1.0.0.439	7	234	2	3	Verdana	1	80	0	0	0	WM Stimuli\	0.4	1099.25	0.8	1005.125	0.7	936.571428571429	0.8	1176.5	0.6	1351.5	0.9	795	0.9	938.222222222222	0.7	1166	13	415967	3	415955	27	40	415994	-999999	415970	0	3	TrialsPROC	BP_005_BP19_BA.png	1	2	7	SessionSelectionList													5	nonlure	3	Body	2-Back	6	80	5	0	0	0	1	39	145557	2	14	72	143518	-1	144838	0	1320	2	3	2039	53	145571	-54	0																7												
WM080112	176542_fnca	1	1	1	389016735	1	75.031	75.030	2.0.10.147	2.0.10.242	2.0.10.242	1.0.0.439	7	234	2	3	Verdana	1	80	0	0	0	WM Stimuli\	0.4	1099.25	0.8	1005.125	0.7	936.571428571429	0.8	1176.5	0.6	1351.5	0.9	795	0.9	938.222222222222	0.7	1166	13	415967	3	415955	27	40	415994	-999999	415970	0	3	TrialsPROC	BP_003_BP16_BA.png	1	2	8	SessionSelectionList													6	nonlure	3	Body	2-Back	7	80	6	0	0	0	1	39	148116	2	14	59	146077	-1	147431	1	1354	3	3	2039	53	148130	-54	0																8												
WM080112	176542_fnca	1	1	1	389016735	1	75.031	75.030	2.0.10.147	2.0.10.242	2.0.10.242	1.0.0.439	7	234	2	3	Verdana	1	80	0	0	0	WM Stimuli\	0.4	1099.25	0.8	1005.125	0.7	936.571428571429	0.8	1176.5	0.6	1351.5	0.9	795	0.9	938.222222222222	0.7	1166	13	415967	3	415955	27	40	415994	-999999	415970	0	3	TrialsPROC	BP_006_BP2_BA.png	1	2	9	SessionSelectionList													7	lure	3	Body	2-Back	8	80	7	0	0	0	1	39	150675	2	14	59	148636	-1	149900	0	1264	2	3	2039	53	150689	-54	0																9												
WM080112	176542_fnca	1	1	1	389016735	1	75.031	75.030	2.0.10.147	2.0.10.242	2.0.10.242	1.0.0.439	7	234	2	3	Verdana	1	80	0	0	0	WM Stimuli\	0.4	1099.25	0.8	1005.125	0.7	936.571428571429	0.8	1176.5	0.6	1351.5	0.9	795	0.9	938.222222222222	0.7	1166	13	415967	3	415955	27	40	415994	-999999	415970	0	3	TrialsPROC	BP_004_BP18_BA.png	1	2	10	SessionSelectionList													8	nonlure	3	Body	2-Back	9	80	8	0	0	0	1	39	153234	1	14	59	151195	-1	152240	1	1045	3	3	2039	53	153248	-54	0																10												
WM080112	176542_fnca	1	1	1	389016735	1	75.031	75.030	2.0.10.147	2.0.10.242	2.0.10.242	1.0.0.439	7	234	2	3	Verdana	1	80	0	0	0	WM Stimuli\	0.4	1099.25	0.8	1005.125	0.7	936.571428571429	0.8	1176.5	0.6	1351.5	0.9	795	0.9	938.222222222222	0.7	1166	13	415967	3	415955	27	40	415994	-999999	415970	0	3	TrialsPROC	BP_005_BP19_BA.png	1	2	11	SessionSelectionList													9	lure	3	Body	2-Back	10	80	9	0	0	0	1	39	155793	1	14	59	153754	-1	154631	0	877	2	3	2039	53	155807	-54	0																11												
WM080112	176542_fnca	1	1	1	389016735	1	75.031	75.030	2.0.10.147	2.0.10.242	2.0.10.242	1.0.0.439	7	234	2	3	Verdana	1	80	0	0	0	WM Stimuli\	0.4	1099.25	0.8	1005.125	0.7	936.571428571429	0.8	1176.5	0.6	1351.5	0.9	795	0.9	938.222222222222	0.7	1166	13	415967	3	415955	27	40	415994	-999999	415970	0	3	TrialsPROC	BP_004_BP18_BA.png	1	2	12	SessionSelectionList													10	target	2	Body	2-Back	11	80	10	0	0	0	1	39	158352	1	14	59	156313	-1	157677	0	1364	3	2	2039	53	158366	-54	0																12												
WM080112	176542_fnca	1	1	1	389016735	1	75.031	75.030	2.0.10.147	2.0.10.242	2.0.10.242	1.0.0.439	7	234	2	3	Verdana	1	80	0	0	0	WM Stimuli\	0.4	1099.25	0.8	1005.125	0.7	936.571428571429	0.8	1176.5	0.6	1351.5	0.9	795	0.9	938.222222222222	0.7	1166	13	415967	3	415955	27	40	415994	-999999	415970	0	4	Cue0BackPROC	FC_001_M1.png	1	2	13	SessionSelectionList																																										19	158832	-20	0												13												
WM080112	176542_fnca	1	1	1	389016735	1	75.031	75.030	2.0.10.147	2.0.10.242	2.0.10.242	1.0.0.439	7	234	2	3	Verdana	1	80	0	0	0	WM Stimuli\	0.4	1099.25	0.8	1005.125	0.7	936.571428571429	0.8	1176.5	0.6	1351.5	0.9	795	0.9	938.222222222222	0.7	1166	13	415967	3	415955	27	40	415994	-999999	415970	0	5	TrialsPROC	FC_005_M3.png	1	2	14	SessionSelectionList														nonlure	3	Face	0-Back	12	80	11	0	0	100	2	40	163417	2	13	64	161377	-1	162854	1	1477	3	3	2040	53	163430	-54	0					1											14												
WM080112	176542_fnca	1	1	1	389016735	1	75.031	75.030	2.0.10.147	2.0.10.242	2.0.10.242	1.0.0.439	7	234	2	3	Verdana	1	80	0	0	0	WM Stimuli\	0.4	1099.25	0.8	1005.125	0.7	936.571428571429	0.8	1176.5	0.6	1351.5	0.9	795	0.9	938.222222222222	0.7	1166	13	415967	3	415955	27	40	415994	-999999	415970	0	5	TrialsPROC	FC_001_M1.png	1	2	15	SessionSelectionList														target	2	Face	0-Back	13	80	12	0	0	100	1	39	165989	1	14	73	163950	-1	164716	1	766	2	2	2039	53	166003	-54	0					2											15												
WM080112	176542_fnca	1	1	1	389016735	1	75.031	75.030	2.0.10.147	2.0.10.242	2.0.10.242	1.0.0.439	7	234	2	3	Verdana	1	80	0	0	0	WM Stimuli\	0.4	1099.25	0.8	1005.125	0.7	936.571428571429	0.8	1176.5	0.6	1351.5	0.9	795	0.9	938.222222222222	0.7	1166	13	415967	3	415955	27	40	415994	-999999	415970	0	5	TrialsPROC	FC_003_M2.png	1	2	16	SessionSelectionList														nonlure	3	Face	0-Back	14	80	13	0	0	67	2	39	168561	2	14	72	166522	-1	168516	0	1994	2	3	2039	53	168575	-54	0					3											16												
WM080112	176542_fnca	1	1	1	389016735	1	75.031	75.030	2.0.10.147	2.0.10.242	2.0.10.242	1.0.0.439	7	234	2	3	Verdana	1	80	0	0	0	WM Stimuli\	0.4	1099.25	0.8	1005.125	0.7	936.571428571429	0.8	1176.5	0.6	1351.5	0.9	795	0.9	938.222222222222	0.7	1166	13	415967	3	415955	27	40	415994	-999999	415970	0	5	TrialsPROC	FC_004_F2.png	1	2	17	SessionSelectionList														nonlure	3	Face	0-Back	15	80	14	0	0	75	1	39	171133	2	14	72	169094	-1	169991	1	897	3	3	2039	53	171147	-54	0					4											17												
WM080112	176542_fnca	1	1	1	389016735	1	75.031	75.030	2.0.10.147	2.0.10.242	2.0.10.242	1.0.0.439	7	234	2	3	Verdana	1	80	0	0	0	WM Stimuli\	0.4	1099.25	0.8	1005.125	0.7	936.571428571429	0.8	1176.5	0.6	1351.5	0.9	795	0.9	938.222222222222	0.7	1166	13	415967	3	415955	27	40	415994	-999999	415970	0	5	TrialsPROC	FC_004_F2.png	1	2	18	SessionSelectionList														lure	3	Face	0-Back	16	80	15	0	0	80	2	39	173706	1	13	73	171667	-1	172732	1	1065	3	3	2039	52	173719	-53	0					5											18												
WM080112	176542_fnca	1	1	1	389016735	1	75.031	75.030	2.0.10.147	2.0.10.242	2.0.10.242	1.0.0.439	7	234	2	3	Verdana	1	80	0	0	0	WM Stimuli\	0.4	1099.25	0.8	1005.125	0.7	936.571428571429	0.8	1176.5	0.6	1351.5	0.9	795	0.9	938.222222222222	0.7	1166	13	415967	3	415955	27	40	415994	-999999	415970	0	5	TrialsPROC	FC_001_M1.png	1	2	19	SessionSelectionList														target	2	Face	0-Back	17	80	16	0	0	83	1	39	176278	1	14	72	174239	-1	176149	1	1910	2	2	2039	53	176292	-54	0					6											19												
WM080112	176542_fnca	1	1	1	389016735	1	75.031	75.030	2.0.10.147	2.0.10.242	2.0.10.242	1.0.0.439	7	234	2	3	Verdana	1	80	0	0	0	WM Stimuli\	0.4	1099.25	0.8	1005.125	0.7	936.571428571429	0.8	1176.5	0.6	1351.5	0.9	795	0.9	938.222222222222	0.7	1166	13	415967	3	415955	27	40	415994	-999999	415970	0	5	TrialsPROC	FC_006_F3.png	1	2	20	SessionSelectionList														nonlure	3	Face	0-Back	18	80	17	0	0	86	1	39	178850	2	14	72	176811	-1	177695	1	884	3	3	2039	53	178864	-54	0					7											20												
WM080112	176542_fnca	1	1	1	389016735	1	75.031	75.030	2.0.10.147	2.0.10.242	2.0.10.242	1.0.0.439	7	234	2	3	Verdana	1	80	0	0	0	WM Stimuli\	0.4	1099.25	0.8	1005.125	0.7	936.571428571429	0.8	1176.5	0.6	1351.5	0.9	795	0.9	938.222222222222	0.7	1166	13	415967	3	415955	27	40	415994	-999999	415970	0	5	TrialsPROC	FC_006_F3.png	1	2	21	SessionSelectionList														lure	3	Face	0-Back	19	80	18	0	0	88	2	40	181423	1	13	72	179383	-1	180957	1	1574	3	3	2040	53	181436	-54	0					8											21												
WM080112	176542_fnca	1	1	1	389016735	1	75.031	75.030	2.0.10.147	2.0.10.242	2.0.10.242	1.0.0.439	7	234	2	3	Verdana	1	80	0	0	0	WM Stimuli\	0.4	1099.25	0.8	1005.125	0.7	936.571428571429	0.8	1176.5	0.6	1351.5	0.9	795	0.9	938.222222222222	0.7	1166	13	415967	3	415955	27	40	415994	-999999	415970	0	5	TrialsPROC	FC_003_M2.png	1	2	22	SessionSelectionList														lure	3	Face	0-Back	20	80	19	0	0	78	1	39	183995	1	14	73	181956	-1	182918	0	962	2	3	2039	53	184009	-54	0					9											22												
WM080112	176542_fnca	1	1	1	389016735	1	75.031	75.030	2.0.10.147	2.0.10.242	2.0.10.242	1.0.0.439	7	234	2	3	Verdana	1	80	0	0	0	WM Stimuli\	0.4	1099.25	0.8	1005.125	0.7	936.571428571429	0.8	1176.5	0.6	1351.5	0.9	795	0.9	938.222222222222	0.7	1166	13	415967	3	415955	27	40	415994	-999999	415970	0	5	TrialsPROC	FC_002_F1.png	1	2	23	SessionSelectionList														nonlure	3	Face	0-Back	21	80	20	0	0	80	1	39	186567	2	14	72	184528	-1	185367	1	839	3	3	2039	53	186581	-54	0					10											23												
WM080112	176542_fnca	1	1	1	389016735	1	75.031	75.030	2.0.10.147	2.0.10.242	2.0.10.242	1.0.0.439	7	234	2	3	Verdana	1	80	0	0	0	WM Stimuli\	0.4	1099.25	0.8	1005.125	0.7	936.571428571429	0.8	1176.5	0.6	1351.5	0.9	795	0.9	938.222222222222	0.7	1166	13	415967	3	415955	27	40	415994	-999999	415970	0	6	Fix15secPROC	""	1	2	24	SessionSelectionList																																															6	187034	-7	0							24												
WM080112	176542_fnca	1	1	1	389016735	1	75.031	75.030	2.0.10.147	2.0.10.242	2.0.10.242	1.0.0.439	7	234	2	3	Verdana	1	80	0	0	0	WM Stimuli\	0.4	1099.25	0.8	1005.125	0.7	936.571428571429	0.8	1176.5	0.6	1351.5	0.9	795	0.9	938.222222222222	0.7	1166	13	415967	3	415955	27	40	415994	-999999	415970	0	7	Cue2BackPROC	""	1	2	25	SessionSelectionList									13	202041	-14	0																																													25												
WM080112	176542_fnca	1	1	1	389016735	1	75.031	75.030	2.0.10.147	2.0.10.242	2.0.10.242	1.0.0.439	7	234	2	3	Verdana	1	80	0	0	0	WM Stimuli\	0.4	1099.25	0.8	1005.125	0.7	936.571428571429	0.8	1176.5	0.6	1351.5	0.9	795	0.9	938.222222222222	0.7	1166	13	415967	3	415955	27	40	415994	-999999	415970	0	8	TrialsPROC	TO_001_TOOL1_BA.png	1	2	26	SessionSelectionList														nonlure	3	Tools	2-Back	22	80	21	0	0	80	2	39	206626	1	13	59	204587	-1	205513	1	926	3	3	2039	52	206639	-53	0										1						26												
WM080112	176542_fnca	1	1	1	389016735	1	75.031	75.030	2.0.10.147	2.0.10.242	2.0.10.242	1.0.0.439	7	234	2	3	Verdana	1	80	0	0	0	WM Stimuli\	0.4	1099.25	0.8	1005.125	0.7	936.571428571429	0.8	1176.5	0.6	1351.5	0.9	795	0.9	938.222222222222	0.7	1166	13	415967	3	415955	27	40	415994	-999999	415970	0	8	TrialsPROC	TO_002_TOOL2_BA.png	1	2	27	SessionSelectionList														nonlure	3	Tools	2-Back	23	80	22	0	0	80	3	40	209185	1	13	58	207145	-1	207987	1	842	3	3	2040	53	209198	-54	0										2						27												
WM080112	176542_fnca	1	1	1	389016735	1	75.031	75.030	2.0.10.147	2.0.10.242	2.0.10.242	1.0.0.439	7	234	2	3	Verdana	1	80	0	0	0	WM Stimuli\	0.4	1099.25	0.8	1005.125	0.7	936.571428571429	0.8	1176.5	0.6	1351.5	0.9	795	0.9	938.222222222222	0.7	1166	13	415967	3	415955	27	40	415994	-999999	415970	0	8	TrialsPROC	TO_004_TOOL4_BA.png	1	2	28	SessionSelectionList														nonlure	3	Tools	2-Back	24	80	23	0	0	80	4	40	211744	1	13	59	209704	-1	210593	1	889	3	3	2040	53	211757	-54	0										3						28												
WM080112	176542_fnca	1	1	1	389016735	1	75.031	75.030	2.0.10.147	2.0.10.242	2.0.10.242	1.0.0.439	7	234	2	3	Verdana	1	80	0	0	0	WM Stimuli\	0.4	1099.25	0.8	1005.125	0.7	936.571428571429	0.8	1176.5	0.6	1351.5	0.9	795	0.9	938.222222222222	0.7	1166	13	415967	3	415955	27	40	415994	-999999	415970	0	8	TrialsPROC	TO_002_TOOL2_BA.png	1	2	29	SessionSelectionList														target	2	Tools	2-Back	25	80	24	0	0	80	1	40	214303	1	13	59	212263	-1	212898	1	635	2	2	2040	53	214316	-54	0										4						29												
WM080112	176542_fnca	1	1	1	389016735	1	75.031	75.030	2.0.10.147	2.0.10.242	2.0.10.242	1.0.0.439	7	234	2	3	Verdana	1	80	0	0	0	WM Stimuli\	0.4	1099.25	0.8	1005.125	0.7	936.571428571429	0.8	1176.5	0.6	1351.5	0.9	795	0.9	938.222222222222	0.7	1166	13	415967	3	415955	27	40	415994	-999999	415970	0	8	TrialsPROC	TO_001_TOOL1_BA.png	1	2	30	SessionSelectionList														lure	3	Tools	2-Back	26	80	25	0	0	80	1	40	216862	1	13	59	214822	-1	215872	1	1050	3	3	2040	53	216875	-54	0										5						30												
WM080112	176542_fnca	1	1	1	389016735	1	75.031	75.030	2.0.10.147	2.0.10.242	2.0.10.242	1.0.0.439	7	234	2	3	Verdana	1	80	0	0	0	WM Stimuli\	0.4	1099.25	0.8	1005.125	0.7	936.571428571429	0.8	1176.5	0.6	1351.5	0.9	795	0.9	938.222222222222	0.7	1166	13	415967	3	415955	27	40	415994	-999999	415970	0	8	TrialsPROC	TO_004_TOOL4_BA.png	1	2	31	SessionSelectionList														lure	3	Tools	2-Back	27	80	26	0	0	80	1	40	219421	1	13	59	217381	-1	218888	0	1507	2	3	2040	53	219434	-54	0										6						31												
WM080112	176542_fnca	1	1	1	389016735	1	75.031	75.030	2.0.10.147	2.0.10.242	2.0.10.242	1.0.0.439	7	234	2	3	Verdana	1	80	0	0	0	WM Stimuli\	0.4	1099.25	0.8	1005.125	0.7	936.571428571429	0.8	1176.5	0.6	1351.5	0.9	795	0.9	938.222222222222	0.7	1166	13	415967	3	415955	27	40	415994	-999999	415970	0	8	TrialsPROC	TO_006_TOOL6_BA.png	1	2	32	SessionSelectionList														nonlure	3	Tools	2-Back	28	80	27	0	0	80	1	39	221979	2	14	59	219940	-1	221617	1	1677	3	3	2039	53	221993	-54	0										7						32												
WM080112	176542_fnca	1	1	1	389016735	1	75.031	75.030	2.0.10.147	2.0.10.242	2.0.10.242	1.0.0.439	7	234	2	3	Verdana	1	80	0	0	0	WM Stimuli\	0.4	1099.25	0.8	1005.125	0.7	936.571428571429	0.8	1176.5	0.6	1351.5	0.9	795	0.9	938.222222222222	0.7	1166	13	415967	3	415955	27	40	415994	-999999	415970	0	8	TrialsPROC	TO_005_TOOL5_BA.png	1	2	33	SessionSelectionList														nonlure	3	Tools	2-Back	29	80	28	0	0	80	2	39	224538	2	14	59	222499	-1	223572	1	1073	3	3	2039	53	224552	-54	0										8						33												
WM080112	176542_fnca	1	1	1	389016735	1	75.031	75.030	2.0.10.147	2.0.10.242	2.0.10.242	1.0.0.439	7	234	2	3	Verdana	1	80	0	0	0	WM Stimuli\	0.4	1099.25	0.8	1005.125	0.7	936.571428571429	0.8	1176.5	0.6	1351.5	0.9	795	0.9	938.222222222222	0.7	1166	13	415967	3	415955	27	40	415994	-999999	415970	0	8	TrialsPROC	TO_006_TOOL6_BA.png	1	2	34	SessionSelectionList														target	2	Tools	2-Back	30	80	29	0	0	80	1	39	227097	2	14	59	225058	-1	225641	1	583	2	2	2039	53	227111	-54	0										9						34												
WM080112	176542_fnca	1	1	1	389016735	1	75.031	75.030	2.0.10.147	2.0.10.242	2.0.10.242	1.0.0.439	7	234	2	3	Verdana	1	80	0	0	0	WM Stimuli\	0.4	1099.25	0.8	1005.125	0.7	936.571428571429	0.8	1176.5	0.6	1351.5	0.9	795	0.9	938.222222222222	0.7	1166	13	415967	3	415955	27	40	415994	-999999	415970	0	8	TrialsPROC	TO_003_TOOL3_BA.png	1	2	35	SessionSelectionList														nonlure	3	Tools	2-Back	31	80	30	0	0	80	1	39	229656	2	14	59	227617	-1	228386	1	769	3	3	2039	53	229670	-54	0										10						35												
WM080112	176542_fnca	1	1	1	389016735	1	75.031	75.030	2.0.10.147	2.0.10.242	2.0.10.242	1.0.0.439	7	234	2	3	Verdana	1	80	0	0	0	WM Stimuli\	0.4	1099.25	0.8	1005.125	0.7	936.571428571429	0.8	1176.5	0.6	1351.5	0.9	795	0.9	938.222222222222	0.7	1166	13	415967	3	415955	27	40	415994	-999999	415970	0	9	Cue0BackPROC	BP_007_BP20_BA.png	1	2	36	SessionSelectionList																																										19	230136	-20	0												36												
WM080112	176542_fnca	1	1	1	389016735	1	75.031	75.030	2.0.10.147	2.0.10.242	2.0.10.242	1.0.0.439	7	234	2	3	Verdana	1	80	0	0	0	WM Stimuli\	0.4	1099.25	0.8	1005.125	0.7	936.571428571429	0.8	1176.5	0.6	1351.5	0.9	795	0.9	938.222222222222	0.7	1166	13	415967	3	415955	27	40	415994	-999999	415970	0	10	TrialsPROC	BP_007_BP20_BA.png	1	2	37	SessionSelectionList														target	2	Body	0-Back	32	80	31	0	0	82	1	40	234708	1	13	51	232668	-1	233421	1	753	2	2	2040	53	234721	-54	0											1					37												
WM080112	176542_fnca	1	1	1	389016735	1	75.031	75.030	2.0.10.147	2.0.10.242	2.0.10.242	1.0.0.439	7	234	2	3	Verdana	1	80	0	0	0	WM Stimuli\	0.4	1099.25	0.8	1005.125	0.7	936.571428571429	0.8	1176.5	0.6	1351.5	0.9	795	0.9	938.222222222222	0.7	1166	13	415967	3	415955	27	40	415994	-999999	415970	0	10	TrialsPROC	BP_011_BP4_BA.png	1	2	38	SessionSelectionList														nonlure	3	Body	0-Back	33	80	32	0	0	83	1	39	237280	1	14	73	235241	-1	235871	1	630	3	3	2039	53	237294	-54	0											2					38												
WM080112	176542_fnca	1	1	1	389016735	1	75.031	75.030	2.0.10.147	2.0.10.242	2.0.10.242	1.0.0.439	7	234	2	3	Verdana	1	80	0	0	0	WM Stimuli\	0.4	1099.25	0.8	1005.125	0.7	936.571428571429	0.8	1176.5	0.6	1351.5	0.9	795	0.9	938.222222222222	0.7	1166	13	415967	3	415955	27	40	415994	-999999	415970	0	10	TrialsPROC	BP_010_BP3_BA.png	1	2	39	SessionSelectionList														nonlure	3	Body	0-Back	34	80	33	0	0	85	2	39	239839	1	14	59	237800	-1	238791	1	991	3	3	2039	53	239853	-54	0											3					39												
WM080112	176542_fnca	1	1	1	389016735	1	75.031	75.030	2.0.10.147	2.0.10.242	2.0.10.242	1.0.0.439	7	234	2	3	Verdana	1	80	0	0	0	WM Stimuli\	0.4	1099.25	0.8	1005.125	0.7	936.571428571429	0.8	1176.5	0.6	1351.5	0.9	795	0.9	938.222222222222	0.7	1166	13	415967	3	415955	27	40	415994	-999999	415970	0	10	TrialsPROC	BP_008_BP21_BA.png	1	2	40	SessionSelectionList														nonlure	3	Body	0-Back	35	80	34	0	0	86	3	39	242398	1	14	59	240359	-1	241867	1	1508	3	3	2039	53	242412	-54	0											4					40												
WM080112	176542_fnca	1	1	1	389016735	1	75.031	75.030	2.0.10.147	2.0.10.242	2.0.10.242	1.0.0.439	7	234	2	3	Verdana	1	80	0	0	0	WM Stimuli\	0.4	1099.25	0.8	1005.125	0.7	936.571428571429	0.8	1176.5	0.6	1351.5	0.9	795	0.9	938.222222222222	0.7	1166	13	415967	3	415955	27	40	415994	-999999	415970	0	10	TrialsPROC	BP_011_BP4_BA.png	1	2	41	SessionSelectionList														lure	3	Body	0-Back	36	80	35	0	0	80	1	39	244957	1	14	59	242918	-1	243939	0	1021	2	3	2039	53	244971	-54	0											5					41												
WM080112	176542_fnca	1	1	1	389016735	1	75.031	75.030	2.0.10.147	2.0.10.242	2.0.10.242	1.0.0.439	7	234	2	3	Verdana	1	80	0	0	0	WM Stimuli\	0.4	1099.25	0.8	1005.125	0.7	936.571428571429	0.8	1176.5	0.6	1351.5	0.9	795	0.9	938.222222222222	0.7	1166	13	415967	3	415955	27	40	415994	-999999	415970	0	10	TrialsPROC	BP_009_BP22_BA.png	1	2	42	SessionSelectionList														nonlure	3	Body	0-Back	37	80	36	0	0	81	1	39	247516	1	13	59	245477	-1	246110	1	633	3	3	2039	52	247529	-53	0											6					42												
WM080112	176542_fnca	1	1	1	389016735	1	75.031	75.030	2.0.10.147	2.0.10.242	2.0.10.242	1.0.0.439	7	234	2	3	Verdana	1	80	0	0	0	WM Stimuli\	0.4	1099.25	0.8	1005.125	0.7	936.571428571429	0.8	1176.5	0.6	1351.5	0.9	795	0.9	938.222222222222	0.7	1166	13	415967	3	415955	27	40	415994	-999999	415970	0	10	TrialsPROC	BP_009_BP22_BA.png	1	2	43	SessionSelectionList														lure	3	Body	0-Back	38	80	37	0	0	82	2	39	250075	1	13	59	248036	-1	249020	1	984	3	3	2039	52	250088	-53	0											7					43												
WM080112	176542_fnca	1	1	1	389016735	1	75.031	75.030	2.0.10.147	2.0.10.242	2.0.10.242	1.0.0.439	7	234	2	3	Verdana	1	80	0	0	0	WM Stimuli\	0.4	1099.25	0.8	1005.125	0.7	936.571428571429	0.8	1176.5	0.6	1351.5	0.9	795	0.9	938.222222222222	0.7	1166	13	415967	3	415955	27	40	415994	-999999	415970	0	10	TrialsPROC	BP_008_BP21_BA.png	1	2	44	SessionSelectionList														lure	3	Body	0-Back	39	80	38	0	0	83	3	39	252634	1	13	59	250595	-1	251942	1	1347	3	3	2039	52	252647	-53	0											8					44												
WM080112	176542_fnca	1	1	1	389016735	1	75.031	75.030	2.0.10.147	2.0.10.242	2.0.10.242	1.0.0.439	7	234	2	3	Verdana	1	80	0	0	0	WM Stimuli\	0.4	1099.25	0.8	1005.125	0.7	936.571428571429	0.8	1176.5	0.6	1351.5	0.9	795	0.9	938.222222222222	0.7	1166	13	415967	3	415955	27	40	415994	-999999	415970	0	10	TrialsPROC	BP_007_BP20_BA.png	1	2	45	SessionSelectionList														target	2	Body	0-Back	40	80	39	0	0	79	4	40	255193	1	13	58	253153	-1	254460	0	1307	3	2	2040	53	255206	-54	0											9					45												
WM080112	176542_fnca	1	1	1	389016735	1	75.031	75.030	2.0.10.147	2.0.10.242	2.0.10.242	1.0.0.439	7	234	2	3	Verdana	1	80	0	0	0	WM Stimuli\	0.4	1099.25	0.8	1005.125	0.7	936.571428571429	0.8	1176.5	0.6	1351.5	0.9	795	0.9	938.222222222222	0.7	1166	13	415967	3	415955	27	40	415994	-999999	415970	0	10	TrialsPROC	BP_012_BP5_BA.png	1	2	46	SessionSelectionList														nonlure	3	Body	0-Back	41	80	40	0	0	80	5	39	257752	1	13	60	255713	-1	256908	1	1195	3	3	2039	52	257765	-53	0											10					46												
WM080112	176542_fnca	1	1	1	389016735	1	75.031	75.030	2.0.10.147	2.0.10.242	2.0.10.242	1.0.0.439	7	234	2	3	Verdana	1	80	0	0	0	WM Stimuli\	0.4	1099.25	0.8	1005.125	0.7	936.571428571429	0.8	1176.5	0.6	1351.5	0.9	795	0.9	938.222222222222	0.7	1166	13	415967	3	415955	27	40	415994	-999999	415970	0	11	Fix15secPROC	""	1	2	47	SessionSelectionList																																															6	258219	-7	0							47												
WM080112	176542_fnca	1	1	1	389016735	1	75.031	75.030	2.0.10.147	2.0.10.242	2.0.10.242	1.0.0.439	7	234	2	3	Verdana	1	80	0	0	0	WM Stimuli\	0.4	1099.25	0.8	1005.125	0.7	936.571428571429	0.8	1176.5	0.6	1351.5	0.9	795	0.9	938.222222222222	0.7	1166	13	415967	3	415955	27	40	415994	-999999	415970	0	12	Cue0BackPROC	PL_001_92012.png	1	2	48	SessionSelectionList																																										12	273225	-13	0												48												
WM080112	176542_fnca	1	1	1	389016735	1	75.031	75.030	2.0.10.147	2.0.10.242	2.0.10.242	1.0.0.439	7	234	2	3	Verdana	1	80	0	0	0	WM Stimuli\	0.4	1099.25	0.8	1005.125	0.7	936.571428571429	0.8	1176.5	0.6	1351.5	0.9	795	0.9	938.222222222222	0.7	1166	13	415967	3	415955	27	40	415994	-999999	415970	0	13	TrialsPROC	PL_003_92016.png	1	2	49	SessionSelectionList														nonlure	3	Place	0-Back	42	80	41	0	0	81	6	39	277823	2	14	71	275784	-1	276669	1	885	3	3	2039	53	277837	-54	0												1				49												
WM080112	176542_fnca	1	1	1	389016735	1	75.031	75.030	2.0.10.147	2.0.10.242	2.0.10.242	1.0.0.439	7	234	2	3	Verdana	1	80	0	0	0	WM Stimuli\	0.4	1099.25	0.8	1005.125	0.7	936.571428571429	0.8	1176.5	0.6	1351.5	0.9	795	0.9	938.222222222222	0.7	1166	13	415967	3	415955	27	40	415994	-999999	415970	0	13	TrialsPROC	PL_003_92016.png	1	2	50	SessionSelectionList														lure	3	Place	0-Back	43	80	42	0	0	82	7	39	280396	1	14	73	278357	-1	279023	1	666	3	3	2039	53	280410	-54	0												2				50												
WM080112	176542_fnca	1	1	1	389016735	1	75.031	75.030	2.0.10.147	2.0.10.242	2.0.10.242	1.0.0.439	7	234	2	3	Verdana	1	80	0	0	0	WM Stimuli\	0.4	1099.25	0.8	1005.125	0.7	936.571428571429	0.8	1176.5	0.6	1351.5	0.9	795	0.9	938.222222222222	0.7	1166	13	415967	3	415955	27	40	415994	-999999	415970	0	13	TrialsPROC	PL_006_92025.png	1	2	51	SessionSelectionList														nonlure	3	Place	0-Back	44	80	43	0	0	83	8	39	282968	1	14	72	280929	-1	282372	1	1443	3	3	2039	53	282982	-54	0												3				51												
WM080112	176542_fnca	1	1	1	389016735	1	75.031	75.030	2.0.10.147	2.0.10.242	2.0.10.242	1.0.0.439	7	234	2	3	Verdana	1	80	0	0	0	WM Stimuli\	0.4	1099.25	0.8	1005.125	0.7	936.571428571429	0.8	1176.5	0.6	1351.5	0.9	795	0.9	938.222222222222	0.7	1166	13	415967	3	415955	27	40	415994	-999999	415970	0	13	TrialsPROC	PL_001_92012.png	1	2	52	SessionSelectionList														target	2	Place	0-Back	45	80	44	0	0	83	1	39	285540	2	14	72	283501	-1	284126	1	625	2	2	2039	53	285554	-54	0												4				52												
WM080112	176542_fnca	1	1	1	389016735	1	75.031	75.030	2.0.10.147	2.0.10.242	2.0.10.242	1.0.0.439	7	234	2	3	Verdana	1	80	0	0	0	WM Stimuli\	0.4	1099.25	0.8	1005.125	0.7	936.571428571429	0.8	1176.5	0.6	1351.5	0.9	795	0.9	938.222222222222	0.7	1166	13	415967	3	415955	27	40	415994	-999999	415970	0	13	TrialsPROC	PL_004_92023.png	1	2	53	SessionSelectionList														nonlure	3	Place	0-Back	46	80	45	0	0	84	1	40	288113	1	13	72	286073	-1	286709	1	636	3	3	2040	53	288126	-54	0												5				53												
WM080112	176542_fnca	1	1	1	389016735	1	75.031	75.030	2.0.10.147	2.0.10.242	2.0.10.242	1.0.0.439	7	234	2	3	Verdana	1	80	0	0	0	WM Stimuli\	0.4	1099.25	0.8	1005.125	0.7	936.571428571429	0.8	1176.5	0.6	1351.5	0.9	795	0.9	938.222222222222	0.7	1166	13	415967	3	415955	27	40	415994	-999999	415970	0	13	TrialsPROC	PL_005_92024.png	1	2	54	SessionSelectionList														nonlure	3	Place	0-Back	47	80	46	0	0	81	1	39	290685	1	14	73	288646	-1	289800	0	1154	2	3	2039	53	290699	-54	0												6				54												
WM080112	176542_fnca	1	1	1	389016735	1	75.031	75.030	2.0.10.147	2.0.10.242	2.0.10.242	1.0.0.439	7	234	2	3	Verdana	1	80	0	0	0	WM Stimuli\	0.4	1099.25	0.8	1005.125	0.7	936.571428571429	0.8	1176.5	0.6	1351.5	0.9	795	0.9	938.222222222222	0.7	1166	13	415967	3	415955	27	40	415994	-999999	415970	0	13	TrialsPROC	PL_001_92012.png	1	2	55	SessionSelectionList														target	2	Place	0-Back	48	80	47	0	0	81	2	39	293257	2	14	72	291218	-1	292046	1	828	2	2	2039	53	293271	-54	0												7				55												
WM080112	176542_fnca	1	1	1	389016735	1	75.031	75.030	2.0.10.147	2.0.10.242	2.0.10.242	1.0.0.439	7	234	2	3	Verdana	1	80	0	0	0	WM Stimuli\	0.4	1099.25	0.8	1005.125	0.7	936.571428571429	0.8	1176.5	0.6	1351.5	0.9	795	0.9	938.222222222222	0.7	1166	13	415967	3	415955	27	40	415994	-999999	415970	0	13	TrialsPROC	PL_002_92014.png	1	2	56	SessionSelectionList														nonlure	3	Place	0-Back	49	80	48	0	0	82	1	39	295829	2	14	72	293790	-1	294520	1	730	3	3	2039	53	295843	-54	0												8				56												
WM080112	176542_fnca	1	1	1	389016735	1	75.031	75.030	2.0.10.147	2.0.10.242	2.0.10.242	1.0.0.439	7	234	2	3	Verdana	1	80	0	0	0	WM Stimuli\	0.4	1099.25	0.8	1005.125	0.7	936.571428571429	0.8	1176.5	0.6	1351.5	0.9	795	0.9	938.222222222222	0.7	1166	13	415967	3	415955	27	40	415994	-999999	415970	0	13	TrialsPROC	PL_004_92023.png	1	2	57	SessionSelectionList														lure	3	Place	0-Back	50	80	49	0	0	83	2	39	298402	1	14	73	296363	-1	297065	1	702	3	3	2039	53	298416	-54	0												9				57												
WM080112	176542_fnca	1	1	1	389016735	1	75.031	75.030	2.0.10.147	2.0.10.242	2.0.10.242	1.0.0.439	7	234	2	3	Verdana	1	80	0	0	0	WM Stimuli\	0.4	1099.25	0.8	1005.125	0.7	936.571428571429	0.8	1176.5	0.6	1351.5	0.9	795	0.9	938.222222222222	0.7	1166	13	415967	3	415955	27	40	415994	-999999	415970	0	13	TrialsPROC	PL_006_92025.png	1	2	58	SessionSelectionList														lure	3	Place	0-Back	51	80	50	0	0	83	3	39	300974	2	14	72	298935	-1	299575	1	640	3	3	2039	53	300988	-54	0												10				58												
WM080112	176542_fnca	1	1	1	389016735	1	75.031	75.030	2.0.10.147	2.0.10.242	2.0.10.242	1.0.0.439	7	234	2	3	Verdana	1	80	0	0	0	WM Stimuli\	0.4	1099.25	0.8	1005.125	0.7	936.571428571429	0.8	1176.5	0.6	1351.5	0.9	795	0.9	938.222222222222	0.7	1166	13	415967	3	415955	27	40	415994	-999999	415970	0	14	Cue2BackPROC	""	1	2	59	SessionSelectionList									6	301441	-7	0																																													59												
WM080112	176542_fnca	1	1	1	389016735	1	75.031	75.030	2.0.10.147	2.0.10.242	2.0.10.242	1.0.0.439	7	234	2	3	Verdana	1	80	0	0	0	WM Stimuli\	0.4	1099.25	0.8	1005.125	0.7	936.571428571429	0.8	1176.5	0.6	1351.5	0.9	795	0.9	938.222222222222	0.7	1166	13	415967	3	415955	27	40	415994	-999999	415970	0	15	TrialsPROC	FC_010_F5.png	1	2	60	SessionSelectionList														nonlure	3	Face	2-Back	52	80	51	0	0	83	4	39	306039	1	13	65	304000	-1	305941	1	1941	3	3	2039	52	306052	-53	0													1			60												
WM080112	176542_fnca	1	1	1	389016735	1	75.031	75.030	2.0.10.147	2.0.10.242	2.0.10.242	1.0.0.439	7	234	2	3	Verdana	1	80	0	0	0	WM Stimuli\	0.4	1099.25	0.8	1005.125	0.7	936.571428571429	0.8	1176.5	0.6	1351.5	0.9	795	0.9	938.222222222222	0.7	1166	13	415967	3	415955	27	40	415994	-999999	415970	0	15	TrialsPROC	FC_012_F6.png	1	2	61	SessionSelectionList														nonlure	3	Face	2-Back	53	80	52	0	0	83	5	39	308611	1	14	72	306572	-1	307244	1	672	3	3	2039	53	308625	-54	0													2			61												
WM080112	176542_fnca	1	1	1	389016735	1	75.031	75.030	2.0.10.147	2.0.10.242	2.0.10.242	1.0.0.439	7	234	2	3	Verdana	1	80	0	0	0	WM Stimuli\	0.4	1099.25	0.8	1005.125	0.7	936.571428571429	0.8	1176.5	0.6	1351.5	0.9	795	0.9	938.222222222222	0.7	1166	13	415967	3	415955	27	40	415994	-999999	415970	0	15	TrialsPROC	FC_010_F5.png	1	2	62	SessionSelectionList														target	2	Face	2-Back	54	80	53	0	0	83	1	39	311183	3	14	72	309144	-1	309668	1	524	2	2	2039	53	311197	-54	0													3			62												
WM080112	176542_fnca	1	1	1	389016735	1	75.031	75.030	2.0.10.147	2.0.10.242	2.0.10.242	1.0.0.439	7	234	2	3	Verdana	1	80	0	0	0	WM Stimuli\	0.4	1099.25	0.8	1005.125	0.7	936.571428571429	0.8	1176.5	0.6	1351.5	0.9	795	0.9	938.222222222222	0.7	1166	13	415967	3	415955	27	40	415994	-999999	415970	0	15	TrialsPROC	FC_008_F4.png	1	2	63	SessionSelectionList														nonlure	3	Face	2-Back	55	80	54	0	0	83	1	40	313756	1	13	72	311716	-1	312399	1	683	3	3	2040	53	313769	-54	0													4			63												
WM080112	176542_fnca	1	1	1	389016735	1	75.031	75.030	2.0.10.147	2.0.10.242	2.0.10.242	1.0.0.439	7	234	2	3	Verdana	1	80	0	0	0	WM Stimuli\	0.4	1099.25	0.8	1005.125	0.7	936.571428571429	0.8	1176.5	0.6	1351.5	0.9	795	0.9	938.222222222222	0.7	1166	13	415967	3	415955	27	40	415994	-999999	415970	0	15	TrialsPROC	FC_012_F6.png	1	2	64	SessionSelectionList														lure	3	Face	2-Back	56	80	55	0	0	83	1	39	316328	2	14	73	314289	-1	315383	0	1094	2	3	2039	53	316342	-54	0													5			64												
WM080112	176542_fnca	1	1	1	389016735	1	75.031	75.030	2.0.10.147	2.0.10.242	2.0.10.242	1.0.0.439	7	234	2	3	Verdana	1	80	0	0	0	WM Stimuli\	0.4	1099.25	0.8	1005.125	0.7	936.571428571429	0.8	1176.5	0.6	1351.5	0.9	795	0.9	938.222222222222	0.7	1166	13	415967	3	415955	27	40	415994	-999999	415970	0	15	TrialsPROC	FC_008_F4.png	1	2	65	SessionSelectionList														target	2	Face	2-Back	57	80	56	0	0	83	1	39	318900	2	14	72	316861	-1	317528	0	667	3	2	2039	53	318914	-54	0													6			65												
WM080112	176542_fnca	1	1	1	389016735	1	75.031	75.030	2.0.10.147	2.0.10.242	2.0.10.242	1.0.0.439	7	234	2	3	Verdana	1	80	0	0	0	WM Stimuli\	0.4	1099.25	0.8	1005.125	0.7	936.571428571429	0.8	1176.5	0.6	1351.5	0.9	795	0.9	938.222222222222	0.7	1166	13	415967	3	415955	27	40	415994	-999999	415970	0	15	TrialsPROC	FC_007_M4.png	1	2	66	SessionSelectionList														nonlure	3	Face	2-Back	58	80	57	0	0	83	2	39	321472	2	14	72	319433	-1	319931	1	498	3	3	2039	53	321486	-54	0													7			66												
WM080112	176542_fnca	1	1	1	389016735	1	75.031	75.030	2.0.10.147	2.0.10.242	2.0.10.242	1.0.0.439	7	234	2	3	Verdana	1	80	0	0	0	WM Stimuli\	0.4	1099.25	0.8	1005.125	0.7	936.571428571429	0.8	1176.5	0.6	1351.5	0.9	795	0.9	938.222222222222	0.7	1166	13	415967	3	415955	27	40	415994	-999999	415970	0	15	TrialsPROC	FC_007_M4.png	1	2	67	SessionSelectionList														lure	3	Face	2-Back	59	80	58	0	0	83	3	39	324045	1	13	73	322006	-1	322660	1	654	3	3	2039	52	324058	-53	0													8			67												
WM080112	176542_fnca	1	1	1	389016735	1	75.031	75.030	2.0.10.147	2.0.10.242	2.0.10.242	1.0.0.439	7	234	2	3	Verdana	1	80	0	0	0	WM Stimuli\	0.4	1099.25	0.8	1005.125	0.7	936.571428571429	0.8	1176.5	0.6	1351.5	0.9	795	0.9	938.222222222222	0.7	1166	13	415967	3	415955	27	40	415994	-999999	415970	0	15	TrialsPROC	FC_009_M5.png	1	2	68	SessionSelectionList														nonlure	3	Face	2-Back	60	80	59	0	0	83	4	39	326617	1	14	72	324578	-1	326162	1	1584	3	3	2039	53	326631	-54	0													9			68												
WM080112	176542_fnca	1	1	1	389016735	1	75.031	75.030	2.0.10.147	2.0.10.242	2.0.10.242	1.0.0.439	7	234	2	3	Verdana	1	80	0	0	0	WM Stimuli\	0.4	1099.25	0.8	1005.125	0.7	936.571428571429	0.8	1176.5	0.6	1351.5	0.9	795	0.9	938.222222222222	0.7	1166	13	415967	3	415955	27	40	415994	-999999	415970	0	15	TrialsPROC	FC_011_M6.png	1	2	69	SessionSelectionList														nonlure	3	Face	2-Back	61	80	60	0	0	83	1	39	329189	2	14	72	327150	-1	328805	0	1655	2	3	2039	53	329203	-54	0													10			69												
WM080112	176542_fnca	1	1	1	389016735	1	75.031	75.030	2.0.10.147	2.0.10.242	2.0.10.242	1.0.0.439	7	234	2	3	Verdana	1	80	0	0	0	WM Stimuli\	0.4	1099.25	0.8	1005.125	0.7	936.571428571429	0.8	1176.5	0.6	1351.5	0.9	795	0.9	938.222222222222	0.7	1166	13	415967	3	415955	27	40	415994	-999999	415970	0	16	Fix15secPROC	""	1	2	70	SessionSelectionList																																															6	329656	-7	0							70												
WM080112	176542_fnca	1	1	1	389016735	1	75.031	75.030	2.0.10.147	2.0.10.242	2.0.10.242	1.0.0.439	7	234	2	3	Verdana	1	80	0	0	0	WM Stimuli\	0.4	1099.25	0.8	1005.125	0.7	936.571428571429	0.8	1176.5	0.6	1351.5	0.9	795	0.9	938.222222222222	0.7	1166	13	415967	3	415955	27	40	415994	-999999	415970	0	17	Cue0BackPROC	TO_007_TOOL7_BA.png	1	2	71	SessionSelectionList																																										13	344663	-14	0												71												
WM080112	176542_fnca	1	1	1	389016735	1	75.031	75.030	2.0.10.147	2.0.10.242	2.0.10.242	1.0.0.439	7	234	2	3	Verdana	1	80	0	0	0	WM Stimuli\	0.4	1099.25	0.8	1005.125	0.7	936.571428571429	0.8	1176.5	0.6	1351.5	0.9	795	0.9	938.222222222222	0.7	1166	13	415967	3	415955	27	40	415994	-999999	415970	0	18	TrialsPROC	TO_010_TOOL10_BA.png	1	2	72	SessionSelectionList														nonlure	3	Tools	0-Back	62	80	61	0	0	84	1	39	349248	1	14	59	347209	-1	348344	1	1135	3	3	2039	53	349262	-54	0														1		72												
WM080112	176542_fnca	1	1	1	389016735	1	75.031	75.030	2.0.10.147	2.0.10.242	2.0.10.242	1.0.0.439	7	234	2	3	Verdana	1	80	0	0	0	WM Stimuli\	0.4	1099.25	0.8	1005.125	0.7	936.571428571429	0.8	1176.5	0.6	1351.5	0.9	795	0.9	938.222222222222	0.7	1166	13	415967	3	415955	27	40	415994	-999999	415970	0	18	TrialsPROC	TO_009_TOOL9_BA.png	1	2	73	SessionSelectionList														nonlure	3	Tools	0-Back	63	80	62	0	0	84	2	39	351807	1	13	59	349768	-1	351201	1	1433	3	3	2039	52	351820	-53	0														2		73												
WM080112	176542_fnca	1	1	1	389016735	1	75.031	75.030	2.0.10.147	2.0.10.242	2.0.10.242	1.0.0.439	7	234	2	3	Verdana	1	80	0	0	0	WM Stimuli\	0.4	1099.25	0.8	1005.125	0.7	936.571428571429	0.8	1176.5	0.6	1351.5	0.9	795	0.9	938.222222222222	0.7	1166	13	415967	3	415955	27	40	415994	-999999	415970	0	18	TrialsPROC	TO_009_TOOL9_BA.png	1	2	74	SessionSelectionList														lure	3	Tools	0-Back	64	80	63	0	0	85	3	39	354366	1	13	59	352327	-1	353548	1	1221	3	3	2039	52	354379	-53	0														3		74												
WM080112	176542_fnca	1	1	1	389016735	1	75.031	75.030	2.0.10.147	2.0.10.242	2.0.10.242	1.0.0.439	7	234	2	3	Verdana	1	80	0	0	0	WM Stimuli\	0.4	1099.25	0.8	1005.125	0.7	936.571428571429	0.8	1176.5	0.6	1351.5	0.9	795	0.9	938.222222222222	0.7	1166	13	415967	3	415955	27	40	415994	-999999	415970	0	18	TrialsPROC	TO_008_TOOL8_BA.png	1	2	75	SessionSelectionList														nonlure	3	Tools	0-Back	65	80	64	0	0	85	4	39	356925	1	13	59	354886	-1	355789	1	903	3	3	2039	52	356938	-53	0														4		75												
WM080112	176542_fnca	1	1	1	389016735	1	75.031	75.030	2.0.10.147	2.0.10.242	2.0.10.242	1.0.0.439	7	234	2	3	Verdana	1	80	0	0	0	WM Stimuli\	0.4	1099.25	0.8	1005.125	0.7	936.571428571429	0.8	1176.5	0.6	1351.5	0.9	795	0.9	938.222222222222	0.7	1166	13	415967	3	415955	27	40	415994	-999999	415970	0	18	TrialsPROC	TO_011_TOOL11_BA.png	1	2	76	SessionSelectionList														nonlure	3	Tools	0-Back	66	80	65	0	0	86	5	40	359484	1	13	58	357444	-1	359180	1	1736	3	3	2040	53	359497	-54	0														5		76												
WM080112	176542_fnca	1	1	1	389016735	1	75.031	75.030	2.0.10.147	2.0.10.242	2.0.10.242	1.0.0.439	7	234	2	3	Verdana	1	80	0	0	0	WM Stimuli\	0.4	1099.25	0.8	1005.125	0.7	936.571428571429	0.8	1176.5	0.6	1351.5	0.9	795	0.9	938.222222222222	0.7	1166	13	415967	3	415955	27	40	415994	-999999	415970	0	18	TrialsPROC	TO_012_TOOL12_BA.png	1	2	77	SessionSelectionList														nonlure	3	Tools	0-Back	67	80	66	0	0	86	6	40	362043	1	13	59	360003	-1	360698	1	695	3	3	2040	53	362056	-54	0														6		77												
WM080112	176542_fnca	1	1	1	389016735	1	75.031	75.030	2.0.10.147	2.0.10.242	2.0.10.242	1.0.0.439	7	234	2	3	Verdana	1	80	0	0	0	WM Stimuli\	0.4	1099.25	0.8	1005.125	0.7	936.571428571429	0.8	1176.5	0.6	1351.5	0.9	795	0.9	938.222222222222	0.7	1166	13	415967	3	415955	27	40	415994	-999999	415970	0	18	TrialsPROC	TO_010_TOOL10_BA.png	1	2	78	SessionSelectionList														lure	3	Tools	0-Back	68	80	67	0	0	84	1	40	364602	1	13	59	362562	-1	363108	0	546	2	3	2040	53	364615	-54	0														7		78												
WM080112	176542_fnca	1	1	1	389016735	1	75.031	75.030	2.0.10.147	2.0.10.242	2.0.10.242	1.0.0.439	7	234	2	3	Verdana	1	80	0	0	0	WM Stimuli\	0.4	1099.25	0.8	1005.125	0.7	936.571428571429	0.8	1176.5	0.6	1351.5	0.9	795	0.9	938.222222222222	0.7	1166	13	415967	3	415955	27	40	415994	-999999	415970	0	18	TrialsPROC	TO_007_TOOL7_BA.png	1	2	79	SessionSelectionList														target	2	Tools	0-Back	69	80	68	0	0	82	1	40	367161	1	13	59	365121	-1	365754	0	633	3	2	2040	53	367174	-54	0														8		79												
WM080112	176542_fnca	1	1	1	389016735	1	75.031	75.030	2.0.10.147	2.0.10.242	2.0.10.242	1.0.0.439	7	234	2	3	Verdana	1	80	0	0	0	WM Stimuli\	0.4	1099.25	0.8	1005.125	0.7	936.571428571429	0.8	1176.5	0.6	1351.5	0.9	795	0.9	938.222222222222	0.7	1166	13	415967	3	415955	27	40	415994	-999999	415970	0	18	TrialsPROC	TO_008_TOOL8_BA.png	1	2	80	SessionSelectionList														lure	3	Tools	0-Back	70	80	69	0	0	82	2	39	369719	2	14	59	367680	-1	368719	1	1039	3	3	2039	53	369733	-54	0														9		80												
WM080112	176542_fnca	1	1	1	389016735	1	75.031	75.030	2.0.10.147	2.0.10.242	2.0.10.242	1.0.0.439	7	234	2	3	Verdana	1	80	0	0	0	WM Stimuli\	0.4	1099.25	0.8	1005.125	0.7	936.571428571429	0.8	1176.5	0.6	1351.5	0.9	795	0.9	938.222222222222	0.7	1166	13	415967	3	415955	27	40	415994	-999999	415970	0	18	TrialsPROC	TO_007_TOOL7_BA.png	1	2	81	SessionSelectionList														target	2	Tools	0-Back	71	80	70	0	0	80	3	39	372278	2	14	59	370239	-1	371408	0	1169	3	2	2039	53	372292	-54	0														10		81												
WM080112	176542_fnca	1	1	1	389016735	1	75.031	75.030	2.0.10.147	2.0.10.242	2.0.10.242	1.0.0.439	7	234	2	3	Verdana	1	80	0	0	0	WM Stimuli\	0.4	1099.25	0.8	1005.125	0.7	936.571428571429	0.8	1176.5	0.6	1351.5	0.9	795	0.9	938.222222222222	0.7	1166	13	415967	3	415955	27	40	415994	-999999	415970	0	19	Cue2BackPROC	""	1	2	82	SessionSelectionList									6	372745	-7	0																																													82												
WM080112	176542_fnca	1	1	1	389016735	1	75.031	75.030	2.0.10.147	2.0.10.242	2.0.10.242	1.0.0.439	7	234	2	3	Verdana	1	80	0	0	0	WM Stimuli\	0.4	1099.25	0.8	1005.125	0.7	936.571428571429	0.8	1176.5	0.6	1351.5	0.9	795	0.9	938.222222222222	0.7	1166	13	415967	3	415955	27	40	415994	-999999	415970	0	20	TrialsPROC	PL_007_92026.png	1	2	83	SessionSelectionList														nonlure	3	Place	2-Back	72	80	71	0	0	80	4	39	377343	1	14	65	375304	-1	376882	1	1578	3	3	2039	53	377357	-54	0															1	83												
WM080112	176542_fnca	1	1	1	389016735	1	75.031	75.030	2.0.10.147	2.0.10.242	2.0.10.242	1.0.0.439	7	234	2	3	Verdana	1	80	0	0	0	WM Stimuli\	0.4	1099.25	0.8	1005.125	0.7	936.571428571429	0.8	1176.5	0.6	1351.5	0.9	795	0.9	938.222222222222	0.7	1166	13	415967	3	415955	27	40	415994	-999999	415970	0	20	TrialsPROC	PL_007_92026.png	1	2	84	SessionSelectionList														lure	3	Place	2-Back	73	80	72	0	0	80	5	39	379915	2	14	72	377876	-1	378618	1	742	3	3	2039	53	379929	-54	0															2	84												
WM080112	176542_fnca	1	1	1	389016735	1	75.031	75.030	2.0.10.147	2.0.10.242	2.0.10.242	1.0.0.439	7	234	2	3	Verdana	1	80	0	0	0	WM Stimuli\	0.4	1099.25	0.8	1005.125	0.7	936.571428571429	0.8	1176.5	0.6	1351.5	0.9	795	0.9	938.222222222222	0.7	1166	13	415967	3	415955	27	40	415994	-999999	415970	0	20	TrialsPROC	PL_010_92038.png	1	2	85	SessionSelectionList														nonlure	3	Place	2-Back	74	80	72	0	1	80	5	40	382488	1	13	72	380448	-1	0	0	0	""	3	2040	53	382501	-54	0															3	85												
WM080112	176542_fnca	1	1	1	389016735	1	75.031	75.030	2.0.10.147	2.0.10.242	2.0.10.242	1.0.0.439	7	234	2	3	Verdana	1	80	0	0	0	WM Stimuli\	0.4	1099.25	0.8	1005.125	0.7	936.571428571429	0.8	1176.5	0.6	1351.5	0.9	795	0.9	938.222222222222	0.7	1166	13	415967	3	415955	27	40	415994	-999999	415970	0	20	TrialsPROC	PL_009_92037.png	1	2	86	SessionSelectionList														nonlure	3	Place	2-Back	75	80	73	0	0	80	1	39	385060	1	14	73	383021	-1	384491	1	1470	3	3	2039	53	385074	-54	0															4	86												
WM080112	176542_fnca	1	1	1	389016735	1	75.031	75.030	2.0.10.147	2.0.10.242	2.0.10.242	1.0.0.439	7	234	2	3	Verdana	1	80	0	0	0	WM Stimuli\	0.4	1099.25	0.8	1005.125	0.7	936.571428571429	0.8	1176.5	0.6	1351.5	0.9	795	0.9	938.222222222222	0.7	1166	13	415967	3	415955	27	40	415994	-999999	415970	0	20	TrialsPROC	PL_010_92038.png	1	2	87	SessionSelectionList														target	2	Place	2-Back	76	80	74	0	0	80	2	39	387632	2	14	72	385593	-1	386523	0	930	3	2	2039	53	387646	-54	0															5	87												
WM080112	176542_fnca	1	1	1	389016735	1	75.031	75.030	2.0.10.147	2.0.10.242	2.0.10.242	1.0.0.439	7	234	2	3	Verdana	1	80	0	0	0	WM Stimuli\	0.4	1099.25	0.8	1005.125	0.7	936.571428571429	0.8	1176.5	0.6	1351.5	0.9	795	0.9	938.222222222222	0.7	1166	13	415967	3	415955	27	40	415994	-999999	415970	0	20	TrialsPROC	PL_009_92037.png	1	2	88	SessionSelectionList														target	2	Place	2-Back	77	80	75	0	0	80	3	39	390204	2	14	72	388165	-1	389315	0	1150	3	2	2039	53	390218	-54	0															6	88												
WM080112	176542_fnca	1	1	1	389016735	1	75.031	75.030	2.0.10.147	2.0.10.242	2.0.10.242	1.0.0.439	7	234	2	3	Verdana	1	80	0	0	0	WM Stimuli\	0.4	1099.25	0.8	1005.125	0.7	936.571428571429	0.8	1176.5	0.6	1351.5	0.9	795	0.9	938.222222222222	0.7	1166	13	415967	3	415955	27	40	415994	-999999	415970	0	20	TrialsPROC	PL_008_92033.png	1	2	89	SessionSelectionList														nonlure	3	Place	2-Back	78	80	76	0	0	80	4	39	392777	1	14	73	390738	-1	391386	1	648	3	3	2039	53	392791	-54	0															7	89												
WM080112	176542_fnca	1	1	1	389016735	1	75.031	75.030	2.0.10.147	2.0.10.242	2.0.10.242	1.0.0.439	7	234	2	3	Verdana	1	80	0	0	0	WM Stimuli\	0.4	1099.25	0.8	1005.125	0.7	936.571428571429	0.8	1176.5	0.6	1351.5	0.9	795	0.9	938.222222222222	0.7	1166	13	415967	3	415955	27	40	415994	-999999	415970	0	20	TrialsPROC	PL_012_92047.png	1	2	90	SessionSelectionList														nonlure	3	Place	2-Back	79	80	76	0	1	80	4	39	395349	1	14	72	393310	-1	0	0	0	""	3	2039	53	395363	-54	0															8	90												
WM080112	176542_fnca	1	1	1	389016735	1	75.031	75.030	2.0.10.147	2.0.10.242	2.0.10.242	1.0.0.439	7	234	2	3	Verdana	1	80	0	0	0	WM Stimuli\	0.4	1099.25	0.8	1005.125	0.7	936.571428571429	0.8	1176.5	0.6	1351.5	0.9	795	0.9	938.222222222222	0.7	1166	13	415967	3	415955	27	40	415994	-999999	415970	0	20	TrialsPROC	PL_012_92047.png	1	2	91	SessionSelectionList														lure	3	Place	2-Back	80	80	77	0	0	80	1	39	397921	2	14	72	395882	-1	397760	1	1878	3	3	2039	53	397935	-54	0															9	91												
WM080112	176542_fnca	1	1	1	389016735	1	75.031	75.030	2.0.10.147	2.0.10.242	2.0.10.242	1.0.0.439	7	234	2	3	Verdana	1	80	0	0	0	WM Stimuli\	0.4	1099.25	0.8	1005.125	0.7	936.571428571429	0.8	1176.5	0.6	1351.5	0.9	795	0.9	938.222222222222	0.7	1166	13	415967	3	415955	27	40	415994	-999999	415970	0	20	TrialsPROC	PL_011_92044.png	1	2	92	SessionSelectionList														nonlure	3	Place	2-Back	80	80	78	0	0	80	2	40	400494	1	13	72	398454	-1	400247	1	1793	3	3	2040	53	400507	-54	0															10	92												
WM080112	176542_fnca	1	1	1	389016735	1	75.031	75.030	2.0.10.147	2.0.10.242	2.0.10.242	1.0.0.439	7	234	2	3	Verdana	1	80	0	0	0	WM Stimuli\	0.4	1099.25	0.8	1005.125	0.7	936.571428571429	0.8	1176.5	0.6	1351.5	0.9	795	0.9	938.222222222222	0.7	1166	13	415967	3	415955	27	40	415994	-999999	415970	0	21	Fix15secPROC	""	1	2	93	SessionSelectionList																																															7	400961	-8	0							93												
