ExperimentName	HCPID	RunNumber	Subject	Session	RandomSeed	Group	Laptop.RefreshRate	ScannerD2.RefreshRate	StudioVersion	RuntimeVersion	RuntimeVersionExpected	ExperimentVersion	triggercode	Allowed	Target	Nontarget	FontStyle	RunTrialNumber[Session]	TrialsPerRun[Session]	TotalRespGreater200[Session]	ConsecRTLess200[Session]	ConsecNonResp[Session]	StimuliDir	ACC_2_Back_Body	Avg_RT_For_Correct_Trials_2_Back_Body	ACC_0_Back_Body	Avg_RT_For_Correct_Trials_0_Back_Body	ACC_2_Back_Face	Avg_RT_For_Correct_Trials_2_Back_Face	ACC_0_Back_Face	Avg_RT_For_Correct_Trials_0_Back_Face	ACC_2_Back_Place	Avg_RT_For_Correct_Trials_2_Back_Place	ACC_0_Back_Place	Avg_RT_For_Correct_Trials_0_Back_Place	ACC_2_Back_Tools	Avg_RT_For_Correct_Trials_2_Back_Tools	ACC_0_Back_Tools	Avg_RT_For_Correct_Trials_0_Back_Tools	ExpInstrucFeelFreeToRest.OnsetDelay	ExpInstrucFeelFreeToRest.OnsetTime	ExpInstrucFeelFreeToRest.DurationError	ExpInstrucFeelFreeToRest.StartTime	ExpInstrucFeelFreeToRest.OnsetToOnsetTime	FeelFreeToRest.OnsetDelay	FeelFreeToRest.OnsetTime	FeelFreeToRest.DurationError	FeelFreeToRest.StartTime	FeelFreeToRest.OnsetToOnsetTime	SessionSelectionList	Procedure[Block]	Stimulus[Block]	RunNumberFilterValue	SessionSelectionList.Cycle	SessionSelectionList.Sample	Running[Block]	IntroButtonMap.OnsetDelay	IntroButtonMap.OnsetTime	IntroButtonMap.DurationError	IntroButtonMap.OnsetToOnsetTime	GetReady.OnsetDelay	GetReady.OnsetTime	GetReady.DurationError	GetReady.OnsetToOnsetTime	Cue2Back.OnsetDelay	Cue2Back.OnsetTime	Cue2Back.DurationError	Cue2Back.OnsetToOnsetTime	Run1Block1	TargetType	CorrectResponse	StimType	BlockType	RunTrialNumber[Block]	TrialsPerRun[Block]	TotalRespGreater200[Block]	ConsecRTLess200[Block]	ConsecNonResp[Block]	ControlAcc	ConsecSameResp	ExperimenterWindow.OnsetDelay	ExperimenterWindow.OnsetTime	ExperimenterWindow.DurationError	ExperimenterWindow.OnsetToOnsetTime	Stim.OnsetDelay	Stim.OnsetTime	Stim.DurationError	Stim.RTTime	Stim.ACC	Stim.RT	Stim.RESP	Stim.CRESP	Stim.OnsetToOnsetTime	Fix.OnsetDelay	Fix.OnsetTime	Fix.DurationError	Fix.OnsetToOnsetTime	CueTarget.OnsetDelay	CueTarget.OnsetTime	CueTarget.DurationError	CueTarget.OnsetToOnsetTime	Run1Block2	Fix15sec.OnsetDelay	Fix15sec.OnsetTime	Fix15sec.DurationError	Fix15sec.OnsetToOnsetTime	Run1Block3	Run1Block4	Run1Block5	Run1Block6	Run1Block7	Run1Block8	Block	Procedure[Trial]	Stimulus[Trial]	ReadyList	Running[Trial]	ReadyList.Cycle	ReadyList.Sample	SyncSlide.OnsetDelay	SyncSlide.OnsetTime	SyncSlide.DurationError	SyncSlide.FinishTime	SyncSlide.OnsetToOnsetTime	Trial
WM080112	127630_fnca	1	1	1	1542167869	1	75.031	75.031	2.0.10.147	2.0.10.242	2.0.10.242	1.0.0.439	7	234	2	3	Verdana	1	80	0	0	0	WM Stimuli\	0.8	852.375	1	656.8	1	879	1	673.7	0.9	950.222222222222	1	692.7	0.9	869.333333333333	0.8	638.375	13	560404	2	560392	14	27	560418	-999999	560406	0	1	TRSyncPROC	""	1	2	1	SessionSelectionList	114	17479	-999999	0	28	254062	-999999	0																																																	1	InitialTR	4	1	ReadyList	1	1	16	267204	-17	269187	0	1
WM080112	127630_fnca	1	1	1	1542167869	1	75.031	75.031	2.0.10.147	2.0.10.242	2.0.10.242	1.0.0.439	7	234	2	3	Verdana	1	80	0	0	0	WM Stimuli\	0.8	852.375	1	656.8	1	879	1	673.7	0.9	950.222222222222	1	692.7	0.9	869.333333333333	0.8	638.375	13	560404	2	560392	14	27	560418	-999999	560406	0	1	TRSyncPROC	""	1	2	1	SessionSelectionList	114	17479	-999999	0	28	254062	-999999	0																																																	1	InitialTR	3	2	ReadyList	1	2	15	269203	-16	271187	0	2
WM080112	127630_fnca	1	1	1	1542167869	1	75.031	75.031	2.0.10.147	2.0.10.242	2.0.10.242	1.0.0.439	7	234	2	3	Verdana	1	80	0	0	0	WM Stimuli\	0.8	852.375	1	656.8	1	879	1	673.7	0.9	950.222222222222	1	692.7	0.9	869.333333333333	0.8	638.375	13	560404	2	560392	14	27	560418	-999999	560406	0	1	TRSyncPROC	""	1	2	1	SessionSelectionList	114	17479	-999999	0	28	254062	-999999	0																																																	1	InitialTR	2	3	ReadyList	1	3	14	271202	-15	273187	0	3
WM080112	127630_fnca	1	1	1	1542167869	1	75.031	75.031	2.0.10.147	2.0.10.242	2.0.10.242	1.0.0.439	7	234	2	3	Verdana	1	80	0	0	0	WM Stimuli\	0.8	852.375	1	656.8	1	879	1	673.7	0.9	950.222222222222	1	692.7	0.9	869.333333333333	0.8	638.375	13	560404	2	560392	14	27	560418	-999999	560406	0	1	TRSyncPROC	""	1	2	1	SessionSelectionList	114	17479	-999999	0	28	254062	-999999	0																																																	1	InitialTR	1	4	ReadyList	1	4	13	273201	-14	275187	0	4
WM080112	127630_fnca	1	1	1	1542167869	1	75.031	75.031	2.0.10.147	2.0.10.242	2.0.10.242	1.0.0.439	7	234	2	3	Verdana	1	80	0	0	0	WM Stimuli\	0.8	852.375	1	656.8	1	879	1	673.7	0.9	950.222222222222	1	692.7	0.9	869.333333333333	0.8	638.375	13	560404	2	560392	14	27	560418	-999999	560406	0	2	Cue2BackPROC	""	1	2	2	SessionSelectionList									12	275200	-13	0																																													2												
WM080112	127630_fnca	1	1	1	1542167869	1	75.031	75.031	2.0.10.147	2.0.10.242	2.0.10.242	1.0.0.439	7	234	2	3	Verdana	1	80	0	0	0	WM Stimuli\	0.8	852.375	1	656.8	1	879	1	673.7	0.9	950.222222222222	1	692.7	0.9	869.333333333333	0.8	638.375	13	560404	2	560392	14	27	560418	-999999	560406	0	3	TrialsPROC	BP_002_BP10_BA.png	1	2	3	SessionSelectionList													1	nonlure	3	Body	2-Back	2	80	1	0	0	0	1	53	279812	3	13	71	277759	-1	278310	1	551	3	3	2053	66	279825	-67	0																3												
WM080112	127630_fnca	1	1	1	1542167869	1	75.031	75.031	2.0.10.147	2.0.10.242	2.0.10.242	1.0.0.439	7	234	2	3	Verdana	1	80	0	0	0	WM Stimuli\	0.8	852.375	1	656.8	1	879	1	673.7	0.9	950.222222222222	1	692.7	0.9	869.333333333333	0.8	638.375	13	560404	2	560392	14	27	560418	-999999	560406	0	3	TrialsPROC	BP_001_BP1_BA.png	1	2	4	SessionSelectionList													2	nonlure	3	Body	2-Back	3	80	1	1	0	0	2	40	282371	1	13	72	280331	-1	280514	1	183	3	3	2040	53	282384	-54	0																4												
WM080112	127630_fnca	1	1	1	1542167869	1	75.031	75.031	2.0.10.147	2.0.10.242	2.0.10.242	1.0.0.439	7	234	2	3	Verdana	1	80	0	0	0	WM Stimuli\	0.8	852.375	1	656.8	1	879	1	673.7	0.9	950.222222222222	1	692.7	0.9	869.333333333333	0.8	638.375	13	560404	2	560392	14	27	560418	-999999	560406	0	3	TrialsPROC	BP_006_BP2_BA.png	1	2	5	SessionSelectionList													3	nonlure	3	Body	2-Back	4	80	2	0	0	0	1	40	284930	1	13	59	282890	-1	284054	0	1164	2	3	2040	53	284943	-54	0																5												
WM080112	127630_fnca	1	1	1	1542167869	1	75.031	75.031	2.0.10.147	2.0.10.242	2.0.10.242	1.0.0.439	7	234	2	3	Verdana	1	80	0	0	0	WM Stimuli\	0.8	852.375	1	656.8	1	879	1	673.7	0.9	950.222222222222	1	692.7	0.9	869.333333333333	0.8	638.375	13	560404	2	560392	14	27	560418	-999999	560406	0	3	TrialsPROC	BP_001_BP1_BA.png	1	2	6	SessionSelectionList													4	target	2	Body	2-Back	5	80	3	0	0	0	1	39	287502	1	13	73	285463	-1	286856	0	1393	3	2	2039	52	287515	-53	0																6												
WM080112	127630_fnca	1	1	1	1542167869	1	75.031	75.031	2.0.10.147	2.0.10.242	2.0.10.242	1.0.0.439	7	234	2	3	Verdana	1	80	0	0	0	WM Stimuli\	0.8	852.375	1	656.8	1	879	1	673.7	0.9	950.222222222222	1	692.7	0.9	869.333333333333	0.8	638.375	13	560404	2	560392	14	27	560418	-999999	560406	0	3	TrialsPROC	BP_005_BP19_BA.png	1	2	7	SessionSelectionList													5	nonlure	3	Body	2-Back	6	80	4	0	0	0	2	39	290074	2	14	72	288035	-1	289186	1	1151	3	3	2039	53	290088	-54	0																7												
WM080112	127630_fnca	1	1	1	1542167869	1	75.031	75.031	2.0.10.147	2.0.10.242	2.0.10.242	1.0.0.439	7	234	2	3	Verdana	1	80	0	0	0	WM Stimuli\	0.8	852.375	1	656.8	1	879	1	673.7	0.9	950.222222222222	1	692.7	0.9	869.333333333333	0.8	638.375	13	560404	2	560392	14	27	560418	-999999	560406	0	3	TrialsPROC	BP_003_BP16_BA.png	1	2	8	SessionSelectionList													6	nonlure	3	Body	2-Back	7	80	5	0	0	0	3	39	292633	2	14	59	290594	-1	291600	1	1006	3	3	2039	53	292647	-54	0																8												
WM080112	127630_fnca	1	1	1	1542167869	1	75.031	75.031	2.0.10.147	2.0.10.242	2.0.10.242	1.0.0.439	7	234	2	3	Verdana	1	80	0	0	0	WM Stimuli\	0.8	852.375	1	656.8	1	879	1	673.7	0.9	950.222222222222	1	692.7	0.9	869.333333333333	0.8	638.375	13	560404	2	560392	14	27	560418	-999999	560406	0	3	TrialsPROC	BP_006_BP2_BA.png	1	2	9	SessionSelectionList													7	lure	3	Body	2-Back	8	80	6	0	0	0	4	39	295192	2	14	59	293153	-1	294049	1	896	3	3	2039	53	295206	-54	0																9												
WM080112	127630_fnca	1	1	1	1542167869	1	75.031	75.031	2.0.10.147	2.0.10.242	2.0.10.242	1.0.0.439	7	234	2	3	Verdana	1	80	0	0	0	WM Stimuli\	0.8	852.375	1	656.8	1	879	1	673.7	0.9	950.222222222222	1	692.7	0.9	869.333333333333	0.8	638.375	13	560404	2	560392	14	27	560418	-999999	560406	0	3	TrialsPROC	BP_004_BP18_BA.png	1	2	10	SessionSelectionList													8	nonlure	3	Body	2-Back	9	80	7	0	0	0	5	39	297751	2	14	59	295712	-1	296778	1	1066	3	3	2039	53	297765	-54	0																10												
WM080112	127630_fnca	1	1	1	1542167869	1	75.031	75.031	2.0.10.147	2.0.10.242	2.0.10.242	1.0.0.439	7	234	2	3	Verdana	1	80	0	0	0	WM Stimuli\	0.8	852.375	1	656.8	1	879	1	673.7	0.9	950.222222222222	1	692.7	0.9	869.333333333333	0.8	638.375	13	560404	2	560392	14	27	560418	-999999	560406	0	3	TrialsPROC	BP_005_BP19_BA.png	1	2	11	SessionSelectionList													9	lure	3	Body	2-Back	10	80	8	0	0	0	6	39	300310	1	14	59	298271	-1	299204	1	933	3	3	2039	53	300324	-54	0																11												
WM080112	127630_fnca	1	1	1	1542167869	1	75.031	75.031	2.0.10.147	2.0.10.242	2.0.10.242	1.0.0.439	7	234	2	3	Verdana	1	80	0	0	0	WM Stimuli\	0.8	852.375	1	656.8	1	879	1	673.7	0.9	950.222222222222	1	692.7	0.9	869.333333333333	0.8	638.375	13	560404	2	560392	14	27	560418	-999999	560406	0	3	TrialsPROC	BP_004_BP18_BA.png	1	2	12	SessionSelectionList													10	target	2	Body	2-Back	11	80	9	0	0	0	1	39	302869	1	13	59	300830	-1	301863	1	1033	2	2	2039	52	302882	-53	0																12												
WM080112	127630_fnca	1	1	1	1542167869	1	75.031	75.031	2.0.10.147	2.0.10.242	2.0.10.242	1.0.0.439	7	234	2	3	Verdana	1	80	0	0	0	WM Stimuli\	0.8	852.375	1	656.8	1	879	1	673.7	0.9	950.222222222222	1	692.7	0.9	869.333333333333	0.8	638.375	13	560404	2	560392	14	27	560418	-999999	560406	0	4	Cue0BackPROC	FC_001_M1.png	1	2	13	SessionSelectionList																																										19	303349	-20	0												13												
WM080112	127630_fnca	1	1	1	1542167869	1	75.031	75.031	2.0.10.147	2.0.10.242	2.0.10.242	1.0.0.439	7	234	2	3	Verdana	1	80	0	0	0	WM Stimuli\	0.8	852.375	1	656.8	1	879	1	673.7	0.9	950.222222222222	1	692.7	0.9	869.333333333333	0.8	638.375	13	560404	2	560392	14	27	560418	-999999	560406	0	5	TrialsPROC	FC_005_M3.png	1	2	14	SessionSelectionList														nonlure	3	Face	0-Back	12	80	10	0	0	100	1	40	307934	1	13	64	305894	-1	306892	1	998	3	3	2040	53	307947	-54	0					1											14												
WM080112	127630_fnca	1	1	1	1542167869	1	75.031	75.031	2.0.10.147	2.0.10.242	2.0.10.242	1.0.0.439	7	234	2	3	Verdana	1	80	0	0	0	WM Stimuli\	0.8	852.375	1	656.8	1	879	1	673.7	0.9	950.222222222222	1	692.7	0.9	869.333333333333	0.8	638.375	13	560404	2	560392	14	27	560418	-999999	560406	0	5	TrialsPROC	FC_001_M1.png	1	2	15	SessionSelectionList														target	2	Face	0-Back	13	80	11	0	0	100	1	39	310506	1	13	73	308467	-1	309062	1	595	2	2	2039	52	310519	-53	0					2											15												
WM080112	127630_fnca	1	1	1	1542167869	1	75.031	75.031	2.0.10.147	2.0.10.242	2.0.10.242	1.0.0.439	7	234	2	3	Verdana	1	80	0	0	0	WM Stimuli\	0.8	852.375	1	656.8	1	879	1	673.7	0.9	950.222222222222	1	692.7	0.9	869.333333333333	0.8	638.375	13	560404	2	560392	14	27	560418	-999999	560406	0	5	TrialsPROC	FC_003_M2.png	1	2	16	SessionSelectionList														nonlure	3	Face	0-Back	14	80	12	0	0	100	1	39	313078	2	14	72	311039	-1	311750	1	711	3	3	2039	53	313092	-54	0					3											16												
WM080112	127630_fnca	1	1	1	1542167869	1	75.031	75.031	2.0.10.147	2.0.10.242	2.0.10.242	1.0.0.439	7	234	2	3	Verdana	1	80	0	0	0	WM Stimuli\	0.8	852.375	1	656.8	1	879	1	673.7	0.9	950.222222222222	1	692.7	0.9	869.333333333333	0.8	638.375	13	560404	2	560392	14	27	560418	-999999	560406	0	5	TrialsPROC	FC_004_F2.png	1	2	17	SessionSelectionList														nonlure	3	Face	0-Back	15	80	13	0	0	100	2	39	315650	3	14	72	313611	-1	314227	1	616	3	3	2039	53	315664	-54	0					4											17												
WM080112	127630_fnca	1	1	1	1542167869	1	75.031	75.031	2.0.10.147	2.0.10.242	2.0.10.242	1.0.0.439	7	234	2	3	Verdana	1	80	0	0	0	WM Stimuli\	0.8	852.375	1	656.8	1	879	1	673.7	0.9	950.222222222222	1	692.7	0.9	869.333333333333	0.8	638.375	13	560404	2	560392	14	27	560418	-999999	560406	0	5	TrialsPROC	FC_004_F2.png	1	2	18	SessionSelectionList														lure	3	Face	0-Back	16	80	14	0	0	100	3	39	318223	1	13	73	316184	-1	316705	1	521	3	3	2039	52	318236	-53	0					5											18												
WM080112	127630_fnca	1	1	1	1542167869	1	75.031	75.031	2.0.10.147	2.0.10.242	2.0.10.242	1.0.0.439	7	234	2	3	Verdana	1	80	0	0	0	WM Stimuli\	0.8	852.375	1	656.8	1	879	1	673.7	0.9	950.222222222222	1	692.7	0.9	869.333333333333	0.8	638.375	13	560404	2	560392	14	27	560418	-999999	560406	0	5	TrialsPROC	FC_001_M1.png	1	2	19	SessionSelectionList														target	2	Face	0-Back	17	80	15	0	0	100	1	39	320795	1	13	72	318756	-1	319424	1	668	2	2	2039	52	320808	-53	0					6											19												
WM080112	127630_fnca	1	1	1	1542167869	1	75.031	75.031	2.0.10.147	2.0.10.242	2.0.10.242	1.0.0.439	7	234	2	3	Verdana	1	80	0	0	0	WM Stimuli\	0.8	852.375	1	656.8	1	879	1	673.7	0.9	950.222222222222	1	692.7	0.9	869.333333333333	0.8	638.375	13	560404	2	560392	14	27	560418	-999999	560406	0	5	TrialsPROC	FC_006_F3.png	1	2	20	SessionSelectionList														nonlure	3	Face	0-Back	18	80	16	0	0	100	1	39	323367	2	14	72	321328	-1	321931	1	603	3	3	2039	53	323381	-54	0					7											20												
WM080112	127630_fnca	1	1	1	1542167869	1	75.031	75.031	2.0.10.147	2.0.10.242	2.0.10.242	1.0.0.439	7	234	2	3	Verdana	1	80	0	0	0	WM Stimuli\	0.8	852.375	1	656.8	1	879	1	673.7	0.9	950.222222222222	1	692.7	0.9	869.333333333333	0.8	638.375	13	560404	2	560392	14	27	560418	-999999	560406	0	5	TrialsPROC	FC_006_F3.png	1	2	21	SessionSelectionList														lure	3	Face	0-Back	19	80	17	0	0	100	2	40	325940	1	13	72	323900	-1	324426	1	526	3	3	2040	53	325953	-54	0					8											21												
WM080112	127630_fnca	1	1	1	1542167869	1	75.031	75.031	2.0.10.147	2.0.10.242	2.0.10.242	1.0.0.439	7	234	2	3	Verdana	1	80	0	0	0	WM Stimuli\	0.8	852.375	1	656.8	1	879	1	673.7	0.9	950.222222222222	1	692.7	0.9	869.333333333333	0.8	638.375	13	560404	2	560392	14	27	560418	-999999	560406	0	5	TrialsPROC	FC_003_M2.png	1	2	22	SessionSelectionList														lure	3	Face	0-Back	20	80	18	0	0	100	3	39	328512	1	13	73	326473	-1	327371	1	898	3	3	2039	52	328525	-53	0					9											22												
WM080112	127630_fnca	1	1	1	1542167869	1	75.031	75.031	2.0.10.147	2.0.10.242	2.0.10.242	1.0.0.439	7	234	2	3	Verdana	1	80	0	0	0	WM Stimuli\	0.8	852.375	1	656.8	1	879	1	673.7	0.9	950.222222222222	1	692.7	0.9	869.333333333333	0.8	638.375	13	560404	2	560392	14	27	560418	-999999	560406	0	5	TrialsPROC	FC_002_F1.png	1	2	23	SessionSelectionList														nonlure	3	Face	0-Back	21	80	19	0	0	100	4	39	331084	2	14	72	329045	-1	329646	1	601	3	3	2039	53	331098	-54	0					10											23												
WM080112	127630_fnca	1	1	1	1542167869	1	75.031	75.031	2.0.10.147	2.0.10.242	2.0.10.242	1.0.0.439	7	234	2	3	Verdana	1	80	0	0	0	WM Stimuli\	0.8	852.375	1	656.8	1	879	1	673.7	0.9	950.222222222222	1	692.7	0.9	869.333333333333	0.8	638.375	13	560404	2	560392	14	27	560418	-999999	560406	0	6	Fix15secPROC	""	1	2	24	SessionSelectionList																																															6	331551	-7	0							24												
WM080112	127630_fnca	1	1	1	1542167869	1	75.031	75.031	2.0.10.147	2.0.10.242	2.0.10.242	1.0.0.439	7	234	2	3	Verdana	1	80	0	0	0	WM Stimuli\	0.8	852.375	1	656.8	1	879	1	673.7	0.9	950.222222222222	1	692.7	0.9	869.333333333333	0.8	638.375	13	560404	2	560392	14	27	560418	-999999	560406	0	7	Cue2BackPROC	""	1	2	25	SessionSelectionList									13	346558	-14	0																																													25												
WM080112	127630_fnca	1	1	1	1542167869	1	75.031	75.031	2.0.10.147	2.0.10.242	2.0.10.242	1.0.0.439	7	234	2	3	Verdana	1	80	0	0	0	WM Stimuli\	0.8	852.375	1	656.8	1	879	1	673.7	0.9	950.222222222222	1	692.7	0.9	869.333333333333	0.8	638.375	13	560404	2	560392	14	27	560418	-999999	560406	0	8	TrialsPROC	TO_001_TOOL1_BA.png	1	2	26	SessionSelectionList														nonlure	3	Tools	2-Back	22	80	20	0	0	100	5	40	351143	1	13	58	349103	-1	349797	1	694	3	3	2040	53	351156	-54	0										1						26												
WM080112	127630_fnca	1	1	1	1542167869	1	75.031	75.031	2.0.10.147	2.0.10.242	2.0.10.242	1.0.0.439	7	234	2	3	Verdana	1	80	0	0	0	WM Stimuli\	0.8	852.375	1	656.8	1	879	1	673.7	0.9	950.222222222222	1	692.7	0.9	869.333333333333	0.8	638.375	13	560404	2	560392	14	27	560418	-999999	560406	0	8	TrialsPROC	TO_002_TOOL2_BA.png	1	2	27	SessionSelectionList														nonlure	3	Tools	2-Back	23	80	21	0	0	100	6	40	353702	1	13	59	351662	-1	352412	1	750	3	3	2040	53	353715	-54	0										2						27												
WM080112	127630_fnca	1	1	1	1542167869	1	75.031	75.031	2.0.10.147	2.0.10.242	2.0.10.242	1.0.0.439	7	234	2	3	Verdana	1	80	0	0	0	WM Stimuli\	0.8	852.375	1	656.8	1	879	1	673.7	0.9	950.222222222222	1	692.7	0.9	869.333333333333	0.8	638.375	13	560404	2	560392	14	27	560418	-999999	560406	0	8	TrialsPROC	TO_004_TOOL4_BA.png	1	2	28	SessionSelectionList														nonlure	3	Tools	2-Back	24	80	22	0	0	100	7	40	356261	2	13	59	354221	-1	355220	1	999	3	3	2040	53	356274	-54	0										3						28												
WM080112	127630_fnca	1	1	1	1542167869	1	75.031	75.031	2.0.10.147	2.0.10.242	2.0.10.242	1.0.0.439	7	234	2	3	Verdana	1	80	0	0	0	WM Stimuli\	0.8	852.375	1	656.8	1	879	1	673.7	0.9	950.222222222222	1	692.7	0.9	869.333333333333	0.8	638.375	13	560404	2	560392	14	27	560418	-999999	560406	0	8	TrialsPROC	TO_002_TOOL2_BA.png	1	2	29	SessionSelectionList														target	2	Tools	2-Back	25	80	22	0	1	100	7	40	358820	1	13	59	356780	-1	0	0	0	""	2	2040	53	358833	-54	0										4						29												
WM080112	127630_fnca	1	1	1	1542167869	1	75.031	75.031	2.0.10.147	2.0.10.242	2.0.10.242	1.0.0.439	7	234	2	3	Verdana	1	80	0	0	0	WM Stimuli\	0.8	852.375	1	656.8	1	879	1	673.7	0.9	950.222222222222	1	692.7	0.9	869.333333333333	0.8	638.375	13	560404	2	560392	14	27	560418	-999999	560406	0	8	TrialsPROC	TO_001_TOOL1_BA.png	1	2	30	SessionSelectionList														lure	3	Tools	2-Back	26	80	23	0	0	100	1	39	361378	2	14	59	359339	-1	360213	1	874	3	3	2039	53	361392	-54	0										5						30												
WM080112	127630_fnca	1	1	1	1542167869	1	75.031	75.031	2.0.10.147	2.0.10.242	2.0.10.242	1.0.0.439	7	234	2	3	Verdana	1	80	0	0	0	WM Stimuli\	0.8	852.375	1	656.8	1	879	1	673.7	0.9	950.222222222222	1	692.7	0.9	869.333333333333	0.8	638.375	13	560404	2	560392	14	27	560418	-999999	560406	0	8	TrialsPROC	TO_004_TOOL4_BA.png	1	2	31	SessionSelectionList														lure	3	Tools	2-Back	27	80	24	0	0	100	2	39	363937	2	14	59	361898	-1	363028	1	1130	3	3	2039	53	363951	-54	0										6						31												
WM080112	127630_fnca	1	1	1	1542167869	1	75.031	75.031	2.0.10.147	2.0.10.242	2.0.10.242	1.0.0.439	7	234	2	3	Verdana	1	80	0	0	0	WM Stimuli\	0.8	852.375	1	656.8	1	879	1	673.7	0.9	950.222222222222	1	692.7	0.9	869.333333333333	0.8	638.375	13	560404	2	560392	14	27	560418	-999999	560406	0	8	TrialsPROC	TO_006_TOOL6_BA.png	1	2	32	SessionSelectionList														nonlure	3	Tools	2-Back	28	80	25	0	0	100	3	39	366496	2	14	59	364457	-1	365367	1	910	3	3	2039	53	366510	-54	0										7						32												
WM080112	127630_fnca	1	1	1	1542167869	1	75.031	75.031	2.0.10.147	2.0.10.242	2.0.10.242	1.0.0.439	7	234	2	3	Verdana	1	80	0	0	0	WM Stimuli\	0.8	852.375	1	656.8	1	879	1	673.7	0.9	950.222222222222	1	692.7	0.9	869.333333333333	0.8	638.375	13	560404	2	560392	14	27	560418	-999999	560406	0	8	TrialsPROC	TO_005_TOOL5_BA.png	1	2	33	SessionSelectionList														nonlure	3	Tools	2-Back	29	80	26	0	0	100	4	39	369055	2	14	59	367016	-1	367850	1	834	3	3	2039	53	369069	-54	0										8						33												
WM080112	127630_fnca	1	1	1	1542167869	1	75.031	75.031	2.0.10.147	2.0.10.242	2.0.10.242	1.0.0.439	7	234	2	3	Verdana	1	80	0	0	0	WM Stimuli\	0.8	852.375	1	656.8	1	879	1	673.7	0.9	950.222222222222	1	692.7	0.9	869.333333333333	0.8	638.375	13	560404	2	560392	14	27	560418	-999999	560406	0	8	TrialsPROC	TO_006_TOOL6_BA.png	1	2	34	SessionSelectionList														target	2	Tools	2-Back	30	80	27	0	0	100	1	39	371614	2	14	59	369575	-1	370155	1	580	2	2	2039	53	371628	-54	0										9						34												
WM080112	127630_fnca	1	1	1	1542167869	1	75.031	75.031	2.0.10.147	2.0.10.242	2.0.10.242	1.0.0.439	7	234	2	3	Verdana	1	80	0	0	0	WM Stimuli\	0.8	852.375	1	656.8	1	879	1	673.7	0.9	950.222222222222	1	692.7	0.9	869.333333333333	0.8	638.375	13	560404	2	560392	14	27	560418	-999999	560406	0	8	TrialsPROC	TO_003_TOOL3_BA.png	1	2	35	SessionSelectionList														nonlure	3	Tools	2-Back	31	80	28	0	0	100	1	39	374173	2	14	59	372134	-1	373187	1	1053	3	3	2039	53	374187	-54	0										10						35												
WM080112	127630_fnca	1	1	1	1542167869	1	75.031	75.031	2.0.10.147	2.0.10.242	2.0.10.242	1.0.0.439	7	234	2	3	Verdana	1	80	0	0	0	WM Stimuli\	0.8	852.375	1	656.8	1	879	1	673.7	0.9	950.222222222222	1	692.7	0.9	869.333333333333	0.8	638.375	13	560404	2	560392	14	27	560418	-999999	560406	0	9	Cue0BackPROC	BP_007_BP20_BA.png	1	2	36	SessionSelectionList																																										19	374653	-20	0												36												
WM080112	127630_fnca	1	1	1	1542167869	1	75.031	75.031	2.0.10.147	2.0.10.242	2.0.10.242	1.0.0.439	7	234	2	3	Verdana	1	80	0	0	0	WM Stimuli\	0.8	852.375	1	656.8	1	879	1	673.7	0.9	950.222222222222	1	692.7	0.9	869.333333333333	0.8	638.375	13	560404	2	560392	14	27	560418	-999999	560406	0	10	TrialsPROC	BP_007_BP20_BA.png	1	2	37	SessionSelectionList														target	2	Body	0-Back	32	80	29	0	0	100	1	40	379225	1	13	51	377185	-1	378188	1	1003	2	2	2040	53	379238	-54	0											1					37												
WM080112	127630_fnca	1	1	1	1542167869	1	75.031	75.031	2.0.10.147	2.0.10.242	2.0.10.242	1.0.0.439	7	234	2	3	Verdana	1	80	0	0	0	WM Stimuli\	0.8	852.375	1	656.8	1	879	1	673.7	0.9	950.222222222222	1	692.7	0.9	869.333333333333	0.8	638.375	13	560404	2	560392	14	27	560418	-999999	560406	0	10	TrialsPROC	BP_011_BP4_BA.png	1	2	38	SessionSelectionList														nonlure	3	Body	0-Back	33	80	30	0	0	100	1	40	381784	1	13	59	379744	-1	380412	1	668	3	3	2040	53	381797	-54	0											2					38												
WM080112	127630_fnca	1	1	1	1542167869	1	75.031	75.031	2.0.10.147	2.0.10.242	2.0.10.242	1.0.0.439	7	234	2	3	Verdana	1	80	0	0	0	WM Stimuli\	0.8	852.375	1	656.8	1	879	1	673.7	0.9	950.222222222222	1	692.7	0.9	869.333333333333	0.8	638.375	13	560404	2	560392	14	27	560418	-999999	560406	0	10	TrialsPROC	BP_010_BP3_BA.png	1	2	39	SessionSelectionList														nonlure	3	Body	0-Back	34	80	31	0	0	100	2	39	384342	2	14	59	382303	-1	382975	1	672	3	3	2039	53	384356	-54	0											3					39												
WM080112	127630_fnca	1	1	1	1542167869	1	75.031	75.031	2.0.10.147	2.0.10.242	2.0.10.242	1.0.0.439	7	234	2	3	Verdana	1	80	0	0	0	WM Stimuli\	0.8	852.375	1	656.8	1	879	1	673.7	0.9	950.222222222222	1	692.7	0.9	869.333333333333	0.8	638.375	13	560404	2	560392	14	27	560418	-999999	560406	0	10	TrialsPROC	BP_008_BP21_BA.png	1	2	40	SessionSelectionList														nonlure	3	Body	0-Back	35	80	32	0	0	100	3	39	386901	2	14	59	384862	-1	385413	1	551	3	3	2039	53	386915	-54	0											4					40												
WM080112	127630_fnca	1	1	1	1542167869	1	75.031	75.031	2.0.10.147	2.0.10.242	2.0.10.242	1.0.0.439	7	234	2	3	Verdana	1	80	0	0	0	WM Stimuli\	0.8	852.375	1	656.8	1	879	1	673.7	0.9	950.222222222222	1	692.7	0.9	869.333333333333	0.8	638.375	13	560404	2	560392	14	27	560418	-999999	560406	0	10	TrialsPROC	BP_011_BP4_BA.png	1	2	41	SessionSelectionList														lure	3	Body	0-Back	36	80	33	0	0	100	4	39	389474	1	13	73	387435	-1	387998	1	563	3	3	2039	52	389487	-53	0											5					41												
WM080112	127630_fnca	1	1	1	1542167869	1	75.031	75.031	2.0.10.147	2.0.10.242	2.0.10.242	1.0.0.439	7	234	2	3	Verdana	1	80	0	0	0	WM Stimuli\	0.8	852.375	1	656.8	1	879	1	673.7	0.9	950.222222222222	1	692.7	0.9	869.333333333333	0.8	638.375	13	560404	2	560392	14	27	560418	-999999	560406	0	10	TrialsPROC	BP_009_BP22_BA.png	1	2	42	SessionSelectionList														nonlure	3	Body	0-Back	37	80	34	0	0	100	5	40	392033	1	13	58	389993	-1	390602	1	609	3	3	2040	53	392046	-54	0											6					42												
WM080112	127630_fnca	1	1	1	1542167869	1	75.031	75.031	2.0.10.147	2.0.10.242	2.0.10.242	1.0.0.439	7	234	2	3	Verdana	1	80	0	0	0	WM Stimuli\	0.8	852.375	1	656.8	1	879	1	673.7	0.9	950.222222222222	1	692.7	0.9	869.333333333333	0.8	638.375	13	560404	2	560392	14	27	560418	-999999	560406	0	10	TrialsPROC	BP_009_BP22_BA.png	1	2	43	SessionSelectionList														lure	3	Body	0-Back	38	80	35	0	0	100	6	40	394592	1	13	59	392552	-1	393283	1	731	3	3	2040	53	394605	-54	0											7					43												
WM080112	127630_fnca	1	1	1	1542167869	1	75.031	75.031	2.0.10.147	2.0.10.242	2.0.10.242	1.0.0.439	7	234	2	3	Verdana	1	80	0	0	0	WM Stimuli\	0.8	852.375	1	656.8	1	879	1	673.7	0.9	950.222222222222	1	692.7	0.9	869.333333333333	0.8	638.375	13	560404	2	560392	14	27	560418	-999999	560406	0	10	TrialsPROC	BP_008_BP21_BA.png	1	2	44	SessionSelectionList														lure	3	Body	0-Back	39	80	36	0	0	100	7	40	397151	1	13	59	395111	-1	395709	1	598	3	3	2040	53	397164	-54	0											8					44												
WM080112	127630_fnca	1	1	1	1542167869	1	75.031	75.031	2.0.10.147	2.0.10.242	2.0.10.242	1.0.0.439	7	234	2	3	Verdana	1	80	0	0	0	WM Stimuli\	0.8	852.375	1	656.8	1	879	1	673.7	0.9	950.222222222222	1	692.7	0.9	869.333333333333	0.8	638.375	13	560404	2	560392	14	27	560418	-999999	560406	0	10	TrialsPROC	BP_007_BP20_BA.png	1	2	45	SessionSelectionList														target	2	Body	0-Back	40	80	37	0	0	100	1	40	399710	1	13	59	397670	-1	398304	1	634	2	2	2040	53	399723	-54	0											9					45												
WM080112	127630_fnca	1	1	1	1542167869	1	75.031	75.031	2.0.10.147	2.0.10.242	2.0.10.242	1.0.0.439	7	234	2	3	Verdana	1	80	0	0	0	WM Stimuli\	0.8	852.375	1	656.8	1	879	1	673.7	0.9	950.222222222222	1	692.7	0.9	869.333333333333	0.8	638.375	13	560404	2	560392	14	27	560418	-999999	560406	0	10	TrialsPROC	BP_012_BP5_BA.png	1	2	46	SessionSelectionList														nonlure	3	Body	0-Back	41	80	38	0	0	100	1	39	402269	1	13	60	400230	-1	400769	1	539	3	3	2039	52	402282	-53	0											10					46												
WM080112	127630_fnca	1	1	1	1542167869	1	75.031	75.031	2.0.10.147	2.0.10.242	2.0.10.242	1.0.0.439	7	234	2	3	Verdana	1	80	0	0	0	WM Stimuli\	0.8	852.375	1	656.8	1	879	1	673.7	0.9	950.222222222222	1	692.7	0.9	869.333333333333	0.8	638.375	13	560404	2	560392	14	27	560418	-999999	560406	0	11	Fix15secPROC	""	1	2	47	SessionSelectionList																																															5	402735	-6	0							47												
WM080112	127630_fnca	1	1	1	1542167869	1	75.031	75.031	2.0.10.147	2.0.10.242	2.0.10.242	1.0.0.439	7	234	2	3	Verdana	1	80	0	0	0	WM Stimuli\	0.8	852.375	1	656.8	1	879	1	673.7	0.9	950.222222222222	1	692.7	0.9	869.333333333333	0.8	638.375	13	560404	2	560392	14	27	560418	-999999	560406	0	12	Cue0BackPROC	PL_001_92012.png	1	2	48	SessionSelectionList																																										12	417742	-13	0												48												
WM080112	127630_fnca	1	1	1	1542167869	1	75.031	75.031	2.0.10.147	2.0.10.242	2.0.10.242	1.0.0.439	7	234	2	3	Verdana	1	80	0	0	0	WM Stimuli\	0.8	852.375	1	656.8	1	879	1	673.7	0.9	950.222222222222	1	692.7	0.9	869.333333333333	0.8	638.375	13	560404	2	560392	14	27	560418	-999999	560406	0	13	TrialsPROC	PL_003_92016.png	1	2	49	SessionSelectionList														nonlure	3	Place	0-Back	42	80	39	0	0	100	2	39	422327	1	13	58	420288	-1	421137	1	849	3	3	2039	52	422340	-53	0												1				49												
WM080112	127630_fnca	1	1	1	1542167869	1	75.031	75.031	2.0.10.147	2.0.10.242	2.0.10.242	1.0.0.439	7	234	2	3	Verdana	1	80	0	0	0	WM Stimuli\	0.8	852.375	1	656.8	1	879	1	673.7	0.9	950.222222222222	1	692.7	0.9	869.333333333333	0.8	638.375	13	560404	2	560392	14	27	560418	-999999	560406	0	13	TrialsPROC	PL_003_92016.png	1	2	50	SessionSelectionList														lure	3	Place	0-Back	43	80	40	0	0	100	3	39	424899	2	14	72	422860	-1	423428	1	568	3	3	2039	53	424913	-54	0												2				50												
WM080112	127630_fnca	1	1	1	1542167869	1	75.031	75.031	2.0.10.147	2.0.10.242	2.0.10.242	1.0.0.439	7	234	2	3	Verdana	1	80	0	0	0	WM Stimuli\	0.8	852.375	1	656.8	1	879	1	673.7	0.9	950.222222222222	1	692.7	0.9	869.333333333333	0.8	638.375	13	560404	2	560392	14	27	560418	-999999	560406	0	13	TrialsPROC	PL_006_92025.png	1	2	51	SessionSelectionList														nonlure	3	Place	0-Back	44	80	41	0	0	100	4	40	427472	1	13	72	425432	-1	426058	1	626	3	3	2040	53	427485	-54	0												3				51												
WM080112	127630_fnca	1	1	1	1542167869	1	75.031	75.031	2.0.10.147	2.0.10.242	2.0.10.242	1.0.0.439	7	234	2	3	Verdana	1	80	0	0	0	WM Stimuli\	0.8	852.375	1	656.8	1	879	1	673.7	0.9	950.222222222222	1	692.7	0.9	869.333333333333	0.8	638.375	13	560404	2	560392	14	27	560418	-999999	560406	0	13	TrialsPROC	PL_001_92012.png	1	2	52	SessionSelectionList														target	2	Place	0-Back	45	80	42	0	0	100	1	39	430044	1	13	73	428005	-1	428700	1	695	2	2	2039	52	430057	-53	0												4				52												
WM080112	127630_fnca	1	1	1	1542167869	1	75.031	75.031	2.0.10.147	2.0.10.242	2.0.10.242	1.0.0.439	7	234	2	3	Verdana	1	80	0	0	0	WM Stimuli\	0.8	852.375	1	656.8	1	879	1	673.7	0.9	950.222222222222	1	692.7	0.9	869.333333333333	0.8	638.375	13	560404	2	560392	14	27	560418	-999999	560406	0	13	TrialsPROC	PL_004_92023.png	1	2	53	SessionSelectionList														nonlure	3	Place	0-Back	46	80	43	0	0	100	1	39	432616	2	14	72	430577	-1	431243	1	666	3	3	2039	53	432630	-54	0												5				53												
WM080112	127630_fnca	1	1	1	1542167869	1	75.031	75.031	2.0.10.147	2.0.10.242	2.0.10.242	1.0.0.439	7	234	2	3	Verdana	1	80	0	0	0	WM Stimuli\	0.8	852.375	1	656.8	1	879	1	673.7	0.9	950.222222222222	1	692.7	0.9	869.333333333333	0.8	638.375	13	560404	2	560392	14	27	560418	-999999	560406	0	13	TrialsPROC	PL_005_92024.png	1	2	54	SessionSelectionList														nonlure	3	Place	0-Back	47	80	44	0	0	100	2	39	435188	2	14	72	433149	-1	433965	1	816	3	3	2039	53	435202	-54	0												6				54												
WM080112	127630_fnca	1	1	1	1542167869	1	75.031	75.031	2.0.10.147	2.0.10.242	2.0.10.242	1.0.0.439	7	234	2	3	Verdana	1	80	0	0	0	WM Stimuli\	0.8	852.375	1	656.8	1	879	1	673.7	0.9	950.222222222222	1	692.7	0.9	869.333333333333	0.8	638.375	13	560404	2	560392	14	27	560418	-999999	560406	0	13	TrialsPROC	PL_001_92012.png	1	2	55	SessionSelectionList														target	2	Place	0-Back	48	80	45	0	0	100	1	39	437747	2	14	59	435708	-1	436389	1	681	2	2	2039	53	437761	-54	0												7				55												
WM080112	127630_fnca	1	1	1	1542167869	1	75.031	75.031	2.0.10.147	2.0.10.242	2.0.10.242	1.0.0.439	7	234	2	3	Verdana	1	80	0	0	0	WM Stimuli\	0.8	852.375	1	656.8	1	879	1	673.7	0.9	950.222222222222	1	692.7	0.9	869.333333333333	0.8	638.375	13	560404	2	560392	14	27	560418	-999999	560406	0	13	TrialsPROC	PL_002_92014.png	1	2	56	SessionSelectionList														nonlure	3	Place	0-Back	49	80	46	0	0	100	1	40	440320	1	13	72	438280	-1	438987	1	707	3	3	2040	53	440333	-54	0												8				56												
WM080112	127630_fnca	1	1	1	1542167869	1	75.031	75.031	2.0.10.147	2.0.10.242	2.0.10.242	1.0.0.439	7	234	2	3	Verdana	1	80	0	0	0	WM Stimuli\	0.8	852.375	1	656.8	1	879	1	673.7	0.9	950.222222222222	1	692.7	0.9	869.333333333333	0.8	638.375	13	560404	2	560392	14	27	560418	-999999	560406	0	13	TrialsPROC	PL_004_92023.png	1	2	57	SessionSelectionList														lure	3	Place	0-Back	50	80	47	0	0	100	2	40	442879	1	13	59	440839	-1	441547	1	708	3	3	2040	53	442892	-54	0												9				57												
WM080112	127630_fnca	1	1	1	1542167869	1	75.031	75.031	2.0.10.147	2.0.10.242	2.0.10.242	1.0.0.439	7	234	2	3	Verdana	1	80	0	0	0	WM Stimuli\	0.8	852.375	1	656.8	1	879	1	673.7	0.9	950.222222222222	1	692.7	0.9	869.333333333333	0.8	638.375	13	560404	2	560392	14	27	560418	-999999	560406	0	13	TrialsPROC	PL_006_92025.png	1	2	58	SessionSelectionList														lure	3	Place	0-Back	51	80	48	0	0	100	3	40	445438	1	13	59	443398	-1	444009	1	611	3	3	2040	53	445451	-54	0												10				58												
WM080112	127630_fnca	1	1	1	1542167869	1	75.031	75.031	2.0.10.147	2.0.10.242	2.0.10.242	1.0.0.439	7	234	2	3	Verdana	1	80	0	0	0	WM Stimuli\	0.8	852.375	1	656.8	1	879	1	673.7	0.9	950.222222222222	1	692.7	0.9	869.333333333333	0.8	638.375	13	560404	2	560392	14	27	560418	-999999	560406	0	14	Cue2BackPROC	""	1	2	59	SessionSelectionList									6	445904	-7	0																																													59												
WM080112	127630_fnca	1	1	1	1542167869	1	75.031	75.031	2.0.10.147	2.0.10.242	2.0.10.242	1.0.0.439	7	234	2	3	Verdana	1	80	0	0	0	WM Stimuli\	0.8	852.375	1	656.8	1	879	1	673.7	0.9	950.222222222222	1	692.7	0.9	869.333333333333	0.8	638.375	13	560404	2	560392	14	27	560418	-999999	560406	0	15	TrialsPROC	FC_010_F5.png	1	2	60	SessionSelectionList														nonlure	3	Face	2-Back	52	80	49	0	0	100	4	39	450502	2	14	65	448463	-1	449881	1	1418	3	3	2039	53	450516	-54	0													1			60												
WM080112	127630_fnca	1	1	1	1542167869	1	75.031	75.031	2.0.10.147	2.0.10.242	2.0.10.242	1.0.0.439	7	234	2	3	Verdana	1	80	0	0	0	WM Stimuli\	0.8	852.375	1	656.8	1	879	1	673.7	0.9	950.222222222222	1	692.7	0.9	869.333333333333	0.8	638.375	13	560404	2	560392	14	27	560418	-999999	560406	0	15	TrialsPROC	FC_012_F6.png	1	2	61	SessionSelectionList														nonlure	3	Face	2-Back	53	80	50	0	0	100	5	39	453074	2	14	72	451035	-1	451591	1	556	3	3	2039	53	453088	-54	0													2			61												
WM080112	127630_fnca	1	1	1	1542167869	1	75.031	75.031	2.0.10.147	2.0.10.242	2.0.10.242	1.0.0.439	7	234	2	3	Verdana	1	80	0	0	0	WM Stimuli\	0.8	852.375	1	656.8	1	879	1	673.7	0.9	950.222222222222	1	692.7	0.9	869.333333333333	0.8	638.375	13	560404	2	560392	14	27	560418	-999999	560406	0	15	TrialsPROC	FC_010_F5.png	1	2	62	SessionSelectionList														target	2	Face	2-Back	54	80	51	0	0	100	1	39	455647	1	13	73	453608	-1	454453	1	845	2	2	2039	52	455660	-53	0													3			62												
WM080112	127630_fnca	1	1	1	1542167869	1	75.031	75.031	2.0.10.147	2.0.10.242	2.0.10.242	1.0.0.439	7	234	2	3	Verdana	1	80	0	0	0	WM Stimuli\	0.8	852.375	1	656.8	1	879	1	673.7	0.9	950.222222222222	1	692.7	0.9	869.333333333333	0.8	638.375	13	560404	2	560392	14	27	560418	-999999	560406	0	15	TrialsPROC	FC_008_F4.png	1	2	63	SessionSelectionList														nonlure	3	Face	2-Back	55	80	52	0	0	100	1	39	458219	1	13	72	456180	-1	456936	1	756	3	3	2039	52	458232	-53	0													4			63												
WM080112	127630_fnca	1	1	1	1542167869	1	75.031	75.031	2.0.10.147	2.0.10.242	2.0.10.242	1.0.0.439	7	234	2	3	Verdana	1	80	0	0	0	WM Stimuli\	0.8	852.375	1	656.8	1	879	1	673.7	0.9	950.222222222222	1	692.7	0.9	869.333333333333	0.8	638.375	13	560404	2	560392	14	27	560418	-999999	560406	0	15	TrialsPROC	FC_012_F6.png	1	2	64	SessionSelectionList														lure	3	Face	2-Back	56	80	53	0	0	100	2	39	460791	2	14	72	458752	-1	459537	1	785	3	3	2039	53	460805	-54	0													5			64												
WM080112	127630_fnca	1	1	1	1542167869	1	75.031	75.031	2.0.10.147	2.0.10.242	2.0.10.242	1.0.0.439	7	234	2	3	Verdana	1	80	0	0	0	WM Stimuli\	0.8	852.375	1	656.8	1	879	1	673.7	0.9	950.222222222222	1	692.7	0.9	869.333333333333	0.8	638.375	13	560404	2	560392	14	27	560418	-999999	560406	0	15	TrialsPROC	FC_008_F4.png	1	2	65	SessionSelectionList														target	2	Face	2-Back	57	80	54	0	0	100	1	40	463364	1	13	72	461324	-1	462273	1	949	2	2	2040	53	463377	-54	0													6			65												
WM080112	127630_fnca	1	1	1	1542167869	1	75.031	75.031	2.0.10.147	2.0.10.242	2.0.10.242	1.0.0.439	7	234	2	3	Verdana	1	80	0	0	0	WM Stimuli\	0.8	852.375	1	656.8	1	879	1	673.7	0.9	950.222222222222	1	692.7	0.9	869.333333333333	0.8	638.375	13	560404	2	560392	14	27	560418	-999999	560406	0	15	TrialsPROC	FC_007_M4.png	1	2	66	SessionSelectionList														nonlure	3	Face	2-Back	58	80	55	0	0	100	1	39	465936	1	13	73	463897	-1	464741	1	844	3	3	2039	52	465949	-53	0													7			66												
WM080112	127630_fnca	1	1	1	1542167869	1	75.031	75.031	2.0.10.147	2.0.10.242	2.0.10.242	1.0.0.439	7	234	2	3	Verdana	1	80	0	0	0	WM Stimuli\	0.8	852.375	1	656.8	1	879	1	673.7	0.9	950.222222222222	1	692.7	0.9	869.333333333333	0.8	638.375	13	560404	2	560392	14	27	560418	-999999	560406	0	15	TrialsPROC	FC_007_M4.png	1	2	67	SessionSelectionList														lure	3	Face	2-Back	59	80	56	0	0	100	2	39	468508	3	14	72	466469	-1	467611	1	1142	3	3	2039	53	468522	-54	0													8			67												
WM080112	127630_fnca	1	1	1	1542167869	1	75.031	75.031	2.0.10.147	2.0.10.242	2.0.10.242	1.0.0.439	7	234	2	3	Verdana	1	80	0	0	0	WM Stimuli\	0.8	852.375	1	656.8	1	879	1	673.7	0.9	950.222222222222	1	692.7	0.9	869.333333333333	0.8	638.375	13	560404	2	560392	14	27	560418	-999999	560406	0	15	TrialsPROC	FC_009_M5.png	1	2	68	SessionSelectionList														nonlure	3	Face	2-Back	60	80	57	0	0	100	3	39	471080	2	14	72	469041	-1	469782	1	741	3	3	2039	53	471094	-54	0													9			68												
WM080112	127630_fnca	1	1	1	1542167869	1	75.031	75.031	2.0.10.147	2.0.10.242	2.0.10.242	1.0.0.439	7	234	2	3	Verdana	1	80	0	0	0	WM Stimuli\	0.8	852.375	1	656.8	1	879	1	673.7	0.9	950.222222222222	1	692.7	0.9	869.333333333333	0.8	638.375	13	560404	2	560392	14	27	560418	-999999	560406	0	15	TrialsPROC	FC_011_M6.png	1	2	69	SessionSelectionList														nonlure	3	Face	2-Back	61	80	58	0	0	100	4	39	473653	1	13	73	471614	-1	472368	1	754	3	3	2039	52	473666	-53	0													10			69												
WM080112	127630_fnca	1	1	1	1542167869	1	75.031	75.031	2.0.10.147	2.0.10.242	2.0.10.242	1.0.0.439	7	234	2	3	Verdana	1	80	0	0	0	WM Stimuli\	0.8	852.375	1	656.8	1	879	1	673.7	0.9	950.222222222222	1	692.7	0.9	869.333333333333	0.8	638.375	13	560404	2	560392	14	27	560418	-999999	560406	0	16	Fix15secPROC	""	1	2	70	SessionSelectionList																																															5	474119	-6	0							70												
WM080112	127630_fnca	1	1	1	1542167869	1	75.031	75.031	2.0.10.147	2.0.10.242	2.0.10.242	1.0.0.439	7	234	2	3	Verdana	1	80	0	0	0	WM Stimuli\	0.8	852.375	1	656.8	1	879	1	673.7	0.9	950.222222222222	1	692.7	0.9	869.333333333333	0.8	638.375	13	560404	2	560392	14	27	560418	-999999	560406	0	17	Cue0BackPROC	TO_007_TOOL7_BA.png	1	2	71	SessionSelectionList																																										12	489126	-13	0												71												
WM080112	127630_fnca	1	1	1	1542167869	1	75.031	75.031	2.0.10.147	2.0.10.242	2.0.10.242	1.0.0.439	7	234	2	3	Verdana	1	80	0	0	0	WM Stimuli\	0.8	852.375	1	656.8	1	879	1	673.7	0.9	950.222222222222	1	692.7	0.9	869.333333333333	0.8	638.375	13	560404	2	560392	14	27	560418	-999999	560406	0	18	TrialsPROC	TO_010_TOOL10_BA.png	1	2	72	SessionSelectionList														nonlure	3	Tools	0-Back	62	80	59	0	0	100	5	40	493712	1	13	58	491672	-1	492363	1	691	3	3	2040	53	493725	-54	0														1		72												
WM080112	127630_fnca	1	1	1	1542167869	1	75.031	75.031	2.0.10.147	2.0.10.242	2.0.10.242	1.0.0.439	7	234	2	3	Verdana	1	80	0	0	0	WM Stimuli\	0.8	852.375	1	656.8	1	879	1	673.7	0.9	950.222222222222	1	692.7	0.9	869.333333333333	0.8	638.375	13	560404	2	560392	14	27	560418	-999999	560406	0	18	TrialsPROC	TO_009_TOOL9_BA.png	1	2	73	SessionSelectionList														nonlure	3	Tools	0-Back	63	80	60	0	0	100	6	39	496270	2	14	59	494231	-1	494772	1	541	3	3	2039	53	496284	-54	0														2		73												
WM080112	127630_fnca	1	1	1	1542167869	1	75.031	75.031	2.0.10.147	2.0.10.242	2.0.10.242	1.0.0.439	7	234	2	3	Verdana	1	80	0	0	0	WM Stimuli\	0.8	852.375	1	656.8	1	879	1	673.7	0.9	950.222222222222	1	692.7	0.9	869.333333333333	0.8	638.375	13	560404	2	560392	14	27	560418	-999999	560406	0	18	TrialsPROC	TO_009_TOOL9_BA.png	1	2	74	SessionSelectionList														lure	3	Tools	0-Back	64	80	61	0	0	100	7	39	498829	2	14	59	496790	-1	497267	1	477	3	3	2039	53	498843	-54	0														3		74												
WM080112	127630_fnca	1	1	1	1542167869	1	75.031	75.031	2.0.10.147	2.0.10.242	2.0.10.242	1.0.0.439	7	234	2	3	Verdana	1	80	0	0	0	WM Stimuli\	0.8	852.375	1	656.8	1	879	1	673.7	0.9	950.222222222222	1	692.7	0.9	869.333333333333	0.8	638.375	13	560404	2	560392	14	27	560418	-999999	560406	0	18	TrialsPROC	TO_008_TOOL8_BA.png	1	2	75	SessionSelectionList														nonlure	3	Tools	0-Back	65	80	62	0	0	100	8	39	501388	1	14	59	499349	-1	500065	1	716	3	3	2039	53	501402	-54	0														4		75												
WM080112	127630_fnca	1	1	1	1542167869	1	75.031	75.031	2.0.10.147	2.0.10.242	2.0.10.242	1.0.0.439	7	234	2	3	Verdana	1	80	0	0	0	WM Stimuli\	0.8	852.375	1	656.8	1	879	1	673.7	0.9	950.222222222222	1	692.7	0.9	869.333333333333	0.8	638.375	13	560404	2	560392	14	27	560418	-999999	560406	0	18	TrialsPROC	TO_011_TOOL11_BA.png	1	2	76	SessionSelectionList														nonlure	3	Tools	0-Back	66	80	63	0	0	100	9	39	503947	1	14	59	501908	-1	502360	1	452	3	3	2039	53	503961	-54	0														5		76												
WM080112	127630_fnca	1	1	1	1542167869	1	75.031	75.031	2.0.10.147	2.0.10.242	2.0.10.242	1.0.0.439	7	234	2	3	Verdana	1	80	0	0	0	WM Stimuli\	0.8	852.375	1	656.8	1	879	1	673.7	0.9	950.222222222222	1	692.7	0.9	869.333333333333	0.8	638.375	13	560404	2	560392	14	27	560418	-999999	560406	0	18	TrialsPROC	TO_012_TOOL12_BA.png	1	2	77	SessionSelectionList														nonlure	3	Tools	0-Back	67	80	64	0	0	100	10	39	506506	1	13	59	504467	-1	504960	1	493	3	3	2039	52	506519	-53	0														6		77												
WM080112	127630_fnca	1	1	1	1542167869	1	75.031	75.031	2.0.10.147	2.0.10.242	2.0.10.242	1.0.0.439	7	234	2	3	Verdana	1	80	0	0	0	WM Stimuli\	0.8	852.375	1	656.8	1	879	1	673.7	0.9	950.222222222222	1	692.7	0.9	869.333333333333	0.8	638.375	13	560404	2	560392	14	27	560418	-999999	560406	0	18	TrialsPROC	TO_010_TOOL10_BA.png	1	2	78	SessionSelectionList														lure	3	Tools	0-Back	68	80	65	0	0	100	11	39	509065	1	13	59	507026	-1	508072	1	1046	3	3	2039	52	509078	-53	0														7		78												
WM080112	127630_fnca	1	1	1	1542167869	1	75.031	75.031	2.0.10.147	2.0.10.242	2.0.10.242	1.0.0.439	7	234	2	3	Verdana	1	80	0	0	0	WM Stimuli\	0.8	852.375	1	656.8	1	879	1	673.7	0.9	950.222222222222	1	692.7	0.9	869.333333333333	0.8	638.375	13	560404	2	560392	14	27	560418	-999999	560406	0	18	TrialsPROC	TO_007_TOOL7_BA.png	1	2	79	SessionSelectionList														target	2	Tools	0-Back	69	80	66	0	0	97	12	39	511624	1	13	59	509585	-1	511106	0	1521	3	2	2039	52	511637	-53	0														8		79												
WM080112	127630_fnca	1	1	1	1542167869	1	75.031	75.031	2.0.10.147	2.0.10.242	2.0.10.242	1.0.0.439	7	234	2	3	Verdana	1	80	0	0	0	WM Stimuli\	0.8	852.375	1	656.8	1	879	1	673.7	0.9	950.222222222222	1	692.7	0.9	869.333333333333	0.8	638.375	13	560404	2	560392	14	27	560418	-999999	560406	0	18	TrialsPROC	TO_008_TOOL8_BA.png	1	2	80	SessionSelectionList														lure	3	Tools	0-Back	70	80	67	0	0	97	13	39	514183	1	13	59	512144	-1	512835	1	691	3	3	2039	52	514196	-53	0														9		80												
WM080112	127630_fnca	1	1	1	1542167869	1	75.031	75.031	2.0.10.147	2.0.10.242	2.0.10.242	1.0.0.439	7	234	2	3	Verdana	1	80	0	0	0	WM Stimuli\	0.8	852.375	1	656.8	1	879	1	673.7	0.9	950.222222222222	1	692.7	0.9	869.333333333333	0.8	638.375	13	560404	2	560392	14	27	560418	-999999	560406	0	18	TrialsPROC	TO_007_TOOL7_BA.png	1	2	81	SessionSelectionList														target	2	Tools	0-Back	71	80	68	0	0	95	14	39	516742	1	13	59	514703	-1	515452	0	749	3	2	2039	52	516755	-53	0														10		81												
WM080112	127630_fnca	1	1	1	1542167869	1	75.031	75.031	2.0.10.147	2.0.10.242	2.0.10.242	1.0.0.439	7	234	2	3	Verdana	1	80	0	0	0	WM Stimuli\	0.8	852.375	1	656.8	1	879	1	673.7	0.9	950.222222222222	1	692.7	0.9	869.333333333333	0.8	638.375	13	560404	2	560392	14	27	560418	-999999	560406	0	19	Cue2BackPROC	""	1	2	82	SessionSelectionList									5	517208	-6	0																																													82												
WM080112	127630_fnca	1	1	1	1542167869	1	75.031	75.031	2.0.10.147	2.0.10.242	2.0.10.242	1.0.0.439	7	234	2	3	Verdana	1	80	0	0	0	WM Stimuli\	0.8	852.375	1	656.8	1	879	1	673.7	0.9	950.222222222222	1	692.7	0.9	869.333333333333	0.8	638.375	13	560404	2	560392	14	27	560418	-999999	560406	0	20	TrialsPROC	PL_007_92026.png	1	2	83	SessionSelectionList														nonlure	3	Place	2-Back	72	80	69	0	0	95	15	39	521806	2	14	64	519767	-1	521608	1	1841	3	3	2039	53	521820	-54	0															1	83												
WM080112	127630_fnca	1	1	1	1542167869	1	75.031	75.031	2.0.10.147	2.0.10.242	2.0.10.242	1.0.0.439	7	234	2	3	Verdana	1	80	0	0	0	WM Stimuli\	0.8	852.375	1	656.8	1	879	1	673.7	0.9	950.222222222222	1	692.7	0.9	869.333333333333	0.8	638.375	13	560404	2	560392	14	27	560418	-999999	560406	0	20	TrialsPROC	PL_007_92026.png	1	2	84	SessionSelectionList														lure	3	Place	2-Back	73	80	70	0	0	95	16	39	524379	1	13	73	522340	-1	523598	1	1258	3	3	2039	52	524392	-53	0															2	84												
WM080112	127630_fnca	1	1	1	1542167869	1	75.031	75.031	2.0.10.147	2.0.10.242	2.0.10.242	1.0.0.439	7	234	2	3	Verdana	1	80	0	0	0	WM Stimuli\	0.8	852.375	1	656.8	1	879	1	673.7	0.9	950.222222222222	1	692.7	0.9	869.333333333333	0.8	638.375	13	560404	2	560392	14	27	560418	-999999	560406	0	20	TrialsPROC	PL_010_92038.png	1	2	85	SessionSelectionList														nonlure	3	Place	2-Back	74	80	71	0	0	95	17	39	526951	1	13	72	524912	-1	525633	1	721	3	3	2039	52	526964	-53	0															3	85												
WM080112	127630_fnca	1	1	1	1542167869	1	75.031	75.031	2.0.10.147	2.0.10.242	2.0.10.242	1.0.0.439	7	234	2	3	Verdana	1	80	0	0	0	WM Stimuli\	0.8	852.375	1	656.8	1	879	1	673.7	0.9	950.222222222222	1	692.7	0.9	869.333333333333	0.8	638.375	13	560404	2	560392	14	27	560418	-999999	560406	0	20	TrialsPROC	PL_009_92037.png	1	2	86	SessionSelectionList														nonlure	3	Place	2-Back	75	80	72	0	0	95	18	39	529510	1	13	59	527471	-1	528091	1	620	3	3	2039	52	529523	-53	0															4	86												
WM080112	127630_fnca	1	1	1	1542167869	1	75.031	75.031	2.0.10.147	2.0.10.242	2.0.10.242	1.0.0.439	7	234	2	3	Verdana	1	80	0	0	0	WM Stimuli\	0.8	852.375	1	656.8	1	879	1	673.7	0.9	950.222222222222	1	692.7	0.9	869.333333333333	0.8	638.375	13	560404	2	560392	14	27	560418	-999999	560406	0	20	TrialsPROC	PL_010_92038.png	1	2	87	SessionSelectionList														target	2	Place	2-Back	76	80	73	0	0	95	19	39	532082	2	14	72	530043	-1	531414	0	1371	3	2	2039	53	532096	-54	0															5	87												
WM080112	127630_fnca	1	1	1	1542167869	1	75.031	75.031	2.0.10.147	2.0.10.242	2.0.10.242	1.0.0.439	7	234	2	3	Verdana	1	80	0	0	0	WM Stimuli\	0.8	852.375	1	656.8	1	879	1	673.7	0.9	950.222222222222	1	692.7	0.9	869.333333333333	0.8	638.375	13	560404	2	560392	14	27	560418	-999999	560406	0	20	TrialsPROC	PL_009_92037.png	1	2	88	SessionSelectionList														target	2	Place	2-Back	77	80	74	0	0	95	1	40	534655	1	13	72	532615	-1	533464	1	849	2	2	2040	53	534668	-54	0															6	88												
WM080112	127630_fnca	1	1	1	1542167869	1	75.031	75.031	2.0.10.147	2.0.10.242	2.0.10.242	1.0.0.439	7	234	2	3	Verdana	1	80	0	0	0	WM Stimuli\	0.8	852.375	1	656.8	1	879	1	673.7	0.9	950.222222222222	1	692.7	0.9	869.333333333333	0.8	638.375	13	560404	2	560392	14	27	560418	-999999	560406	0	20	TrialsPROC	PL_008_92033.png	1	2	89	SessionSelectionList														nonlure	3	Place	2-Back	78	80	75	0	0	95	1	39	537227	1	13	73	535188	-1	535881	1	693	3	3	2039	52	537240	-53	0															7	89												
WM080112	127630_fnca	1	1	1	1542167869	1	75.031	75.031	2.0.10.147	2.0.10.242	2.0.10.242	1.0.0.439	7	234	2	3	Verdana	1	80	0	0	0	WM Stimuli\	0.8	852.375	1	656.8	1	879	1	673.7	0.9	950.222222222222	1	692.7	0.9	869.333333333333	0.8	638.375	13	560404	2	560392	14	27	560418	-999999	560406	0	20	TrialsPROC	PL_012_92047.png	1	2	90	SessionSelectionList														nonlure	3	Place	2-Back	79	80	76	0	0	95	2	39	539799	2	14	72	537760	-1	538596	1	836	3	3	2039	53	539813	-54	0															8	90												
WM080112	127630_fnca	1	1	1	1542167869	1	75.031	75.031	2.0.10.147	2.0.10.242	2.0.10.242	1.0.0.439	7	234	2	3	Verdana	1	80	0	0	0	WM Stimuli\	0.8	852.375	1	656.8	1	879	1	673.7	0.9	950.222222222222	1	692.7	0.9	869.333333333333	0.8	638.375	13	560404	2	560392	14	27	560418	-999999	560406	0	20	TrialsPROC	PL_012_92047.png	1	2	91	SessionSelectionList														lure	3	Place	2-Back	80	80	77	0	0	95	3	39	542371	2	14	72	540332	-1	541321	1	989	3	3	2039	53	542385	-54	0															9	91												
WM080112	127630_fnca	1	1	1	1542167869	1	75.031	75.031	2.0.10.147	2.0.10.242	2.0.10.242	1.0.0.439	7	234	2	3	Verdana	1	80	0	0	0	WM Stimuli\	0.8	852.375	1	656.8	1	879	1	673.7	0.9	950.222222222222	1	692.7	0.9	869.333333333333	0.8	638.375	13	560404	2	560392	14	27	560418	-999999	560406	0	20	TrialsPROC	PL_011_92044.png	1	2	92	SessionSelectionList														nonlure	3	Place	2-Back	80	80	78	0	0	95	4	39	544930	2	14	59	542891	-1	543636	1	745	3	3	2039	53	544944	-54	0															10	92												
WM080112	127630_fnca	1	1	1	1542167869	1	75.031	75.031	2.0.10.147	2.0.10.242	2.0.10.242	1.0.0.439	7	234	2	3	Verdana	1	80	0	0	0	WM Stimuli\	0.8	852.375	1	656.8	1	879	1	673.7	0.9	950.222222222222	1	692.7	0.9	869.333333333333	0.8	638.375	13	560404	2	560392	14	27	560418	-999999	560406	0	21	Fix15secPROC	""	1	2	93	SessionSelectionList																																															6	545397	-7	0							93												
