ExperimentName	HCPID	RunNumber	Subject	Session	RandomSeed	Group	Laptop.RefreshRate	ScannerD2.RefreshRate	StudioVersion	RuntimeVersion	RuntimeVersionExpected	ExperimentVersion	triggercode	Allowed	Target	Nontarget	FontStyle	RunTrialNumber[Session]	TrialsPerRun[Session]	TotalRespGreater200[Session]	ConsecRTLess200[Session]	ConsecNonResp[Session]	StimuliDir	ACC_2_Back_Body	Avg_RT_For_Correct_Trials_2_Back_Body	ACC_0_Back_Body	Avg_RT_For_Correct_Trials_0_Back_Body	ACC_2_Back_Face	Avg_RT_For_Correct_Trials_2_Back_Face	ACC_0_Back_Face	Avg_RT_For_Correct_Trials_0_Back_Face	ACC_2_Back_Place	Avg_RT_For_Correct_Trials_2_Back_Place	ACC_0_Back_Place	Avg_RT_For_Correct_Trials_0_Back_Place	ACC_2_Back_Tools	Avg_RT_For_Correct_Trials_2_Back_Tools	ACC_0_Back_Tools	Avg_RT_For_Correct_Trials_0_Back_Tools	ExpInstrucFeelFreeToRest.OnsetDelay	ExpInstrucFeelFreeToRest.OnsetTime	ExpInstrucFeelFreeToRest.DurationError	ExpInstrucFeelFreeToRest.StartTime	ExpInstrucFeelFreeToRest.OnsetToOnsetTime	FeelFreeToRest.OnsetDelay	FeelFreeToRest.OnsetTime	FeelFreeToRest.DurationError	FeelFreeToRest.StartTime	FeelFreeToRest.OnsetToOnsetTime	SessionSelectionList	Procedure[Block]	Stimulus[Block]	RunNumberFilterValue	SessionSelectionList.Cycle	SessionSelectionList.Sample	Running[Block]	IntroButtonMap.OnsetDelay	IntroButtonMap.OnsetTime	IntroButtonMap.DurationError	IntroButtonMap.OnsetToOnsetTime	GetReady.OnsetDelay	GetReady.OnsetTime	GetReady.DurationError	GetReady.OnsetToOnsetTime	Cue2Back.OnsetDelay	Cue2Back.OnsetTime	Cue2Back.DurationError	Cue2Back.OnsetToOnsetTime	Run1Block1	TargetType	CorrectResponse	StimType	BlockType	RunTrialNumber[Block]	TrialsPerRun[Block]	TotalRespGreater200[Block]	ConsecRTLess200[Block]	ConsecNonResp[Block]	ControlAcc	ConsecSameResp	ExperimenterWindow.OnsetDelay	ExperimenterWindow.OnsetTime	ExperimenterWindow.DurationError	ExperimenterWindow.OnsetToOnsetTime	Stim.OnsetDelay	Stim.OnsetTime	Stim.DurationError	Stim.RTTime	Stim.ACC	Stim.RT	Stim.RESP	Stim.CRESP	Stim.OnsetToOnsetTime	Fix.OnsetDelay	Fix.OnsetTime	Fix.DurationError	Fix.OnsetToOnsetTime	CueTarget.OnsetDelay	CueTarget.OnsetTime	CueTarget.DurationError	CueTarget.OnsetToOnsetTime	Run1Block2	Fix15sec.OnsetDelay	Fix15sec.OnsetTime	Fix15sec.DurationError	Fix15sec.OnsetToOnsetTime	Run1Block3	Run1Block4	Run1Block5	Run1Block6	Run1Block7	Run1Block8	Block	Procedure[Trial]	Stimulus[Trial]	ReadyList	Running[Trial]	ReadyList.Cycle	ReadyList.Sample	SyncSlide.OnsetDelay	SyncSlide.OnsetTime	SyncSlide.DurationError	SyncSlide.FinishTime	SyncSlide.OnsetToOnsetTime	Trial
WM080112	138534_fnca	1	1	1	243952346	1	75.031	75.030	2.0.10.147	2.0.10.242	2.0.10.242	1.0.0.439	7	234	2	3	Verdana	1	80	0	0	0	WM Stimuli\	0.7	992.857142857143	0.9	981	0.7	1221.42857142857	1	808.6	0.8	882.5	0.9	838	1	1244.6	0.9	811	12	369752	3	369741	27	39	369779	-999999	369755	0	1	TRSyncPROC	""	1	2	1	SessionSelectionList	116	19694	-999999	0	33	60118	-999999	0																																																	1	InitialTR	4	1	ReadyList	1	1	9	76351	-10	78341	0	1
WM080112	138534_fnca	1	1	1	243952346	1	75.031	75.030	2.0.10.147	2.0.10.242	2.0.10.242	1.0.0.439	7	234	2	3	Verdana	1	80	0	0	0	WM Stimuli\	0.7	992.857142857143	0.9	981	0.7	1221.42857142857	1	808.6	0.8	882.5	0.9	838	1	1244.6	0.9	811	12	369752	3	369741	27	39	369779	-999999	369755	0	1	TRSyncPROC	""	1	2	1	SessionSelectionList	116	19694	-999999	0	33	60118	-999999	0																																																	1	InitialTR	3	2	ReadyList	1	2	9	78351	-10	80341	0	2
WM080112	138534_fnca	1	1	1	243952346	1	75.031	75.030	2.0.10.147	2.0.10.242	2.0.10.242	1.0.0.439	7	234	2	3	Verdana	1	80	0	0	0	WM Stimuli\	0.7	992.857142857143	0.9	981	0.7	1221.42857142857	1	808.6	0.8	882.5	0.9	838	1	1244.6	0.9	811	12	369752	3	369741	27	39	369779	-999999	369755	0	1	TRSyncPROC	""	1	2	1	SessionSelectionList	116	19694	-999999	0	33	60118	-999999	0																																																	1	InitialTR	2	3	ReadyList	1	3	8	80350	-9	82341	0	3
WM080112	138534_fnca	1	1	1	243952346	1	75.031	75.030	2.0.10.147	2.0.10.242	2.0.10.242	1.0.0.439	7	234	2	3	Verdana	1	80	0	0	0	WM Stimuli\	0.7	992.857142857143	0.9	981	0.7	1221.42857142857	1	808.6	0.8	882.5	0.9	838	1	1244.6	0.9	811	12	369752	3	369741	27	39	369779	-999999	369755	0	1	TRSyncPROC	""	1	2	1	SessionSelectionList	116	19694	-999999	0	33	60118	-999999	0																																																	1	InitialTR	1	4	ReadyList	1	4	7	82349	-8	84341	0	4
WM080112	138534_fnca	1	1	1	243952346	1	75.031	75.030	2.0.10.147	2.0.10.242	2.0.10.242	1.0.0.439	7	234	2	3	Verdana	1	80	0	0	0	WM Stimuli\	0.7	992.857142857143	0.9	981	0.7	1221.42857142857	1	808.6	0.8	882.5	0.9	838	1	1244.6	0.9	811	12	369752	3	369741	27	39	369779	-999999	369755	0	2	Cue2BackPROC	""	1	2	2	SessionSelectionList									20	84362	-21	0																																													2												
WM080112	138534_fnca	1	1	1	243952346	1	75.031	75.030	2.0.10.147	2.0.10.242	2.0.10.242	1.0.0.439	7	234	2	3	Verdana	1	80	0	0	0	WM Stimuli\	0.7	992.857142857143	0.9	981	0.7	1221.42857142857	1	808.6	0.8	882.5	0.9	838	1	1244.6	0.9	811	12	369752	3	369741	27	39	369779	-999999	369755	0	3	TrialsPROC	BP_002_BP10_BA.png	1	2	3	SessionSelectionList													1	nonlure	3	Body	2-Back	2	80	1	0	0	0	1	52	88973	3	14	79	86921	-1	87494	1	573	3	3	2052	66	88987	-67	0																3												
WM080112	138534_fnca	1	1	1	243952346	1	75.031	75.030	2.0.10.147	2.0.10.242	2.0.10.242	1.0.0.439	7	234	2	3	Verdana	1	80	0	0	0	WM Stimuli\	0.7	992.857142857143	0.9	981	0.7	1221.42857142857	1	808.6	0.8	882.5	0.9	838	1	1244.6	0.9	811	12	369752	3	369741	27	39	369779	-999999	369755	0	3	TrialsPROC	BP_001_BP1_BA.png	1	2	4	SessionSelectionList													2	nonlure	3	Body	2-Back	3	80	2	0	0	0	2	39	91532	2	14	72	89493	-1	90284	1	791	3	3	2039	53	91546	-54	0																4												
WM080112	138534_fnca	1	1	1	243952346	1	75.031	75.030	2.0.10.147	2.0.10.242	2.0.10.242	1.0.0.439	7	234	2	3	Verdana	1	80	0	0	0	WM Stimuli\	0.7	992.857142857143	0.9	981	0.7	1221.42857142857	1	808.6	0.8	882.5	0.9	838	1	1244.6	0.9	811	12	369752	3	369741	27	39	369779	-999999	369755	0	3	TrialsPROC	BP_006_BP2_BA.png	1	2	5	SessionSelectionList													3	nonlure	3	Body	2-Back	4	80	3	0	0	0	1	39	94091	2	14	59	92052	-1	92882	0	830	2	3	2039	53	94105	-54	0																5												
WM080112	138534_fnca	1	1	1	243952346	1	75.031	75.030	2.0.10.147	2.0.10.242	2.0.10.242	1.0.0.439	7	234	2	3	Verdana	1	80	0	0	0	WM Stimuli\	0.7	992.857142857143	0.9	981	0.7	1221.42857142857	1	808.6	0.8	882.5	0.9	838	1	1244.6	0.9	811	12	369752	3	369741	27	39	369779	-999999	369755	0	3	TrialsPROC	BP_001_BP1_BA.png	1	2	6	SessionSelectionList													4	target	2	Body	2-Back	5	80	4	0	0	0	1	39	96663	3	14	72	94624	-1	95248	0	624	3	2	2039	53	96677	-54	0																6												
WM080112	138534_fnca	1	1	1	243952346	1	75.031	75.030	2.0.10.147	2.0.10.242	2.0.10.242	1.0.0.439	7	234	2	3	Verdana	1	80	0	0	0	WM Stimuli\	0.7	992.857142857143	0.9	981	0.7	1221.42857142857	1	808.6	0.8	882.5	0.9	838	1	1244.6	0.9	811	12	369752	3	369741	27	39	369779	-999999	369755	0	3	TrialsPROC	BP_005_BP19_BA.png	1	2	7	SessionSelectionList													5	nonlure	3	Body	2-Back	6	80	5	0	0	0	2	40	99236	1	13	72	97196	-1	98646	1	1450	3	3	2040	53	99249	-54	0																7												
WM080112	138534_fnca	1	1	1	243952346	1	75.031	75.030	2.0.10.147	2.0.10.242	2.0.10.242	1.0.0.439	7	234	2	3	Verdana	1	80	0	0	0	WM Stimuli\	0.7	992.857142857143	0.9	981	0.7	1221.42857142857	1	808.6	0.8	882.5	0.9	838	1	1244.6	0.9	811	12	369752	3	369741	27	39	369779	-999999	369755	0	3	TrialsPROC	BP_003_BP16_BA.png	1	2	8	SessionSelectionList													6	nonlure	3	Body	2-Back	7	80	6	0	0	0	3	39	101794	3	14	59	99755	-1	100669	1	914	3	3	2039	53	101808	-54	0																8												
WM080112	138534_fnca	1	1	1	243952346	1	75.031	75.030	2.0.10.147	2.0.10.242	2.0.10.242	1.0.0.439	7	234	2	3	Verdana	1	80	0	0	0	WM Stimuli\	0.7	992.857142857143	0.9	981	0.7	1221.42857142857	1	808.6	0.8	882.5	0.9	838	1	1244.6	0.9	811	12	369752	3	369741	27	39	369779	-999999	369755	0	3	TrialsPROC	BP_006_BP2_BA.png	1	2	9	SessionSelectionList													7	lure	3	Body	2-Back	8	80	7	0	0	0	4	39	104353	2	14	59	102314	-1	103120	1	806	3	3	2039	53	104367	-54	0																9												
WM080112	138534_fnca	1	1	1	243952346	1	75.031	75.030	2.0.10.147	2.0.10.242	2.0.10.242	1.0.0.439	7	234	2	3	Verdana	1	80	0	0	0	WM Stimuli\	0.7	992.857142857143	0.9	981	0.7	1221.42857142857	1	808.6	0.8	882.5	0.9	838	1	1244.6	0.9	811	12	369752	3	369741	27	39	369779	-999999	369755	0	3	TrialsPROC	BP_004_BP18_BA.png	1	2	10	SessionSelectionList													8	nonlure	3	Body	2-Back	9	80	8	0	0	0	5	39	106912	3	14	59	104873	-1	105931	1	1058	3	3	2039	53	106926	-54	0																10												
WM080112	138534_fnca	1	1	1	243952346	1	75.031	75.030	2.0.10.147	2.0.10.242	2.0.10.242	1.0.0.439	7	234	2	3	Verdana	1	80	0	0	0	WM Stimuli\	0.7	992.857142857143	0.9	981	0.7	1221.42857142857	1	808.6	0.8	882.5	0.9	838	1	1244.6	0.9	811	12	369752	3	369741	27	39	369779	-999999	369755	0	3	TrialsPROC	BP_005_BP19_BA.png	1	2	11	SessionSelectionList													9	lure	3	Body	2-Back	10	80	9	0	0	0	1	39	109471	3	14	59	107432	-1	109206	0	1774	2	3	2039	53	109485	-54	0																11												
WM080112	138534_fnca	1	1	1	243952346	1	75.031	75.030	2.0.10.147	2.0.10.242	2.0.10.242	1.0.0.439	7	234	2	3	Verdana	1	80	0	0	0	WM Stimuli\	0.7	992.857142857143	0.9	981	0.7	1221.42857142857	1	808.6	0.8	882.5	0.9	838	1	1244.6	0.9	811	12	369752	3	369741	27	39	369779	-999999	369755	0	3	TrialsPROC	BP_004_BP18_BA.png	1	2	12	SessionSelectionList													10	target	2	Body	2-Back	11	80	10	0	0	0	2	39	112030	2	14	59	109991	-1	111349	1	1358	2	2	2039	53	112044	-54	0																12												
WM080112	138534_fnca	1	1	1	243952346	1	75.031	75.030	2.0.10.147	2.0.10.242	2.0.10.242	1.0.0.439	7	234	2	3	Verdana	1	80	0	0	0	WM Stimuli\	0.7	992.857142857143	0.9	981	0.7	1221.42857142857	1	808.6	0.8	882.5	0.9	838	1	1244.6	0.9	811	12	369752	3	369741	27	39	369779	-999999	369755	0	4	Cue0BackPROC	FC_001_M1.png	1	2	13	SessionSelectionList																																										19	112510	-20	0												13												
WM080112	138534_fnca	1	1	1	243952346	1	75.031	75.030	2.0.10.147	2.0.10.242	2.0.10.242	1.0.0.439	7	234	2	3	Verdana	1	80	0	0	0	WM Stimuli\	0.7	992.857142857143	0.9	981	0.7	1221.42857142857	1	808.6	0.8	882.5	0.9	838	1	1244.6	0.9	811	12	369752	3	369741	27	39	369779	-999999	369755	0	5	TrialsPROC	FC_005_M3.png	1	2	14	SessionSelectionList														nonlure	3	Face	0-Back	12	80	11	0	0	100	1	39	117095	2	14	65	115056	-1	116221	1	1165	3	3	2039	53	117109	-54	0					1											14												
WM080112	138534_fnca	1	1	1	243952346	1	75.031	75.030	2.0.10.147	2.0.10.242	2.0.10.242	1.0.0.439	7	234	2	3	Verdana	1	80	0	0	0	WM Stimuli\	0.7	992.857142857143	0.9	981	0.7	1221.42857142857	1	808.6	0.8	882.5	0.9	838	1	1244.6	0.9	811	12	369752	3	369741	27	39	369779	-999999	369755	0	5	TrialsPROC	FC_001_M1.png	1	2	15	SessionSelectionList														target	2	Face	0-Back	13	80	12	0	0	100	1	39	119667	3	14	72	117628	-1	118475	1	847	2	2	2039	53	119681	-54	0					2											15												
WM080112	138534_fnca	1	1	1	243952346	1	75.031	75.030	2.0.10.147	2.0.10.242	2.0.10.242	1.0.0.439	7	234	2	3	Verdana	1	80	0	0	0	WM Stimuli\	0.7	992.857142857143	0.9	981	0.7	1221.42857142857	1	808.6	0.8	882.5	0.9	838	1	1244.6	0.9	811	12	369752	3	369741	27	39	369779	-999999	369755	0	5	TrialsPROC	FC_003_M2.png	1	2	16	SessionSelectionList														nonlure	3	Face	0-Back	14	80	13	0	0	100	1	40	122240	1	13	72	120200	-1	121086	1	886	3	3	2040	53	122253	-54	0					3											16												
WM080112	138534_fnca	1	1	1	243952346	1	75.031	75.030	2.0.10.147	2.0.10.242	2.0.10.242	1.0.0.439	7	234	2	3	Verdana	1	80	0	0	0	WM Stimuli\	0.7	992.857142857143	0.9	981	0.7	1221.42857142857	1	808.6	0.8	882.5	0.9	838	1	1244.6	0.9	811	12	369752	3	369741	27	39	369779	-999999	369755	0	5	TrialsPROC	FC_004_F2.png	1	2	17	SessionSelectionList														nonlure	3	Face	0-Back	15	80	14	0	0	100	2	39	124812	2	14	73	122773	-1	123459	1	686	3	3	2039	53	124826	-54	0					4											17												
WM080112	138534_fnca	1	1	1	243952346	1	75.031	75.030	2.0.10.147	2.0.10.242	2.0.10.242	1.0.0.439	7	234	2	3	Verdana	1	80	0	0	0	WM Stimuli\	0.7	992.857142857143	0.9	981	0.7	1221.42857142857	1	808.6	0.8	882.5	0.9	838	1	1244.6	0.9	811	12	369752	3	369741	27	39	369779	-999999	369755	0	5	TrialsPROC	FC_004_F2.png	1	2	18	SessionSelectionList														lure	3	Face	0-Back	16	80	15	0	0	100	3	39	127384	2	14	72	125345	-1	125942	1	597	3	3	2039	53	127398	-54	0					5											18												
WM080112	138534_fnca	1	1	1	243952346	1	75.031	75.030	2.0.10.147	2.0.10.242	2.0.10.242	1.0.0.439	7	234	2	3	Verdana	1	80	0	0	0	WM Stimuli\	0.7	992.857142857143	0.9	981	0.7	1221.42857142857	1	808.6	0.8	882.5	0.9	838	1	1244.6	0.9	811	12	369752	3	369741	27	39	369779	-999999	369755	0	5	TrialsPROC	FC_001_M1.png	1	2	19	SessionSelectionList														target	2	Face	0-Back	17	80	16	0	0	100	1	39	129956	3	14	72	127917	-1	128627	1	710	2	2	2039	53	129970	-54	0					6											19												
WM080112	138534_fnca	1	1	1	243952346	1	75.031	75.030	2.0.10.147	2.0.10.242	2.0.10.242	1.0.0.439	7	234	2	3	Verdana	1	80	0	0	0	WM Stimuli\	0.7	992.857142857143	0.9	981	0.7	1221.42857142857	1	808.6	0.8	882.5	0.9	838	1	1244.6	0.9	811	12	369752	3	369741	27	39	369779	-999999	369755	0	5	TrialsPROC	FC_006_F3.png	1	2	20	SessionSelectionList														nonlure	3	Face	0-Back	18	80	17	0	0	100	1	40	132529	1	13	72	130489	-1	131312	1	823	3	3	2040	53	132542	-54	0					7											20												
WM080112	138534_fnca	1	1	1	243952346	1	75.031	75.030	2.0.10.147	2.0.10.242	2.0.10.242	1.0.0.439	7	234	2	3	Verdana	1	80	0	0	0	WM Stimuli\	0.7	992.857142857143	0.9	981	0.7	1221.42857142857	1	808.6	0.8	882.5	0.9	838	1	1244.6	0.9	811	12	369752	3	369741	27	39	369779	-999999	369755	0	5	TrialsPROC	FC_006_F3.png	1	2	21	SessionSelectionList														lure	3	Face	0-Back	19	80	18	0	0	100	2	39	135101	2	14	73	133062	-1	133858	1	796	3	3	2039	53	135115	-54	0					8											21												
WM080112	138534_fnca	1	1	1	243952346	1	75.031	75.030	2.0.10.147	2.0.10.242	2.0.10.242	1.0.0.439	7	234	2	3	Verdana	1	80	0	0	0	WM Stimuli\	0.7	992.857142857143	0.9	981	0.7	1221.42857142857	1	808.6	0.8	882.5	0.9	838	1	1244.6	0.9	811	12	369752	3	369741	27	39	369779	-999999	369755	0	5	TrialsPROC	FC_003_M2.png	1	2	22	SessionSelectionList														lure	3	Face	0-Back	20	80	19	0	0	100	3	39	137673	3	14	72	135634	-1	136439	1	805	3	3	2039	53	137687	-54	0					9											22												
WM080112	138534_fnca	1	1	1	243952346	1	75.031	75.030	2.0.10.147	2.0.10.242	2.0.10.242	1.0.0.439	7	234	2	3	Verdana	1	80	0	0	0	WM Stimuli\	0.7	992.857142857143	0.9	981	0.7	1221.42857142857	1	808.6	0.8	882.5	0.9	838	1	1244.6	0.9	811	12	369752	3	369741	27	39	369779	-999999	369755	0	5	TrialsPROC	FC_002_F1.png	1	2	23	SessionSelectionList														nonlure	3	Face	0-Back	21	80	20	0	0	100	4	40	140246	1	13	72	138206	-1	138977	1	771	3	3	2040	53	140259	-54	0					10											23												
WM080112	138534_fnca	1	1	1	243952346	1	75.031	75.030	2.0.10.147	2.0.10.242	2.0.10.242	1.0.0.439	7	234	2	3	Verdana	1	80	0	0	0	WM Stimuli\	0.7	992.857142857143	0.9	981	0.7	1221.42857142857	1	808.6	0.8	882.5	0.9	838	1	1244.6	0.9	811	12	369752	3	369741	27	39	369779	-999999	369755	0	6	Fix15secPROC	""	1	2	24	SessionSelectionList																																															6	140712	-7	0							24												
WM080112	138534_fnca	1	1	1	243952346	1	75.031	75.030	2.0.10.147	2.0.10.242	2.0.10.242	1.0.0.439	7	234	2	3	Verdana	1	80	0	0	0	WM Stimuli\	0.7	992.857142857143	0.9	981	0.7	1221.42857142857	1	808.6	0.8	882.5	0.9	838	1	1244.6	0.9	811	12	369752	3	369741	27	39	369779	-999999	369755	0	7	Cue2BackPROC	""	1	2	25	SessionSelectionList									13	155719	-14	0																																													25												
WM080112	138534_fnca	1	1	1	243952346	1	75.031	75.030	2.0.10.147	2.0.10.242	2.0.10.242	1.0.0.439	7	234	2	3	Verdana	1	80	0	0	0	WM Stimuli\	0.7	992.857142857143	0.9	981	0.7	1221.42857142857	1	808.6	0.8	882.5	0.9	838	1	1244.6	0.9	811	12	369752	3	369741	27	39	369779	-999999	369755	0	8	TrialsPROC	TO_001_TOOL1_BA.png	1	2	26	SessionSelectionList														nonlure	3	Tools	2-Back	22	80	21	0	0	100	5	39	160304	2	14	59	158265	-1	159431	1	1166	3	3	2039	53	160318	-54	0										1						26												
WM080112	138534_fnca	1	1	1	243952346	1	75.031	75.030	2.0.10.147	2.0.10.242	2.0.10.242	1.0.0.439	7	234	2	3	Verdana	1	80	0	0	0	WM Stimuli\	0.7	992.857142857143	0.9	981	0.7	1221.42857142857	1	808.6	0.8	882.5	0.9	838	1	1244.6	0.9	811	12	369752	3	369741	27	39	369779	-999999	369755	0	8	TrialsPROC	TO_002_TOOL2_BA.png	1	2	27	SessionSelectionList														nonlure	3	Tools	2-Back	23	80	22	0	0	100	6	39	162863	1	14	59	160824	-1	161755	1	931	3	3	2039	53	162877	-54	0										2						27												
WM080112	138534_fnca	1	1	1	243952346	1	75.031	75.030	2.0.10.147	2.0.10.242	2.0.10.242	1.0.0.439	7	234	2	3	Verdana	1	80	0	0	0	WM Stimuli\	0.7	992.857142857143	0.9	981	0.7	1221.42857142857	1	808.6	0.8	882.5	0.9	838	1	1244.6	0.9	811	12	369752	3	369741	27	39	369779	-999999	369755	0	8	TrialsPROC	TO_004_TOOL4_BA.png	1	2	28	SessionSelectionList														nonlure	3	Tools	2-Back	24	80	23	0	0	100	7	39	165422	3	14	59	163383	-1	165335	1	1952	3	3	2039	53	165436	-54	0										3						28												
WM080112	138534_fnca	1	1	1	243952346	1	75.031	75.030	2.0.10.147	2.0.10.242	2.0.10.242	1.0.0.439	7	234	2	3	Verdana	1	80	0	0	0	WM Stimuli\	0.7	992.857142857143	0.9	981	0.7	1221.42857142857	1	808.6	0.8	882.5	0.9	838	1	1244.6	0.9	811	12	369752	3	369741	27	39	369779	-999999	369755	0	8	TrialsPROC	TO_002_TOOL2_BA.png	1	2	29	SessionSelectionList														target	2	Tools	2-Back	25	80	24	0	0	100	1	39	167981	2	14	59	165942	-1	166951	1	1009	2	2	2039	53	167995	-54	0										4						29												
WM080112	138534_fnca	1	1	1	243952346	1	75.031	75.030	2.0.10.147	2.0.10.242	2.0.10.242	1.0.0.439	7	234	2	3	Verdana	1	80	0	0	0	WM Stimuli\	0.7	992.857142857143	0.9	981	0.7	1221.42857142857	1	808.6	0.8	882.5	0.9	838	1	1244.6	0.9	811	12	369752	3	369741	27	39	369779	-999999	369755	0	8	TrialsPROC	TO_001_TOOL1_BA.png	1	2	30	SessionSelectionList														lure	3	Tools	2-Back	26	80	25	0	0	100	1	39	170540	1	14	59	168501	-1	169810	1	1309	3	3	2039	53	170554	-54	0										5						30												
WM080112	138534_fnca	1	1	1	243952346	1	75.031	75.030	2.0.10.147	2.0.10.242	2.0.10.242	1.0.0.439	7	234	2	3	Verdana	1	80	0	0	0	WM Stimuli\	0.7	992.857142857143	0.9	981	0.7	1221.42857142857	1	808.6	0.8	882.5	0.9	838	1	1244.6	0.9	811	12	369752	3	369741	27	39	369779	-999999	369755	0	8	TrialsPROC	TO_004_TOOL4_BA.png	1	2	31	SessionSelectionList														lure	3	Tools	2-Back	27	80	26	0	0	100	2	39	173099	2	14	59	171060	-1	172494	1	1434	3	3	2039	53	173113	-54	0										6						31												
WM080112	138534_fnca	1	1	1	243952346	1	75.031	75.030	2.0.10.147	2.0.10.242	2.0.10.242	1.0.0.439	7	234	2	3	Verdana	1	80	0	0	0	WM Stimuli\	0.7	992.857142857143	0.9	981	0.7	1221.42857142857	1	808.6	0.8	882.5	0.9	838	1	1244.6	0.9	811	12	369752	3	369741	27	39	369779	-999999	369755	0	8	TrialsPROC	TO_006_TOOL6_BA.png	1	2	32	SessionSelectionList														nonlure	3	Tools	2-Back	28	80	27	0	0	100	3	39	175658	2	14	59	173619	-1	175119	1	1500	3	3	2039	53	175672	-54	0										7						32												
WM080112	138534_fnca	1	1	1	243952346	1	75.031	75.030	2.0.10.147	2.0.10.242	2.0.10.242	1.0.0.439	7	234	2	3	Verdana	1	80	0	0	0	WM Stimuli\	0.7	992.857142857143	0.9	981	0.7	1221.42857142857	1	808.6	0.8	882.5	0.9	838	1	1244.6	0.9	811	12	369752	3	369741	27	39	369779	-999999	369755	0	8	TrialsPROC	TO_005_TOOL5_BA.png	1	2	33	SessionSelectionList														nonlure	3	Tools	2-Back	29	80	28	0	0	100	4	39	178217	1	14	59	176178	-1	177368	1	1190	3	3	2039	53	178231	-54	0										8						33												
WM080112	138534_fnca	1	1	1	243952346	1	75.031	75.030	2.0.10.147	2.0.10.242	2.0.10.242	1.0.0.439	7	234	2	3	Verdana	1	80	0	0	0	WM Stimuli\	0.7	992.857142857143	0.9	981	0.7	1221.42857142857	1	808.6	0.8	882.5	0.9	838	1	1244.6	0.9	811	12	369752	3	369741	27	39	369779	-999999	369755	0	8	TrialsPROC	TO_006_TOOL6_BA.png	1	2	34	SessionSelectionList														target	2	Tools	2-Back	30	80	29	0	0	100	1	39	180776	2	13	59	178737	-1	179679	1	942	2	2	2039	52	180789	-53	0										9						34												
WM080112	138534_fnca	1	1	1	243952346	1	75.031	75.030	2.0.10.147	2.0.10.242	2.0.10.242	1.0.0.439	7	234	2	3	Verdana	1	80	0	0	0	WM Stimuli\	0.7	992.857142857143	0.9	981	0.7	1221.42857142857	1	808.6	0.8	882.5	0.9	838	1	1244.6	0.9	811	12	369752	3	369741	27	39	369779	-999999	369755	0	8	TrialsPROC	TO_003_TOOL3_BA.png	1	2	35	SessionSelectionList														nonlure	3	Tools	2-Back	31	80	30	0	0	100	1	39	183335	1	13	59	181296	-1	182309	1	1013	3	3	2039	52	183348	-53	0										10						35												
WM080112	138534_fnca	1	1	1	243952346	1	75.031	75.030	2.0.10.147	2.0.10.242	2.0.10.242	1.0.0.439	7	234	2	3	Verdana	1	80	0	0	0	WM Stimuli\	0.7	992.857142857143	0.9	981	0.7	1221.42857142857	1	808.6	0.8	882.5	0.9	838	1	1244.6	0.9	811	12	369752	3	369741	27	39	369779	-999999	369755	0	9	Cue0BackPROC	BP_007_BP20_BA.png	1	2	36	SessionSelectionList																																										19	183815	-20	0												36												
WM080112	138534_fnca	1	1	1	243952346	1	75.031	75.030	2.0.10.147	2.0.10.242	2.0.10.242	1.0.0.439	7	234	2	3	Verdana	1	80	0	0	0	WM Stimuli\	0.7	992.857142857143	0.9	981	0.7	1221.42857142857	1	808.6	0.8	882.5	0.9	838	1	1244.6	0.9	811	12	369752	3	369741	27	39	369779	-999999	369755	0	10	TrialsPROC	BP_007_BP20_BA.png	1	2	37	SessionSelectionList														target	2	Body	0-Back	32	80	31	0	0	100	1	39	188386	2	14	51	186347	-1	187884	1	1537	2	2	2039	53	188400	-54	0											1					37												
WM080112	138534_fnca	1	1	1	243952346	1	75.031	75.030	2.0.10.147	2.0.10.242	2.0.10.242	1.0.0.439	7	234	2	3	Verdana	1	80	0	0	0	WM Stimuli\	0.7	992.857142857143	0.9	981	0.7	1221.42857142857	1	808.6	0.8	882.5	0.9	838	1	1244.6	0.9	811	12	369752	3	369741	27	39	369779	-999999	369755	0	10	TrialsPROC	BP_011_BP4_BA.png	1	2	38	SessionSelectionList														nonlure	3	Body	0-Back	33	80	32	0	0	100	1	39	190958	3	14	72	188919	-1	189695	1	776	3	3	2039	53	190972	-54	0											2					38												
WM080112	138534_fnca	1	1	1	243952346	1	75.031	75.030	2.0.10.147	2.0.10.242	2.0.10.242	1.0.0.439	7	234	2	3	Verdana	1	80	0	0	0	WM Stimuli\	0.7	992.857142857143	0.9	981	0.7	1221.42857142857	1	808.6	0.8	882.5	0.9	838	1	1244.6	0.9	811	12	369752	3	369741	27	39	369779	-999999	369755	0	10	TrialsPROC	BP_010_BP3_BA.png	1	2	39	SessionSelectionList														nonlure	3	Body	0-Back	34	80	33	0	0	100	2	39	193517	2	14	59	191478	-1	192073	1	595	3	3	2039	53	193531	-54	0											3					39												
WM080112	138534_fnca	1	1	1	243952346	1	75.031	75.030	2.0.10.147	2.0.10.242	2.0.10.242	1.0.0.439	7	234	2	3	Verdana	1	80	0	0	0	WM Stimuli\	0.7	992.857142857143	0.9	981	0.7	1221.42857142857	1	808.6	0.8	882.5	0.9	838	1	1244.6	0.9	811	12	369752	3	369741	27	39	369779	-999999	369755	0	10	TrialsPROC	BP_008_BP21_BA.png	1	2	40	SessionSelectionList														nonlure	3	Body	0-Back	35	80	34	0	0	100	3	39	196076	2	14	59	194037	-1	195475	1	1438	3	3	2039	53	196090	-54	0											4					40												
WM080112	138534_fnca	1	1	1	243952346	1	75.031	75.030	2.0.10.147	2.0.10.242	2.0.10.242	1.0.0.439	7	234	2	3	Verdana	1	80	0	0	0	WM Stimuli\	0.7	992.857142857143	0.9	981	0.7	1221.42857142857	1	808.6	0.8	882.5	0.9	838	1	1244.6	0.9	811	12	369752	3	369741	27	39	369779	-999999	369755	0	10	TrialsPROC	BP_011_BP4_BA.png	1	2	41	SessionSelectionList														lure	3	Body	0-Back	36	80	35	0	0	100	4	40	198649	2	13	72	196609	-1	197618	1	1009	3	3	2040	53	198662	-54	0											5					41												
WM080112	138534_fnca	1	1	1	243952346	1	75.031	75.030	2.0.10.147	2.0.10.242	2.0.10.242	1.0.0.439	7	234	2	3	Verdana	1	80	0	0	0	WM Stimuli\	0.7	992.857142857143	0.9	981	0.7	1221.42857142857	1	808.6	0.8	882.5	0.9	838	1	1244.6	0.9	811	12	369752	3	369741	27	39	369779	-999999	369755	0	10	TrialsPROC	BP_009_BP22_BA.png	1	2	42	SessionSelectionList														nonlure	3	Body	0-Back	37	80	36	0	0	100	5	39	201207	3	14	59	199168	-1	199904	1	736	3	3	2039	53	201221	-54	0											6					42												
WM080112	138534_fnca	1	1	1	243952346	1	75.031	75.030	2.0.10.147	2.0.10.242	2.0.10.242	1.0.0.439	7	234	2	3	Verdana	1	80	0	0	0	WM Stimuli\	0.7	992.857142857143	0.9	981	0.7	1221.42857142857	1	808.6	0.8	882.5	0.9	838	1	1244.6	0.9	811	12	369752	3	369741	27	39	369779	-999999	369755	0	10	TrialsPROC	BP_009_BP22_BA.png	1	2	43	SessionSelectionList														lure	3	Body	0-Back	38	80	37	0	0	100	6	39	203766	2	14	59	201727	-1	202720	1	993	3	3	2039	53	203780	-54	0											7					43												
WM080112	138534_fnca	1	1	1	243952346	1	75.031	75.030	2.0.10.147	2.0.10.242	2.0.10.242	1.0.0.439	7	234	2	3	Verdana	1	80	0	0	0	WM Stimuli\	0.7	992.857142857143	0.9	981	0.7	1221.42857142857	1	808.6	0.8	882.5	0.9	838	1	1244.6	0.9	811	12	369752	3	369741	27	39	369779	-999999	369755	0	10	TrialsPROC	BP_008_BP21_BA.png	1	2	44	SessionSelectionList														lure	3	Body	0-Back	39	80	38	0	0	94	1	39	206325	3	14	59	204286	-1	205819	0	1533	2	3	2039	53	206339	-54	0											8					44												
WM080112	138534_fnca	1	1	1	243952346	1	75.031	75.030	2.0.10.147	2.0.10.242	2.0.10.242	1.0.0.439	7	234	2	3	Verdana	1	80	0	0	0	WM Stimuli\	0.7	992.857142857143	0.9	981	0.7	1221.42857142857	1	808.6	0.8	882.5	0.9	838	1	1244.6	0.9	811	12	369752	3	369741	27	39	369779	-999999	369755	0	10	TrialsPROC	BP_007_BP20_BA.png	1	2	45	SessionSelectionList														target	2	Body	0-Back	40	80	39	0	0	95	2	39	208884	2	14	59	206845	-1	207909	1	1064	2	2	2039	53	208898	-54	0											9					45												
WM080112	138534_fnca	1	1	1	243952346	1	75.031	75.030	2.0.10.147	2.0.10.242	2.0.10.242	1.0.0.439	7	234	2	3	Verdana	1	80	0	0	0	WM Stimuli\	0.7	992.857142857143	0.9	981	0.7	1221.42857142857	1	808.6	0.8	882.5	0.9	838	1	1244.6	0.9	811	12	369752	3	369741	27	39	369779	-999999	369755	0	10	TrialsPROC	BP_012_BP5_BA.png	1	2	46	SessionSelectionList														nonlure	3	Body	0-Back	41	80	40	0	0	95	1	40	211457	1	13	72	209417	-1	210098	1	681	3	3	2040	53	211470	-54	0											10					46												
WM080112	138534_fnca	1	1	1	243952346	1	75.031	75.030	2.0.10.147	2.0.10.242	2.0.10.242	1.0.0.439	7	234	2	3	Verdana	1	80	0	0	0	WM Stimuli\	0.7	992.857142857143	0.9	981	0.7	1221.42857142857	1	808.6	0.8	882.5	0.9	838	1	1244.6	0.9	811	12	369752	3	369741	27	39	369779	-999999	369755	0	11	Fix15secPROC	""	1	2	47	SessionSelectionList																																															7	211924	-8	0							47												
WM080112	138534_fnca	1	1	1	243952346	1	75.031	75.030	2.0.10.147	2.0.10.242	2.0.10.242	1.0.0.439	7	234	2	3	Verdana	1	80	0	0	0	WM Stimuli\	0.7	992.857142857143	0.9	981	0.7	1221.42857142857	1	808.6	0.8	882.5	0.9	838	1	1244.6	0.9	811	12	369752	3	369741	27	39	369779	-999999	369755	0	12	Cue0BackPROC	PL_001_92012.png	1	2	48	SessionSelectionList																																										13	226930	-14	0												48												
WM080112	138534_fnca	1	1	1	243952346	1	75.031	75.030	2.0.10.147	2.0.10.242	2.0.10.242	1.0.0.439	7	234	2	3	Verdana	1	80	0	0	0	WM Stimuli\	0.7	992.857142857143	0.9	981	0.7	1221.42857142857	1	808.6	0.8	882.5	0.9	838	1	1244.6	0.9	811	12	369752	3	369741	27	39	369779	-999999	369755	0	13	TrialsPROC	PL_003_92016.png	1	2	49	SessionSelectionList														nonlure	3	Place	0-Back	42	80	41	0	0	95	2	39	231515	2	14	59	229476	-1	230567	1	1091	3	3	2039	53	231529	-54	0												1				49												
WM080112	138534_fnca	1	1	1	243952346	1	75.031	75.030	2.0.10.147	2.0.10.242	2.0.10.242	1.0.0.439	7	234	2	3	Verdana	1	80	0	0	0	WM Stimuli\	0.7	992.857142857143	0.9	981	0.7	1221.42857142857	1	808.6	0.8	882.5	0.9	838	1	1244.6	0.9	811	12	369752	3	369741	27	39	369779	-999999	369755	0	13	TrialsPROC	PL_003_92016.png	1	2	50	SessionSelectionList														lure	3	Place	0-Back	43	80	42	0	0	95	3	39	234074	2	14	59	232035	-1	232894	1	859	3	3	2039	53	234088	-54	0												2				50												
WM080112	138534_fnca	1	1	1	243952346	1	75.031	75.030	2.0.10.147	2.0.10.242	2.0.10.242	1.0.0.439	7	234	2	3	Verdana	1	80	0	0	0	WM Stimuli\	0.7	992.857142857143	0.9	981	0.7	1221.42857142857	1	808.6	0.8	882.5	0.9	838	1	1244.6	0.9	811	12	369752	3	369741	27	39	369779	-999999	369755	0	13	TrialsPROC	PL_006_92025.png	1	2	51	SessionSelectionList														nonlure	3	Place	0-Back	44	80	43	0	0	91	1	39	236646	2	14	72	234607	-1	236281	0	1674	2	3	2039	53	236660	-54	0												3				51												
WM080112	138534_fnca	1	1	1	243952346	1	75.031	75.030	2.0.10.147	2.0.10.242	2.0.10.242	1.0.0.439	7	234	2	3	Verdana	1	80	0	0	0	WM Stimuli\	0.7	992.857142857143	0.9	981	0.7	1221.42857142857	1	808.6	0.8	882.5	0.9	838	1	1244.6	0.9	811	12	369752	3	369741	27	39	369779	-999999	369755	0	13	TrialsPROC	PL_001_92012.png	1	2	52	SessionSelectionList														target	2	Place	0-Back	45	80	44	0	0	92	2	39	239219	1	13	73	237180	-1	238125	1	945	2	2	2039	52	239232	-53	0												4				52												
WM080112	138534_fnca	1	1	1	243952346	1	75.031	75.030	2.0.10.147	2.0.10.242	2.0.10.242	1.0.0.439	7	234	2	3	Verdana	1	80	0	0	0	WM Stimuli\	0.7	992.857142857143	0.9	981	0.7	1221.42857142857	1	808.6	0.8	882.5	0.9	838	1	1244.6	0.9	811	12	369752	3	369741	27	39	369779	-999999	369755	0	13	TrialsPROC	PL_004_92023.png	1	2	53	SessionSelectionList														nonlure	3	Place	0-Back	46	80	45	0	0	92	1	39	241791	1	14	72	239752	-1	240434	1	682	3	3	2039	53	241805	-54	0												5				53												
WM080112	138534_fnca	1	1	1	243952346	1	75.031	75.030	2.0.10.147	2.0.10.242	2.0.10.242	1.0.0.439	7	234	2	3	Verdana	1	80	0	0	0	WM Stimuli\	0.7	992.857142857143	0.9	981	0.7	1221.42857142857	1	808.6	0.8	882.5	0.9	838	1	1244.6	0.9	811	12	369752	3	369741	27	39	369779	-999999	369755	0	13	TrialsPROC	PL_005_92024.png	1	2	54	SessionSelectionList														nonlure	3	Place	0-Back	47	80	46	0	0	92	2	39	244363	3	14	72	242324	-1	243214	1	890	3	3	2039	53	244377	-54	0												6				54												
WM080112	138534_fnca	1	1	1	243952346	1	75.031	75.030	2.0.10.147	2.0.10.242	2.0.10.242	1.0.0.439	7	234	2	3	Verdana	1	80	0	0	0	WM Stimuli\	0.7	992.857142857143	0.9	981	0.7	1221.42857142857	1	808.6	0.8	882.5	0.9	838	1	1244.6	0.9	811	12	369752	3	369741	27	39	369779	-999999	369755	0	13	TrialsPROC	PL_001_92012.png	1	2	55	SessionSelectionList														target	2	Place	0-Back	48	80	47	0	0	93	1	40	246936	2	13	72	244896	-1	245825	1	929	2	2	2040	53	246949	-54	0												7				55												
WM080112	138534_fnca	1	1	1	243952346	1	75.031	75.030	2.0.10.147	2.0.10.242	2.0.10.242	1.0.0.439	7	234	2	3	Verdana	1	80	0	0	0	WM Stimuli\	0.7	992.857142857143	0.9	981	0.7	1221.42857142857	1	808.6	0.8	882.5	0.9	838	1	1244.6	0.9	811	12	369752	3	369741	27	39	369779	-999999	369755	0	13	TrialsPROC	PL_002_92014.png	1	2	56	SessionSelectionList														nonlure	3	Place	0-Back	49	80	48	0	0	93	1	39	249508	2	14	73	247469	-1	248142	1	673	3	3	2039	53	249522	-54	0												8				56												
WM080112	138534_fnca	1	1	1	243952346	1	75.031	75.030	2.0.10.147	2.0.10.242	2.0.10.242	1.0.0.439	7	234	2	3	Verdana	1	80	0	0	0	WM Stimuli\	0.7	992.857142857143	0.9	981	0.7	1221.42857142857	1	808.6	0.8	882.5	0.9	838	1	1244.6	0.9	811	12	369752	3	369741	27	39	369779	-999999	369755	0	13	TrialsPROC	PL_004_92023.png	1	2	57	SessionSelectionList														lure	3	Place	0-Back	50	80	49	0	0	93	2	39	252080	3	14	72	250041	-1	250643	1	602	3	3	2039	53	252094	-54	0												9				57												
WM080112	138534_fnca	1	1	1	243952346	1	75.031	75.030	2.0.10.147	2.0.10.242	2.0.10.242	1.0.0.439	7	234	2	3	Verdana	1	80	0	0	0	WM Stimuli\	0.7	992.857142857143	0.9	981	0.7	1221.42857142857	1	808.6	0.8	882.5	0.9	838	1	1244.6	0.9	811	12	369752	3	369741	27	39	369779	-999999	369755	0	13	TrialsPROC	PL_006_92025.png	1	2	58	SessionSelectionList														lure	3	Place	0-Back	51	80	50	0	0	93	3	39	254639	3	14	59	252600	-1	253471	1	871	3	3	2039	53	254653	-54	0												10				58												
WM080112	138534_fnca	1	1	1	243952346	1	75.031	75.030	2.0.10.147	2.0.10.242	2.0.10.242	1.0.0.439	7	234	2	3	Verdana	1	80	0	0	0	WM Stimuli\	0.7	992.857142857143	0.9	981	0.7	1221.42857142857	1	808.6	0.8	882.5	0.9	838	1	1244.6	0.9	811	12	369752	3	369741	27	39	369779	-999999	369755	0	14	Cue2BackPROC	""	1	2	59	SessionSelectionList									6	255106	-7	0																																													59												
WM080112	138534_fnca	1	1	1	243952346	1	75.031	75.030	2.0.10.147	2.0.10.242	2.0.10.242	1.0.0.439	7	234	2	3	Verdana	1	80	0	0	0	WM Stimuli\	0.7	992.857142857143	0.9	981	0.7	1221.42857142857	1	808.6	0.8	882.5	0.9	838	1	1244.6	0.9	811	12	369752	3	369741	27	39	369779	-999999	369755	0	15	TrialsPROC	FC_010_F5.png	1	2	60	SessionSelectionList														nonlure	3	Face	2-Back	52	80	50	0	1	93	3	39	259704	2	13	65	257665	-1	0	0	0	""	3	2039	52	259717	-53	0													1			60												
WM080112	138534_fnca	1	1	1	243952346	1	75.031	75.030	2.0.10.147	2.0.10.242	2.0.10.242	1.0.0.439	7	234	2	3	Verdana	1	80	0	0	0	WM Stimuli\	0.7	992.857142857143	0.9	981	0.7	1221.42857142857	1	808.6	0.8	882.5	0.9	838	1	1244.6	0.9	811	12	369752	3	369741	27	39	369779	-999999	369755	0	15	TrialsPROC	FC_012_F6.png	1	2	61	SessionSelectionList														nonlure	3	Face	2-Back	53	80	50	0	2	93	3	39	262276	1	14	72	260237	-1	0	0	0	""	3	2039	53	262290	-54	0													2			61												
WM080112	138534_fnca	1	1	1	243952346	1	75.031	75.030	2.0.10.147	2.0.10.242	2.0.10.242	1.0.0.439	7	234	2	3	Verdana	1	80	0	0	0	WM Stimuli\	0.7	992.857142857143	0.9	981	0.7	1221.42857142857	1	808.6	0.8	882.5	0.9	838	1	1244.6	0.9	811	12	369752	3	369741	27	39	369779	-999999	369755	0	15	TrialsPROC	FC_010_F5.png	1	2	62	SessionSelectionList														target	2	Face	2-Back	54	80	51	0	0	93	1	39	264848	3	14	72	262809	-1	263964	1	1155	2	2	2039	53	264862	-54	0													3			62												
WM080112	138534_fnca	1	1	1	243952346	1	75.031	75.030	2.0.10.147	2.0.10.242	2.0.10.242	1.0.0.439	7	234	2	3	Verdana	1	80	0	0	0	WM Stimuli\	0.7	992.857142857143	0.9	981	0.7	1221.42857142857	1	808.6	0.8	882.5	0.9	838	1	1244.6	0.9	811	12	369752	3	369741	27	39	369779	-999999	369755	0	15	TrialsPROC	FC_008_F4.png	1	2	63	SessionSelectionList														nonlure	3	Face	2-Back	55	80	52	0	0	93	1	40	267421	2	13	72	265381	-1	266389	1	1008	3	3	2040	53	267434	-54	0													4			63												
WM080112	138534_fnca	1	1	1	243952346	1	75.031	75.030	2.0.10.147	2.0.10.242	2.0.10.242	1.0.0.439	7	234	2	3	Verdana	1	80	0	0	0	WM Stimuli\	0.7	992.857142857143	0.9	981	0.7	1221.42857142857	1	808.6	0.8	882.5	0.9	838	1	1244.6	0.9	811	12	369752	3	369741	27	39	369779	-999999	369755	0	15	TrialsPROC	FC_012_F6.png	1	2	64	SessionSelectionList														lure	3	Face	2-Back	56	80	53	0	0	93	1	39	269993	2	14	73	267954	-1	269296	0	1342	2	3	2039	53	270007	-54	0													5			64												
WM080112	138534_fnca	1	1	1	243952346	1	75.031	75.030	2.0.10.147	2.0.10.242	2.0.10.242	1.0.0.439	7	234	2	3	Verdana	1	80	0	0	0	WM Stimuli\	0.7	992.857142857143	0.9	981	0.7	1221.42857142857	1	808.6	0.8	882.5	0.9	838	1	1244.6	0.9	811	12	369752	3	369741	27	39	369779	-999999	369755	0	15	TrialsPROC	FC_008_F4.png	1	2	65	SessionSelectionList														target	2	Face	2-Back	57	80	54	0	0	93	2	39	272565	3	14	72	270526	-1	271764	1	1238	2	2	2039	53	272579	-54	0													6			65												
WM080112	138534_fnca	1	1	1	243952346	1	75.031	75.030	2.0.10.147	2.0.10.242	2.0.10.242	1.0.0.439	7	234	2	3	Verdana	1	80	0	0	0	WM Stimuli\	0.7	992.857142857143	0.9	981	0.7	1221.42857142857	1	808.6	0.8	882.5	0.9	838	1	1244.6	0.9	811	12	369752	3	369741	27	39	369779	-999999	369755	0	15	TrialsPROC	FC_007_M4.png	1	2	66	SessionSelectionList														nonlure	3	Face	2-Back	58	80	55	0	0	93	1	39	275137	3	14	72	273098	-1	274267	1	1169	3	3	2039	53	275151	-54	0													7			66												
WM080112	138534_fnca	1	1	1	243952346	1	75.031	75.030	2.0.10.147	2.0.10.242	2.0.10.242	1.0.0.439	7	234	2	3	Verdana	1	80	0	0	0	WM Stimuli\	0.7	992.857142857143	0.9	981	0.7	1221.42857142857	1	808.6	0.8	882.5	0.9	838	1	1244.6	0.9	811	12	369752	3	369741	27	39	369779	-999999	369755	0	15	TrialsPROC	FC_007_M4.png	1	2	67	SessionSelectionList														lure	3	Face	2-Back	59	80	56	0	0	93	2	39	277710	1	13	73	275671	-1	277086	1	1415	3	3	2039	52	277723	-53	0													8			67												
WM080112	138534_fnca	1	1	1	243952346	1	75.031	75.030	2.0.10.147	2.0.10.242	2.0.10.242	1.0.0.439	7	234	2	3	Verdana	1	80	0	0	0	WM Stimuli\	0.7	992.857142857143	0.9	981	0.7	1221.42857142857	1	808.6	0.8	882.5	0.9	838	1	1244.6	0.9	811	12	369752	3	369741	27	39	369779	-999999	369755	0	15	TrialsPROC	FC_009_M5.png	1	2	68	SessionSelectionList														nonlure	3	Face	2-Back	60	80	57	0	0	93	3	39	280282	1	14	72	278243	-1	279659	1	1416	3	3	2039	53	280296	-54	0													9			68												
WM080112	138534_fnca	1	1	1	243952346	1	75.031	75.030	2.0.10.147	2.0.10.242	2.0.10.242	1.0.0.439	7	234	2	3	Verdana	1	80	0	0	0	WM Stimuli\	0.7	992.857142857143	0.9	981	0.7	1221.42857142857	1	808.6	0.8	882.5	0.9	838	1	1244.6	0.9	811	12	369752	3	369741	27	39	369779	-999999	369755	0	15	TrialsPROC	FC_011_M6.png	1	2	69	SessionSelectionList														nonlure	3	Face	2-Back	61	80	58	0	0	93	4	39	282854	3	14	72	280815	-1	281964	1	1149	3	3	2039	53	282868	-54	0													10			69												
WM080112	138534_fnca	1	1	1	243952346	1	75.031	75.030	2.0.10.147	2.0.10.242	2.0.10.242	1.0.0.439	7	234	2	3	Verdana	1	80	0	0	0	WM Stimuli\	0.7	992.857142857143	0.9	981	0.7	1221.42857142857	1	808.6	0.8	882.5	0.9	838	1	1244.6	0.9	811	12	369752	3	369741	27	39	369779	-999999	369755	0	16	Fix15secPROC	""	1	2	70	SessionSelectionList																																															6	283321	-7	0							70												
WM080112	138534_fnca	1	1	1	243952346	1	75.031	75.030	2.0.10.147	2.0.10.242	2.0.10.242	1.0.0.439	7	234	2	3	Verdana	1	80	0	0	0	WM Stimuli\	0.7	992.857142857143	0.9	981	0.7	1221.42857142857	1	808.6	0.8	882.5	0.9	838	1	1244.6	0.9	811	12	369752	3	369741	27	39	369779	-999999	369755	0	17	Cue0BackPROC	TO_007_TOOL7_BA.png	1	2	71	SessionSelectionList																																										13	298328	-14	0												71												
WM080112	138534_fnca	1	1	1	243952346	1	75.031	75.030	2.0.10.147	2.0.10.242	2.0.10.242	1.0.0.439	7	234	2	3	Verdana	1	80	0	0	0	WM Stimuli\	0.7	992.857142857143	0.9	981	0.7	1221.42857142857	1	808.6	0.8	882.5	0.9	838	1	1244.6	0.9	811	12	369752	3	369741	27	39	369779	-999999	369755	0	18	TrialsPROC	TO_010_TOOL10_BA.png	1	2	72	SessionSelectionList														nonlure	3	Tools	0-Back	62	80	59	0	0	94	5	39	302913	1	14	59	300874	-1	302347	1	1473	3	3	2039	53	302927	-54	0														1		72												
WM080112	138534_fnca	1	1	1	243952346	1	75.031	75.030	2.0.10.147	2.0.10.242	2.0.10.242	1.0.0.439	7	234	2	3	Verdana	1	80	0	0	0	WM Stimuli\	0.7	992.857142857143	0.9	981	0.7	1221.42857142857	1	808.6	0.8	882.5	0.9	838	1	1244.6	0.9	811	12	369752	3	369741	27	39	369779	-999999	369755	0	18	TrialsPROC	TO_009_TOOL9_BA.png	1	2	73	SessionSelectionList														nonlure	3	Tools	0-Back	63	80	60	0	0	94	6	40	305499	1	13	85	303459	-1	304316	1	857	3	3	2040	53	305512	-54	0														2		73												
WM080112	138534_fnca	1	1	1	243952346	1	75.031	75.030	2.0.10.147	2.0.10.242	2.0.10.242	1.0.0.439	7	234	2	3	Verdana	1	80	0	0	0	WM Stimuli\	0.7	992.857142857143	0.9	981	0.7	1221.42857142857	1	808.6	0.8	882.5	0.9	838	1	1244.6	0.9	811	12	369752	3	369741	27	39	369779	-999999	369755	0	18	TrialsPROC	TO_009_TOOL9_BA.png	1	2	74	SessionSelectionList														lure	3	Tools	0-Back	64	80	61	0	0	94	7	39	308057	2	14	59	306018	-1	307051	1	1033	3	3	2039	53	308071	-54	0														3		74												
WM080112	138534_fnca	1	1	1	243952346	1	75.031	75.030	2.0.10.147	2.0.10.242	2.0.10.242	1.0.0.439	7	234	2	3	Verdana	1	80	0	0	0	WM Stimuli\	0.7	992.857142857143	0.9	981	0.7	1221.42857142857	1	808.6	0.8	882.5	0.9	838	1	1244.6	0.9	811	12	369752	3	369741	27	39	369779	-999999	369755	0	18	TrialsPROC	TO_008_TOOL8_BA.png	1	2	75	SessionSelectionList														nonlure	3	Tools	0-Back	65	80	62	0	0	94	8	39	310643	2	14	86	308604	-1	309284	1	680	3	3	2039	53	310657	-54	0														4		75												
WM080112	138534_fnca	1	1	1	243952346	1	75.031	75.030	2.0.10.147	2.0.10.242	2.0.10.242	1.0.0.439	7	234	2	3	Verdana	1	80	0	0	0	WM Stimuli\	0.7	992.857142857143	0.9	981	0.7	1221.42857142857	1	808.6	0.8	882.5	0.9	838	1	1244.6	0.9	811	12	369752	3	369741	27	39	369779	-999999	369755	0	18	TrialsPROC	TO_011_TOOL11_BA.png	1	2	76	SessionSelectionList														nonlure	3	Tools	0-Back	66	80	63	0	0	94	9	39	313229	1	13	86	311190	-1	311814	1	624	3	3	2039	52	313242	-53	0														5		76												
WM080112	138534_fnca	1	1	1	243952346	1	75.031	75.030	2.0.10.147	2.0.10.242	2.0.10.242	1.0.0.439	7	234	2	3	Verdana	1	80	0	0	0	WM Stimuli\	0.7	992.857142857143	0.9	981	0.7	1221.42857142857	1	808.6	0.8	882.5	0.9	838	1	1244.6	0.9	811	12	369752	3	369741	27	39	369779	-999999	369755	0	18	TrialsPROC	TO_012_TOOL12_BA.png	1	2	77	SessionSelectionList														nonlure	3	Tools	0-Back	67	80	64	0	0	94	10	40	315828	1	13	98	313788	-1	314432	1	644	3	3	2040	53	315841	-54	0														6		77												
WM080112	138534_fnca	1	1	1	243952346	1	75.031	75.030	2.0.10.147	2.0.10.242	2.0.10.242	1.0.0.439	7	234	2	3	Verdana	1	80	0	0	0	WM Stimuli\	0.7	992.857142857143	0.9	981	0.7	1221.42857142857	1	808.6	0.8	882.5	0.9	838	1	1244.6	0.9	811	12	369752	3	369741	27	39	369779	-999999	369755	0	18	TrialsPROC	TO_010_TOOL10_BA.png	1	2	78	SessionSelectionList														lure	3	Tools	0-Back	68	80	65	0	0	92	1	40	318387	1	13	59	316347	-1	317258	0	911	2	3	2040	53	318400	-54	0														7		78												
WM080112	138534_fnca	1	1	1	243952346	1	75.031	75.030	2.0.10.147	2.0.10.242	2.0.10.242	1.0.0.439	7	234	2	3	Verdana	1	80	0	0	0	WM Stimuli\	0.7	992.857142857143	0.9	981	0.7	1221.42857142857	1	808.6	0.8	882.5	0.9	838	1	1244.6	0.9	811	12	369752	3	369741	27	39	369779	-999999	369755	0	18	TrialsPROC	TO_007_TOOL7_BA.png	1	2	79	SessionSelectionList														target	2	Tools	0-Back	69	80	66	0	0	92	2	40	320946	1	13	59	318906	-1	319476	1	570	2	2	2040	53	320959	-54	0														8		79												
WM080112	138534_fnca	1	1	1	243952346	1	75.031	75.030	2.0.10.147	2.0.10.242	2.0.10.242	1.0.0.439	7	234	2	3	Verdana	1	80	0	0	0	WM Stimuli\	0.7	992.857142857143	0.9	981	0.7	1221.42857142857	1	808.6	0.8	882.5	0.9	838	1	1244.6	0.9	811	12	369752	3	369741	27	39	369779	-999999	369755	0	18	TrialsPROC	TO_008_TOOL8_BA.png	1	2	80	SessionSelectionList														lure	3	Tools	0-Back	70	80	67	0	0	92	1	40	323505	1	13	59	321465	-1	322288	1	823	3	3	2040	53	323518	-54	0														9		80												
WM080112	138534_fnca	1	1	1	243952346	1	75.031	75.030	2.0.10.147	2.0.10.242	2.0.10.242	1.0.0.439	7	234	2	3	Verdana	1	80	0	0	0	WM Stimuli\	0.7	992.857142857143	0.9	981	0.7	1221.42857142857	1	808.6	0.8	882.5	0.9	838	1	1244.6	0.9	811	12	369752	3	369741	27	39	369779	-999999	369755	0	18	TrialsPROC	TO_007_TOOL7_BA.png	1	2	81	SessionSelectionList														target	2	Tools	0-Back	71	80	68	0	0	92	1	39	326063	3	14	59	324024	-1	324619	1	595	2	2	2039	53	326077	-54	0														10		81												
WM080112	138534_fnca	1	1	1	243952346	1	75.031	75.030	2.0.10.147	2.0.10.242	2.0.10.242	1.0.0.439	7	234	2	3	Verdana	1	80	0	0	0	WM Stimuli\	0.7	992.857142857143	0.9	981	0.7	1221.42857142857	1	808.6	0.8	882.5	0.9	838	1	1244.6	0.9	811	12	369752	3	369741	27	39	369779	-999999	369755	0	19	Cue2BackPROC	""	1	2	82	SessionSelectionList									6	326530	-7	0																																													82												
WM080112	138534_fnca	1	1	1	243952346	1	75.031	75.030	2.0.10.147	2.0.10.242	2.0.10.242	1.0.0.439	7	234	2	3	Verdana	1	80	0	0	0	WM Stimuli\	0.7	992.857142857143	0.9	981	0.7	1221.42857142857	1	808.6	0.8	882.5	0.9	838	1	1244.6	0.9	811	12	369752	3	369741	27	39	369779	-999999	369755	0	20	TrialsPROC	PL_007_92026.png	1	2	83	SessionSelectionList														nonlure	3	Place	2-Back	72	80	68	0	1	92	1	39	331141	3	14	78	329102	-1	0	0	0	""	3	2039	53	331155	-54	0															1	83												
WM080112	138534_fnca	1	1	1	243952346	1	75.031	75.030	2.0.10.147	2.0.10.242	2.0.10.242	1.0.0.439	7	234	2	3	Verdana	1	80	0	0	0	WM Stimuli\	0.7	992.857142857143	0.9	981	0.7	1221.42857142857	1	808.6	0.8	882.5	0.9	838	1	1244.6	0.9	811	12	369752	3	369741	27	39	369779	-999999	369755	0	20	TrialsPROC	PL_007_92026.png	1	2	84	SessionSelectionList														lure	3	Place	2-Back	73	80	69	0	0	92	1	39	333714	1	13	73	331675	-1	332409	1	734	3	3	2039	52	333727	-53	0															2	84												
WM080112	138534_fnca	1	1	1	243952346	1	75.031	75.030	2.0.10.147	2.0.10.242	2.0.10.242	1.0.0.439	7	234	2	3	Verdana	1	80	0	0	0	WM Stimuli\	0.7	992.857142857143	0.9	981	0.7	1221.42857142857	1	808.6	0.8	882.5	0.9	838	1	1244.6	0.9	811	12	369752	3	369741	27	39	369779	-999999	369755	0	20	TrialsPROC	PL_010_92038.png	1	2	85	SessionSelectionList														nonlure	3	Place	2-Back	74	80	70	0	0	92	2	39	336286	3	14	72	334247	-1	335308	1	1061	3	3	2039	53	336300	-54	0															3	85												
WM080112	138534_fnca	1	1	1	243952346	1	75.031	75.030	2.0.10.147	2.0.10.242	2.0.10.242	1.0.0.439	7	234	2	3	Verdana	1	80	0	0	0	WM Stimuli\	0.7	992.857142857143	0.9	981	0.7	1221.42857142857	1	808.6	0.8	882.5	0.9	838	1	1244.6	0.9	811	12	369752	3	369741	27	39	369779	-999999	369755	0	20	TrialsPROC	PL_009_92037.png	1	2	86	SessionSelectionList														nonlure	3	Place	2-Back	75	80	71	0	0	92	3	39	338858	3	14	72	336819	-1	337720	1	901	3	3	2039	53	338872	-54	0															4	86												
WM080112	138534_fnca	1	1	1	243952346	1	75.031	75.030	2.0.10.147	2.0.10.242	2.0.10.242	1.0.0.439	7	234	2	3	Verdana	1	80	0	0	0	WM Stimuli\	0.7	992.857142857143	0.9	981	0.7	1221.42857142857	1	808.6	0.8	882.5	0.9	838	1	1244.6	0.9	811	12	369752	3	369741	27	39	369779	-999999	369755	0	20	TrialsPROC	PL_010_92038.png	1	2	87	SessionSelectionList														target	2	Place	2-Back	76	80	72	0	0	92	1	40	341431	2	13	72	339391	-1	340114	1	723	2	2	2040	53	341444	-54	0															5	87												
WM080112	138534_fnca	1	1	1	243952346	1	75.031	75.030	2.0.10.147	2.0.10.242	2.0.10.242	1.0.0.439	7	234	2	3	Verdana	1	80	0	0	0	WM Stimuli\	0.7	992.857142857143	0.9	981	0.7	1221.42857142857	1	808.6	0.8	882.5	0.9	838	1	1244.6	0.9	811	12	369752	3	369741	27	39	369779	-999999	369755	0	20	TrialsPROC	PL_009_92037.png	1	2	88	SessionSelectionList														target	2	Place	2-Back	77	80	73	0	0	92	1	39	344003	2	14	73	341964	-1	343108	0	1144	3	2	2039	53	344017	-54	0															6	88												
WM080112	138534_fnca	1	1	1	243952346	1	75.031	75.030	2.0.10.147	2.0.10.242	2.0.10.242	1.0.0.439	7	234	2	3	Verdana	1	80	0	0	0	WM Stimuli\	0.7	992.857142857143	0.9	981	0.7	1221.42857142857	1	808.6	0.8	882.5	0.9	838	1	1244.6	0.9	811	12	369752	3	369741	27	39	369779	-999999	369755	0	20	TrialsPROC	PL_008_92033.png	1	2	89	SessionSelectionList														nonlure	3	Place	2-Back	78	80	74	0	0	92	2	39	346562	1	14	59	344523	-1	345668	1	1145	3	3	2039	53	346576	-54	0															7	89												
WM080112	138534_fnca	1	1	1	243952346	1	75.031	75.030	2.0.10.147	2.0.10.242	2.0.10.242	1.0.0.439	7	234	2	3	Verdana	1	80	0	0	0	WM Stimuli\	0.7	992.857142857143	0.9	981	0.7	1221.42857142857	1	808.6	0.8	882.5	0.9	838	1	1244.6	0.9	811	12	369752	3	369741	27	39	369779	-999999	369755	0	20	TrialsPROC	PL_012_92047.png	1	2	90	SessionSelectionList														nonlure	3	Place	2-Back	79	80	75	0	0	92	3	39	349134	2	14	72	347095	-1	347884	1	789	3	3	2039	53	349148	-54	0															8	90												
WM080112	138534_fnca	1	1	1	243952346	1	75.031	75.030	2.0.10.147	2.0.10.242	2.0.10.242	1.0.0.439	7	234	2	3	Verdana	1	80	0	0	0	WM Stimuli\	0.7	992.857142857143	0.9	981	0.7	1221.42857142857	1	808.6	0.8	882.5	0.9	838	1	1244.6	0.9	811	12	369752	3	369741	27	39	369779	-999999	369755	0	20	TrialsPROC	PL_012_92047.png	1	2	91	SessionSelectionList														lure	3	Place	2-Back	80	80	76	0	0	92	4	39	351706	3	14	72	349667	-1	350657	1	990	3	3	2039	53	351720	-54	0															9	91												
WM080112	138534_fnca	1	1	1	243952346	1	75.031	75.030	2.0.10.147	2.0.10.242	2.0.10.242	1.0.0.439	7	234	2	3	Verdana	1	80	0	0	0	WM Stimuli\	0.7	992.857142857143	0.9	981	0.7	1221.42857142857	1	808.6	0.8	882.5	0.9	838	1	1244.6	0.9	811	12	369752	3	369741	27	39	369779	-999999	369755	0	20	TrialsPROC	PL_011_92044.png	1	2	92	SessionSelectionList														nonlure	3	Place	2-Back	80	80	77	0	0	92	5	39	354279	2	13	73	352240	-1	352957	1	717	3	3	2039	52	354292	-53	0															10	92												
WM080112	138534_fnca	1	1	1	243952346	1	75.031	75.030	2.0.10.147	2.0.10.242	2.0.10.242	1.0.0.439	7	234	2	3	Verdana	1	80	0	0	0	WM Stimuli\	0.7	992.857142857143	0.9	981	0.7	1221.42857142857	1	808.6	0.8	882.5	0.9	838	1	1244.6	0.9	811	12	369752	3	369741	27	39	369779	-999999	369755	0	21	Fix15secPROC	""	1	2	93	SessionSelectionList																																															6	354746	-7	0							93												
