ExperimentName	HCPID	RunNumber	Subject	Session	RandomSeed	Group	Laptop.RefreshRate	ScannerD2.RefreshRate	StudioVersion	RuntimeVersion	RuntimeVersionExpected	ExperimentVersion	triggercode	Allowed	Target	Nontarget	FontStyle	RunTrialNumber[Session]	TrialsPerRun[Session]	TotalRespGreater200[Session]	ConsecRTLess200[Session]	ConsecNonResp[Session]	StimuliDir	ACC_2_Back_Body	Avg_RT_For_Correct_Trials_2_Back_Body	ACC_0_Back_Body	Avg_RT_For_Correct_Trials_0_Back_Body	ACC_2_Back_Face	Avg_RT_For_Correct_Trials_2_Back_Face	ACC_0_Back_Face	Avg_RT_For_Correct_Trials_0_Back_Face	ACC_2_Back_Place	Avg_RT_For_Correct_Trials_2_Back_Place	ACC_0_Back_Place	Avg_RT_For_Correct_Trials_0_Back_Place	ACC_2_Back_Tools	Avg_RT_For_Correct_Trials_2_Back_Tools	ACC_0_Back_Tools	Avg_RT_For_Correct_Trials_0_Back_Tools	ExpInstrucFeelFreeToRest.OnsetDelay	ExpInstrucFeelFreeToRest.OnsetTime	ExpInstrucFeelFreeToRest.DurationError	ExpInstrucFeelFreeToRest.StartTime	ExpInstrucFeelFreeToRest.OnsetToOnsetTime	FeelFreeToRest.OnsetDelay	FeelFreeToRest.OnsetTime	FeelFreeToRest.DurationError	FeelFreeToRest.StartTime	FeelFreeToRest.OnsetToOnsetTime	SessionSelectionList	Procedure[Block]	Stimulus[Block]	RunNumberFilterValue	SessionSelectionList.Cycle	SessionSelectionList.Sample	Running[Block]	IntroButtonMap.OnsetDelay	IntroButtonMap.OnsetTime	IntroButtonMap.DurationError	IntroButtonMap.OnsetToOnsetTime	GetReady.OnsetDelay	GetReady.OnsetTime	GetReady.DurationError	GetReady.OnsetToOnsetTime	Cue2Back.OnsetDelay	Cue2Back.OnsetTime	Cue2Back.DurationError	Cue2Back.OnsetToOnsetTime	Run1Block1	TargetType	CorrectResponse	StimType	BlockType	RunTrialNumber[Block]	TrialsPerRun[Block]	TotalRespGreater200[Block]	ConsecRTLess200[Block]	ConsecNonResp[Block]	ControlAcc	ConsecSameResp	ExperimenterWindow.OnsetDelay	ExperimenterWindow.OnsetTime	ExperimenterWindow.DurationError	ExperimenterWindow.OnsetToOnsetTime	Stim.OnsetDelay	Stim.OnsetTime	Stim.DurationError	Stim.RTTime	Stim.ACC	Stim.RT	Stim.RESP	Stim.CRESP	Stim.OnsetToOnsetTime	Fix.OnsetDelay	Fix.OnsetTime	Fix.DurationError	Fix.OnsetToOnsetTime	CueTarget.OnsetDelay	CueTarget.OnsetTime	CueTarget.DurationError	CueTarget.OnsetToOnsetTime	Run1Block2	Fix15sec.OnsetDelay	Fix15sec.OnsetTime	Fix15sec.DurationError	Fix15sec.OnsetToOnsetTime	Run1Block3	Run1Block4	Run1Block5	Run1Block6	Run1Block7	Run1Block8	Block	Procedure[Trial]	Stimulus[Trial]	ReadyList	Running[Trial]	ReadyList.Cycle	ReadyList.Sample	SyncSlide.OnsetDelay	SyncSlide.OnsetTime	SyncSlide.DurationError	SyncSlide.FinishTime	SyncSlide.OnsetToOnsetTime	Trial
WM080112	124422_fnca	2	1	1	16310130	1	75.032	75.031	2.0.10.147	2.0.10.242	2.0.10.242	1.0.0.439	7	234	2	3	Verdana	1	80	0	0	0	WM Stimuli\	0.7	1204.57142857143	1	693.7	0.7	1121	1	663.4	0.7	970.857142857143	1	610.9	0.8	685.25	0.9	821.666666666667	13	337627	2	337615	27	40	337654	-999999	337630	0	22	TRSyncPROC	""	2	2	1	SessionSelectionList	105	17412	-999999	0	27	26848	-999999	0																																																	1	InitialTR	4	1	ReadyList	1	1	8	44121	-9	46112	0	1
WM080112	124422_fnca	2	1	1	16310130	1	75.032	75.031	2.0.10.147	2.0.10.242	2.0.10.242	1.0.0.439	7	234	2	3	Verdana	1	80	0	0	0	WM Stimuli\	0.7	1204.57142857143	1	693.7	0.7	1121	1	663.4	0.7	970.857142857143	1	610.9	0.8	685.25	0.9	821.666666666667	13	337627	2	337615	27	40	337654	-999999	337630	0	22	TRSyncPROC	""	2	2	1	SessionSelectionList	105	17412	-999999	0	27	26848	-999999	0																																																	1	InitialTR	3	2	ReadyList	1	2	21	46134	-22	48112	0	2
WM080112	124422_fnca	2	1	1	16310130	1	75.032	75.031	2.0.10.147	2.0.10.242	2.0.10.242	1.0.0.439	7	234	2	3	Verdana	1	80	0	0	0	WM Stimuli\	0.7	1204.57142857143	1	693.7	0.7	1121	1	663.4	0.7	970.857142857143	1	610.9	0.8	685.25	0.9	821.666666666667	13	337627	2	337615	27	40	337654	-999999	337630	0	22	TRSyncPROC	""	2	2	1	SessionSelectionList	105	17412	-999999	0	27	26848	-999999	0																																																	1	InitialTR	2	3	ReadyList	1	3	6	48119	-7	50112	0	3
WM080112	124422_fnca	2	1	1	16310130	1	75.032	75.031	2.0.10.147	2.0.10.242	2.0.10.242	1.0.0.439	7	234	2	3	Verdana	1	80	0	0	0	WM Stimuli\	0.7	1204.57142857143	1	693.7	0.7	1121	1	663.4	0.7	970.857142857143	1	610.9	0.8	685.25	0.9	821.666666666667	13	337627	2	337615	27	40	337654	-999999	337630	0	22	TRSyncPROC	""	2	2	1	SessionSelectionList	105	17412	-999999	0	27	26848	-999999	0																																																	1	InitialTR	1	4	ReadyList	1	4	6	50119	-7	52112	0	4
WM080112	124422_fnca	2	1	1	16310130	1	75.032	75.031	2.0.10.147	2.0.10.242	2.0.10.242	1.0.0.439	7	234	2	3	Verdana	1	80	0	0	0	WM Stimuli\	0.7	1204.57142857143	1	693.7	0.7	1121	1	663.4	0.7	970.857142857143	1	610.9	0.8	685.25	0.9	821.666666666667	13	337627	2	337615	27	40	337654	-999999	337630	0	23	Cue2BackPROC	""	2	2	2	SessionSelectionList									5	52118	-6	0																																													2												
WM080112	124422_fnca	2	1	1	16310130	1	75.032	75.031	2.0.10.147	2.0.10.242	2.0.10.242	1.0.0.439	7	234	2	3	Verdana	1	80	0	0	0	WM Stimuli\	0.7	1204.57142857143	1	693.7	0.7	1121	1	663.4	0.7	970.857142857143	1	610.9	0.8	685.25	0.9	821.666666666667	13	337627	2	337615	27	40	337654	-999999	337630	0	24	TrialsPROC	TO_014_TOOL14_BA.png	2	2	3	SessionSelectionList														nonlure	3	Tools	2-Back	2	80	1	0	0	0	1	53	56743	2	13	77	54690	-1	55550	1	860	3	3	2053	66	56756	-67	0																3												
WM080112	124422_fnca	2	1	1	16310130	1	75.032	75.031	2.0.10.147	2.0.10.242	2.0.10.242	1.0.0.439	7	234	2	3	Verdana	1	80	0	0	0	WM Stimuli\	0.7	1204.57142857143	1	693.7	0.7	1121	1	663.4	0.7	970.857142857143	1	610.9	0.8	685.25	0.9	821.666666666667	13	337627	2	337615	27	40	337654	-999999	337630	0	24	TrialsPROC	TO_013_TOOL13_BA.png	2	2	4	SessionSelectionList														nonlure	3	Tools	2-Back	3	80	2	0	0	0	2	39	59288	3	14	59	57249	-1	57699	1	450	3	3	2039	53	59302	-54	0																4												
WM080112	124422_fnca	2	1	1	16310130	1	75.032	75.031	2.0.10.147	2.0.10.242	2.0.10.242	1.0.0.439	7	234	2	3	Verdana	1	80	0	0	0	WM Stimuli\	0.7	1204.57142857143	1	693.7	0.7	1121	1	663.4	0.7	970.857142857143	1	610.9	0.8	685.25	0.9	821.666666666667	13	337627	2	337615	27	40	337654	-999999	337630	0	24	TrialsPROC	TO_016_TOOL16_BA.png	2	2	5	SessionSelectionList														nonlure	3	Tools	2-Back	4	80	3	0	0	0	3	39	61847	3	14	59	59808	-1	60419	1	611	3	3	2039	53	61861	-54	0																5												
WM080112	124422_fnca	2	1	1	16310130	1	75.032	75.031	2.0.10.147	2.0.10.242	2.0.10.242	1.0.0.439	7	234	2	3	Verdana	1	80	0	0	0	WM Stimuli\	0.7	1204.57142857143	1	693.7	0.7	1121	1	663.4	0.7	970.857142857143	1	610.9	0.8	685.25	0.9	821.666666666667	13	337627	2	337615	27	40	337654	-999999	337630	0	24	TrialsPROC	TO_014_TOOL14_BA.png	2	2	6	SessionSelectionList														lure	3	Tools	2-Back	5	80	4	0	0	0	1	39	64419	2	14	72	62380	-1	63267	0	887	2	3	2039	53	64433	-54	0																6												
WM080112	124422_fnca	2	1	1	16310130	1	75.032	75.031	2.0.10.147	2.0.10.242	2.0.10.242	1.0.0.439	7	234	2	3	Verdana	1	80	0	0	0	WM Stimuli\	0.7	1204.57142857143	1	693.7	0.7	1121	1	663.4	0.7	970.857142857143	1	610.9	0.8	685.25	0.9	821.666666666667	13	337627	2	337615	27	40	337654	-999999	337630	0	24	TrialsPROC	TO_016_TOOL16_BA.png	2	2	7	SessionSelectionList														target	2	Tools	2-Back	6	80	5	0	0	0	1	39	66978	2	14	59	64939	-1	65531	0	592	3	2	2039	53	66992	-54	0																7												
WM080112	124422_fnca	2	1	1	16310130	1	75.032	75.031	2.0.10.147	2.0.10.242	2.0.10.242	1.0.0.439	7	234	2	3	Verdana	1	80	0	0	0	WM Stimuli\	0.7	1204.57142857143	1	693.7	0.7	1121	1	663.4	0.7	970.857142857143	1	610.9	0.8	685.25	0.9	821.666666666667	13	337627	2	337615	27	40	337654	-999999	337630	0	24	TrialsPROC	TO_018_TOOL18_BA.png	2	2	8	SessionSelectionList														nonlure	3	Tools	2-Back	7	80	6	0	0	0	2	39	69537	2	14	59	67498	-1	68098	1	600	3	3	2039	53	69551	-54	0																8												
WM080112	124422_fnca	2	1	1	16310130	1	75.032	75.031	2.0.10.147	2.0.10.242	2.0.10.242	1.0.0.439	7	234	2	3	Verdana	1	80	0	0	0	WM Stimuli\	0.7	1204.57142857143	1	693.7	0.7	1121	1	663.4	0.7	970.857142857143	1	610.9	0.8	685.25	0.9	821.666666666667	13	337627	2	337615	27	40	337654	-999999	337630	0	24	TrialsPROC	TO_017_TOOL17_BA.png	2	2	9	SessionSelectionList														nonlure	3	Tools	2-Back	8	80	7	0	0	0	3	39	72096	2	14	59	70057	-1	70991	1	934	3	3	2039	53	72110	-54	0																9												
WM080112	124422_fnca	2	1	1	16310130	1	75.032	75.031	2.0.10.147	2.0.10.242	2.0.10.242	1.0.0.439	7	234	2	3	Verdana	1	80	0	0	0	WM Stimuli\	0.7	1204.57142857143	1	693.7	0.7	1121	1	663.4	0.7	970.857142857143	1	610.9	0.8	685.25	0.9	821.666666666667	13	337627	2	337615	27	40	337654	-999999	337630	0	24	TrialsPROC	TO_018_TOOL18_BA.png	2	2	10	SessionSelectionList														target	2	Tools	2-Back	9	80	8	0	0	0	1	39	74655	2	14	59	72616	-1	73508	1	892	2	2	2039	53	74669	-54	0																10												
WM080112	124422_fnca	2	1	1	16310130	1	75.032	75.031	2.0.10.147	2.0.10.242	2.0.10.242	1.0.0.439	7	234	2	3	Verdana	1	80	0	0	0	WM Stimuli\	0.7	1204.57142857143	1	693.7	0.7	1121	1	663.4	0.7	970.857142857143	1	610.9	0.8	685.25	0.9	821.666666666667	13	337627	2	337615	27	40	337654	-999999	337630	0	24	TrialsPROC	TO_015_TOOL15_BA.png	2	2	11	SessionSelectionList														nonlure	3	Tools	2-Back	10	80	9	0	0	0	1	39	77214	2	14	59	75175	-1	75770	1	595	3	3	2039	53	77228	-54	0																11												
WM080112	124422_fnca	2	1	1	16310130	1	75.032	75.031	2.0.10.147	2.0.10.242	2.0.10.242	1.0.0.439	7	234	2	3	Verdana	1	80	0	0	0	WM Stimuli\	0.7	1204.57142857143	1	693.7	0.7	1121	1	663.4	0.7	970.857142857143	1	610.9	0.8	685.25	0.9	821.666666666667	13	337627	2	337615	27	40	337654	-999999	337630	0	24	TrialsPROC	TO_017_TOOL17_BA.png	2	2	12	SessionSelectionList														lure	3	Tools	2-Back	11	80	10	0	0	0	2	39	79773	2	14	59	77734	-1	78274	1	540	3	3	2039	53	79787	-54	0																12												
WM080112	124422_fnca	2	1	1	16310130	1	75.032	75.031	2.0.10.147	2.0.10.242	2.0.10.242	1.0.0.439	7	234	2	3	Verdana	1	80	0	0	0	WM Stimuli\	0.7	1204.57142857143	1	693.7	0.7	1121	1	663.4	0.7	970.857142857143	1	610.9	0.8	685.25	0.9	821.666666666667	13	337627	2	337615	27	40	337654	-999999	337630	0	25	Cue0BackPROC	BP_013_BP7_BA.png	2	2	13	SessionSelectionList																																										19	80253	-20	0												13												
WM080112	124422_fnca	2	1	1	16310130	1	75.032	75.031	2.0.10.147	2.0.10.242	2.0.10.242	1.0.0.439	7	234	2	3	Verdana	1	80	0	0	0	WM Stimuli\	0.7	1204.57142857143	1	693.7	0.7	1121	1	663.4	0.7	970.857142857143	1	610.9	0.8	685.25	0.9	821.666666666667	13	337627	2	337615	27	40	337654	-999999	337630	0	26	TrialsPROC	BP_015_H10-T_BA.png	2	2	14	SessionSelectionList														nonlure	3	Body	0-Back	12	80	11	0	0	100	3	39	84838	1	13	65	82799	-1	83858	1	1059	3	3	2039	52	84851	-53	0																14												
WM080112	124422_fnca	2	1	1	16310130	1	75.032	75.031	2.0.10.147	2.0.10.242	2.0.10.242	1.0.0.439	7	234	2	3	Verdana	1	80	0	0	0	WM Stimuli\	0.7	1204.57142857143	1	693.7	0.7	1121	1	663.4	0.7	970.857142857143	1	610.9	0.8	685.25	0.9	821.666666666667	13	337627	2	337615	27	40	337654	-999999	337630	0	26	TrialsPROC	BP_018_H13-T_BA.png	2	2	15	SessionSelectionList														nonlure	3	Body	0-Back	13	80	12	0	0	100	4	39	87410	1	14	72	85371	-1	86048	1	677	3	3	2039	53	87424	-54	0																15												
WM080112	124422_fnca	2	1	1	16310130	1	75.032	75.031	2.0.10.147	2.0.10.242	2.0.10.242	1.0.0.439	7	234	2	3	Verdana	1	80	0	0	0	WM Stimuli\	0.7	1204.57142857143	1	693.7	0.7	1121	1	663.4	0.7	970.857142857143	1	610.9	0.8	685.25	0.9	821.666666666667	13	337627	2	337615	27	40	337654	-999999	337630	0	26	TrialsPROC	BP_014_BP9_BA.png	2	2	16	SessionSelectionList														nonlure	3	Body	0-Back	14	80	13	0	0	100	5	39	89982	2	14	72	87943	-1	89127	1	1184	3	3	2039	53	89996	-54	0																16												
WM080112	124422_fnca	2	1	1	16310130	1	75.032	75.031	2.0.10.147	2.0.10.242	2.0.10.242	1.0.0.439	7	234	2	3	Verdana	1	80	0	0	0	WM Stimuli\	0.7	1204.57142857143	1	693.7	0.7	1121	1	663.4	0.7	970.857142857143	1	610.9	0.8	685.25	0.9	821.666666666667	13	337627	2	337615	27	40	337654	-999999	337630	0	26	TrialsPROC	BP_018_H13-T_BA.png	2	2	17	SessionSelectionList														lure	3	Body	0-Back	15	80	14	0	0	100	6	39	92541	2	14	59	90502	-1	91180	1	678	3	3	2039	53	92555	-54	0																17												
WM080112	124422_fnca	2	1	1	16310130	1	75.032	75.031	2.0.10.147	2.0.10.242	2.0.10.242	1.0.0.439	7	234	2	3	Verdana	1	80	0	0	0	WM Stimuli\	0.7	1204.57142857143	1	693.7	0.7	1121	1	663.4	0.7	970.857142857143	1	610.9	0.8	685.25	0.9	821.666666666667	13	337627	2	337615	27	40	337654	-999999	337630	0	26	TrialsPROC	BP_013_BP7_BA.png	2	2	18	SessionSelectionList														target	2	Body	0-Back	16	80	15	0	0	100	1	39	95100	2	14	59	93061	-1	93565	1	504	2	2	2039	53	95114	-54	0																18												
WM080112	124422_fnca	2	1	1	16310130	1	75.032	75.031	2.0.10.147	2.0.10.242	2.0.10.242	1.0.0.439	7	234	2	3	Verdana	1	80	0	0	0	WM Stimuli\	0.7	1204.57142857143	1	693.7	0.7	1121	1	663.4	0.7	970.857142857143	1	610.9	0.8	685.25	0.9	821.666666666667	13	337627	2	337615	27	40	337654	-999999	337630	0	26	TrialsPROC	BP_015_H10-T_BA.png	2	2	19	SessionSelectionList														lure	3	Body	0-Back	17	80	16	0	0	100	1	39	97659	1	14	59	95620	-1	96104	1	484	3	3	2039	53	97673	-54	0																19												
WM080112	124422_fnca	2	1	1	16310130	1	75.032	75.031	2.0.10.147	2.0.10.242	2.0.10.242	1.0.0.439	7	234	2	3	Verdana	1	80	0	0	0	WM Stimuli\	0.7	1204.57142857143	1	693.7	0.7	1121	1	663.4	0.7	970.857142857143	1	610.9	0.8	685.25	0.9	821.666666666667	13	337627	2	337615	27	40	337654	-999999	337630	0	26	TrialsPROC	BP_016_H11-T_BA.png	2	2	20	SessionSelectionList														nonlure	3	Body	0-Back	18	80	17	0	0	100	2	39	100231	2	14	72	98192	-1	98687	1	495	3	3	2039	53	100245	-54	0																20												
WM080112	124422_fnca	2	1	1	16310130	1	75.032	75.031	2.0.10.147	2.0.10.242	2.0.10.242	1.0.0.439	7	234	2	3	Verdana	1	80	0	0	0	WM Stimuli\	0.7	1204.57142857143	1	693.7	0.7	1121	1	663.4	0.7	970.857142857143	1	610.9	0.8	685.25	0.9	821.666666666667	13	337627	2	337615	27	40	337654	-999999	337630	0	26	TrialsPROC	BP_013_BP7_BA.png	2	2	21	SessionSelectionList														target	2	Body	0-Back	19	80	18	0	0	100	1	39	102790	2	14	59	100751	-1	101302	1	551	2	2	2039	53	102804	-54	0																21												
WM080112	124422_fnca	2	1	1	16310130	1	75.032	75.031	2.0.10.147	2.0.10.242	2.0.10.242	1.0.0.439	7	234	2	3	Verdana	1	80	0	0	0	WM Stimuli\	0.7	1204.57142857143	1	693.7	0.7	1121	1	663.4	0.7	970.857142857143	1	610.9	0.8	685.25	0.9	821.666666666667	13	337627	2	337615	27	40	337654	-999999	337630	0	26	TrialsPROC	BP_017_H12-T_BA.png	2	2	22	SessionSelectionList														nonlure	3	Body	0-Back	20	80	19	0	0	100	1	39	105349	2	14	59	103310	-1	103838	1	528	3	3	2039	53	105363	-54	0																22												
WM080112	124422_fnca	2	1	1	16310130	1	75.032	75.031	2.0.10.147	2.0.10.242	2.0.10.242	1.0.0.439	7	234	2	3	Verdana	1	80	0	0	0	WM Stimuli\	0.7	1204.57142857143	1	693.7	0.7	1121	1	663.4	0.7	970.857142857143	1	610.9	0.8	685.25	0.9	821.666666666667	13	337627	2	337615	27	40	337654	-999999	337630	0	26	TrialsPROC	BP_014_BP9_BA.png	2	2	23	SessionSelectionList														lure	3	Body	0-Back	21	80	20	0	0	100	2	39	107908	2	14	59	105869	-1	106646	1	777	3	3	2039	53	107922	-54	0																23												
WM080112	124422_fnca	2	1	1	16310130	1	75.032	75.031	2.0.10.147	2.0.10.242	2.0.10.242	1.0.0.439	7	234	2	3	Verdana	1	80	0	0	0	WM Stimuli\	0.7	1204.57142857143	1	693.7	0.7	1121	1	663.4	0.7	970.857142857143	1	610.9	0.8	685.25	0.9	821.666666666667	13	337627	2	337615	27	40	337654	-999999	337630	0	27	Fix15secPROC	""	2	2	24	SessionSelectionList																																															6	108375	-7	0							24												
WM080112	124422_fnca	2	1	1	16310130	1	75.032	75.031	2.0.10.147	2.0.10.242	2.0.10.242	1.0.0.439	7	234	2	3	Verdana	1	80	0	0	0	WM Stimuli\	0.7	1204.57142857143	1	693.7	0.7	1121	1	663.4	0.7	970.857142857143	1	610.9	0.8	685.25	0.9	821.666666666667	13	337627	2	337615	27	40	337654	-999999	337630	0	28	Cue2BackPROC	""	2	2	25	SessionSelectionList									13	123382	-14	0																																													25												
WM080112	124422_fnca	2	1	1	16310130	1	75.032	75.031	2.0.10.147	2.0.10.242	2.0.10.242	1.0.0.439	7	234	2	3	Verdana	1	80	0	0	0	WM Stimuli\	0.7	1204.57142857143	1	693.7	0.7	1121	1	663.4	0.7	970.857142857143	1	610.9	0.8	685.25	0.9	821.666666666667	13	337627	2	337615	27	40	337654	-999999	337630	0	29	TrialsPROC	FC_015_M8.png	2	2	26	SessionSelectionList														nonlure	3	Face	2-Back	22	80	21	0	0	100	3	39	127980	1	13	72	125941	-1	127237	1	1296	3	3	2039	52	127993	-53	0																26												
WM080112	124422_fnca	2	1	1	16310130	1	75.032	75.031	2.0.10.147	2.0.10.242	2.0.10.242	1.0.0.439	7	234	2	3	Verdana	1	80	0	0	0	WM Stimuli\	0.7	1204.57142857143	1	693.7	0.7	1121	1	663.4	0.7	970.857142857143	1	610.9	0.8	685.25	0.9	821.666666666667	13	337627	2	337615	27	40	337654	-999999	337630	0	29	TrialsPROC	FC_018_F9.png	2	2	27	SessionSelectionList														nonlure	3	Face	2-Back	23	80	22	0	0	100	4	39	130552	2	14	72	128513	-1	129909	1	1396	3	3	2039	53	130566	-54	0																27												
WM080112	124422_fnca	2	1	1	16310130	1	75.032	75.031	2.0.10.147	2.0.10.242	2.0.10.242	1.0.0.439	7	234	2	3	Verdana	1	80	0	0	0	WM Stimuli\	0.7	1204.57142857143	1	693.7	0.7	1121	1	663.4	0.7	970.857142857143	1	610.9	0.8	685.25	0.9	821.666666666667	13	337627	2	337615	27	40	337654	-999999	337630	0	29	TrialsPROC	FC_018_F9.png	2	2	28	SessionSelectionList														lure	3	Face	2-Back	24	80	23	0	0	100	1	39	133124	2	14	72	131085	-1	132956	0	1871	2	3	2039	53	133138	-54	0																28												
WM080112	124422_fnca	2	1	1	16310130	1	75.032	75.031	2.0.10.147	2.0.10.242	2.0.10.242	1.0.0.439	7	234	2	3	Verdana	1	80	0	0	0	WM Stimuli\	0.7	1204.57142857143	1	693.7	0.7	1121	1	663.4	0.7	970.857142857143	1	610.9	0.8	685.25	0.9	821.666666666667	13	337627	2	337615	27	40	337654	-999999	337630	0	29	TrialsPROC	FC_017_M9.png	2	2	29	SessionSelectionList														nonlure	3	Face	2-Back	25	80	24	0	0	100	1	40	135697	1	13	72	133657	-1	135036	1	1379	3	3	2040	53	135710	-54	0																29												
WM080112	124422_fnca	2	1	1	16310130	1	75.032	75.031	2.0.10.147	2.0.10.242	2.0.10.242	1.0.0.439	7	234	2	3	Verdana	1	80	0	0	0	WM Stimuli\	0.7	1204.57142857143	1	693.7	0.7	1121	1	663.4	0.7	970.857142857143	1	610.9	0.8	685.25	0.9	821.666666666667	13	337627	2	337615	27	40	337654	-999999	337630	0	29	TrialsPROC	FC_017_M9.png	2	2	30	SessionSelectionList														lure	3	Face	2-Back	26	80	25	0	0	100	1	39	138269	1	14	73	136230	-1	137513	0	1283	2	3	2039	53	138283	-54	0																30												
WM080112	124422_fnca	2	1	1	16310130	1	75.032	75.031	2.0.10.147	2.0.10.242	2.0.10.242	1.0.0.439	7	234	2	3	Verdana	1	80	0	0	0	WM Stimuli\	0.7	1204.57142857143	1	693.7	0.7	1121	1	663.4	0.7	970.857142857143	1	610.9	0.8	685.25	0.9	821.666666666667	13	337627	2	337615	27	40	337654	-999999	337630	0	29	TrialsPROC	FC_016_F8.png	2	2	31	SessionSelectionList														nonlure	3	Face	2-Back	27	80	26	0	0	100	1	39	140841	2	14	72	138802	-1	139761	1	959	3	3	2039	53	140855	-54	0																31												
WM080112	124422_fnca	2	1	1	16310130	1	75.032	75.031	2.0.10.147	2.0.10.242	2.0.10.242	1.0.0.439	7	234	2	3	Verdana	1	80	0	0	0	WM Stimuli\	0.7	1204.57142857143	1	693.7	0.7	1121	1	663.4	0.7	970.857142857143	1	610.9	0.8	685.25	0.9	821.666666666667	13	337627	2	337615	27	40	337654	-999999	337630	0	29	TrialsPROC	FC_013_M7.png	2	2	32	SessionSelectionList														nonlure	3	Face	2-Back	28	80	27	0	0	100	2	39	143413	2	14	72	141374	-1	142196	1	822	3	3	2039	53	143427	-54	0																32												
WM080112	124422_fnca	2	1	1	16310130	1	75.032	75.031	2.0.10.147	2.0.10.242	2.0.10.242	1.0.0.439	7	234	2	3	Verdana	1	80	0	0	0	WM Stimuli\	0.7	1204.57142857143	1	693.7	0.7	1121	1	663.4	0.7	970.857142857143	1	610.9	0.8	685.25	0.9	821.666666666667	13	337627	2	337615	27	40	337654	-999999	337630	0	29	TrialsPROC	FC_014_F7.png	2	2	33	SessionSelectionList														nonlure	3	Face	2-Back	29	80	28	0	0	100	3	39	145986	1	13	73	143947	-1	144694	1	747	3	3	2039	52	145999	-53	0																33												
WM080112	124422_fnca	2	1	1	16310130	1	75.032	75.031	2.0.10.147	2.0.10.242	2.0.10.242	1.0.0.439	7	234	2	3	Verdana	1	80	0	0	0	WM Stimuli\	0.7	1204.57142857143	1	693.7	0.7	1121	1	663.4	0.7	970.857142857143	1	610.9	0.8	685.25	0.9	821.666666666667	13	337627	2	337615	27	40	337654	-999999	337630	0	29	TrialsPROC	FC_013_M7.png	2	2	34	SessionSelectionList														target	2	Face	2-Back	30	80	29	0	0	100	1	39	148558	1	14	72	146519	-1	147767	1	1248	2	2	2039	53	148572	-54	0																34												
WM080112	124422_fnca	2	1	1	16310130	1	75.032	75.031	2.0.10.147	2.0.10.242	2.0.10.242	1.0.0.439	7	234	2	3	Verdana	1	80	0	0	0	WM Stimuli\	0.7	1204.57142857143	1	693.7	0.7	1121	1	663.4	0.7	970.857142857143	1	610.9	0.8	685.25	0.9	821.666666666667	13	337627	2	337615	27	40	337654	-999999	337630	0	29	TrialsPROC	FC_014_F7.png	2	2	35	SessionSelectionList														target	2	Face	2-Back	31	80	30	0	0	100	1	39	151130	2	14	72	149091	-1	150353	0	1262	3	2	2039	53	151144	-54	0																35												
WM080112	124422_fnca	2	1	1	16310130	1	75.032	75.031	2.0.10.147	2.0.10.242	2.0.10.242	1.0.0.439	7	234	2	3	Verdana	1	80	0	0	0	WM Stimuli\	0.7	1204.57142857143	1	693.7	0.7	1121	1	663.4	0.7	970.857142857143	1	610.9	0.8	685.25	0.9	821.666666666667	13	337627	2	337615	27	40	337654	-999999	337630	0	30	Cue0BackPROC	TO_019_TOOL19_BA.png	2	2	36	SessionSelectionList																																										19	151610	-20	0												36												
WM080112	124422_fnca	2	1	1	16310130	1	75.032	75.031	2.0.10.147	2.0.10.242	2.0.10.242	1.0.0.439	7	234	2	3	Verdana	1	80	0	0	0	WM Stimuli\	0.7	1204.57142857143	1	693.7	0.7	1121	1	663.4	0.7	970.857142857143	1	610.9	0.8	685.25	0.9	821.666666666667	13	337627	2	337615	27	40	337654	-999999	337630	0	31	TrialsPROC	TO_019_TOOL19_BA.png	2	2	37	SessionSelectionList														target	2	Tools	0-Back	32	80	31	0	0	100	1	40	156182	1	13	51	154142	-1	155976	1	1834	2	2	2040	53	156195	-54	0																37												
WM080112	124422_fnca	2	1	1	16310130	1	75.032	75.031	2.0.10.147	2.0.10.242	2.0.10.242	1.0.0.439	7	234	2	3	Verdana	1	80	0	0	0	WM Stimuli\	0.7	1204.57142857143	1	693.7	0.7	1121	1	663.4	0.7	970.857142857143	1	610.9	0.8	685.25	0.9	821.666666666667	13	337627	2	337615	27	40	337654	-999999	337630	0	31	TrialsPROC	TO_024_TOOL24_BA.png	2	2	38	SessionSelectionList														nonlure	3	Tools	0-Back	33	80	32	0	0	100	1	39	158741	1	13	60	156702	-1	157335	1	633	3	3	2039	52	158754	-53	0																38												
WM080112	124422_fnca	2	1	1	16310130	1	75.032	75.031	2.0.10.147	2.0.10.242	2.0.10.242	1.0.0.439	7	234	2	3	Verdana	1	80	0	0	0	WM Stimuli\	0.7	1204.57142857143	1	693.7	0.7	1121	1	663.4	0.7	970.857142857143	1	610.9	0.8	685.25	0.9	821.666666666667	13	337627	2	337615	27	40	337654	-999999	337630	0	31	TrialsPROC	TO_019_TOOL19_BA.png	2	2	39	SessionSelectionList														target	2	Tools	0-Back	34	80	33	0	0	100	1	39	161299	2	14	58	159260	-1	160048	1	788	2	2	2039	53	161313	-54	0																39												
WM080112	124422_fnca	2	1	1	16310130	1	75.032	75.031	2.0.10.147	2.0.10.242	2.0.10.242	1.0.0.439	7	234	2	3	Verdana	1	80	0	0	0	WM Stimuli\	0.7	1204.57142857143	1	693.7	0.7	1121	1	663.4	0.7	970.857142857143	1	610.9	0.8	685.25	0.9	821.666666666667	13	337627	2	337615	27	40	337654	-999999	337630	0	31	TrialsPROC	TO_023_TOOL23_BA.png	2	2	40	SessionSelectionList														nonlure	3	Tools	0-Back	35	80	34	0	0	100	1	38	163858	2	14	60	161820	-1	162287	1	467	3	3	2038	52	163872	-53	0																40												
WM080112	124422_fnca	2	1	1	16310130	1	75.032	75.031	2.0.10.147	2.0.10.242	2.0.10.242	1.0.0.439	7	234	2	3	Verdana	1	80	0	0	0	WM Stimuli\	0.7	1204.57142857143	1	693.7	0.7	1121	1	663.4	0.7	970.857142857143	1	610.9	0.8	685.25	0.9	821.666666666667	13	337627	2	337615	27	40	337654	-999999	337630	0	31	TrialsPROC	TO_020_TOOL20_BA.png	2	2	41	SessionSelectionList														nonlure	3	Tools	0-Back	36	80	35	0	0	100	2	39	166417	2	14	58	164378	-1	165349	1	971	3	3	2039	53	166431	-54	0																41												
WM080112	124422_fnca	2	1	1	16310130	1	75.032	75.031	2.0.10.147	2.0.10.242	2.0.10.242	1.0.0.439	7	234	2	3	Verdana	1	80	0	0	0	WM Stimuli\	0.7	1204.57142857143	1	693.7	0.7	1121	1	663.4	0.7	970.857142857143	1	610.9	0.8	685.25	0.9	821.666666666667	13	337627	2	337615	27	40	337654	-999999	337630	0	31	TrialsPROC	TO_020_TOOL20_BA.png	2	2	42	SessionSelectionList														lure	3	Tools	0-Back	37	80	36	0	0	100	3	39	168976	2	14	59	166937	-1	167439	1	502	3	3	2039	53	168990	-54	0																42												
WM080112	124422_fnca	2	1	1	16310130	1	75.032	75.031	2.0.10.147	2.0.10.242	2.0.10.242	1.0.0.439	7	234	2	3	Verdana	1	80	0	0	0	WM Stimuli\	0.7	1204.57142857143	1	693.7	0.7	1121	1	663.4	0.7	970.857142857143	1	610.9	0.8	685.25	0.9	821.666666666667	13	337627	2	337615	27	40	337654	-999999	337630	0	31	TrialsPROC	TO_022_TOOL22_BA.png	2	2	43	SessionSelectionList														nonlure	3	Tools	0-Back	38	80	37	0	0	94	1	39	171535	2	14	59	169496	-1	170121	0	625	2	3	2039	53	171549	-54	0																43												
WM080112	124422_fnca	2	1	1	16310130	1	75.032	75.031	2.0.10.147	2.0.10.242	2.0.10.242	1.0.0.439	7	234	2	3	Verdana	1	80	0	0	0	WM Stimuli\	0.7	1204.57142857143	1	693.7	0.7	1121	1	663.4	0.7	970.857142857143	1	610.9	0.8	685.25	0.9	821.666666666667	13	337627	2	337615	27	40	337654	-999999	337630	0	31	TrialsPROC	TO_022_TOOL22_BA.png	2	2	44	SessionSelectionList														lure	3	Tools	0-Back	39	80	38	0	0	94	1	39	174094	2	14	59	172055	-1	172655	1	600	3	3	2039	53	174108	-54	0																44												
WM080112	124422_fnca	2	1	1	16310130	1	75.032	75.031	2.0.10.147	2.0.10.242	2.0.10.242	1.0.0.439	7	234	2	3	Verdana	1	80	0	0	0	WM Stimuli\	0.7	1204.57142857143	1	693.7	0.7	1121	1	663.4	0.7	970.857142857143	1	610.9	0.8	685.25	0.9	821.666666666667	13	337627	2	337615	27	40	337654	-999999	337630	0	31	TrialsPROC	TO_021_TOOL21_BA.png	2	2	45	SessionSelectionList														nonlure	3	Tools	0-Back	40	80	39	0	0	95	2	39	176653	1	14	59	174614	-1	175395	1	781	3	3	2039	53	176667	-54	0																45												
WM080112	124422_fnca	2	1	1	16310130	1	75.032	75.031	2.0.10.147	2.0.10.242	2.0.10.242	1.0.0.439	7	234	2	3	Verdana	1	80	0	0	0	WM Stimuli\	0.7	1204.57142857143	1	693.7	0.7	1121	1	663.4	0.7	970.857142857143	1	610.9	0.8	685.25	0.9	821.666666666667	13	337627	2	337615	27	40	337654	-999999	337630	0	31	TrialsPROC	TO_021_TOOL21_BA.png	2	2	46	SessionSelectionList														lure	3	Tools	0-Back	41	80	40	0	0	95	3	39	179212	1	14	59	177173	-1	177992	1	819	3	3	2039	53	179226	-54	0																46												
WM080112	124422_fnca	2	1	1	16310130	1	75.032	75.031	2.0.10.147	2.0.10.242	2.0.10.242	1.0.0.439	7	234	2	3	Verdana	1	80	0	0	0	WM Stimuli\	0.7	1204.57142857143	1	693.7	0.7	1121	1	663.4	0.7	970.857142857143	1	610.9	0.8	685.25	0.9	821.666666666667	13	337627	2	337615	27	40	337654	-999999	337630	0	32	Fix15secPROC	""	2	2	47	SessionSelectionList																																															6	179679	-7	0							47												
WM080112	124422_fnca	2	1	1	16310130	1	75.032	75.031	2.0.10.147	2.0.10.242	2.0.10.242	1.0.0.439	7	234	2	3	Verdana	1	80	0	0	0	WM Stimuli\	0.7	1204.57142857143	1	693.7	0.7	1121	1	663.4	0.7	970.857142857143	1	610.9	0.8	685.25	0.9	821.666666666667	13	337627	2	337615	27	40	337654	-999999	337630	0	33	Cue2BackPROC	""	2	2	48	SessionSelectionList									13	194686	-14	0																																													48												
WM080112	124422_fnca	2	1	1	16310130	1	75.032	75.031	2.0.10.147	2.0.10.242	2.0.10.242	1.0.0.439	7	234	2	3	Verdana	1	80	0	0	0	WM Stimuli\	0.7	1204.57142857143	1	693.7	0.7	1121	1	663.4	0.7	970.857142857143	1	610.9	0.8	685.25	0.9	821.666666666667	13	337627	2	337615	27	40	337654	-999999	337630	0	34	TrialsPROC	BP_020_H17-T_BA.png	2	2	49	SessionSelectionList														nonlure	3	Body	2-Back	42	80	41	0	0	95	4	39	199284	1	13	72	197245	-1	198813	1	1568	3	3	2039	52	199297	-53	0																49												
WM080112	124422_fnca	2	1	1	16310130	1	75.032	75.031	2.0.10.147	2.0.10.242	2.0.10.242	1.0.0.439	7	234	2	3	Verdana	1	80	0	0	0	WM Stimuli\	0.7	1204.57142857143	1	693.7	0.7	1121	1	663.4	0.7	970.857142857143	1	610.9	0.8	685.25	0.9	821.666666666667	13	337627	2	337615	27	40	337654	-999999	337630	0	34	TrialsPROC	BP_019_H14-T_BA.png	2	2	50	SessionSelectionList														nonlure	3	Body	2-Back	43	80	42	0	0	95	5	39	201856	1	14	72	199817	-1	201012	1	1195	3	3	2039	53	201870	-54	0																50												
WM080112	124422_fnca	2	1	1	16310130	1	75.032	75.031	2.0.10.147	2.0.10.242	2.0.10.242	1.0.0.439	7	234	2	3	Verdana	1	80	0	0	0	WM Stimuli\	0.7	1204.57142857143	1	693.7	0.7	1121	1	663.4	0.7	970.857142857143	1	610.9	0.8	685.25	0.9	821.666666666667	13	337627	2	337615	27	40	337654	-999999	337630	0	34	TrialsPROC	BP_020_H17-T_BA.png	2	2	51	SessionSelectionList														target	2	Body	2-Back	44	80	43	0	0	95	1	39	204415	1	14	59	202376	-1	204029	1	1653	2	2	2039	53	204429	-54	0																51												
WM080112	124422_fnca	2	1	1	16310130	1	75.032	75.031	2.0.10.147	2.0.10.242	2.0.10.242	1.0.0.439	7	234	2	3	Verdana	1	80	0	0	0	WM Stimuli\	0.7	1204.57142857143	1	693.7	0.7	1121	1	663.4	0.7	970.857142857143	1	610.9	0.8	685.25	0.9	821.666666666667	13	337627	2	337615	27	40	337654	-999999	337630	0	34	TrialsPROC	BP_019_H14-T_BA.png	2	2	52	SessionSelectionList														target	2	Body	2-Back	45	80	44	0	0	95	1	39	206974	1	14	59	204935	-1	206837	0	1902	3	2	2039	53	206988	-54	0																52												
WM080112	124422_fnca	2	1	1	16310130	1	75.032	75.031	2.0.10.147	2.0.10.242	2.0.10.242	1.0.0.439	7	234	2	3	Verdana	1	80	0	0	0	WM Stimuli\	0.7	1204.57142857143	1	693.7	0.7	1121	1	663.4	0.7	970.857142857143	1	610.9	0.8	685.25	0.9	821.666666666667	13	337627	2	337615	27	40	337654	-999999	337630	0	34	TrialsPROC	BP_024_H3-T_BA.png	2	2	53	SessionSelectionList														nonlure	3	Body	2-Back	46	80	45	0	0	95	2	39	209546	2	14	72	207507	-1	209323	1	1816	3	3	2039	53	209560	-54	0																53												
WM080112	124422_fnca	2	1	1	16310130	1	75.032	75.031	2.0.10.147	2.0.10.242	2.0.10.242	1.0.0.439	7	234	2	3	Verdana	1	80	0	0	0	WM Stimuli\	0.7	1204.57142857143	1	693.7	0.7	1121	1	663.4	0.7	970.857142857143	1	610.9	0.8	685.25	0.9	821.666666666667	13	337627	2	337615	27	40	337654	-999999	337630	0	34	TrialsPROC	BP_024_H3-T_BA.png	2	2	54	SessionSelectionList														lure	3	Body	2-Back	47	80	45	0	1	95	2	39	212105	2	14	59	210066	-1	0	0	0	""	3	2039	53	212119	-54	0																54												
WM080112	124422_fnca	2	1	1	16310130	1	75.032	75.031	2.0.10.147	2.0.10.242	2.0.10.242	1.0.0.439	7	234	2	3	Verdana	1	80	0	0	0	WM Stimuli\	0.7	1204.57142857143	1	693.7	0.7	1121	1	663.4	0.7	970.857142857143	1	610.9	0.8	685.25	0.9	821.666666666667	13	337627	2	337615	27	40	337654	-999999	337630	0	34	TrialsPROC	BP_025_H5-T_BA.png	2	2	55	SessionSelectionList														nonlure	3	Body	2-Back	48	80	46	0	0	95	1	39	214664	1	14	59	212625	-1	213505	1	880	3	3	2039	53	214678	-54	0																55												
WM080112	124422_fnca	2	1	1	16310130	1	75.032	75.031	2.0.10.147	2.0.10.242	2.0.10.242	1.0.0.439	7	234	2	3	Verdana	1	80	0	0	0	WM Stimuli\	0.7	1204.57142857143	1	693.7	0.7	1121	1	663.4	0.7	970.857142857143	1	610.9	0.8	685.25	0.9	821.666666666667	13	337627	2	337615	27	40	337654	-999999	337630	0	34	TrialsPROC	BP_023_H25-T_BA.png	2	2	56	SessionSelectionList														nonlure	3	Body	2-Back	49	80	46	0	1	95	1	39	217236	2	14	72	215197	-1	0	0	0	""	3	2039	53	217250	-54	0																56												
WM080112	124422_fnca	2	1	1	16310130	1	75.032	75.031	2.0.10.147	2.0.10.242	2.0.10.242	1.0.0.439	7	234	2	3	Verdana	1	80	0	0	0	WM Stimuli\	0.7	1204.57142857143	1	693.7	0.7	1121	1	663.4	0.7	970.857142857143	1	610.9	0.8	685.25	0.9	821.666666666667	13	337627	2	337615	27	40	337654	-999999	337630	0	34	TrialsPROC	BP_022_H24-T_BA.png	2	2	57	SessionSelectionList														nonlure	3	Body	2-Back	50	80	47	0	0	95	1	39	219795	2	14	59	217756	-1	218336	1	580	3	3	2039	53	219809	-54	0																57												
WM080112	124422_fnca	2	1	1	16310130	1	75.032	75.031	2.0.10.147	2.0.10.242	2.0.10.242	1.0.0.439	7	234	2	3	Verdana	1	80	0	0	0	WM Stimuli\	0.7	1204.57142857143	1	693.7	0.7	1121	1	663.4	0.7	970.857142857143	1	610.9	0.8	685.25	0.9	821.666666666667	13	337627	2	337615	27	40	337654	-999999	337630	0	34	TrialsPROC	BP_022_H24-T_BA.png	2	2	58	SessionSelectionList														lure	3	Body	2-Back	51	80	48	0	0	95	2	39	222354	2	14	59	220315	-1	221055	1	740	3	3	2039	53	222368	-54	0																58												
WM080112	124422_fnca	2	1	1	16310130	1	75.032	75.031	2.0.10.147	2.0.10.242	2.0.10.242	1.0.0.439	7	234	2	3	Verdana	1	80	0	0	0	WM Stimuli\	0.7	1204.57142857143	1	693.7	0.7	1121	1	663.4	0.7	970.857142857143	1	610.9	0.8	685.25	0.9	821.666666666667	13	337627	2	337615	27	40	337654	-999999	337630	0	35	Cue2BackPROC	""	2	2	59	SessionSelectionList									6	222821	-7	0																																													59												
WM080112	124422_fnca	2	1	1	16310130	1	75.032	75.031	2.0.10.147	2.0.10.242	2.0.10.242	1.0.0.439	7	234	2	3	Verdana	1	80	0	0	0	WM Stimuli\	0.7	1204.57142857143	1	693.7	0.7	1121	1	663.4	0.7	970.857142857143	1	610.9	0.8	685.25	0.9	821.666666666667	13	337627	2	337615	27	40	337654	-999999	337630	0	36	TrialsPROC	PL_019_SCENE_05.png	2	2	60	SessionSelectionList														nonlure	3	Place	2-Back	52	80	49	0	0	95	3	39	227419	1	13	65	225380	-1	226950	1	1570	3	3	2039	52	227432	-53	0																60												
WM080112	124422_fnca	2	1	1	16310130	1	75.032	75.031	2.0.10.147	2.0.10.242	2.0.10.242	1.0.0.439	7	234	2	3	Verdana	1	80	0	0	0	WM Stimuli\	0.7	1204.57142857143	1	693.7	0.7	1121	1	663.4	0.7	970.857142857143	1	610.9	0.8	685.25	0.9	821.666666666667	13	337627	2	337615	27	40	337654	-999999	337630	0	36	TrialsPROC	PL_017_SCENE_03.png	2	2	61	SessionSelectionList														nonlure	3	Place	2-Back	53	80	50	0	0	95	4	39	229991	2	14	72	227952	-1	228733	1	781	3	3	2039	53	230005	-54	0																61												
WM080112	124422_fnca	2	1	1	16310130	1	75.032	75.031	2.0.10.147	2.0.10.242	2.0.10.242	1.0.0.439	7	234	2	3	Verdana	1	80	0	0	0	WM Stimuli\	0.7	1204.57142857143	1	693.7	0.7	1121	1	663.4	0.7	970.857142857143	1	610.9	0.8	685.25	0.9	821.666666666667	13	337627	2	337615	27	40	337654	-999999	337630	0	36	TrialsPROC	PL_017_SCENE_03.png	2	2	62	SessionSelectionList														lure	3	Place	2-Back	54	80	51	0	0	95	1	39	232563	2	14	72	230524	-1	231724	0	1200	2	3	2039	53	232577	-54	0																62												
WM080112	124422_fnca	2	1	1	16310130	1	75.032	75.031	2.0.10.147	2.0.10.242	2.0.10.242	1.0.0.439	7	234	2	3	Verdana	1	80	0	0	0	WM Stimuli\	0.7	1204.57142857143	1	693.7	0.7	1121	1	663.4	0.7	970.857142857143	1	610.9	0.8	685.25	0.9	821.666666666667	13	337627	2	337615	27	40	337654	-999999	337630	0	36	TrialsPROC	PL_016_SCENE_02.png	2	2	63	SessionSelectionList														nonlure	3	Place	2-Back	55	80	52	0	0	95	1	39	235136	1	13	73	233097	-1	234028	1	931	3	3	2039	52	235149	-53	0																63												
WM080112	124422_fnca	2	1	1	16310130	1	75.032	75.031	2.0.10.147	2.0.10.242	2.0.10.242	1.0.0.439	7	234	2	3	Verdana	1	80	0	0	0	WM Stimuli\	0.7	1204.57142857143	1	693.7	0.7	1121	1	663.4	0.7	970.857142857143	1	610.9	0.8	685.25	0.9	821.666666666667	13	337627	2	337615	27	40	337654	-999999	337630	0	36	TrialsPROC	PL_015_SCENE_01.png	2	2	64	SessionSelectionList														nonlure	3	Place	2-Back	56	80	53	0	0	95	2	39	237708	1	14	72	235669	-1	236455	1	786	3	3	2039	53	237722	-54	0																64												
WM080112	124422_fnca	2	1	1	16310130	1	75.032	75.031	2.0.10.147	2.0.10.242	2.0.10.242	1.0.0.439	7	234	2	3	Verdana	1	80	0	0	0	WM Stimuli\	0.7	1204.57142857143	1	693.7	0.7	1121	1	663.4	0.7	970.857142857143	1	610.9	0.8	685.25	0.9	821.666666666667	13	337627	2	337615	27	40	337654	-999999	337630	0	36	TrialsPROC	PL_016_SCENE_02.png	2	2	65	SessionSelectionList														target	2	Place	2-Back	57	80	54	0	0	95	1	39	240280	2	14	72	238241	-1	238759	1	518	2	2	2039	53	240294	-54	0																65												
WM080112	124422_fnca	2	1	1	16310130	1	75.032	75.031	2.0.10.147	2.0.10.242	2.0.10.242	1.0.0.439	7	234	2	3	Verdana	1	80	0	0	0	WM Stimuli\	0.7	1204.57142857143	1	693.7	0.7	1121	1	663.4	0.7	970.857142857143	1	610.9	0.8	685.25	0.9	821.666666666667	13	337627	2	337615	27	40	337654	-999999	337630	0	36	TrialsPROC	PL_015_SCENE_01.png	2	2	66	SessionSelectionList														target	2	Place	2-Back	58	80	54	0	1	95	1	39	242852	2	14	72	240813	-1	0	0	0	""	2	2039	53	242866	-54	0																66												
WM080112	124422_fnca	2	1	1	16310130	1	75.032	75.031	2.0.10.147	2.0.10.242	2.0.10.242	1.0.0.439	7	234	2	3	Verdana	1	80	0	0	0	WM Stimuli\	0.7	1204.57142857143	1	693.7	0.7	1121	1	663.4	0.7	970.857142857143	1	610.9	0.8	685.25	0.9	821.666666666667	13	337627	2	337615	27	40	337654	-999999	337630	0	36	TrialsPROC	PL_020_SCENE_06.png	2	2	67	SessionSelectionList														nonlure	3	Place	2-Back	59	80	55	0	0	95	1	39	245438	2	14	86	243399	-1	244878	1	1479	3	3	2039	53	245452	-54	0																67												
WM080112	124422_fnca	2	1	1	16310130	1	75.032	75.031	2.0.10.147	2.0.10.242	2.0.10.242	1.0.0.439	7	234	2	3	Verdana	1	80	0	0	0	WM Stimuli\	0.7	1204.57142857143	1	693.7	0.7	1121	1	663.4	0.7	970.857142857143	1	610.9	0.8	685.25	0.9	821.666666666667	13	337627	2	337615	27	40	337654	-999999	337630	0	36	TrialsPROC	PL_020_SCENE_06.png	2	2	68	SessionSelectionList														lure	3	Place	2-Back	60	80	56	0	0	95	1	39	248010	2	14	72	245971	-1	247045	0	1074	2	3	2039	53	248024	-54	0																68												
WM080112	124422_fnca	2	1	1	16310130	1	75.032	75.031	2.0.10.147	2.0.10.242	2.0.10.242	1.0.0.439	7	234	2	3	Verdana	1	80	0	0	0	WM Stimuli\	0.7	1204.57142857143	1	693.7	0.7	1121	1	663.4	0.7	970.857142857143	1	610.9	0.8	685.25	0.9	821.666666666667	13	337627	2	337615	27	40	337654	-999999	337630	0	36	TrialsPROC	PL_018_SCENE_04.png	2	2	69	SessionSelectionList														nonlure	3	Place	2-Back	61	80	57	0	0	95	1	39	250596	1	14	86	248557	-1	249288	1	731	3	3	2039	53	250610	-54	0																69												
WM080112	124422_fnca	2	1	1	16310130	1	75.032	75.031	2.0.10.147	2.0.10.242	2.0.10.242	1.0.0.439	7	234	2	3	Verdana	1	80	0	0	0	WM Stimuli\	0.7	1204.57142857143	1	693.7	0.7	1121	1	663.4	0.7	970.857142857143	1	610.9	0.8	685.25	0.9	821.666666666667	13	337627	2	337615	27	40	337654	-999999	337630	0	37	Fix15secPROC	""	2	2	70	SessionSelectionList																																															6	251063	-7	0							70												
WM080112	124422_fnca	2	1	1	16310130	1	75.032	75.031	2.0.10.147	2.0.10.242	2.0.10.242	1.0.0.439	7	234	2	3	Verdana	1	80	0	0	0	WM Stimuli\	0.7	1204.57142857143	1	693.7	0.7	1121	1	663.4	0.7	970.857142857143	1	610.9	0.8	685.25	0.9	821.666666666667	13	337627	2	337615	27	40	337654	-999999	337630	0	38	Cue0BackPROC	FC_020_F10.png	2	2	71	SessionSelectionList																																										39	266096	-40	0												71												
WM080112	124422_fnca	2	1	1	16310130	1	75.032	75.031	2.0.10.147	2.0.10.242	2.0.10.242	1.0.0.439	7	234	2	3	Verdana	1	80	0	0	0	WM Stimuli\	0.7	1204.57142857143	1	693.7	0.7	1121	1	663.4	0.7	970.857142857143	1	610.9	0.8	685.25	0.9	821.666666666667	13	337627	2	337615	27	40	337654	-999999	337630	0	39	TrialsPROC	FC_024_F12.png	2	2	72	SessionSelectionList														nonlure	3	Face	0-Back	62	80	58	0	0	95	2	39	270681	1	14	85	268642	-1	269481	1	839	3	3	2039	53	270695	-54	0																72												
WM080112	124422_fnca	2	1	1	16310130	1	75.032	75.031	2.0.10.147	2.0.10.242	2.0.10.242	1.0.0.439	7	234	2	3	Verdana	1	80	0	0	0	WM Stimuli\	0.7	1204.57142857143	1	693.7	0.7	1121	1	663.4	0.7	970.857142857143	1	610.9	0.8	685.25	0.9	821.666666666667	13	337627	2	337615	27	40	337654	-999999	337630	0	39	TrialsPROC	FC_023_M12.png	2	2	73	SessionSelectionList														nonlure	3	Face	0-Back	63	80	59	0	0	95	3	39	273267	1	13	86	271228	-1	271947	1	719	3	3	2039	52	273280	-53	0																73												
WM080112	124422_fnca	2	1	1	16310130	1	75.032	75.031	2.0.10.147	2.0.10.242	2.0.10.242	1.0.0.439	7	234	2	3	Verdana	1	80	0	0	0	WM Stimuli\	0.7	1204.57142857143	1	693.7	0.7	1121	1	663.4	0.7	970.857142857143	1	610.9	0.8	685.25	0.9	821.666666666667	13	337627	2	337615	27	40	337654	-999999	337630	0	39	TrialsPROC	FC_020_F10.png	2	2	74	SessionSelectionList														target	2	Face	0-Back	64	80	60	0	0	96	1	39	275839	1	13	72	273800	-1	274405	1	605	2	2	2039	52	275852	-53	0																74												
WM080112	124422_fnca	2	1	1	16310130	1	75.032	75.031	2.0.10.147	2.0.10.242	2.0.10.242	1.0.0.439	7	234	2	3	Verdana	1	80	0	0	0	WM Stimuli\	0.7	1204.57142857143	1	693.7	0.7	1121	1	663.4	0.7	970.857142857143	1	610.9	0.8	685.25	0.9	821.666666666667	13	337627	2	337615	27	40	337654	-999999	337630	0	39	TrialsPROC	FC_024_F12.png	2	2	75	SessionSelectionList														lure	3	Face	0-Back	65	80	61	0	0	96	1	39	278411	2	14	72	276372	-1	276807	1	435	3	3	2039	53	278425	-54	0																75												
WM080112	124422_fnca	2	1	1	16310130	1	75.032	75.031	2.0.10.147	2.0.10.242	2.0.10.242	1.0.0.439	7	234	2	3	Verdana	1	80	0	0	0	WM Stimuli\	0.7	1204.57142857143	1	693.7	0.7	1121	1	663.4	0.7	970.857142857143	1	610.9	0.8	685.25	0.9	821.666666666667	13	337627	2	337615	27	40	337654	-999999	337630	0	39	TrialsPROC	FC_020_F10.png	2	2	76	SessionSelectionList														target	2	Face	0-Back	66	80	62	0	0	96	1	39	280983	2	14	72	278944	-1	279518	1	574	2	2	2039	53	280997	-54	0																76												
WM080112	124422_fnca	2	1	1	16310130	1	75.032	75.031	2.0.10.147	2.0.10.242	2.0.10.242	1.0.0.439	7	234	2	3	Verdana	1	80	0	0	0	WM Stimuli\	0.7	1204.57142857143	1	693.7	0.7	1121	1	663.4	0.7	970.857142857143	1	610.9	0.8	685.25	0.9	821.666666666667	13	337627	2	337615	27	40	337654	-999999	337630	0	39	TrialsPROC	FC_022_F11.png	2	2	77	SessionSelectionList														nonlure	3	Face	0-Back	67	80	63	0	0	96	1	39	283582	2	14	99	281543	-1	282105	1	562	3	3	2039	53	283596	-54	0																77												
WM080112	124422_fnca	2	1	1	16310130	1	75.032	75.031	2.0.10.147	2.0.10.242	2.0.10.242	1.0.0.439	7	234	2	3	Verdana	1	80	0	0	0	WM Stimuli\	0.7	1204.57142857143	1	693.7	0.7	1121	1	663.4	0.7	970.857142857143	1	610.9	0.8	685.25	0.9	821.666666666667	13	337627	2	337615	27	40	337654	-999999	337630	0	39	TrialsPROC	FC_023_M12.png	2	2	78	SessionSelectionList														lure	3	Face	0-Back	68	80	64	0	0	96	2	40	286155	2	13	72	284115	-1	285194	1	1079	3	3	2040	53	286168	-54	0																78												
WM080112	124422_fnca	2	1	1	16310130	1	75.032	75.031	2.0.10.147	2.0.10.242	2.0.10.242	1.0.0.439	7	234	2	3	Verdana	1	80	0	0	0	WM Stimuli\	0.7	1204.57142857143	1	693.7	0.7	1121	1	663.4	0.7	970.857142857143	1	610.9	0.8	685.25	0.9	821.666666666667	13	337627	2	337615	27	40	337654	-999999	337630	0	39	TrialsPROC	FC_021_M11.png	2	2	79	SessionSelectionList														nonlure	3	Face	0-Back	69	80	65	0	0	96	3	39	288740	2	14	86	286701	-1	287323	1	622	3	3	2039	53	288754	-54	0																79												
WM080112	124422_fnca	2	1	1	16310130	1	75.032	75.031	2.0.10.147	2.0.10.242	2.0.10.242	1.0.0.439	7	234	2	3	Verdana	1	80	0	0	0	WM Stimuli\	0.7	1204.57142857143	1	693.7	0.7	1121	1	663.4	0.7	970.857142857143	1	610.9	0.8	685.25	0.9	821.666666666667	13	337627	2	337615	27	40	337654	-999999	337630	0	39	TrialsPROC	FC_021_M11.png	2	2	80	SessionSelectionList														lure	3	Face	0-Back	70	80	66	0	0	97	4	39	291312	2	14	72	289273	-1	289766	1	493	3	3	2039	53	291326	-54	0																80												
WM080112	124422_fnca	2	1	1	16310130	1	75.032	75.031	2.0.10.147	2.0.10.242	2.0.10.242	1.0.0.439	7	234	2	3	Verdana	1	80	0	0	0	WM Stimuli\	0.7	1204.57142857143	1	693.7	0.7	1121	1	663.4	0.7	970.857142857143	1	610.9	0.8	685.25	0.9	821.666666666667	13	337627	2	337615	27	40	337654	-999999	337630	0	39	TrialsPROC	FC_019_M10.png	2	2	81	SessionSelectionList														nonlure	3	Face	0-Back	71	80	67	0	0	97	5	39	293898	1	14	86	291859	-1	292565	1	706	3	3	2039	53	293912	-54	0																81												
WM080112	124422_fnca	2	1	1	16310130	1	75.032	75.031	2.0.10.147	2.0.10.242	2.0.10.242	1.0.0.439	7	234	2	3	Verdana	1	80	0	0	0	WM Stimuli\	0.7	1204.57142857143	1	693.7	0.7	1121	1	663.4	0.7	970.857142857143	1	610.9	0.8	685.25	0.9	821.666666666667	13	337627	2	337615	27	40	337654	-999999	337630	0	40	Cue0BackPROC	PL_021_SCENE_07.png	2	2	82	SessionSelectionList																																										46	294405	-47	0												82												
WM080112	124422_fnca	2	1	1	16310130	1	75.032	75.031	2.0.10.147	2.0.10.242	2.0.10.242	1.0.0.439	7	234	2	3	Verdana	1	80	0	0	0	WM Stimuli\	0.7	1204.57142857143	1	693.7	0.7	1121	1	663.4	0.7	970.857142857143	1	610.9	0.8	685.25	0.9	821.666666666667	13	337627	2	337615	27	40	337654	-999999	337630	0	41	TrialsPROC	PL_025_SCENE_18.png	2	2	83	SessionSelectionList														nonlure	3	Place	0-Back	72	80	68	0	0	97	6	39	298976	1	14	78	296937	-1	297874	1	937	3	3	2039	53	298990	-54	0																83												
WM080112	124422_fnca	2	1	1	16310130	1	75.032	75.031	2.0.10.147	2.0.10.242	2.0.10.242	1.0.0.439	7	234	2	3	Verdana	1	80	0	0	0	WM Stimuli\	0.7	1204.57142857143	1	693.7	0.7	1121	1	663.4	0.7	970.857142857143	1	610.9	0.8	685.25	0.9	821.666666666667	13	337627	2	337615	27	40	337654	-999999	337630	0	41	TrialsPROC	PL_026_SCENE_24.png	2	2	84	SessionSelectionList														nonlure	3	Place	0-Back	73	80	69	0	0	97	7	40	301562	1	13	85	299522	-1	299990	1	468	3	3	2040	53	301575	-54	0																84												
WM080112	124422_fnca	2	1	1	16310130	1	75.032	75.031	2.0.10.147	2.0.10.242	2.0.10.242	1.0.0.439	7	234	2	3	Verdana	1	80	0	0	0	WM Stimuli\	0.7	1204.57142857143	1	693.7	0.7	1121	1	663.4	0.7	970.857142857143	1	610.9	0.8	685.25	0.9	821.666666666667	13	337627	2	337615	27	40	337654	-999999	337630	0	41	TrialsPROC	PL_025_SCENE_18.png	2	2	85	SessionSelectionList														lure	3	Place	0-Back	74	80	70	0	0	97	8	39	304134	1	13	73	302095	-1	302786	1	691	3	3	2039	52	304147	-53	0																85												
WM080112	124422_fnca	2	1	1	16310130	1	75.032	75.031	2.0.10.147	2.0.10.242	2.0.10.242	1.0.0.439	7	234	2	3	Verdana	1	80	0	0	0	WM Stimuli\	0.7	1204.57142857143	1	693.7	0.7	1121	1	663.4	0.7	970.857142857143	1	610.9	0.8	685.25	0.9	821.666666666667	13	337627	2	337615	27	40	337654	-999999	337630	0	41	TrialsPROC	PL_022_SCENE_08.png	2	2	86	SessionSelectionList														nonlure	3	Place	0-Back	75	80	71	0	0	97	9	39	306706	1	14	72	304667	-1	305390	1	723	3	3	2039	53	306720	-54	0																86												
WM080112	124422_fnca	2	1	1	16310130	1	75.032	75.031	2.0.10.147	2.0.10.242	2.0.10.242	1.0.0.439	7	234	2	3	Verdana	1	80	0	0	0	WM Stimuli\	0.7	1204.57142857143	1	693.7	0.7	1121	1	663.4	0.7	970.857142857143	1	610.9	0.8	685.25	0.9	821.666666666667	13	337627	2	337615	27	40	337654	-999999	337630	0	41	TrialsPROC	PL_026_SCENE_24.png	2	2	87	SessionSelectionList														lure	3	Place	0-Back	76	80	72	0	0	97	10	39	309278	2	14	72	307239	-1	307733	1	494	3	3	2039	53	309292	-54	0																87												
WM080112	124422_fnca	2	1	1	16310130	1	75.032	75.031	2.0.10.147	2.0.10.242	2.0.10.242	1.0.0.439	7	234	2	3	Verdana	1	80	0	0	0	WM Stimuli\	0.7	1204.57142857143	1	693.7	0.7	1121	1	663.4	0.7	970.857142857143	1	610.9	0.8	685.25	0.9	821.666666666667	13	337627	2	337615	27	40	337654	-999999	337630	0	41	TrialsPROC	PL_021_SCENE_07.png	2	2	88	SessionSelectionList														target	2	Place	0-Back	77	80	73	0	0	97	1	39	311851	1	13	73	309812	-1	310394	1	582	2	2	2039	52	311864	-53	0																88												
WM080112	124422_fnca	2	1	1	16310130	1	75.032	75.031	2.0.10.147	2.0.10.242	2.0.10.242	1.0.0.439	7	234	2	3	Verdana	1	80	0	0	0	WM Stimuli\	0.7	1204.57142857143	1	693.7	0.7	1121	1	663.4	0.7	970.857142857143	1	610.9	0.8	685.25	0.9	821.666666666667	13	337627	2	337615	27	40	337654	-999999	337630	0	41	TrialsPROC	PL_021_SCENE_07.png	2	2	89	SessionSelectionList														target	2	Place	0-Back	78	80	74	0	0	97	2	39	314423	1	14	72	312384	-1	312962	1	578	2	2	2039	53	314437	-54	0																89												
WM080112	124422_fnca	2	1	1	16310130	1	75.032	75.031	2.0.10.147	2.0.10.242	2.0.10.242	1.0.0.439	7	234	2	3	Verdana	1	80	0	0	0	WM Stimuli\	0.7	1204.57142857143	1	693.7	0.7	1121	1	663.4	0.7	970.857142857143	1	610.9	0.8	685.25	0.9	821.666666666667	13	337627	2	337615	27	40	337654	-999999	337630	0	41	TrialsPROC	PL_023_SCENE_09.png	2	2	90	SessionSelectionList														nonlure	3	Place	0-Back	79	80	75	0	0	97	1	39	316995	2	14	72	314956	-1	315535	1	579	3	3	2039	53	317009	-54	0																90												
WM080112	124422_fnca	2	1	1	16310130	1	75.032	75.031	2.0.10.147	2.0.10.242	2.0.10.242	1.0.0.439	7	234	2	3	Verdana	1	80	0	0	0	WM Stimuli\	0.7	1204.57142857143	1	693.7	0.7	1121	1	663.4	0.7	970.857142857143	1	610.9	0.8	685.25	0.9	821.666666666667	13	337627	2	337615	27	40	337654	-999999	337630	0	41	TrialsPROC	PL_024_SCENE_10.png	2	2	91	SessionSelectionList														nonlure	3	Place	0-Back	80	80	76	0	0	97	2	39	319581	1	13	86	317542	-1	317940	1	398	3	3	2039	52	319594	-53	0																91												
WM080112	124422_fnca	2	1	1	16310130	1	75.032	75.031	2.0.10.147	2.0.10.242	2.0.10.242	1.0.0.439	7	234	2	3	Verdana	1	80	0	0	0	WM Stimuli\	0.7	1204.57142857143	1	693.7	0.7	1121	1	663.4	0.7	970.857142857143	1	610.9	0.8	685.25	0.9	821.666666666667	13	337627	2	337615	27	40	337654	-999999	337630	0	41	TrialsPROC	PL_022_SCENE_08.png	2	2	92	SessionSelectionList														lure	3	Place	0-Back	80	80	77	0	0	98	3	39	322153	2	14	72	320114	-1	320773	1	659	3	3	2039	53	322167	-54	0																92												
WM080112	124422_fnca	2	1	1	16310130	1	75.032	75.031	2.0.10.147	2.0.10.242	2.0.10.242	1.0.0.439	7	234	2	3	Verdana	1	80	0	0	0	WM Stimuli\	0.7	1204.57142857143	1	693.7	0.7	1121	1	663.4	0.7	970.857142857143	1	610.9	0.8	685.25	0.9	821.666666666667	13	337627	2	337615	27	40	337654	-999999	337630	0	42	Fix15secPROC	""	2	2	93	SessionSelectionList																																															6	322620	-7	0							93												
