ExperimentName	HCPID	RunNumber	Subject	Session	RandomSeed	Group	Laptop.RefreshRate	ScannerD2.RefreshRate	StudioVersion	RuntimeVersion	RuntimeVersionExpected	ExperimentVersion	triggercode	Allowed	Target	Nontarget	FontStyle	RunTrialNumber[Session]	TrialsPerRun[Session]	TotalRespGreater200[Session]	ConsecRTLess200[Session]	ConsecNonResp[Session]	StimuliDir	ACC_2_Back_Body	Avg_RT_For_Correct_Trials_2_Back_Body	ACC_0_Back_Body	Avg_RT_For_Correct_Trials_0_Back_Body	ACC_2_Back_Face	Avg_RT_For_Correct_Trials_2_Back_Face	ACC_0_Back_Face	Avg_RT_For_Correct_Trials_0_Back_Face	ACC_2_Back_Place	Avg_RT_For_Correct_Trials_2_Back_Place	ACC_0_Back_Place	Avg_RT_For_Correct_Trials_0_Back_Place	ACC_2_Back_Tools	Avg_RT_For_Correct_Trials_2_Back_Tools	ACC_0_Back_Tools	Avg_RT_For_Correct_Trials_0_Back_Tools	ExpInstrucFeelFreeToRest.OnsetDelay	ExpInstrucFeelFreeToRest.OnsetTime	ExpInstrucFeelFreeToRest.DurationError	ExpInstrucFeelFreeToRest.StartTime	ExpInstrucFeelFreeToRest.OnsetToOnsetTime	FeelFreeToRest.OnsetDelay	FeelFreeToRest.OnsetTime	FeelFreeToRest.DurationError	FeelFreeToRest.StartTime	FeelFreeToRest.OnsetToOnsetTime	SessionSelectionList	Procedure[Block]	Stimulus[Block]	RunNumberFilterValue	SessionSelectionList.Cycle	SessionSelectionList.Sample	Running[Block]	IntroButtonMap.OnsetDelay	IntroButtonMap.OnsetTime	IntroButtonMap.DurationError	IntroButtonMap.OnsetToOnsetTime	GetReady.OnsetDelay	GetReady.OnsetTime	GetReady.DurationError	GetReady.OnsetToOnsetTime	Cue2Back.OnsetDelay	Cue2Back.OnsetTime	Cue2Back.DurationError	Cue2Back.OnsetToOnsetTime	Run1Block1	TargetType	CorrectResponse	StimType	BlockType	RunTrialNumber[Block]	TrialsPerRun[Block]	TotalRespGreater200[Block]	ConsecRTLess200[Block]	ConsecNonResp[Block]	ControlAcc	ConsecSameResp	ExperimenterWindow.OnsetDelay	ExperimenterWindow.OnsetTime	ExperimenterWindow.DurationError	ExperimenterWindow.OnsetToOnsetTime	Stim.OnsetDelay	Stim.OnsetTime	Stim.DurationError	Stim.RTTime	Stim.ACC	Stim.RT	Stim.RESP	Stim.CRESP	Stim.OnsetToOnsetTime	Fix.OnsetDelay	Fix.OnsetTime	Fix.DurationError	Fix.OnsetToOnsetTime	CueTarget.OnsetDelay	CueTarget.OnsetTime	CueTarget.DurationError	CueTarget.OnsetToOnsetTime	Run1Block2	Fix15sec.OnsetDelay	Fix15sec.OnsetTime	Fix15sec.DurationError	Fix15sec.OnsetToOnsetTime	Run1Block3	Run1Block4	Run1Block5	Run1Block6	Run1Block7	Run1Block8	Block	Procedure[Trial]	Stimulus[Trial]	ReadyList	Running[Trial]	ReadyList.Cycle	ReadyList.Sample	SyncSlide.OnsetDelay	SyncSlide.OnsetTime	SyncSlide.DurationError	SyncSlide.FinishTime	SyncSlide.OnsetToOnsetTime	Trial
WM080112	136833_fnca	1	1	1	-109505044	1	75.031	75.032	2.0.10.147	2.0.10.242	2.0.10.242	1.0.0.439	7	234	2	3	Verdana	1	80	0	0	0	WM Stimuli\	0.8	835.5	0.8	758.875	0.8	830.875	0.8	776.625	0.8	863.5	1	547.7	0.9	984.666666666667	1	585.8	12	572354	3	572343	28	40	572382	-999999	572357	0	1	TRSyncPROC	""	1	2	1	SessionSelectionList	103	33888	-999999	0	37	265617	-999999	0																																																	1	InitialTR	4	1	ReadyList	1	1	10	278638	-11	280627	0	1
WM080112	136833_fnca	1	1	1	-109505044	1	75.031	75.032	2.0.10.147	2.0.10.242	2.0.10.242	1.0.0.439	7	234	2	3	Verdana	1	80	0	0	0	WM Stimuli\	0.8	835.5	0.8	758.875	0.8	830.875	0.8	776.625	0.8	863.5	1	547.7	0.9	984.666666666667	1	585.8	12	572354	3	572343	28	40	572382	-999999	572357	0	1	TRSyncPROC	""	1	2	1	SessionSelectionList	103	33888	-999999	0	37	265617	-999999	0																																																	1	InitialTR	3	2	ReadyList	1	2	9	280637	-10	282627	0	2
WM080112	136833_fnca	1	1	1	-109505044	1	75.031	75.032	2.0.10.147	2.0.10.242	2.0.10.242	1.0.0.439	7	234	2	3	Verdana	1	80	0	0	0	WM Stimuli\	0.8	835.5	0.8	758.875	0.8	830.875	0.8	776.625	0.8	863.5	1	547.7	0.9	984.666666666667	1	585.8	12	572354	3	572343	28	40	572382	-999999	572357	0	1	TRSyncPROC	""	1	2	1	SessionSelectionList	103	33888	-999999	0	37	265617	-999999	0																																																	1	InitialTR	2	3	ReadyList	1	3	8	282636	-9	284627	0	3
WM080112	136833_fnca	1	1	1	-109505044	1	75.031	75.032	2.0.10.147	2.0.10.242	2.0.10.242	1.0.0.439	7	234	2	3	Verdana	1	80	0	0	0	WM Stimuli\	0.8	835.5	0.8	758.875	0.8	830.875	0.8	776.625	0.8	863.5	1	547.7	0.9	984.666666666667	1	585.8	12	572354	3	572343	28	40	572382	-999999	572357	0	1	TRSyncPROC	""	1	2	1	SessionSelectionList	103	33888	-999999	0	37	265617	-999999	0																																																	1	InitialTR	1	4	ReadyList	1	4	7	284635	-8	286627	0	4
WM080112	136833_fnca	1	1	1	-109505044	1	75.031	75.032	2.0.10.147	2.0.10.242	2.0.10.242	1.0.0.439	7	234	2	3	Verdana	1	80	0	0	0	WM Stimuli\	0.8	835.5	0.8	758.875	0.8	830.875	0.8	776.625	0.8	863.5	1	547.7	0.9	984.666666666667	1	585.8	12	572354	3	572343	28	40	572382	-999999	572357	0	2	Cue2BackPROC	""	1	2	2	SessionSelectionList									20	286648	-21	0																																													2												
WM080112	136833_fnca	1	1	1	-109505044	1	75.031	75.032	2.0.10.147	2.0.10.242	2.0.10.242	1.0.0.439	7	234	2	3	Verdana	1	80	0	0	0	WM Stimuli\	0.8	835.5	0.8	758.875	0.8	830.875	0.8	776.625	0.8	863.5	1	547.7	0.9	984.666666666667	1	585.8	12	572354	3	572343	28	40	572382	-999999	572357	0	3	TrialsPROC	BP_002_BP10_BA.png	1	2	3	SessionSelectionList													1	nonlure	3	Body	2-Back	2	80	1	0	0	0	1	52	291272	3	14	92	289220	-1	289750	1	530	3	3	2052	66	291286	-67	0																3												
WM080112	136833_fnca	1	1	1	-109505044	1	75.031	75.032	2.0.10.147	2.0.10.242	2.0.10.242	1.0.0.439	7	234	2	3	Verdana	1	80	0	0	0	WM Stimuli\	0.8	835.5	0.8	758.875	0.8	830.875	0.8	776.625	0.8	863.5	1	547.7	0.9	984.666666666667	1	585.8	12	572354	3	572343	28	40	572382	-999999	572357	0	3	TrialsPROC	BP_001_BP1_BA.png	1	2	4	SessionSelectionList													2	nonlure	3	Body	2-Back	3	80	2	0	0	0	2	39	293831	3	14	72	291792	-1	292366	1	574	3	3	2039	53	293845	-54	0																4												
WM080112	136833_fnca	1	1	1	-109505044	1	75.031	75.032	2.0.10.147	2.0.10.242	2.0.10.242	1.0.0.439	7	234	2	3	Verdana	1	80	0	0	0	WM Stimuli\	0.8	835.5	0.8	758.875	0.8	830.875	0.8	776.625	0.8	863.5	1	547.7	0.9	984.666666666667	1	585.8	12	572354	3	572343	28	40	572382	-999999	572357	0	3	TrialsPROC	BP_006_BP2_BA.png	1	2	5	SessionSelectionList													3	nonlure	3	Body	2-Back	4	80	3	0	0	0	1	39	296390	2	14	59	294351	-1	294818	0	467	2	3	2039	53	296404	-54	0																5												
WM080112	136833_fnca	1	1	1	-109505044	1	75.031	75.032	2.0.10.147	2.0.10.242	2.0.10.242	1.0.0.439	7	234	2	3	Verdana	1	80	0	0	0	WM Stimuli\	0.8	835.5	0.8	758.875	0.8	830.875	0.8	776.625	0.8	863.5	1	547.7	0.9	984.666666666667	1	585.8	12	572354	3	572343	28	40	572382	-999999	572357	0	3	TrialsPROC	BP_001_BP1_BA.png	1	2	6	SessionSelectionList													4	target	2	Body	2-Back	5	80	4	0	0	0	2	40	298963	1	13	72	296923	-1	298620	1	1697	2	2	2040	53	298976	-54	0																6												
WM080112	136833_fnca	1	1	1	-109505044	1	75.031	75.032	2.0.10.147	2.0.10.242	2.0.10.242	1.0.0.439	7	234	2	3	Verdana	1	80	0	0	0	WM Stimuli\	0.8	835.5	0.8	758.875	0.8	830.875	0.8	776.625	0.8	863.5	1	547.7	0.9	984.666666666667	1	585.8	12	572354	3	572343	28	40	572382	-999999	572357	0	3	TrialsPROC	BP_005_BP19_BA.png	1	2	7	SessionSelectionList													5	nonlure	3	Body	2-Back	6	80	5	0	0	0	1	39	301535	1	14	73	299496	-1	300248	1	752	3	3	2039	53	301549	-54	0																7												
WM080112	136833_fnca	1	1	1	-109505044	1	75.031	75.032	2.0.10.147	2.0.10.242	2.0.10.242	1.0.0.439	7	234	2	3	Verdana	1	80	0	0	0	WM Stimuli\	0.8	835.5	0.8	758.875	0.8	830.875	0.8	776.625	0.8	863.5	1	547.7	0.9	984.666666666667	1	585.8	12	572354	3	572343	28	40	572382	-999999	572357	0	3	TrialsPROC	BP_003_BP16_BA.png	1	2	8	SessionSelectionList													6	nonlure	3	Body	2-Back	7	80	6	0	0	0	2	39	304094	1	14	59	302055	-1	302748	1	693	3	3	2039	53	304108	-54	0																8												
WM080112	136833_fnca	1	1	1	-109505044	1	75.031	75.032	2.0.10.147	2.0.10.242	2.0.10.242	1.0.0.439	7	234	2	3	Verdana	1	80	0	0	0	WM Stimuli\	0.8	835.5	0.8	758.875	0.8	830.875	0.8	776.625	0.8	863.5	1	547.7	0.9	984.666666666667	1	585.8	12	572354	3	572343	28	40	572382	-999999	572357	0	3	TrialsPROC	BP_006_BP2_BA.png	1	2	9	SessionSelectionList													7	lure	3	Body	2-Back	8	80	7	0	0	0	1	39	306653	1	13	59	304614	-1	305528	0	914	2	3	2039	52	306666	-53	0																9												
WM080112	136833_fnca	1	1	1	-109505044	1	75.031	75.032	2.0.10.147	2.0.10.242	2.0.10.242	1.0.0.439	7	234	2	3	Verdana	1	80	0	0	0	WM Stimuli\	0.8	835.5	0.8	758.875	0.8	830.875	0.8	776.625	0.8	863.5	1	547.7	0.9	984.666666666667	1	585.8	12	572354	3	572343	28	40	572382	-999999	572357	0	3	TrialsPROC	BP_004_BP18_BA.png	1	2	10	SessionSelectionList													8	nonlure	3	Body	2-Back	9	80	8	0	0	0	1	40	309212	1	13	58	307172	-1	307888	1	716	3	3	2040	53	309225	-54	0																10												
WM080112	136833_fnca	1	1	1	-109505044	1	75.031	75.032	2.0.10.147	2.0.10.242	2.0.10.242	1.0.0.439	7	234	2	3	Verdana	1	80	0	0	0	WM Stimuli\	0.8	835.5	0.8	758.875	0.8	830.875	0.8	776.625	0.8	863.5	1	547.7	0.9	984.666666666667	1	585.8	12	572354	3	572343	28	40	572382	-999999	572357	0	3	TrialsPROC	BP_005_BP19_BA.png	1	2	11	SessionSelectionList													9	lure	3	Body	2-Back	10	80	9	0	0	0	2	39	311771	1	13	60	309732	-1	310408	1	676	3	3	2039	52	311784	-53	0																11												
WM080112	136833_fnca	1	1	1	-109505044	1	75.031	75.032	2.0.10.147	2.0.10.242	2.0.10.242	1.0.0.439	7	234	2	3	Verdana	1	80	0	0	0	WM Stimuli\	0.8	835.5	0.8	758.875	0.8	830.875	0.8	776.625	0.8	863.5	1	547.7	0.9	984.666666666667	1	585.8	12	572354	3	572343	28	40	572382	-999999	572357	0	3	TrialsPROC	BP_004_BP18_BA.png	1	2	12	SessionSelectionList													10	target	2	Body	2-Back	11	80	10	0	0	0	1	39	314329	2	14	58	312290	-1	313336	1	1046	2	2	2039	53	314343	-54	0																12												
WM080112	136833_fnca	1	1	1	-109505044	1	75.031	75.032	2.0.10.147	2.0.10.242	2.0.10.242	1.0.0.439	7	234	2	3	Verdana	1	80	0	0	0	WM Stimuli\	0.8	835.5	0.8	758.875	0.8	830.875	0.8	776.625	0.8	863.5	1	547.7	0.9	984.666666666667	1	585.8	12	572354	3	572343	28	40	572382	-999999	572357	0	4	Cue0BackPROC	FC_001_M1.png	1	2	13	SessionSelectionList																																										46	314836	-47	0												13												
WM080112	136833_fnca	1	1	1	-109505044	1	75.031	75.032	2.0.10.147	2.0.10.242	2.0.10.242	1.0.0.439	7	234	2	3	Verdana	1	80	0	0	0	WM Stimuli\	0.8	835.5	0.8	758.875	0.8	830.875	0.8	776.625	0.8	863.5	1	547.7	0.9	984.666666666667	1	585.8	12	572354	3	572343	28	40	572382	-999999	572357	0	5	TrialsPROC	FC_005_M3.png	1	2	14	SessionSelectionList														nonlure	3	Face	0-Back	12	80	11	0	0	0	2	39	319407	2	14	78	317368	-1	318750	0	1382	2	3	2039	53	319421	-54	0					1											14												
WM080112	136833_fnca	1	1	1	-109505044	1	75.031	75.032	2.0.10.147	2.0.10.242	2.0.10.242	1.0.0.439	7	234	2	3	Verdana	1	80	0	0	0	WM Stimuli\	0.8	835.5	0.8	758.875	0.8	830.875	0.8	776.625	0.8	863.5	1	547.7	0.9	984.666666666667	1	585.8	12	572354	3	572343	28	40	572382	-999999	572357	0	5	TrialsPROC	FC_001_M1.png	1	2	15	SessionSelectionList														target	2	Face	0-Back	13	80	12	0	0	50	3	40	321980	1	13	72	319940	-1	320878	1	938	2	2	2040	53	321993	-54	0					2											15												
WM080112	136833_fnca	1	1	1	-109505044	1	75.031	75.032	2.0.10.147	2.0.10.242	2.0.10.242	1.0.0.439	7	234	2	3	Verdana	1	80	0	0	0	WM Stimuli\	0.8	835.5	0.8	758.875	0.8	830.875	0.8	776.625	0.8	863.5	1	547.7	0.9	984.666666666667	1	585.8	12	572354	3	572343	28	40	572382	-999999	572357	0	5	TrialsPROC	FC_003_M2.png	1	2	16	SessionSelectionList														nonlure	3	Face	0-Back	14	80	13	0	0	67	1	39	324552	1	14	73	322513	-1	324220	1	1707	3	3	2039	53	324566	-54	0					3											16												
WM080112	136833_fnca	1	1	1	-109505044	1	75.031	75.032	2.0.10.147	2.0.10.242	2.0.10.242	1.0.0.439	7	234	2	3	Verdana	1	80	0	0	0	WM Stimuli\	0.8	835.5	0.8	758.875	0.8	830.875	0.8	776.625	0.8	863.5	1	547.7	0.9	984.666666666667	1	585.8	12	572354	3	572343	28	40	572382	-999999	572357	0	5	TrialsPROC	FC_004_F2.png	1	2	17	SessionSelectionList														nonlure	3	Face	0-Back	15	80	14	0	0	75	2	39	327124	1	14	72	325085	-1	325943	1	858	3	3	2039	53	327138	-54	0					4											17												
WM080112	136833_fnca	1	1	1	-109505044	1	75.031	75.032	2.0.10.147	2.0.10.242	2.0.10.242	1.0.0.439	7	234	2	3	Verdana	1	80	0	0	0	WM Stimuli\	0.8	835.5	0.8	758.875	0.8	830.875	0.8	776.625	0.8	863.5	1	547.7	0.9	984.666666666667	1	585.8	12	572354	3	572343	28	40	572382	-999999	572357	0	5	TrialsPROC	FC_004_F2.png	1	2	18	SessionSelectionList														lure	3	Face	0-Back	16	80	15	0	0	80	3	39	329696	2	14	72	327657	-1	328240	1	583	3	3	2039	53	329710	-54	0					5											18												
WM080112	136833_fnca	1	1	1	-109505044	1	75.031	75.032	2.0.10.147	2.0.10.242	2.0.10.242	1.0.0.439	7	234	2	3	Verdana	1	80	0	0	0	WM Stimuli\	0.8	835.5	0.8	758.875	0.8	830.875	0.8	776.625	0.8	863.5	1	547.7	0.9	984.666666666667	1	585.8	12	572354	3	572343	28	40	572382	-999999	572357	0	5	TrialsPROC	FC_001_M1.png	1	2	19	SessionSelectionList														target	2	Face	0-Back	17	80	16	0	0	83	1	40	332269	1	13	72	330229	-1	330954	1	725	2	2	2040	53	332282	-54	0					6											19												
WM080112	136833_fnca	1	1	1	-109505044	1	75.031	75.032	2.0.10.147	2.0.10.242	2.0.10.242	1.0.0.439	7	234	2	3	Verdana	1	80	0	0	0	WM Stimuli\	0.8	835.5	0.8	758.875	0.8	830.875	0.8	776.625	0.8	863.5	1	547.7	0.9	984.666666666667	1	585.8	12	572354	3	572343	28	40	572382	-999999	572357	0	5	TrialsPROC	FC_006_F3.png	1	2	20	SessionSelectionList														nonlure	3	Face	0-Back	18	80	17	0	0	86	1	39	334841	1	14	73	332802	-1	333350	1	548	3	3	2039	53	334855	-54	0					7											20												
WM080112	136833_fnca	1	1	1	-109505044	1	75.031	75.032	2.0.10.147	2.0.10.242	2.0.10.242	1.0.0.439	7	234	2	3	Verdana	1	80	0	0	0	WM Stimuli\	0.8	835.5	0.8	758.875	0.8	830.875	0.8	776.625	0.8	863.5	1	547.7	0.9	984.666666666667	1	585.8	12	572354	3	572343	28	40	572382	-999999	572357	0	5	TrialsPROC	FC_006_F3.png	1	2	21	SessionSelectionList														lure	3	Face	0-Back	19	80	18	0	0	88	2	39	337413	1	14	72	335374	-1	335750	1	376	3	3	2039	53	337427	-54	0					8											21												
WM080112	136833_fnca	1	1	1	-109505044	1	75.031	75.032	2.0.10.147	2.0.10.242	2.0.10.242	1.0.0.439	7	234	2	3	Verdana	1	80	0	0	0	WM Stimuli\	0.8	835.5	0.8	758.875	0.8	830.875	0.8	776.625	0.8	863.5	1	547.7	0.9	984.666666666667	1	585.8	12	572354	3	572343	28	40	572382	-999999	572357	0	5	TrialsPROC	FC_003_M2.png	1	2	22	SessionSelectionList														lure	3	Face	0-Back	20	80	19	0	0	78	1	39	339985	2	14	72	337946	-1	339132	0	1186	2	3	2039	53	339999	-54	0					9											22												
WM080112	136833_fnca	1	1	1	-109505044	1	75.031	75.032	2.0.10.147	2.0.10.242	2.0.10.242	1.0.0.439	7	234	2	3	Verdana	1	80	0	0	0	WM Stimuli\	0.8	835.5	0.8	758.875	0.8	830.875	0.8	776.625	0.8	863.5	1	547.7	0.9	984.666666666667	1	585.8	12	572354	3	572343	28	40	572382	-999999	572357	0	5	TrialsPROC	FC_002_F1.png	1	2	23	SessionSelectionList														nonlure	3	Face	0-Back	21	80	20	0	0	80	1	39	342571	1	14	86	340532	-1	341010	1	478	3	3	2039	53	342585	-54	0					10											23												
WM080112	136833_fnca	1	1	1	-109505044	1	75.031	75.032	2.0.10.147	2.0.10.242	2.0.10.242	1.0.0.439	7	234	2	3	Verdana	1	80	0	0	0	WM Stimuli\	0.8	835.5	0.8	758.875	0.8	830.875	0.8	776.625	0.8	863.5	1	547.7	0.9	984.666666666667	1	585.8	12	572354	3	572343	28	40	572382	-999999	572357	0	6	Fix15secPROC	""	1	2	24	SessionSelectionList																																															6	343038	-7	0							24												
WM080112	136833_fnca	1	1	1	-109505044	1	75.031	75.032	2.0.10.147	2.0.10.242	2.0.10.242	1.0.0.439	7	234	2	3	Verdana	1	80	0	0	0	WM Stimuli\	0.8	835.5	0.8	758.875	0.8	830.875	0.8	776.625	0.8	863.5	1	547.7	0.9	984.666666666667	1	585.8	12	572354	3	572343	28	40	572382	-999999	572357	0	7	Cue2BackPROC	""	1	2	25	SessionSelectionList									12	358044	-13	0																																													25												
WM080112	136833_fnca	1	1	1	-109505044	1	75.031	75.032	2.0.10.147	2.0.10.242	2.0.10.242	1.0.0.439	7	234	2	3	Verdana	1	80	0	0	0	WM Stimuli\	0.8	835.5	0.8	758.875	0.8	830.875	0.8	776.625	0.8	863.5	1	547.7	0.9	984.666666666667	1	585.8	12	572354	3	572343	28	40	572382	-999999	572357	0	8	TrialsPROC	TO_001_TOOL1_BA.png	1	2	26	SessionSelectionList														nonlure	3	Tools	2-Back	22	80	21	0	0	80	2	39	362656	1	14	85	360617	-1	361588	1	971	3	3	2039	53	362670	-54	0										1						26												
WM080112	136833_fnca	1	1	1	-109505044	1	75.031	75.032	2.0.10.147	2.0.10.242	2.0.10.242	1.0.0.439	7	234	2	3	Verdana	1	80	0	0	0	WM Stimuli\	0.8	835.5	0.8	758.875	0.8	830.875	0.8	776.625	0.8	863.5	1	547.7	0.9	984.666666666667	1	585.8	12	572354	3	572343	28	40	572382	-999999	572357	0	8	TrialsPROC	TO_002_TOOL2_BA.png	1	2	27	SessionSelectionList														nonlure	3	Tools	2-Back	23	80	22	0	0	80	3	39	365241	2	14	85	363202	-1	363758	1	556	3	3	2039	53	365255	-54	0										2						27												
WM080112	136833_fnca	1	1	1	-109505044	1	75.031	75.032	2.0.10.147	2.0.10.242	2.0.10.242	1.0.0.439	7	234	2	3	Verdana	1	80	0	0	0	WM Stimuli\	0.8	835.5	0.8	758.875	0.8	830.875	0.8	776.625	0.8	863.5	1	547.7	0.9	984.666666666667	1	585.8	12	572354	3	572343	28	40	572382	-999999	572357	0	8	TrialsPROC	TO_004_TOOL4_BA.png	1	2	28	SessionSelectionList														nonlure	3	Tools	2-Back	24	80	23	0	0	80	4	39	367814	1	13	73	365775	-1	367055	1	1280	3	3	2039	52	367827	-53	0										3						28												
WM080112	136833_fnca	1	1	1	-109505044	1	75.031	75.032	2.0.10.147	2.0.10.242	2.0.10.242	1.0.0.439	7	234	2	3	Verdana	1	80	0	0	0	WM Stimuli\	0.8	835.5	0.8	758.875	0.8	830.875	0.8	776.625	0.8	863.5	1	547.7	0.9	984.666666666667	1	585.8	12	572354	3	572343	28	40	572382	-999999	572357	0	8	TrialsPROC	TO_002_TOOL2_BA.png	1	2	29	SessionSelectionList														target	2	Tools	2-Back	25	80	24	0	0	80	1	40	370373	1	13	58	368333	-1	369479	1	1146	2	2	2040	53	370386	-54	0										4						29												
WM080112	136833_fnca	1	1	1	-109505044	1	75.031	75.032	2.0.10.147	2.0.10.242	2.0.10.242	1.0.0.439	7	234	2	3	Verdana	1	80	0	0	0	WM Stimuli\	0.8	835.5	0.8	758.875	0.8	830.875	0.8	776.625	0.8	863.5	1	547.7	0.9	984.666666666667	1	585.8	12	572354	3	572343	28	40	572382	-999999	572357	0	8	TrialsPROC	TO_001_TOOL1_BA.png	1	2	30	SessionSelectionList														lure	3	Tools	2-Back	26	80	25	0	0	80	1	40	372932	1	13	59	370892	-1	372504	1	1612	3	3	2040	53	372945	-54	0										5						30												
WM080112	136833_fnca	1	1	1	-109505044	1	75.031	75.032	2.0.10.147	2.0.10.242	2.0.10.242	1.0.0.439	7	234	2	3	Verdana	1	80	0	0	0	WM Stimuli\	0.8	835.5	0.8	758.875	0.8	830.875	0.8	776.625	0.8	863.5	1	547.7	0.9	984.666666666667	1	585.8	12	572354	3	572343	28	40	572382	-999999	572357	0	8	TrialsPROC	TO_004_TOOL4_BA.png	1	2	31	SessionSelectionList														lure	3	Tools	2-Back	27	80	26	0	0	80	2	39	375490	2	14	59	373451	-1	374661	1	1210	3	3	2039	53	375504	-54	0										6						31												
WM080112	136833_fnca	1	1	1	-109505044	1	75.031	75.032	2.0.10.147	2.0.10.242	2.0.10.242	1.0.0.439	7	234	2	3	Verdana	1	80	0	0	0	WM Stimuli\	0.8	835.5	0.8	758.875	0.8	830.875	0.8	776.625	0.8	863.5	1	547.7	0.9	984.666666666667	1	585.8	12	572354	3	572343	28	40	572382	-999999	572357	0	8	TrialsPROC	TO_006_TOOL6_BA.png	1	2	32	SessionSelectionList														nonlure	3	Tools	2-Back	28	80	27	0	0	80	3	39	378076	1	14	86	376037	-1	376843	1	806	3	3	2039	53	378090	-54	0										7						32												
WM080112	136833_fnca	1	1	1	-109505044	1	75.031	75.032	2.0.10.147	2.0.10.242	2.0.10.242	1.0.0.439	7	234	2	3	Verdana	1	80	0	0	0	WM Stimuli\	0.8	835.5	0.8	758.875	0.8	830.875	0.8	776.625	0.8	863.5	1	547.7	0.9	984.666666666667	1	585.8	12	572354	3	572343	28	40	572382	-999999	572357	0	8	TrialsPROC	TO_005_TOOL5_BA.png	1	2	33	SessionSelectionList														nonlure	3	Tools	2-Back	29	80	28	0	0	80	4	40	380662	1	13	85	378622	-1	379307	1	685	3	3	2040	53	380675	-54	0										8						33												
WM080112	136833_fnca	1	1	1	-109505044	1	75.031	75.032	2.0.10.147	2.0.10.242	2.0.10.242	1.0.0.439	7	234	2	3	Verdana	1	80	0	0	0	WM Stimuli\	0.8	835.5	0.8	758.875	0.8	830.875	0.8	776.625	0.8	863.5	1	547.7	0.9	984.666666666667	1	585.8	12	572354	3	572343	28	40	572382	-999999	572357	0	8	TrialsPROC	TO_006_TOOL6_BA.png	1	2	34	SessionSelectionList														target	2	Tools	2-Back	30	80	29	0	0	80	5	40	383221	1	13	59	381181	-1	382567	0	1386	3	2	2040	53	383234	-54	0										9						34												
WM080112	136833_fnca	1	1	1	-109505044	1	75.031	75.032	2.0.10.147	2.0.10.242	2.0.10.242	1.0.0.439	7	234	2	3	Verdana	1	80	0	0	0	WM Stimuli\	0.8	835.5	0.8	758.875	0.8	830.875	0.8	776.625	0.8	863.5	1	547.7	0.9	984.666666666667	1	585.8	12	572354	3	572343	28	40	572382	-999999	572357	0	8	TrialsPROC	TO_003_TOOL3_BA.png	1	2	35	SessionSelectionList														nonlure	3	Tools	2-Back	31	80	30	0	0	80	6	39	385780	1	13	60	383741	-1	384337	1	596	3	3	2039	52	385793	-53	0										10						35												
WM080112	136833_fnca	1	1	1	-109505044	1	75.031	75.032	2.0.10.147	2.0.10.242	2.0.10.242	1.0.0.439	7	234	2	3	Verdana	1	80	0	0	0	WM Stimuli\	0.8	835.5	0.8	758.875	0.8	830.875	0.8	776.625	0.8	863.5	1	547.7	0.9	984.666666666667	1	585.8	12	572354	3	572343	28	40	572382	-999999	572357	0	9	Cue0BackPROC	BP_007_BP20_BA.png	1	2	36	SessionSelectionList																																										32	386273	-33	0												36												
WM080112	136833_fnca	1	1	1	-109505044	1	75.031	75.032	2.0.10.147	2.0.10.242	2.0.10.242	1.0.0.439	7	234	2	3	Verdana	1	80	0	0	0	WM Stimuli\	0.8	835.5	0.8	758.875	0.8	830.875	0.8	776.625	0.8	863.5	1	547.7	0.9	984.666666666667	1	585.8	12	572354	3	572343	28	40	572382	-999999	572357	0	10	TrialsPROC	BP_007_BP20_BA.png	1	2	37	SessionSelectionList														target	2	Body	0-Back	32	80	31	0	0	82	1	39	390831	1	13	51	388792	-1	390558	1	1766	2	2	2039	52	390844	-53	0											1					37												
WM080112	136833_fnca	1	1	1	-109505044	1	75.031	75.032	2.0.10.147	2.0.10.242	2.0.10.242	1.0.0.439	7	234	2	3	Verdana	1	80	0	0	0	WM Stimuli\	0.8	835.5	0.8	758.875	0.8	830.875	0.8	776.625	0.8	863.5	1	547.7	0.9	984.666666666667	1	585.8	12	572354	3	572343	28	40	572382	-999999	572357	0	10	TrialsPROC	BP_011_BP4_BA.png	1	2	38	SessionSelectionList														nonlure	3	Body	0-Back	33	80	32	0	0	83	1	39	393403	1	14	72	391364	-1	392124	1	760	3	3	2039	53	393417	-54	0											2					38												
WM080112	136833_fnca	1	1	1	-109505044	1	75.031	75.032	2.0.10.147	2.0.10.242	2.0.10.242	1.0.0.439	7	234	2	3	Verdana	1	80	0	0	0	WM Stimuli\	0.8	835.5	0.8	758.875	0.8	830.875	0.8	776.625	0.8	863.5	1	547.7	0.9	984.666666666667	1	585.8	12	572354	3	572343	28	40	572382	-999999	572357	0	10	TrialsPROC	BP_010_BP3_BA.png	1	2	39	SessionSelectionList														nonlure	3	Body	0-Back	34	80	33	0	0	85	2	39	395975	2	14	72	393936	-1	394439	1	503	3	3	2039	53	395989	-54	0											3					39												
WM080112	136833_fnca	1	1	1	-109505044	1	75.031	75.032	2.0.10.147	2.0.10.242	2.0.10.242	1.0.0.439	7	234	2	3	Verdana	1	80	0	0	0	WM Stimuli\	0.8	835.5	0.8	758.875	0.8	830.875	0.8	776.625	0.8	863.5	1	547.7	0.9	984.666666666667	1	585.8	12	572354	3	572343	28	40	572382	-999999	572357	0	10	TrialsPROC	BP_008_BP21_BA.png	1	2	40	SessionSelectionList														nonlure	3	Body	0-Back	35	80	34	0	0	86	3	39	398534	1	14	59	396495	-1	397261	1	766	3	3	2039	53	398548	-54	0											4					40												
WM080112	136833_fnca	1	1	1	-109505044	1	75.031	75.032	2.0.10.147	2.0.10.242	2.0.10.242	1.0.0.439	7	234	2	3	Verdana	1	80	0	0	0	WM Stimuli\	0.8	835.5	0.8	758.875	0.8	830.875	0.8	776.625	0.8	863.5	1	547.7	0.9	984.666666666667	1	585.8	12	572354	3	572343	28	40	572382	-999999	572357	0	10	TrialsPROC	BP_011_BP4_BA.png	1	2	41	SessionSelectionList														lure	3	Body	0-Back	36	80	35	0	0	87	4	39	401106	2	14	72	399067	-1	399706	1	639	3	3	2039	53	401120	-54	0											5					41												
WM080112	136833_fnca	1	1	1	-109505044	1	75.031	75.032	2.0.10.147	2.0.10.242	2.0.10.242	1.0.0.439	7	234	2	3	Verdana	1	80	0	0	0	WM Stimuli\	0.8	835.5	0.8	758.875	0.8	830.875	0.8	776.625	0.8	863.5	1	547.7	0.9	984.666666666667	1	585.8	12	572354	3	572343	28	40	572382	-999999	572357	0	10	TrialsPROC	BP_009_BP22_BA.png	1	2	42	SessionSelectionList														nonlure	3	Body	0-Back	37	80	36	0	0	88	5	39	403665	2	14	59	401626	-1	402266	1	640	3	3	2039	53	403679	-54	0											6					42												
WM080112	136833_fnca	1	1	1	-109505044	1	75.031	75.032	2.0.10.147	2.0.10.242	2.0.10.242	1.0.0.439	7	234	2	3	Verdana	1	80	0	0	0	WM Stimuli\	0.8	835.5	0.8	758.875	0.8	830.875	0.8	776.625	0.8	863.5	1	547.7	0.9	984.666666666667	1	585.8	12	572354	3	572343	28	40	572382	-999999	572357	0	10	TrialsPROC	BP_009_BP22_BA.png	1	2	43	SessionSelectionList														lure	3	Body	0-Back	38	80	37	0	0	88	6	39	406224	2	14	59	404185	-1	404599	1	414	3	3	2039	53	406238	-54	0											7					43												
WM080112	136833_fnca	1	1	1	-109505044	1	75.031	75.032	2.0.10.147	2.0.10.242	2.0.10.242	1.0.0.439	7	234	2	3	Verdana	1	80	0	0	0	WM Stimuli\	0.8	835.5	0.8	758.875	0.8	830.875	0.8	776.625	0.8	863.5	1	547.7	0.9	984.666666666667	1	585.8	12	572354	3	572343	28	40	572382	-999999	572357	0	10	TrialsPROC	BP_008_BP21_BA.png	1	2	44	SessionSelectionList														lure	3	Body	0-Back	39	80	38	0	0	83	1	39	408783	1	14	59	406744	-1	408422	0	1678	2	3	2039	53	408797	-54	0											8					44												
WM080112	136833_fnca	1	1	1	-109505044	1	75.031	75.032	2.0.10.147	2.0.10.242	2.0.10.242	1.0.0.439	7	234	2	3	Verdana	1	80	0	0	0	WM Stimuli\	0.8	835.5	0.8	758.875	0.8	830.875	0.8	776.625	0.8	863.5	1	547.7	0.9	984.666666666667	1	585.8	12	572354	3	572343	28	40	572382	-999999	572357	0	10	TrialsPROC	BP_007_BP20_BA.png	1	2	45	SessionSelectionList														target	2	Body	0-Back	40	80	38	0	1	79	1	39	411342	1	14	59	409303	-1	0	0	0	""	2	2039	53	411356	-54	0											9					45												
WM080112	136833_fnca	1	1	1	-109505044	1	75.031	75.032	2.0.10.147	2.0.10.242	2.0.10.242	1.0.0.439	7	234	2	3	Verdana	1	80	0	0	0	WM Stimuli\	0.8	835.5	0.8	758.875	0.8	830.875	0.8	776.625	0.8	863.5	1	547.7	0.9	984.666666666667	1	585.8	12	572354	3	572343	28	40	572382	-999999	572357	0	10	TrialsPROC	BP_012_BP5_BA.png	1	2	46	SessionSelectionList														nonlure	3	Body	0-Back	41	80	39	0	0	80	1	39	413914	2	14	72	411875	-1	412458	1	583	3	3	2039	53	413928	-54	0											10					46												
WM080112	136833_fnca	1	1	1	-109505044	1	75.031	75.032	2.0.10.147	2.0.10.242	2.0.10.242	1.0.0.439	7	234	2	3	Verdana	1	80	0	0	0	WM Stimuli\	0.8	835.5	0.8	758.875	0.8	830.875	0.8	776.625	0.8	863.5	1	547.7	0.9	984.666666666667	1	585.8	12	572354	3	572343	28	40	572382	-999999	572357	0	11	Fix15secPROC	""	1	2	47	SessionSelectionList																																															6	414381	-7	0							47												
WM080112	136833_fnca	1	1	1	-109505044	1	75.031	75.032	2.0.10.147	2.0.10.242	2.0.10.242	1.0.0.439	7	234	2	3	Verdana	1	80	0	0	0	WM Stimuli\	0.8	835.5	0.8	758.875	0.8	830.875	0.8	776.625	0.8	863.5	1	547.7	0.9	984.666666666667	1	585.8	12	572354	3	572343	28	40	572382	-999999	572357	0	12	Cue0BackPROC	PL_001_92012.png	1	2	48	SessionSelectionList																																										39	429414	-40	0												48												
WM080112	136833_fnca	1	1	1	-109505044	1	75.031	75.032	2.0.10.147	2.0.10.242	2.0.10.242	1.0.0.439	7	234	2	3	Verdana	1	80	0	0	0	WM Stimuli\	0.8	835.5	0.8	758.875	0.8	830.875	0.8	776.625	0.8	863.5	1	547.7	0.9	984.666666666667	1	585.8	12	572354	3	572343	28	40	572382	-999999	572357	0	13	TrialsPROC	PL_003_92016.png	1	2	49	SessionSelectionList														nonlure	3	Place	0-Back	42	80	40	0	0	81	2	39	433986	1	14	72	431947	-1	432699	1	752	3	3	2039	53	434000	-54	0												1				49												
WM080112	136833_fnca	1	1	1	-109505044	1	75.031	75.032	2.0.10.147	2.0.10.242	2.0.10.242	1.0.0.439	7	234	2	3	Verdana	1	80	0	0	0	WM Stimuli\	0.8	835.5	0.8	758.875	0.8	830.875	0.8	776.625	0.8	863.5	1	547.7	0.9	984.666666666667	1	585.8	12	572354	3	572343	28	40	572382	-999999	572357	0	13	TrialsPROC	PL_003_92016.png	1	2	50	SessionSelectionList														lure	3	Place	0-Back	43	80	41	0	0	82	3	39	436558	2	14	72	434519	-1	434974	1	455	3	3	2039	53	436572	-54	0												2				50												
WM080112	136833_fnca	1	1	1	-109505044	1	75.031	75.032	2.0.10.147	2.0.10.242	2.0.10.242	1.0.0.439	7	234	2	3	Verdana	1	80	0	0	0	WM Stimuli\	0.8	835.5	0.8	758.875	0.8	830.875	0.8	776.625	0.8	863.5	1	547.7	0.9	984.666666666667	1	585.8	12	572354	3	572343	28	40	572382	-999999	572357	0	13	TrialsPROC	PL_006_92025.png	1	2	51	SessionSelectionList														nonlure	3	Place	0-Back	44	80	42	0	0	83	4	39	439144	1	13	86	437105	-1	437520	1	415	3	3	2039	52	439157	-53	0												3				51												
WM080112	136833_fnca	1	1	1	-109505044	1	75.031	75.032	2.0.10.147	2.0.10.242	2.0.10.242	1.0.0.439	7	234	2	3	Verdana	1	80	0	0	0	WM Stimuli\	0.8	835.5	0.8	758.875	0.8	830.875	0.8	776.625	0.8	863.5	1	547.7	0.9	984.666666666667	1	585.8	12	572354	3	572343	28	40	572382	-999999	572357	0	13	TrialsPROC	PL_001_92012.png	1	2	52	SessionSelectionList														target	2	Place	0-Back	45	80	43	0	0	83	1	39	441716	1	14	72	439677	-1	440411	1	734	2	2	2039	53	441730	-54	0												4				52												
WM080112	136833_fnca	1	1	1	-109505044	1	75.031	75.032	2.0.10.147	2.0.10.242	2.0.10.242	1.0.0.439	7	234	2	3	Verdana	1	80	0	0	0	WM Stimuli\	0.8	835.5	0.8	758.875	0.8	830.875	0.8	776.625	0.8	863.5	1	547.7	0.9	984.666666666667	1	585.8	12	572354	3	572343	28	40	572382	-999999	572357	0	13	TrialsPROC	PL_004_92023.png	1	2	53	SessionSelectionList														nonlure	3	Place	0-Back	46	80	44	0	0	84	1	39	444288	2	14	72	442249	-1	442751	1	502	3	3	2039	53	444302	-54	0												5				53												
WM080112	136833_fnca	1	1	1	-109505044	1	75.031	75.032	2.0.10.147	2.0.10.242	2.0.10.242	1.0.0.439	7	234	2	3	Verdana	1	80	0	0	0	WM Stimuli\	0.8	835.5	0.8	758.875	0.8	830.875	0.8	776.625	0.8	863.5	1	547.7	0.9	984.666666666667	1	585.8	12	572354	3	572343	28	40	572382	-999999	572357	0	13	TrialsPROC	PL_005_92024.png	1	2	54	SessionSelectionList														nonlure	3	Place	0-Back	47	80	45	0	0	85	2	39	446860	2	14	72	444821	-1	445292	1	471	3	3	2039	53	446874	-54	0												6				54												
WM080112	136833_fnca	1	1	1	-109505044	1	75.031	75.032	2.0.10.147	2.0.10.242	2.0.10.242	1.0.0.439	7	234	2	3	Verdana	1	80	0	0	0	WM Stimuli\	0.8	835.5	0.8	758.875	0.8	830.875	0.8	776.625	0.8	863.5	1	547.7	0.9	984.666666666667	1	585.8	12	572354	3	572343	28	40	572382	-999999	572357	0	13	TrialsPROC	PL_001_92012.png	1	2	55	SessionSelectionList														target	2	Place	0-Back	48	80	46	0	0	85	1	39	449433	1	13	73	447394	-1	447910	1	516	2	2	2039	52	449446	-53	0												7				55												
WM080112	136833_fnca	1	1	1	-109505044	1	75.031	75.032	2.0.10.147	2.0.10.242	2.0.10.242	1.0.0.439	7	234	2	3	Verdana	1	80	0	0	0	WM Stimuli\	0.8	835.5	0.8	758.875	0.8	830.875	0.8	776.625	0.8	863.5	1	547.7	0.9	984.666666666667	1	585.8	12	572354	3	572343	28	40	572382	-999999	572357	0	13	TrialsPROC	PL_002_92014.png	1	2	56	SessionSelectionList														nonlure	3	Place	0-Back	49	80	47	0	0	86	1	39	452018	2	14	85	449979	-1	450573	1	594	3	3	2039	53	452032	-54	0												8				56												
WM080112	136833_fnca	1	1	1	-109505044	1	75.031	75.032	2.0.10.147	2.0.10.242	2.0.10.242	1.0.0.439	7	234	2	3	Verdana	1	80	0	0	0	WM Stimuli\	0.8	835.5	0.8	758.875	0.8	830.875	0.8	776.625	0.8	863.5	1	547.7	0.9	984.666666666667	1	585.8	12	572354	3	572343	28	40	572382	-999999	572357	0	13	TrialsPROC	PL_004_92023.png	1	2	57	SessionSelectionList														lure	3	Place	0-Back	50	80	48	0	0	86	2	40	454591	1	13	72	452551	-1	453083	1	532	3	3	2040	53	454604	-54	0												9				57												
WM080112	136833_fnca	1	1	1	-109505044	1	75.031	75.032	2.0.10.147	2.0.10.242	2.0.10.242	1.0.0.439	7	234	2	3	Verdana	1	80	0	0	0	WM Stimuli\	0.8	835.5	0.8	758.875	0.8	830.875	0.8	776.625	0.8	863.5	1	547.7	0.9	984.666666666667	1	585.8	12	572354	3	572343	28	40	572382	-999999	572357	0	13	TrialsPROC	PL_006_92025.png	1	2	58	SessionSelectionList														lure	3	Place	0-Back	51	80	49	0	0	87	3	39	457163	1	14	73	455124	-1	455630	1	506	3	3	2039	53	457177	-54	0												10				58												
WM080112	136833_fnca	1	1	1	-109505044	1	75.031	75.032	2.0.10.147	2.0.10.242	2.0.10.242	1.0.0.439	7	234	2	3	Verdana	1	80	0	0	0	WM Stimuli\	0.8	835.5	0.8	758.875	0.8	830.875	0.8	776.625	0.8	863.5	1	547.7	0.9	984.666666666667	1	585.8	12	572354	3	572343	28	40	572382	-999999	572357	0	14	Cue2BackPROC	""	1	2	59	SessionSelectionList									5	457629	-6	0																																													59												
WM080112	136833_fnca	1	1	1	-109505044	1	75.031	75.032	2.0.10.147	2.0.10.242	2.0.10.242	1.0.0.439	7	234	2	3	Verdana	1	80	0	0	0	WM Stimuli\	0.8	835.5	0.8	758.875	0.8	830.875	0.8	776.625	0.8	863.5	1	547.7	0.9	984.666666666667	1	585.8	12	572354	3	572343	28	40	572382	-999999	572357	0	15	TrialsPROC	FC_010_F5.png	1	2	60	SessionSelectionList														nonlure	3	Face	2-Back	52	80	49	0	1	87	3	39	462254	1	14	91	460215	-1	0	0	0	""	3	2039	53	462268	-54	0													1			60												
WM080112	136833_fnca	1	1	1	-109505044	1	75.031	75.032	2.0.10.147	2.0.10.242	2.0.10.242	1.0.0.439	7	234	2	3	Verdana	1	80	0	0	0	WM Stimuli\	0.8	835.5	0.8	758.875	0.8	830.875	0.8	776.625	0.8	863.5	1	547.7	0.9	984.666666666667	1	585.8	12	572354	3	572343	28	40	572382	-999999	572357	0	15	TrialsPROC	FC_012_F6.png	1	2	61	SessionSelectionList														nonlure	3	Face	2-Back	53	80	50	0	0	87	1	39	464826	2	14	72	462787	-1	464031	1	1244	3	3	2039	53	464840	-54	0													2			61												
WM080112	136833_fnca	1	1	1	-109505044	1	75.031	75.032	2.0.10.147	2.0.10.242	2.0.10.242	1.0.0.439	7	234	2	3	Verdana	1	80	0	0	0	WM Stimuli\	0.8	835.5	0.8	758.875	0.8	830.875	0.8	776.625	0.8	863.5	1	547.7	0.9	984.666666666667	1	585.8	12	572354	3	572343	28	40	572382	-999999	572357	0	15	TrialsPROC	FC_010_F5.png	1	2	62	SessionSelectionList														target	2	Face	2-Back	54	80	51	0	0	87	1	40	467399	1	13	72	465359	-1	465965	1	606	2	2	2040	53	467412	-54	0													3			62												
WM080112	136833_fnca	1	1	1	-109505044	1	75.031	75.032	2.0.10.147	2.0.10.242	2.0.10.242	1.0.0.439	7	234	2	3	Verdana	1	80	0	0	0	WM Stimuli\	0.8	835.5	0.8	758.875	0.8	830.875	0.8	776.625	0.8	863.5	1	547.7	0.9	984.666666666667	1	585.8	12	572354	3	572343	28	40	572382	-999999	572357	0	15	TrialsPROC	FC_008_F4.png	1	2	63	SessionSelectionList														nonlure	3	Face	2-Back	55	80	52	0	0	87	1	39	469984	1	14	86	467945	-1	468531	1	586	3	3	2039	53	469998	-54	0													4			63												
WM080112	136833_fnca	1	1	1	-109505044	1	75.031	75.032	2.0.10.147	2.0.10.242	2.0.10.242	1.0.0.439	7	234	2	3	Verdana	1	80	0	0	0	WM Stimuli\	0.8	835.5	0.8	758.875	0.8	830.875	0.8	776.625	0.8	863.5	1	547.7	0.9	984.666666666667	1	585.8	12	572354	3	572343	28	40	572382	-999999	572357	0	15	TrialsPROC	FC_012_F6.png	1	2	64	SessionSelectionList														lure	3	Face	2-Back	56	80	53	0	0	87	1	39	472556	2	14	72	470517	-1	471087	0	570	2	3	2039	53	472570	-54	0													5			64												
WM080112	136833_fnca	1	1	1	-109505044	1	75.031	75.032	2.0.10.147	2.0.10.242	2.0.10.242	1.0.0.439	7	234	2	3	Verdana	1	80	0	0	0	WM Stimuli\	0.8	835.5	0.8	758.875	0.8	830.875	0.8	776.625	0.8	863.5	1	547.7	0.9	984.666666666667	1	585.8	12	572354	3	572343	28	40	572382	-999999	572357	0	15	TrialsPROC	FC_008_F4.png	1	2	65	SessionSelectionList														target	2	Face	2-Back	57	80	54	0	0	87	2	40	475129	1	13	72	473089	-1	473900	1	811	2	2	2040	53	475142	-54	0													6			65												
WM080112	136833_fnca	1	1	1	-109505044	1	75.031	75.032	2.0.10.147	2.0.10.242	2.0.10.242	1.0.0.439	7	234	2	3	Verdana	1	80	0	0	0	WM Stimuli\	0.8	835.5	0.8	758.875	0.8	830.875	0.8	776.625	0.8	863.5	1	547.7	0.9	984.666666666667	1	585.8	12	572354	3	572343	28	40	572382	-999999	572357	0	15	TrialsPROC	FC_007_M4.png	1	2	66	SessionSelectionList														nonlure	3	Face	2-Back	58	80	55	0	0	87	1	39	477714	3	14	86	475675	-1	476231	1	556	3	3	2039	53	477728	-54	0													7			66												
WM080112	136833_fnca	1	1	1	-109505044	1	75.031	75.032	2.0.10.147	2.0.10.242	2.0.10.242	1.0.0.439	7	234	2	3	Verdana	1	80	0	0	0	WM Stimuli\	0.8	835.5	0.8	758.875	0.8	830.875	0.8	776.625	0.8	863.5	1	547.7	0.9	984.666666666667	1	585.8	12	572354	3	572343	28	40	572382	-999999	572357	0	15	TrialsPROC	FC_007_M4.png	1	2	67	SessionSelectionList														lure	3	Face	2-Back	59	80	56	0	0	87	2	39	480286	2	14	72	478247	-1	479575	1	1328	3	3	2039	53	480300	-54	0													8			67												
WM080112	136833_fnca	1	1	1	-109505044	1	75.031	75.032	2.0.10.147	2.0.10.242	2.0.10.242	1.0.0.439	7	234	2	3	Verdana	1	80	0	0	0	WM Stimuli\	0.8	835.5	0.8	758.875	0.8	830.875	0.8	776.625	0.8	863.5	1	547.7	0.9	984.666666666667	1	585.8	12	572354	3	572343	28	40	572382	-999999	572357	0	15	TrialsPROC	FC_009_M5.png	1	2	68	SessionSelectionList														nonlure	3	Face	2-Back	60	80	57	0	0	87	3	39	482859	1	13	73	480820	-1	481630	1	810	3	3	2039	52	482872	-53	0													9			68												
WM080112	136833_fnca	1	1	1	-109505044	1	75.031	75.032	2.0.10.147	2.0.10.242	2.0.10.242	1.0.0.439	7	234	2	3	Verdana	1	80	0	0	0	WM Stimuli\	0.8	835.5	0.8	758.875	0.8	830.875	0.8	776.625	0.8	863.5	1	547.7	0.9	984.666666666667	1	585.8	12	572354	3	572343	28	40	572382	-999999	572357	0	15	TrialsPROC	FC_011_M6.png	1	2	69	SessionSelectionList														nonlure	3	Face	2-Back	61	80	58	0	0	87	4	39	485444	2	14	85	483405	-1	484111	1	706	3	3	2039	53	485458	-54	0													10			69												
WM080112	136833_fnca	1	1	1	-109505044	1	75.031	75.032	2.0.10.147	2.0.10.242	2.0.10.242	1.0.0.439	7	234	2	3	Verdana	1	80	0	0	0	WM Stimuli\	0.8	835.5	0.8	758.875	0.8	830.875	0.8	776.625	0.8	863.5	1	547.7	0.9	984.666666666667	1	585.8	12	572354	3	572343	28	40	572382	-999999	572357	0	16	Fix15secPROC	""	1	2	70	SessionSelectionList																																															6	485911	-7	0							70												
WM080112	136833_fnca	1	1	1	-109505044	1	75.031	75.032	2.0.10.147	2.0.10.242	2.0.10.242	1.0.0.439	7	234	2	3	Verdana	1	80	0	0	0	WM Stimuli\	0.8	835.5	0.8	758.875	0.8	830.875	0.8	776.625	0.8	863.5	1	547.7	0.9	984.666666666667	1	585.8	12	572354	3	572343	28	40	572382	-999999	572357	0	17	Cue0BackPROC	TO_007_TOOL7_BA.png	1	2	71	SessionSelectionList																																										26	500931	-27	0												71												
WM080112	136833_fnca	1	1	1	-109505044	1	75.031	75.032	2.0.10.147	2.0.10.242	2.0.10.242	1.0.0.439	7	234	2	3	Verdana	1	80	0	0	0	WM Stimuli\	0.8	835.5	0.8	758.875	0.8	830.875	0.8	776.625	0.8	863.5	1	547.7	0.9	984.666666666667	1	585.8	12	572354	3	572343	28	40	572382	-999999	572357	0	18	TrialsPROC	TO_010_TOOL10_BA.png	1	2	72	SessionSelectionList														nonlure	3	Tools	0-Back	62	80	59	0	0	87	5	39	505529	2	14	85	503490	-1	504004	1	514	3	3	2039	53	505543	-54	0														1		72												
WM080112	136833_fnca	1	1	1	-109505044	1	75.031	75.032	2.0.10.147	2.0.10.242	2.0.10.242	1.0.0.439	7	234	2	3	Verdana	1	80	0	0	0	WM Stimuli\	0.8	835.5	0.8	758.875	0.8	830.875	0.8	776.625	0.8	863.5	1	547.7	0.9	984.666666666667	1	585.8	12	572354	3	572343	28	40	572382	-999999	572357	0	18	TrialsPROC	TO_009_TOOL9_BA.png	1	2	73	SessionSelectionList														nonlure	3	Tools	0-Back	63	80	60	0	0	88	6	39	508101	2	14	72	506062	-1	506612	1	550	3	3	2039	53	508115	-54	0														2		73												
WM080112	136833_fnca	1	1	1	-109505044	1	75.031	75.032	2.0.10.147	2.0.10.242	2.0.10.242	1.0.0.439	7	234	2	3	Verdana	1	80	0	0	0	WM Stimuli\	0.8	835.5	0.8	758.875	0.8	830.875	0.8	776.625	0.8	863.5	1	547.7	0.9	984.666666666667	1	585.8	12	572354	3	572343	28	40	572382	-999999	572357	0	18	TrialsPROC	TO_009_TOOL9_BA.png	1	2	74	SessionSelectionList														lure	3	Tools	0-Back	64	80	61	0	0	88	7	39	510660	2	14	59	508621	-1	509220	1	599	3	3	2039	53	510674	-54	0														3		74												
WM080112	136833_fnca	1	1	1	-109505044	1	75.031	75.032	2.0.10.147	2.0.10.242	2.0.10.242	1.0.0.439	7	234	2	3	Verdana	1	80	0	0	0	WM Stimuli\	0.8	835.5	0.8	758.875	0.8	830.875	0.8	776.625	0.8	863.5	1	547.7	0.9	984.666666666667	1	585.8	12	572354	3	572343	28	40	572382	-999999	572357	0	18	TrialsPROC	TO_008_TOOL8_BA.png	1	2	75	SessionSelectionList														nonlure	3	Tools	0-Back	65	80	62	0	0	88	8	39	513246	1	14	86	511207	-1	512090	1	883	3	3	2039	53	513260	-54	0														4		75												
WM080112	136833_fnca	1	1	1	-109505044	1	75.031	75.032	2.0.10.147	2.0.10.242	2.0.10.242	1.0.0.439	7	234	2	3	Verdana	1	80	0	0	0	WM Stimuli\	0.8	835.5	0.8	758.875	0.8	830.875	0.8	776.625	0.8	863.5	1	547.7	0.9	984.666666666667	1	585.8	12	572354	3	572343	28	40	572382	-999999	572357	0	18	TrialsPROC	TO_011_TOOL11_BA.png	1	2	76	SessionSelectionList														nonlure	3	Tools	0-Back	66	80	63	0	0	89	9	39	515818	2	14	72	513779	-1	514199	1	420	3	3	2039	53	515832	-54	0														5		76												
WM080112	136833_fnca	1	1	1	-109505044	1	75.031	75.032	2.0.10.147	2.0.10.242	2.0.10.242	1.0.0.439	7	234	2	3	Verdana	1	80	0	0	0	WM Stimuli\	0.8	835.5	0.8	758.875	0.8	830.875	0.8	776.625	0.8	863.5	1	547.7	0.9	984.666666666667	1	585.8	12	572354	3	572343	28	40	572382	-999999	572357	0	18	TrialsPROC	TO_012_TOOL12_BA.png	1	2	77	SessionSelectionList														nonlure	3	Tools	0-Back	67	80	64	0	0	89	10	39	518404	1	14	86	516365	-1	516754	1	389	3	3	2039	53	518418	-54	0														6		77												
WM080112	136833_fnca	1	1	1	-109505044	1	75.031	75.032	2.0.10.147	2.0.10.242	2.0.10.242	1.0.0.439	7	234	2	3	Verdana	1	80	0	0	0	WM Stimuli\	0.8	835.5	0.8	758.875	0.8	830.875	0.8	776.625	0.8	863.5	1	547.7	0.9	984.666666666667	1	585.8	12	572354	3	572343	28	40	572382	-999999	572357	0	18	TrialsPROC	TO_010_TOOL10_BA.png	1	2	78	SessionSelectionList														lure	3	Tools	0-Back	68	80	65	0	0	89	11	39	520963	1	13	59	518924	-1	519516	1	592	3	3	2039	52	520976	-53	0														7		78												
WM080112	136833_fnca	1	1	1	-109505044	1	75.031	75.032	2.0.10.147	2.0.10.242	2.0.10.242	1.0.0.439	7	234	2	3	Verdana	1	80	0	0	0	WM Stimuli\	0.8	835.5	0.8	758.875	0.8	830.875	0.8	776.625	0.8	863.5	1	547.7	0.9	984.666666666667	1	585.8	12	572354	3	572343	28	40	572382	-999999	572357	0	18	TrialsPROC	TO_007_TOOL7_BA.png	1	2	79	SessionSelectionList														target	2	Tools	0-Back	69	80	66	0	0	89	1	39	523522	1	13	59	521483	-1	522013	1	530	2	2	2039	52	523535	-53	0														8		79												
WM080112	136833_fnca	1	1	1	-109505044	1	75.031	75.032	2.0.10.147	2.0.10.242	2.0.10.242	1.0.0.439	7	234	2	3	Verdana	1	80	0	0	0	WM Stimuli\	0.8	835.5	0.8	758.875	0.8	830.875	0.8	776.625	0.8	863.5	1	547.7	0.9	984.666666666667	1	585.8	12	572354	3	572343	28	40	572382	-999999	572357	0	18	TrialsPROC	TO_008_TOOL8_BA.png	1	2	80	SessionSelectionList														lure	3	Tools	0-Back	70	80	67	0	0	90	1	40	526081	1	13	58	524041	-1	524829	1	788	3	3	2040	53	526094	-54	0														9		80												
WM080112	136833_fnca	1	1	1	-109505044	1	75.031	75.032	2.0.10.147	2.0.10.242	2.0.10.242	1.0.0.439	7	234	2	3	Verdana	1	80	0	0	0	WM Stimuli\	0.8	835.5	0.8	758.875	0.8	830.875	0.8	776.625	0.8	863.5	1	547.7	0.9	984.666666666667	1	585.8	12	572354	3	572343	28	40	572382	-999999	572357	0	18	TrialsPROC	TO_007_TOOL7_BA.png	1	2	81	SessionSelectionList														target	2	Tools	0-Back	71	80	68	0	0	90	1	39	528639	2	14	59	526600	-1	527193	1	593	2	2	2039	53	528653	-54	0														10		81												
WM080112	136833_fnca	1	1	1	-109505044	1	75.031	75.032	2.0.10.147	2.0.10.242	2.0.10.242	1.0.0.439	7	234	2	3	Verdana	1	80	0	0	0	WM Stimuli\	0.8	835.5	0.8	758.875	0.8	830.875	0.8	776.625	0.8	863.5	1	547.7	0.9	984.666666666667	1	585.8	12	572354	3	572343	28	40	572382	-999999	572357	0	19	Cue2BackPROC	""	1	2	82	SessionSelectionList									6	529106	-7	0																																													82												
WM080112	136833_fnca	1	1	1	-109505044	1	75.031	75.032	2.0.10.147	2.0.10.242	2.0.10.242	1.0.0.439	7	234	2	3	Verdana	1	80	0	0	0	WM Stimuli\	0.8	835.5	0.8	758.875	0.8	830.875	0.8	776.625	0.8	863.5	1	547.7	0.9	984.666666666667	1	585.8	12	572354	3	572343	28	40	572382	-999999	572357	0	20	TrialsPROC	PL_007_92026.png	1	2	83	SessionSelectionList														nonlure	3	Place	2-Back	72	80	69	0	0	90	1	39	533717	2	14	78	531678	-1	532952	1	1274	3	3	2039	53	533731	-54	0															1	83												
WM080112	136833_fnca	1	1	1	-109505044	1	75.031	75.032	2.0.10.147	2.0.10.242	2.0.10.242	1.0.0.439	7	234	2	3	Verdana	1	80	0	0	0	WM Stimuli\	0.8	835.5	0.8	758.875	0.8	830.875	0.8	776.625	0.8	863.5	1	547.7	0.9	984.666666666667	1	585.8	12	572354	3	572343	28	40	572382	-999999	572357	0	20	TrialsPROC	PL_007_92026.png	1	2	84	SessionSelectionList														lure	3	Place	2-Back	73	80	70	0	0	90	2	40	536290	1	13	72	534250	-1	535751	1	1501	3	3	2040	53	536303	-54	0															2	84												
WM080112	136833_fnca	1	1	1	-109505044	1	75.031	75.032	2.0.10.147	2.0.10.242	2.0.10.242	1.0.0.439	7	234	2	3	Verdana	1	80	0	0	0	WM Stimuli\	0.8	835.5	0.8	758.875	0.8	830.875	0.8	776.625	0.8	863.5	1	547.7	0.9	984.666666666667	1	585.8	12	572354	3	572343	28	40	572382	-999999	572357	0	20	TrialsPROC	PL_010_92038.png	1	2	85	SessionSelectionList														nonlure	3	Place	2-Back	74	80	71	0	0	90	3	39	538875	2	14	86	536836	-1	537514	1	678	3	3	2039	53	538889	-54	0															3	85												
WM080112	136833_fnca	1	1	1	-109505044	1	75.031	75.032	2.0.10.147	2.0.10.242	2.0.10.242	1.0.0.439	7	234	2	3	Verdana	1	80	0	0	0	WM Stimuli\	0.8	835.5	0.8	758.875	0.8	830.875	0.8	776.625	0.8	863.5	1	547.7	0.9	984.666666666667	1	585.8	12	572354	3	572343	28	40	572382	-999999	572357	0	20	TrialsPROC	PL_009_92037.png	1	2	86	SessionSelectionList														nonlure	3	Place	2-Back	75	80	72	0	0	90	4	39	541447	2	14	72	539408	-1	539909	1	501	3	3	2039	53	541461	-54	0															4	86												
WM080112	136833_fnca	1	1	1	-109505044	1	75.031	75.032	2.0.10.147	2.0.10.242	2.0.10.242	1.0.0.439	7	234	2	3	Verdana	1	80	0	0	0	WM Stimuli\	0.8	835.5	0.8	758.875	0.8	830.875	0.8	776.625	0.8	863.5	1	547.7	0.9	984.666666666667	1	585.8	12	572354	3	572343	28	40	572382	-999999	572357	0	20	TrialsPROC	PL_010_92038.png	1	2	87	SessionSelectionList														target	2	Place	2-Back	76	80	73	0	0	90	1	39	544020	1	13	73	541981	-1	543133	1	1152	2	2	2039	52	544033	-53	0															5	87												
WM080112	136833_fnca	1	1	1	-109505044	1	75.031	75.032	2.0.10.147	2.0.10.242	2.0.10.242	1.0.0.439	7	234	2	3	Verdana	1	80	0	0	0	WM Stimuli\	0.8	835.5	0.8	758.875	0.8	830.875	0.8	776.625	0.8	863.5	1	547.7	0.9	984.666666666667	1	585.8	12	572354	3	572343	28	40	572382	-999999	572357	0	20	TrialsPROC	PL_009_92037.png	1	2	88	SessionSelectionList														target	2	Place	2-Back	77	80	74	0	0	90	1	39	546592	1	14	72	544553	-1	545502	0	949	3	2	2039	53	546606	-54	0															6	88												
WM080112	136833_fnca	1	1	1	-109505044	1	75.031	75.032	2.0.10.147	2.0.10.242	2.0.10.242	1.0.0.439	7	234	2	3	Verdana	1	80	0	0	0	WM Stimuli\	0.8	835.5	0.8	758.875	0.8	830.875	0.8	776.625	0.8	863.5	1	547.7	0.9	984.666666666667	1	585.8	12	572354	3	572343	28	40	572382	-999999	572357	0	20	TrialsPROC	PL_008_92033.png	1	2	89	SessionSelectionList														nonlure	3	Place	2-Back	78	80	75	0	0	90	2	39	549164	2	14	72	547125	-1	547734	1	609	3	3	2039	53	549178	-54	0															7	89												
WM080112	136833_fnca	1	1	1	-109505044	1	75.031	75.032	2.0.10.147	2.0.10.242	2.0.10.242	1.0.0.439	7	234	2	3	Verdana	1	80	0	0	0	WM Stimuli\	0.8	835.5	0.8	758.875	0.8	830.875	0.8	776.625	0.8	863.5	1	547.7	0.9	984.666666666667	1	585.8	12	572354	3	572343	28	40	572382	-999999	572357	0	20	TrialsPROC	PL_012_92047.png	1	2	90	SessionSelectionList														nonlure	3	Place	2-Back	79	80	76	0	0	90	3	39	551736	2	14	72	549697	-1	550203	1	506	3	3	2039	53	551750	-54	0															8	90												
WM080112	136833_fnca	1	1	1	-109505044	1	75.031	75.032	2.0.10.147	2.0.10.242	2.0.10.242	1.0.0.439	7	234	2	3	Verdana	1	80	0	0	0	WM Stimuli\	0.8	835.5	0.8	758.875	0.8	830.875	0.8	776.625	0.8	863.5	1	547.7	0.9	984.666666666667	1	585.8	12	572354	3	572343	28	40	572382	-999999	572357	0	20	TrialsPROC	PL_012_92047.png	1	2	91	SessionSelectionList														lure	3	Place	2-Back	80	80	77	0	0	90	1	39	554309	1	13	73	552270	-1	553496	0	1226	2	3	2039	52	554322	-53	0															9	91												
WM080112	136833_fnca	1	1	1	-109505044	1	75.031	75.032	2.0.10.147	2.0.10.242	2.0.10.242	1.0.0.439	7	234	2	3	Verdana	1	80	0	0	0	WM Stimuli\	0.8	835.5	0.8	758.875	0.8	830.875	0.8	776.625	0.8	863.5	1	547.7	0.9	984.666666666667	1	585.8	12	572354	3	572343	28	40	572382	-999999	572357	0	20	TrialsPROC	PL_011_92044.png	1	2	92	SessionSelectionList														nonlure	3	Place	2-Back	80	80	78	0	0	90	1	39	556881	1	14	72	554842	-1	555529	1	687	3	3	2039	53	556895	-54	0															10	92												
WM080112	136833_fnca	1	1	1	-109505044	1	75.031	75.032	2.0.10.147	2.0.10.242	2.0.10.242	1.0.0.439	7	234	2	3	Verdana	1	80	0	0	0	WM Stimuli\	0.8	835.5	0.8	758.875	0.8	830.875	0.8	776.625	0.8	863.5	1	547.7	0.9	984.666666666667	1	585.8	12	572354	3	572343	28	40	572382	-999999	572357	0	21	Fix15secPROC	""	1	2	93	SessionSelectionList																																															6	557348	-7	0							93												
