ExperimentName	HCPID	RunNumber	Subject	Session	RandomSeed	Group	Laptop.RefreshRate	ScannerD2.RefreshRate	StudioVersion	RuntimeVersion	RuntimeVersionExpected	ExperimentVersion	triggercode	Allowed	Target	Nontarget	FontStyle	RunTrialNumber[Session]	TrialsPerRun[Session]	TotalRespGreater200[Session]	ConsecRTLess200[Session]	ConsecNonResp[Session]	StimuliDir	ACC_2_Back_Body	Avg_RT_For_Correct_Trials_2_Back_Body	ACC_0_Back_Body	Avg_RT_For_Correct_Trials_0_Back_Body	ACC_2_Back_Face	Avg_RT_For_Correct_Trials_2_Back_Face	ACC_0_Back_Face	Avg_RT_For_Correct_Trials_0_Back_Face	ACC_2_Back_Place	Avg_RT_For_Correct_Trials_2_Back_Place	ACC_0_Back_Place	Avg_RT_For_Correct_Trials_0_Back_Place	ACC_2_Back_Tools	Avg_RT_For_Correct_Trials_2_Back_Tools	ACC_0_Back_Tools	Avg_RT_For_Correct_Trials_0_Back_Tools	ExpInstrucFeelFreeToRest.OnsetDelay	ExpInstrucFeelFreeToRest.OnsetTime	ExpInstrucFeelFreeToRest.DurationError	ExpInstrucFeelFreeToRest.StartTime	ExpInstrucFeelFreeToRest.OnsetToOnsetTime	FeelFreeToRest.OnsetDelay	FeelFreeToRest.OnsetTime	FeelFreeToRest.DurationError	FeelFreeToRest.StartTime	FeelFreeToRest.OnsetToOnsetTime	SessionSelectionList	Procedure[Block]	Stimulus[Block]	RunNumberFilterValue	SessionSelectionList.Cycle	SessionSelectionList.Sample	Running[Block]	IntroButtonMap.OnsetDelay	IntroButtonMap.OnsetTime	IntroButtonMap.DurationError	IntroButtonMap.OnsetToOnsetTime	GetReady.OnsetDelay	GetReady.OnsetTime	GetReady.DurationError	GetReady.OnsetToOnsetTime	Cue2Back.OnsetDelay	Cue2Back.OnsetTime	Cue2Back.DurationError	Cue2Back.OnsetToOnsetTime	Run1Block1	TargetType	CorrectResponse	StimType	BlockType	RunTrialNumber[Block]	TrialsPerRun[Block]	TotalRespGreater200[Block]	ConsecRTLess200[Block]	ConsecNonResp[Block]	ControlAcc	ConsecSameResp	ExperimenterWindow.OnsetDelay	ExperimenterWindow.OnsetTime	ExperimenterWindow.DurationError	ExperimenterWindow.OnsetToOnsetTime	Stim.OnsetDelay	Stim.OnsetTime	Stim.DurationError	Stim.RTTime	Stim.ACC	Stim.RT	Stim.RESP	Stim.CRESP	Stim.OnsetToOnsetTime	Fix.OnsetDelay	Fix.OnsetTime	Fix.DurationError	Fix.OnsetToOnsetTime	CueTarget.OnsetDelay	CueTarget.OnsetTime	CueTarget.DurationError	CueTarget.OnsetToOnsetTime	Run1Block2	Fix15sec.OnsetDelay	Fix15sec.OnsetTime	Fix15sec.DurationError	Fix15sec.OnsetToOnsetTime	Run1Block3	Run1Block4	Run1Block5	Run1Block6	Run1Block7	Run1Block8	Block	Procedure[Trial]	Stimulus[Trial]	ReadyList	Running[Trial]	ReadyList.Cycle	ReadyList.Sample	SyncSlide.OnsetDelay	SyncSlide.OnsetTime	SyncSlide.DurationError	SyncSlide.FinishTime	SyncSlide.OnsetToOnsetTime	Trial
WM080112	103818_fnca	1	1	1	1982539764	1	75.031	75.031	2.0.10.147	2.0.10.242	2.0.10.242	1.0.0.439	7	234	2	3	Verdana	1	80	0	0	0	WM Stimuli\	0.8	1132.375	1	851.4	0.9	1112.11111111111	1	787.6	0.8	1251.25	1	847.2	0.8	1225	0.9	974.777777777778	12	538719	3	538708	14	26	538733	-999999	538722	0	1	TRSyncPROC	""	1	2	1	SessionSelectionList	96	22170	-999999	0	27	231245	-999999	0																																																	1	InitialTR	4	1	ReadyList	1	1	16	245466	-17	247449	0	1
WM080112	103818_fnca	1	1	1	1982539764	1	75.031	75.031	2.0.10.147	2.0.10.242	2.0.10.242	1.0.0.439	7	234	2	3	Verdana	1	80	0	0	0	WM Stimuli\	0.8	1132.375	1	851.4	0.9	1112.11111111111	1	787.6	0.8	1251.25	1	847.2	0.8	1225	0.9	974.777777777778	12	538719	3	538708	14	26	538733	-999999	538722	0	1	TRSyncPROC	""	1	2	1	SessionSelectionList	96	22170	-999999	0	27	231245	-999999	0																																																	1	InitialTR	3	2	ReadyList	1	2	15	247465	-16	249449	0	2
WM080112	103818_fnca	1	1	1	1982539764	1	75.031	75.031	2.0.10.147	2.0.10.242	2.0.10.242	1.0.0.439	7	234	2	3	Verdana	1	80	0	0	0	WM Stimuli\	0.8	1132.375	1	851.4	0.9	1112.11111111111	1	787.6	0.8	1251.25	1	847.2	0.8	1225	0.9	974.777777777778	12	538719	3	538708	14	26	538733	-999999	538722	0	1	TRSyncPROC	""	1	2	1	SessionSelectionList	96	22170	-999999	0	27	231245	-999999	0																																																	1	InitialTR	2	3	ReadyList	1	3	14	249464	-15	251449	0	3
WM080112	103818_fnca	1	1	1	1982539764	1	75.031	75.031	2.0.10.147	2.0.10.242	2.0.10.242	1.0.0.439	7	234	2	3	Verdana	1	80	0	0	0	WM Stimuli\	0.8	1132.375	1	851.4	0.9	1112.11111111111	1	787.6	0.8	1251.25	1	847.2	0.8	1225	0.9	974.777777777778	12	538719	3	538708	14	26	538733	-999999	538722	0	1	TRSyncPROC	""	1	2	1	SessionSelectionList	96	22170	-999999	0	27	231245	-999999	0																																																	1	InitialTR	1	4	ReadyList	1	4	13	251463	-14	253449	0	4
WM080112	103818_fnca	1	1	1	1982539764	1	75.031	75.031	2.0.10.147	2.0.10.242	2.0.10.242	1.0.0.439	7	234	2	3	Verdana	1	80	0	0	0	WM Stimuli\	0.8	1132.375	1	851.4	0.9	1112.11111111111	1	787.6	0.8	1251.25	1	847.2	0.8	1225	0.9	974.777777777778	12	538719	3	538708	14	26	538733	-999999	538722	0	2	Cue2BackPROC	""	1	2	2	SessionSelectionList									12	253462	-13	0																																													2												
WM080112	103818_fnca	1	1	1	1982539764	1	75.031	75.031	2.0.10.147	2.0.10.242	2.0.10.242	1.0.0.439	7	234	2	3	Verdana	1	80	0	0	0	WM Stimuli\	0.8	1132.375	1	851.4	0.9	1112.11111111111	1	787.6	0.8	1251.25	1	847.2	0.8	1225	0.9	974.777777777778	12	538719	3	538708	14	26	538733	-999999	538722	0	3	TrialsPROC	BP_002_BP10_BA.png	1	2	3	SessionSelectionList													1	nonlure	3	Body	2-Back	2	80	1	0	0	0	1	53	258074	3	14	71	256021	-1	256623	1	602	3	3	2053	67	258088	-68	0																3												
WM080112	103818_fnca	1	1	1	1982539764	1	75.031	75.031	2.0.10.147	2.0.10.242	2.0.10.242	1.0.0.439	7	234	2	3	Verdana	1	80	0	0	0	WM Stimuli\	0.8	1132.375	1	851.4	0.9	1112.11111111111	1	787.6	0.8	1251.25	1	847.2	0.8	1225	0.9	974.777777777778	12	538719	3	538708	14	26	538733	-999999	538722	0	3	TrialsPROC	BP_001_BP1_BA.png	1	2	4	SessionSelectionList													2	nonlure	3	Body	2-Back	3	80	2	0	0	0	2	39	260633	2	13	73	258594	-1	260164	1	1570	3	3	2039	52	260646	-53	0																4												
WM080112	103818_fnca	1	1	1	1982539764	1	75.031	75.031	2.0.10.147	2.0.10.242	2.0.10.242	1.0.0.439	7	234	2	3	Verdana	1	80	0	0	0	WM Stimuli\	0.8	1132.375	1	851.4	0.9	1112.11111111111	1	787.6	0.8	1251.25	1	847.2	0.8	1225	0.9	974.777777777778	12	538719	3	538708	14	26	538733	-999999	538722	0	3	TrialsPROC	BP_006_BP2_BA.png	1	2	5	SessionSelectionList													3	nonlure	3	Body	2-Back	4	80	3	0	0	0	3	39	263192	1	13	59	261153	-1	262527	1	1374	3	3	2039	52	263205	-53	0																5												
WM080112	103818_fnca	1	1	1	1982539764	1	75.031	75.031	2.0.10.147	2.0.10.242	2.0.10.242	1.0.0.439	7	234	2	3	Verdana	1	80	0	0	0	WM Stimuli\	0.8	1132.375	1	851.4	0.9	1112.11111111111	1	787.6	0.8	1251.25	1	847.2	0.8	1225	0.9	974.777777777778	12	538719	3	538708	14	26	538733	-999999	538722	0	3	TrialsPROC	BP_001_BP1_BA.png	1	2	6	SessionSelectionList													4	target	2	Body	2-Back	5	80	4	0	0	0	1	39	265764	3	14	72	263725	-1	264704	1	979	2	2	2039	53	265778	-54	0																6												
WM080112	103818_fnca	1	1	1	1982539764	1	75.031	75.031	2.0.10.147	2.0.10.242	2.0.10.242	1.0.0.439	7	234	2	3	Verdana	1	80	0	0	0	WM Stimuli\	0.8	1132.375	1	851.4	0.9	1112.11111111111	1	787.6	0.8	1251.25	1	847.2	0.8	1225	0.9	974.777777777778	12	538719	3	538708	14	26	538733	-999999	538722	0	3	TrialsPROC	BP_005_BP19_BA.png	1	2	7	SessionSelectionList													5	nonlure	3	Body	2-Back	6	80	5	0	0	0	1	39	268336	3	14	72	266297	-1	267303	1	1006	3	3	2039	53	268350	-54	0																7												
WM080112	103818_fnca	1	1	1	1982539764	1	75.031	75.031	2.0.10.147	2.0.10.242	2.0.10.242	1.0.0.439	7	234	2	3	Verdana	1	80	0	0	0	WM Stimuli\	0.8	1132.375	1	851.4	0.9	1112.11111111111	1	787.6	0.8	1251.25	1	847.2	0.8	1225	0.9	974.777777777778	12	538719	3	538708	14	26	538733	-999999	538722	0	3	TrialsPROC	BP_003_BP16_BA.png	1	2	8	SessionSelectionList													6	nonlure	3	Body	2-Back	7	80	6	0	0	0	2	39	270895	2	14	59	268856	-1	269728	1	872	3	3	2039	53	270909	-54	0																8												
WM080112	103818_fnca	1	1	1	1982539764	1	75.031	75.031	2.0.10.147	2.0.10.242	2.0.10.242	1.0.0.439	7	234	2	3	Verdana	1	80	0	0	0	WM Stimuli\	0.8	1132.375	1	851.4	0.9	1112.11111111111	1	787.6	0.8	1251.25	1	847.2	0.8	1225	0.9	974.777777777778	12	538719	3	538708	14	26	538733	-999999	538722	0	3	TrialsPROC	BP_006_BP2_BA.png	1	2	9	SessionSelectionList													7	lure	3	Body	2-Back	8	80	7	0	0	0	3	39	273454	2	14	59	271415	-1	272673	1	1258	3	3	2039	53	273468	-54	0																9												
WM080112	103818_fnca	1	1	1	1982539764	1	75.031	75.031	2.0.10.147	2.0.10.242	2.0.10.242	1.0.0.439	7	234	2	3	Verdana	1	80	0	0	0	WM Stimuli\	0.8	1132.375	1	851.4	0.9	1112.11111111111	1	787.6	0.8	1251.25	1	847.2	0.8	1225	0.9	974.777777777778	12	538719	3	538708	14	26	538733	-999999	538722	0	3	TrialsPROC	BP_004_BP18_BA.png	1	2	10	SessionSelectionList													8	nonlure	3	Body	2-Back	9	80	8	0	0	0	4	39	276013	2	14	59	273974	-1	275372	1	1398	3	3	2039	53	276027	-54	0																10												
WM080112	103818_fnca	1	1	1	1982539764	1	75.031	75.031	2.0.10.147	2.0.10.242	2.0.10.242	1.0.0.439	7	234	2	3	Verdana	1	80	0	0	0	WM Stimuli\	0.8	1132.375	1	851.4	0.9	1112.11111111111	1	787.6	0.8	1251.25	1	847.2	0.8	1225	0.9	974.777777777778	12	538719	3	538708	14	26	538733	-999999	538722	0	3	TrialsPROC	BP_005_BP19_BA.png	1	2	11	SessionSelectionList													9	lure	3	Body	2-Back	10	80	9	0	0	0	1	39	278572	2	14	59	276533	-1	277085	0	552	2	3	2039	53	278586	-54	0																11												
WM080112	103818_fnca	1	1	1	1982539764	1	75.031	75.031	2.0.10.147	2.0.10.242	2.0.10.242	1.0.0.439	7	234	2	3	Verdana	1	80	0	0	0	WM Stimuli\	0.8	1132.375	1	851.4	0.9	1112.11111111111	1	787.6	0.8	1251.25	1	847.2	0.8	1225	0.9	974.777777777778	12	538719	3	538708	14	26	538733	-999999	538722	0	3	TrialsPROC	BP_004_BP18_BA.png	1	2	12	SessionSelectionList													10	target	2	Body	2-Back	11	80	10	0	0	0	1	39	281131	2	14	59	279092	-1	279970	0	878	3	2	2039	53	281145	-54	0																12												
WM080112	103818_fnca	1	1	1	1982539764	1	75.031	75.031	2.0.10.147	2.0.10.242	2.0.10.242	1.0.0.439	7	234	2	3	Verdana	1	80	0	0	0	WM Stimuli\	0.8	1132.375	1	851.4	0.9	1112.11111111111	1	787.6	0.8	1251.25	1	847.2	0.8	1225	0.9	974.777777777778	12	538719	3	538708	14	26	538733	-999999	538722	0	4	Cue0BackPROC	FC_001_M1.png	1	2	13	SessionSelectionList																																										19	281611	-20	0												13												
WM080112	103818_fnca	1	1	1	1982539764	1	75.031	75.031	2.0.10.147	2.0.10.242	2.0.10.242	1.0.0.439	7	234	2	3	Verdana	1	80	0	0	0	WM Stimuli\	0.8	1132.375	1	851.4	0.9	1112.11111111111	1	787.6	0.8	1251.25	1	847.2	0.8	1225	0.9	974.777777777778	12	538719	3	538708	14	26	538733	-999999	538722	0	5	TrialsPROC	FC_005_M3.png	1	2	14	SessionSelectionList														nonlure	3	Face	0-Back	12	80	11	0	0	100	2	39	286196	1	13	65	284157	-1	285303	1	1146	3	3	2039	52	286209	-53	0					1											14												
WM080112	103818_fnca	1	1	1	1982539764	1	75.031	75.031	2.0.10.147	2.0.10.242	2.0.10.242	1.0.0.439	7	234	2	3	Verdana	1	80	0	0	0	WM Stimuli\	0.8	1132.375	1	851.4	0.9	1112.11111111111	1	787.6	0.8	1251.25	1	847.2	0.8	1225	0.9	974.777777777778	12	538719	3	538708	14	26	538733	-999999	538722	0	5	TrialsPROC	FC_001_M1.png	1	2	15	SessionSelectionList														target	2	Face	0-Back	13	80	12	0	0	100	1	39	288768	1	14	72	286729	-1	287430	1	701	2	2	2039	53	288782	-54	0					2											15												
WM080112	103818_fnca	1	1	1	1982539764	1	75.031	75.031	2.0.10.147	2.0.10.242	2.0.10.242	1.0.0.439	7	234	2	3	Verdana	1	80	0	0	0	WM Stimuli\	0.8	1132.375	1	851.4	0.9	1112.11111111111	1	787.6	0.8	1251.25	1	847.2	0.8	1225	0.9	974.777777777778	12	538719	3	538708	14	26	538733	-999999	538722	0	5	TrialsPROC	FC_003_M2.png	1	2	16	SessionSelectionList														nonlure	3	Face	0-Back	14	80	13	0	0	100	1	39	291340	3	14	72	289301	-1	289680	1	379	3	3	2039	53	291354	-54	0					3											16												
WM080112	103818_fnca	1	1	1	1982539764	1	75.031	75.031	2.0.10.147	2.0.10.242	2.0.10.242	1.0.0.439	7	234	2	3	Verdana	1	80	0	0	0	WM Stimuli\	0.8	1132.375	1	851.4	0.9	1112.11111111111	1	787.6	0.8	1251.25	1	847.2	0.8	1225	0.9	974.777777777778	12	538719	3	538708	14	26	538733	-999999	538722	0	5	TrialsPROC	FC_004_F2.png	1	2	17	SessionSelectionList														nonlure	3	Face	0-Back	15	80	14	0	0	100	2	40	293913	2	13	72	291873	-1	292492	1	619	3	3	2040	53	293926	-54	0					4											17												
WM080112	103818_fnca	1	1	1	1982539764	1	75.031	75.031	2.0.10.147	2.0.10.242	2.0.10.242	1.0.0.439	7	234	2	3	Verdana	1	80	0	0	0	WM Stimuli\	0.8	1132.375	1	851.4	0.9	1112.11111111111	1	787.6	0.8	1251.25	1	847.2	0.8	1225	0.9	974.777777777778	12	538719	3	538708	14	26	538733	-999999	538722	0	5	TrialsPROC	FC_004_F2.png	1	2	18	SessionSelectionList														lure	3	Face	0-Back	16	80	15	0	0	100	3	39	296485	1	14	73	294446	-1	295069	1	623	3	3	2039	53	296499	-54	0					5											18												
WM080112	103818_fnca	1	1	1	1982539764	1	75.031	75.031	2.0.10.147	2.0.10.242	2.0.10.242	1.0.0.439	7	234	2	3	Verdana	1	80	0	0	0	WM Stimuli\	0.8	1132.375	1	851.4	0.9	1112.11111111111	1	787.6	0.8	1251.25	1	847.2	0.8	1225	0.9	974.777777777778	12	538719	3	538708	14	26	538733	-999999	538722	0	5	TrialsPROC	FC_001_M1.png	1	2	19	SessionSelectionList														target	2	Face	0-Back	17	80	16	0	0	100	1	39	299057	3	14	72	297018	-1	297622	1	604	2	2	2039	53	299071	-54	0					6											19												
WM080112	103818_fnca	1	1	1	1982539764	1	75.031	75.031	2.0.10.147	2.0.10.242	2.0.10.242	1.0.0.439	7	234	2	3	Verdana	1	80	0	0	0	WM Stimuli\	0.8	1132.375	1	851.4	0.9	1112.11111111111	1	787.6	0.8	1251.25	1	847.2	0.8	1225	0.9	974.777777777778	12	538719	3	538708	14	26	538733	-999999	538722	0	5	TrialsPROC	FC_006_F3.png	1	2	20	SessionSelectionList														nonlure	3	Face	0-Back	18	80	17	0	0	100	1	39	301629	2	14	72	299590	-1	300122	1	532	3	3	2039	53	301643	-54	0					7											20												
WM080112	103818_fnca	1	1	1	1982539764	1	75.031	75.031	2.0.10.147	2.0.10.242	2.0.10.242	1.0.0.439	7	234	2	3	Verdana	1	80	0	0	0	WM Stimuli\	0.8	1132.375	1	851.4	0.9	1112.11111111111	1	787.6	0.8	1251.25	1	847.2	0.8	1225	0.9	974.777777777778	12	538719	3	538708	14	26	538733	-999999	538722	0	5	TrialsPROC	FC_006_F3.png	1	2	21	SessionSelectionList														lure	3	Face	0-Back	19	80	18	0	0	100	2	39	304202	1	13	73	302163	-1	303103	1	940	3	3	2039	52	304215	-53	0					8											21												
WM080112	103818_fnca	1	1	1	1982539764	1	75.031	75.031	2.0.10.147	2.0.10.242	2.0.10.242	1.0.0.439	7	234	2	3	Verdana	1	80	0	0	0	WM Stimuli\	0.8	1132.375	1	851.4	0.9	1112.11111111111	1	787.6	0.8	1251.25	1	847.2	0.8	1225	0.9	974.777777777778	12	538719	3	538708	14	26	538733	-999999	538722	0	5	TrialsPROC	FC_003_M2.png	1	2	22	SessionSelectionList														lure	3	Face	0-Back	20	80	19	0	0	100	3	39	306774	3	14	72	304735	-1	306102	1	1367	3	3	2039	53	306788	-54	0					9											22												
WM080112	103818_fnca	1	1	1	1982539764	1	75.031	75.031	2.0.10.147	2.0.10.242	2.0.10.242	1.0.0.439	7	234	2	3	Verdana	1	80	0	0	0	WM Stimuli\	0.8	1132.375	1	851.4	0.9	1112.11111111111	1	787.6	0.8	1251.25	1	847.2	0.8	1225	0.9	974.777777777778	12	538719	3	538708	14	26	538733	-999999	538722	0	5	TrialsPROC	FC_002_F1.png	1	2	23	SessionSelectionList														nonlure	3	Face	0-Back	21	80	20	0	0	100	4	39	309346	2	14	72	307307	-1	308272	1	965	3	3	2039	53	309360	-54	0					10											23												
WM080112	103818_fnca	1	1	1	1982539764	1	75.031	75.031	2.0.10.147	2.0.10.242	2.0.10.242	1.0.0.439	7	234	2	3	Verdana	1	80	0	0	0	WM Stimuli\	0.8	1132.375	1	851.4	0.9	1112.11111111111	1	787.6	0.8	1251.25	1	847.2	0.8	1225	0.9	974.777777777778	12	538719	3	538708	14	26	538733	-999999	538722	0	6	Fix15secPROC	""	1	2	24	SessionSelectionList																																															6	309813	-7	0							24												
WM080112	103818_fnca	1	1	1	1982539764	1	75.031	75.031	2.0.10.147	2.0.10.242	2.0.10.242	1.0.0.439	7	234	2	3	Verdana	1	80	0	0	0	WM Stimuli\	0.8	1132.375	1	851.4	0.9	1112.11111111111	1	787.6	0.8	1251.25	1	847.2	0.8	1225	0.9	974.777777777778	12	538719	3	538708	14	26	538733	-999999	538722	0	7	Cue2BackPROC	""	1	2	25	SessionSelectionList									13	324820	-14	0																																													25												
WM080112	103818_fnca	1	1	1	1982539764	1	75.031	75.031	2.0.10.147	2.0.10.242	2.0.10.242	1.0.0.439	7	234	2	3	Verdana	1	80	0	0	0	WM Stimuli\	0.8	1132.375	1	851.4	0.9	1112.11111111111	1	787.6	0.8	1251.25	1	847.2	0.8	1225	0.9	974.777777777778	12	538719	3	538708	14	26	538733	-999999	538722	0	8	TrialsPROC	TO_001_TOOL1_BA.png	1	2	26	SessionSelectionList														nonlure	3	Tools	2-Back	22	80	21	0	0	100	5	39	329405	2	13	59	327366	-1	328497	1	1131	3	3	2039	52	329418	-53	0										1						26												
WM080112	103818_fnca	1	1	1	1982539764	1	75.031	75.031	2.0.10.147	2.0.10.242	2.0.10.242	1.0.0.439	7	234	2	3	Verdana	1	80	0	0	0	WM Stimuli\	0.8	1132.375	1	851.4	0.9	1112.11111111111	1	787.6	0.8	1251.25	1	847.2	0.8	1225	0.9	974.777777777778	12	538719	3	538708	14	26	538733	-999999	538722	0	8	TrialsPROC	TO_002_TOOL2_BA.png	1	2	27	SessionSelectionList														nonlure	3	Tools	2-Back	23	80	22	0	0	100	6	39	331964	1	13	59	329925	-1	331341	1	1416	3	3	2039	52	331977	-53	0										2						27												
WM080112	103818_fnca	1	1	1	1982539764	1	75.031	75.031	2.0.10.147	2.0.10.242	2.0.10.242	1.0.0.439	7	234	2	3	Verdana	1	80	0	0	0	WM Stimuli\	0.8	1132.375	1	851.4	0.9	1112.11111111111	1	787.6	0.8	1251.25	1	847.2	0.8	1225	0.9	974.777777777778	12	538719	3	538708	14	26	538733	-999999	538722	0	8	TrialsPROC	TO_004_TOOL4_BA.png	1	2	28	SessionSelectionList														nonlure	3	Tools	2-Back	24	80	23	0	0	100	7	39	334523	1	13	59	332484	-1	333723	1	1239	3	3	2039	52	334536	-53	0										3						28												
WM080112	103818_fnca	1	1	1	1982539764	1	75.031	75.031	2.0.10.147	2.0.10.242	2.0.10.242	1.0.0.439	7	234	2	3	Verdana	1	80	0	0	0	WM Stimuli\	0.8	1132.375	1	851.4	0.9	1112.11111111111	1	787.6	0.8	1251.25	1	847.2	0.8	1225	0.9	974.777777777778	12	538719	3	538708	14	26	538733	-999999	538722	0	8	TrialsPROC	TO_002_TOOL2_BA.png	1	2	29	SessionSelectionList														target	2	Tools	2-Back	25	80	24	0	0	100	1	39	337082	2	13	59	335043	-1	336166	1	1123	2	2	2039	52	337095	-53	0										4						29												
WM080112	103818_fnca	1	1	1	1982539764	1	75.031	75.031	2.0.10.147	2.0.10.242	2.0.10.242	1.0.0.439	7	234	2	3	Verdana	1	80	0	0	0	WM Stimuli\	0.8	1132.375	1	851.4	0.9	1112.11111111111	1	787.6	0.8	1251.25	1	847.2	0.8	1225	0.9	974.777777777778	12	538719	3	538708	14	26	538733	-999999	538722	0	8	TrialsPROC	TO_001_TOOL1_BA.png	1	2	30	SessionSelectionList														lure	3	Tools	2-Back	26	80	25	0	0	100	1	40	339641	1	13	58	337601	-1	338928	1	1327	3	3	2040	53	339654	-54	0										5						30												
WM080112	103818_fnca	1	1	1	1982539764	1	75.031	75.031	2.0.10.147	2.0.10.242	2.0.10.242	1.0.0.439	7	234	2	3	Verdana	1	80	0	0	0	WM Stimuli\	0.8	1132.375	1	851.4	0.9	1112.11111111111	1	787.6	0.8	1251.25	1	847.2	0.8	1225	0.9	974.777777777778	12	538719	3	538708	14	26	538733	-999999	538722	0	8	TrialsPROC	TO_004_TOOL4_BA.png	1	2	31	SessionSelectionList														lure	3	Tools	2-Back	27	80	26	0	0	100	1	39	342200	1	13	60	340161	-1	341138	0	977	2	3	2039	52	342213	-53	0										6						31												
WM080112	103818_fnca	1	1	1	1982539764	1	75.031	75.031	2.0.10.147	2.0.10.242	2.0.10.242	1.0.0.439	7	234	2	3	Verdana	1	80	0	0	0	WM Stimuli\	0.8	1132.375	1	851.4	0.9	1112.11111111111	1	787.6	0.8	1251.25	1	847.2	0.8	1225	0.9	974.777777777778	12	538719	3	538708	14	26	538733	-999999	538722	0	8	TrialsPROC	TO_006_TOOL6_BA.png	1	2	32	SessionSelectionList														nonlure	3	Tools	2-Back	28	80	27	0	0	100	1	40	344759	1	13	58	342719	-1	343712	1	993	3	3	2040	53	344772	-54	0										7						32												
WM080112	103818_fnca	1	1	1	1982539764	1	75.031	75.031	2.0.10.147	2.0.10.242	2.0.10.242	1.0.0.439	7	234	2	3	Verdana	1	80	0	0	0	WM Stimuli\	0.8	1132.375	1	851.4	0.9	1112.11111111111	1	787.6	0.8	1251.25	1	847.2	0.8	1225	0.9	974.777777777778	12	538719	3	538708	14	26	538733	-999999	538722	0	8	TrialsPROC	TO_005_TOOL5_BA.png	1	2	33	SessionSelectionList														nonlure	3	Tools	2-Back	29	80	28	0	0	100	2	40	347318	1	13	59	345278	-1	346193	1	915	3	3	2040	53	347331	-54	0										8						33												
WM080112	103818_fnca	1	1	1	1982539764	1	75.031	75.031	2.0.10.147	2.0.10.242	2.0.10.242	1.0.0.439	7	234	2	3	Verdana	1	80	0	0	0	WM Stimuli\	0.8	1132.375	1	851.4	0.9	1112.11111111111	1	787.6	0.8	1251.25	1	847.2	0.8	1225	0.9	974.777777777778	12	538719	3	538708	14	26	538733	-999999	538722	0	8	TrialsPROC	TO_006_TOOL6_BA.png	1	2	34	SessionSelectionList														target	2	Tools	2-Back	30	80	29	0	0	100	3	39	349876	3	14	59	347837	-1	349047	0	1210	3	2	2039	53	349890	-54	0										9						34												
WM080112	103818_fnca	1	1	1	1982539764	1	75.031	75.031	2.0.10.147	2.0.10.242	2.0.10.242	1.0.0.439	7	234	2	3	Verdana	1	80	0	0	0	WM Stimuli\	0.8	1132.375	1	851.4	0.9	1112.11111111111	1	787.6	0.8	1251.25	1	847.2	0.8	1225	0.9	974.777777777778	12	538719	3	538708	14	26	538733	-999999	538722	0	8	TrialsPROC	TO_003_TOOL3_BA.png	1	2	35	SessionSelectionList														nonlure	3	Tools	2-Back	31	80	30	0	0	100	4	39	352435	3	14	59	350396	-1	352052	1	1656	3	3	2039	53	352449	-54	0										10						35												
WM080112	103818_fnca	1	1	1	1982539764	1	75.031	75.031	2.0.10.147	2.0.10.242	2.0.10.242	1.0.0.439	7	234	2	3	Verdana	1	80	0	0	0	WM Stimuli\	0.8	1132.375	1	851.4	0.9	1112.11111111111	1	787.6	0.8	1251.25	1	847.2	0.8	1225	0.9	974.777777777778	12	538719	3	538708	14	26	538733	-999999	538722	0	9	Cue0BackPROC	BP_007_BP20_BA.png	1	2	36	SessionSelectionList																																										19	352915	-20	0												36												
WM080112	103818_fnca	1	1	1	1982539764	1	75.031	75.031	2.0.10.147	2.0.10.242	2.0.10.242	1.0.0.439	7	234	2	3	Verdana	1	80	0	0	0	WM Stimuli\	0.8	1132.375	1	851.4	0.9	1112.11111111111	1	787.6	0.8	1251.25	1	847.2	0.8	1225	0.9	974.777777777778	12	538719	3	538708	14	26	538733	-999999	538722	0	10	TrialsPROC	BP_007_BP20_BA.png	1	2	37	SessionSelectionList														target	2	Body	0-Back	32	80	31	0	0	100	1	39	357487	1	13	52	355448	-1	356647	1	1199	2	2	2039	52	357500	-53	0											1					37												
WM080112	103818_fnca	1	1	1	1982539764	1	75.031	75.031	2.0.10.147	2.0.10.242	2.0.10.242	1.0.0.439	7	234	2	3	Verdana	1	80	0	0	0	WM Stimuli\	0.8	1132.375	1	851.4	0.9	1112.11111111111	1	787.6	0.8	1251.25	1	847.2	0.8	1225	0.9	974.777777777778	12	538719	3	538708	14	26	538733	-999999	538722	0	10	TrialsPROC	BP_011_BP4_BA.png	1	2	38	SessionSelectionList														nonlure	3	Body	0-Back	33	80	32	0	0	100	1	39	360059	2	14	72	358020	-1	359111	1	1091	3	3	2039	53	360073	-54	0											2					38												
WM080112	103818_fnca	1	1	1	1982539764	1	75.031	75.031	2.0.10.147	2.0.10.242	2.0.10.242	1.0.0.439	7	234	2	3	Verdana	1	80	0	0	0	WM Stimuli\	0.8	1132.375	1	851.4	0.9	1112.11111111111	1	787.6	0.8	1251.25	1	847.2	0.8	1225	0.9	974.777777777778	12	538719	3	538708	14	26	538733	-999999	538722	0	10	TrialsPROC	BP_010_BP3_BA.png	1	2	39	SessionSelectionList														nonlure	3	Body	0-Back	34	80	33	0	0	100	2	39	362618	2	14	59	360579	-1	361226	1	647	3	3	2039	53	362632	-54	0											3					39												
WM080112	103818_fnca	1	1	1	1982539764	1	75.031	75.031	2.0.10.147	2.0.10.242	2.0.10.242	1.0.0.439	7	234	2	3	Verdana	1	80	0	0	0	WM Stimuli\	0.8	1132.375	1	851.4	0.9	1112.11111111111	1	787.6	0.8	1251.25	1	847.2	0.8	1225	0.9	974.777777777778	12	538719	3	538708	14	26	538733	-999999	538722	0	10	TrialsPROC	BP_008_BP21_BA.png	1	2	40	SessionSelectionList														nonlure	3	Body	0-Back	35	80	34	0	0	100	3	39	365177	1	14	59	363138	-1	363928	1	790	3	3	2039	53	365191	-54	0											4					40												
WM080112	103818_fnca	1	1	1	1982539764	1	75.031	75.031	2.0.10.147	2.0.10.242	2.0.10.242	1.0.0.439	7	234	2	3	Verdana	1	80	0	0	0	WM Stimuli\	0.8	1132.375	1	851.4	0.9	1112.11111111111	1	787.6	0.8	1251.25	1	847.2	0.8	1225	0.9	974.777777777778	12	538719	3	538708	14	26	538733	-999999	538722	0	10	TrialsPROC	BP_011_BP4_BA.png	1	2	41	SessionSelectionList														lure	3	Body	0-Back	36	80	35	0	0	100	4	39	367736	1	13	59	365697	-1	366462	1	765	3	3	2039	52	367749	-53	0											5					41												
WM080112	103818_fnca	1	1	1	1982539764	1	75.031	75.031	2.0.10.147	2.0.10.242	2.0.10.242	1.0.0.439	7	234	2	3	Verdana	1	80	0	0	0	WM Stimuli\	0.8	1132.375	1	851.4	0.9	1112.11111111111	1	787.6	0.8	1251.25	1	847.2	0.8	1225	0.9	974.777777777778	12	538719	3	538708	14	26	538733	-999999	538722	0	10	TrialsPROC	BP_009_BP22_BA.png	1	2	42	SessionSelectionList														nonlure	3	Body	0-Back	37	80	36	0	0	100	5	39	370295	2	13	59	368256	-1	369119	1	863	3	3	2039	52	370308	-53	0											6					42												
WM080112	103818_fnca	1	1	1	1982539764	1	75.031	75.031	2.0.10.147	2.0.10.242	2.0.10.242	1.0.0.439	7	234	2	3	Verdana	1	80	0	0	0	WM Stimuli\	0.8	1132.375	1	851.4	0.9	1112.11111111111	1	787.6	0.8	1251.25	1	847.2	0.8	1225	0.9	974.777777777778	12	538719	3	538708	14	26	538733	-999999	538722	0	10	TrialsPROC	BP_009_BP22_BA.png	1	2	43	SessionSelectionList														lure	3	Body	0-Back	38	80	37	0	0	100	6	39	372854	2	13	59	370815	-1	371767	1	952	3	3	2039	52	372867	-53	0											7					43												
WM080112	103818_fnca	1	1	1	1982539764	1	75.031	75.031	2.0.10.147	2.0.10.242	2.0.10.242	1.0.0.439	7	234	2	3	Verdana	1	80	0	0	0	WM Stimuli\	0.8	1132.375	1	851.4	0.9	1112.11111111111	1	787.6	0.8	1251.25	1	847.2	0.8	1225	0.9	974.777777777778	12	538719	3	538708	14	26	538733	-999999	538722	0	10	TrialsPROC	BP_008_BP21_BA.png	1	2	44	SessionSelectionList														lure	3	Body	0-Back	39	80	38	0	0	100	7	39	375413	1	13	59	373374	-1	374361	1	987	3	3	2039	52	375426	-53	0											8					44												
WM080112	103818_fnca	1	1	1	1982539764	1	75.031	75.031	2.0.10.147	2.0.10.242	2.0.10.242	1.0.0.439	7	234	2	3	Verdana	1	80	0	0	0	WM Stimuli\	0.8	1132.375	1	851.4	0.9	1112.11111111111	1	787.6	0.8	1251.25	1	847.2	0.8	1225	0.9	974.777777777778	12	538719	3	538708	14	26	538733	-999999	538722	0	10	TrialsPROC	BP_007_BP20_BA.png	1	2	45	SessionSelectionList														target	2	Body	0-Back	40	80	39	0	0	100	1	40	377972	1	13	58	375932	-1	376477	1	545	2	2	2040	53	377985	-54	0											9					45												
WM080112	103818_fnca	1	1	1	1982539764	1	75.031	75.031	2.0.10.147	2.0.10.242	2.0.10.242	1.0.0.439	7	234	2	3	Verdana	1	80	0	0	0	WM Stimuli\	0.8	1132.375	1	851.4	0.9	1112.11111111111	1	787.6	0.8	1251.25	1	847.2	0.8	1225	0.9	974.777777777778	12	538719	3	538708	14	26	538733	-999999	538722	0	10	TrialsPROC	BP_012_BP5_BA.png	1	2	46	SessionSelectionList														nonlure	3	Body	0-Back	41	80	40	0	0	100	1	39	380544	2	14	73	378505	-1	379180	1	675	3	3	2039	53	380558	-54	0											10					46												
WM080112	103818_fnca	1	1	1	1982539764	1	75.031	75.031	2.0.10.147	2.0.10.242	2.0.10.242	1.0.0.439	7	234	2	3	Verdana	1	80	0	0	0	WM Stimuli\	0.8	1132.375	1	851.4	0.9	1112.11111111111	1	787.6	0.8	1251.25	1	847.2	0.8	1225	0.9	974.777777777778	12	538719	3	538708	14	26	538733	-999999	538722	0	11	Fix15secPROC	""	1	2	47	SessionSelectionList																																															6	381011	-7	0							47												
WM080112	103818_fnca	1	1	1	1982539764	1	75.031	75.031	2.0.10.147	2.0.10.242	2.0.10.242	1.0.0.439	7	234	2	3	Verdana	1	80	0	0	0	WM Stimuli\	0.8	1132.375	1	851.4	0.9	1112.11111111111	1	787.6	0.8	1251.25	1	847.2	0.8	1225	0.9	974.777777777778	12	538719	3	538708	14	26	538733	-999999	538722	0	12	Cue0BackPROC	PL_001_92012.png	1	2	48	SessionSelectionList																																										13	396018	-14	0												48												
WM080112	103818_fnca	1	1	1	1982539764	1	75.031	75.031	2.0.10.147	2.0.10.242	2.0.10.242	1.0.0.439	7	234	2	3	Verdana	1	80	0	0	0	WM Stimuli\	0.8	1132.375	1	851.4	0.9	1112.11111111111	1	787.6	0.8	1251.25	1	847.2	0.8	1225	0.9	974.777777777778	12	538719	3	538708	14	26	538733	-999999	538722	0	13	TrialsPROC	PL_003_92016.png	1	2	49	SessionSelectionList														nonlure	3	Place	0-Back	42	80	41	0	0	100	2	39	400616	1	13	72	398577	-1	399465	1	888	3	3	2039	52	400629	-53	0												1				49												
WM080112	103818_fnca	1	1	1	1982539764	1	75.031	75.031	2.0.10.147	2.0.10.242	2.0.10.242	1.0.0.439	7	234	2	3	Verdana	1	80	0	0	0	WM Stimuli\	0.8	1132.375	1	851.4	0.9	1112.11111111111	1	787.6	0.8	1251.25	1	847.2	0.8	1225	0.9	974.777777777778	12	538719	3	538708	14	26	538733	-999999	538722	0	13	TrialsPROC	PL_003_92016.png	1	2	50	SessionSelectionList														lure	3	Place	0-Back	43	80	42	0	0	100	3	39	403188	1	14	72	401149	-1	402078	1	929	3	3	2039	53	403202	-54	0												2				50												
WM080112	103818_fnca	1	1	1	1982539764	1	75.031	75.031	2.0.10.147	2.0.10.242	2.0.10.242	1.0.0.439	7	234	2	3	Verdana	1	80	0	0	0	WM Stimuli\	0.8	1132.375	1	851.4	0.9	1112.11111111111	1	787.6	0.8	1251.25	1	847.2	0.8	1225	0.9	974.777777777778	12	538719	3	538708	14	26	538733	-999999	538722	0	13	TrialsPROC	PL_006_92025.png	1	2	51	SessionSelectionList														nonlure	3	Place	0-Back	44	80	43	0	0	100	4	39	405760	3	14	72	403721	-1	405218	1	1497	3	3	2039	53	405774	-54	0												3				51												
WM080112	103818_fnca	1	1	1	1982539764	1	75.031	75.031	2.0.10.147	2.0.10.242	2.0.10.242	1.0.0.439	7	234	2	3	Verdana	1	80	0	0	0	WM Stimuli\	0.8	1132.375	1	851.4	0.9	1112.11111111111	1	787.6	0.8	1251.25	1	847.2	0.8	1225	0.9	974.777777777778	12	538719	3	538708	14	26	538733	-999999	538722	0	13	TrialsPROC	PL_001_92012.png	1	2	52	SessionSelectionList														target	2	Place	0-Back	45	80	44	0	0	100	1	40	408333	1	13	72	406293	-1	407183	1	890	2	2	2040	53	408346	-54	0												4				52												
WM080112	103818_fnca	1	1	1	1982539764	1	75.031	75.031	2.0.10.147	2.0.10.242	2.0.10.242	1.0.0.439	7	234	2	3	Verdana	1	80	0	0	0	WM Stimuli\	0.8	1132.375	1	851.4	0.9	1112.11111111111	1	787.6	0.8	1251.25	1	847.2	0.8	1225	0.9	974.777777777778	12	538719	3	538708	14	26	538733	-999999	538722	0	13	TrialsPROC	PL_004_92023.png	1	2	53	SessionSelectionList														nonlure	3	Place	0-Back	46	80	45	0	0	100	1	39	410905	2	14	73	408866	-1	409602	1	736	3	3	2039	53	410919	-54	0												5				53												
WM080112	103818_fnca	1	1	1	1982539764	1	75.031	75.031	2.0.10.147	2.0.10.242	2.0.10.242	1.0.0.439	7	234	2	3	Verdana	1	80	0	0	0	WM Stimuli\	0.8	1132.375	1	851.4	0.9	1112.11111111111	1	787.6	0.8	1251.25	1	847.2	0.8	1225	0.9	974.777777777778	12	538719	3	538708	14	26	538733	-999999	538722	0	13	TrialsPROC	PL_005_92024.png	1	2	54	SessionSelectionList														nonlure	3	Place	0-Back	47	80	46	0	0	100	2	39	413477	3	14	72	411438	-1	412276	1	838	3	3	2039	53	413491	-54	0												6				54												
WM080112	103818_fnca	1	1	1	1982539764	1	75.031	75.031	2.0.10.147	2.0.10.242	2.0.10.242	1.0.0.439	7	234	2	3	Verdana	1	80	0	0	0	WM Stimuli\	0.8	1132.375	1	851.4	0.9	1112.11111111111	1	787.6	0.8	1251.25	1	847.2	0.8	1225	0.9	974.777777777778	12	538719	3	538708	14	26	538733	-999999	538722	0	13	TrialsPROC	PL_001_92012.png	1	2	55	SessionSelectionList														target	2	Place	0-Back	48	80	47	0	0	100	1	39	416049	3	14	72	414010	-1	414740	1	730	2	2	2039	53	416063	-54	0												7				55												
WM080112	103818_fnca	1	1	1	1982539764	1	75.031	75.031	2.0.10.147	2.0.10.242	2.0.10.242	1.0.0.439	7	234	2	3	Verdana	1	80	0	0	0	WM Stimuli\	0.8	1132.375	1	851.4	0.9	1112.11111111111	1	787.6	0.8	1251.25	1	847.2	0.8	1225	0.9	974.777777777778	12	538719	3	538708	14	26	538733	-999999	538722	0	13	TrialsPROC	PL_002_92014.png	1	2	56	SessionSelectionList														nonlure	3	Place	0-Back	49	80	48	0	0	100	1	39	418622	2	13	73	416583	-1	417214	1	631	3	3	2039	52	418635	-53	0												8				56												
WM080112	103818_fnca	1	1	1	1982539764	1	75.031	75.031	2.0.10.147	2.0.10.242	2.0.10.242	1.0.0.439	7	234	2	3	Verdana	1	80	0	0	0	WM Stimuli\	0.8	1132.375	1	851.4	0.9	1112.11111111111	1	787.6	0.8	1251.25	1	847.2	0.8	1225	0.9	974.777777777778	12	538719	3	538708	14	26	538733	-999999	538722	0	13	TrialsPROC	PL_004_92023.png	1	2	57	SessionSelectionList														lure	3	Place	0-Back	50	80	49	0	0	100	2	39	421194	1	14	72	419155	-1	419739	1	584	3	3	2039	53	421208	-54	0												9				57												
WM080112	103818_fnca	1	1	1	1982539764	1	75.031	75.031	2.0.10.147	2.0.10.242	2.0.10.242	1.0.0.439	7	234	2	3	Verdana	1	80	0	0	0	WM Stimuli\	0.8	1132.375	1	851.4	0.9	1112.11111111111	1	787.6	0.8	1251.25	1	847.2	0.8	1225	0.9	974.777777777778	12	538719	3	538708	14	26	538733	-999999	538722	0	13	TrialsPROC	PL_006_92025.png	1	2	58	SessionSelectionList														lure	3	Place	0-Back	51	80	50	0	0	100	3	39	423753	2	14	59	421714	-1	422463	1	749	3	3	2039	53	423767	-54	0												10				58												
WM080112	103818_fnca	1	1	1	1982539764	1	75.031	75.031	2.0.10.147	2.0.10.242	2.0.10.242	1.0.0.439	7	234	2	3	Verdana	1	80	0	0	0	WM Stimuli\	0.8	1132.375	1	851.4	0.9	1112.11111111111	1	787.6	0.8	1251.25	1	847.2	0.8	1225	0.9	974.777777777778	12	538719	3	538708	14	26	538733	-999999	538722	0	14	Cue2BackPROC	""	1	2	59	SessionSelectionList									5	424219	-6	0																																													59												
WM080112	103818_fnca	1	1	1	1982539764	1	75.031	75.031	2.0.10.147	2.0.10.242	2.0.10.242	1.0.0.439	7	234	2	3	Verdana	1	80	0	0	0	WM Stimuli\	0.8	1132.375	1	851.4	0.9	1112.11111111111	1	787.6	0.8	1251.25	1	847.2	0.8	1225	0.9	974.777777777778	12	538719	3	538708	14	26	538733	-999999	538722	0	15	TrialsPROC	FC_010_F5.png	1	2	60	SessionSelectionList														nonlure	3	Face	2-Back	52	80	51	0	0	100	4	40	428818	2	13	64	426778	-1	427852	1	1074	3	3	2040	53	428831	-54	0													1			60												
WM080112	103818_fnca	1	1	1	1982539764	1	75.031	75.031	2.0.10.147	2.0.10.242	2.0.10.242	1.0.0.439	7	234	2	3	Verdana	1	80	0	0	0	WM Stimuli\	0.8	1132.375	1	851.4	0.9	1112.11111111111	1	787.6	0.8	1251.25	1	847.2	0.8	1225	0.9	974.777777777778	12	538719	3	538708	14	26	538733	-999999	538722	0	15	TrialsPROC	FC_012_F6.png	1	2	61	SessionSelectionList														nonlure	3	Face	2-Back	53	80	52	0	0	100	5	39	431390	1	13	73	429351	-1	430286	1	935	3	3	2039	52	431403	-53	0													2			61												
WM080112	103818_fnca	1	1	1	1982539764	1	75.031	75.031	2.0.10.147	2.0.10.242	2.0.10.242	1.0.0.439	7	234	2	3	Verdana	1	80	0	0	0	WM Stimuli\	0.8	1132.375	1	851.4	0.9	1112.11111111111	1	787.6	0.8	1251.25	1	847.2	0.8	1225	0.9	974.777777777778	12	538719	3	538708	14	26	538733	-999999	538722	0	15	TrialsPROC	FC_010_F5.png	1	2	62	SessionSelectionList														target	2	Face	2-Back	54	80	53	0	0	100	1	39	433962	3	14	72	431923	-1	432843	1	920	2	2	2039	53	433976	-54	0													3			62												
WM080112	103818_fnca	1	1	1	1982539764	1	75.031	75.031	2.0.10.147	2.0.10.242	2.0.10.242	1.0.0.439	7	234	2	3	Verdana	1	80	0	0	0	WM Stimuli\	0.8	1132.375	1	851.4	0.9	1112.11111111111	1	787.6	0.8	1251.25	1	847.2	0.8	1225	0.9	974.777777777778	12	538719	3	538708	14	26	538733	-999999	538722	0	15	TrialsPROC	FC_008_F4.png	1	2	63	SessionSelectionList														nonlure	3	Face	2-Back	55	80	54	0	0	100	1	39	436534	2	14	72	434495	-1	435420	1	925	3	3	2039	53	436548	-54	0													4			63												
WM080112	103818_fnca	1	1	1	1982539764	1	75.031	75.031	2.0.10.147	2.0.10.242	2.0.10.242	1.0.0.439	7	234	2	3	Verdana	1	80	0	0	0	WM Stimuli\	0.8	1132.375	1	851.4	0.9	1112.11111111111	1	787.6	0.8	1251.25	1	847.2	0.8	1225	0.9	974.777777777778	12	538719	3	538708	14	26	538733	-999999	538722	0	15	TrialsPROC	FC_012_F6.png	1	2	64	SessionSelectionList														lure	3	Face	2-Back	56	80	55	0	0	100	1	39	439107	1	13	73	437068	-1	438878	0	1810	2	3	2039	52	439120	-53	0													5			64												
WM080112	103818_fnca	1	1	1	1982539764	1	75.031	75.031	2.0.10.147	2.0.10.242	2.0.10.242	1.0.0.439	7	234	2	3	Verdana	1	80	0	0	0	WM Stimuli\	0.8	1132.375	1	851.4	0.9	1112.11111111111	1	787.6	0.8	1251.25	1	847.2	0.8	1225	0.9	974.777777777778	12	538719	3	538708	14	26	538733	-999999	538722	0	15	TrialsPROC	FC_008_F4.png	1	2	65	SessionSelectionList														target	2	Face	2-Back	57	80	56	0	0	100	2	39	441679	1	14	72	439640	-1	441098	1	1458	2	2	2039	53	441693	-54	0													6			65												
WM080112	103818_fnca	1	1	1	1982539764	1	75.031	75.031	2.0.10.147	2.0.10.242	2.0.10.242	1.0.0.439	7	234	2	3	Verdana	1	80	0	0	0	WM Stimuli\	0.8	1132.375	1	851.4	0.9	1112.11111111111	1	787.6	0.8	1251.25	1	847.2	0.8	1225	0.9	974.777777777778	12	538719	3	538708	14	26	538733	-999999	538722	0	15	TrialsPROC	FC_007_M4.png	1	2	66	SessionSelectionList														nonlure	3	Face	2-Back	58	80	57	0	0	100	1	39	444251	3	14	72	442212	-1	442985	1	773	3	3	2039	53	444265	-54	0													7			66												
WM080112	103818_fnca	1	1	1	1982539764	1	75.031	75.031	2.0.10.147	2.0.10.242	2.0.10.242	1.0.0.439	7	234	2	3	Verdana	1	80	0	0	0	WM Stimuli\	0.8	1132.375	1	851.4	0.9	1112.11111111111	1	787.6	0.8	1251.25	1	847.2	0.8	1225	0.9	974.777777777778	12	538719	3	538708	14	26	538733	-999999	538722	0	15	TrialsPROC	FC_007_M4.png	1	2	67	SessionSelectionList														lure	3	Face	2-Back	59	80	58	0	0	100	2	40	446824	1	13	72	444784	-1	445924	1	1140	3	3	2040	53	446837	-54	0													8			67												
WM080112	103818_fnca	1	1	1	1982539764	1	75.031	75.031	2.0.10.147	2.0.10.242	2.0.10.242	1.0.0.439	7	234	2	3	Verdana	1	80	0	0	0	WM Stimuli\	0.8	1132.375	1	851.4	0.9	1112.11111111111	1	787.6	0.8	1251.25	1	847.2	0.8	1225	0.9	974.777777777778	12	538719	3	538708	14	26	538733	-999999	538722	0	15	TrialsPROC	FC_009_M5.png	1	2	68	SessionSelectionList														nonlure	3	Face	2-Back	60	80	59	0	0	100	3	39	449396	2	13	73	447357	-1	448346	1	989	3	3	2039	52	449409	-53	0													9			68												
WM080112	103818_fnca	1	1	1	1982539764	1	75.031	75.031	2.0.10.147	2.0.10.242	2.0.10.242	1.0.0.439	7	234	2	3	Verdana	1	80	0	0	0	WM Stimuli\	0.8	1132.375	1	851.4	0.9	1112.11111111111	1	787.6	0.8	1251.25	1	847.2	0.8	1225	0.9	974.777777777778	12	538719	3	538708	14	26	538733	-999999	538722	0	15	TrialsPROC	FC_011_M6.png	1	2	69	SessionSelectionList														nonlure	3	Face	2-Back	61	80	60	0	0	100	4	39	451968	3	14	72	449929	-1	451724	1	1795	3	3	2039	53	451982	-54	0													10			69												
WM080112	103818_fnca	1	1	1	1982539764	1	75.031	75.031	2.0.10.147	2.0.10.242	2.0.10.242	1.0.0.439	7	234	2	3	Verdana	1	80	0	0	0	WM Stimuli\	0.8	1132.375	1	851.4	0.9	1112.11111111111	1	787.6	0.8	1251.25	1	847.2	0.8	1225	0.9	974.777777777778	12	538719	3	538708	14	26	538733	-999999	538722	0	16	Fix15secPROC	""	1	2	70	SessionSelectionList																																															6	452435	-7	0							70												
WM080112	103818_fnca	1	1	1	1982539764	1	75.031	75.031	2.0.10.147	2.0.10.242	2.0.10.242	1.0.0.439	7	234	2	3	Verdana	1	80	0	0	0	WM Stimuli\	0.8	1132.375	1	851.4	0.9	1112.11111111111	1	787.6	0.8	1251.25	1	847.2	0.8	1225	0.9	974.777777777778	12	538719	3	538708	14	26	538733	-999999	538722	0	17	Cue0BackPROC	TO_007_TOOL7_BA.png	1	2	71	SessionSelectionList																																										13	467442	-14	0												71												
WM080112	103818_fnca	1	1	1	1982539764	1	75.031	75.031	2.0.10.147	2.0.10.242	2.0.10.242	1.0.0.439	7	234	2	3	Verdana	1	80	0	0	0	WM Stimuli\	0.8	1132.375	1	851.4	0.9	1112.11111111111	1	787.6	0.8	1251.25	1	847.2	0.8	1225	0.9	974.777777777778	12	538719	3	538708	14	26	538733	-999999	538722	0	18	TrialsPROC	TO_010_TOOL10_BA.png	1	2	72	SessionSelectionList														nonlure	3	Tools	0-Back	62	80	61	0	0	97	1	40	472027	1	13	58	469987	-1	470711	0	724	2	3	2040	53	472040	-54	0														1		72												
WM080112	103818_fnca	1	1	1	1982539764	1	75.031	75.031	2.0.10.147	2.0.10.242	2.0.10.242	1.0.0.439	7	234	2	3	Verdana	1	80	0	0	0	WM Stimuli\	0.8	1132.375	1	851.4	0.9	1112.11111111111	1	787.6	0.8	1251.25	1	847.2	0.8	1225	0.9	974.777777777778	12	538719	3	538708	14	26	538733	-999999	538722	0	18	TrialsPROC	TO_009_TOOL9_BA.png	1	2	73	SessionSelectionList														nonlure	3	Tools	0-Back	63	80	62	0	0	97	1	40	474586	2	13	59	472546	-1	474329	1	1783	3	3	2040	53	474599	-54	0														2		73												
WM080112	103818_fnca	1	1	1	1982539764	1	75.031	75.031	2.0.10.147	2.0.10.242	2.0.10.242	1.0.0.439	7	234	2	3	Verdana	1	80	0	0	0	WM Stimuli\	0.8	1132.375	1	851.4	0.9	1112.11111111111	1	787.6	0.8	1251.25	1	847.2	0.8	1225	0.9	974.777777777778	12	538719	3	538708	14	26	538733	-999999	538722	0	18	TrialsPROC	TO_009_TOOL9_BA.png	1	2	74	SessionSelectionList														lure	3	Tools	0-Back	64	80	63	0	0	97	2	40	477145	2	13	59	475105	-1	475560	1	455	3	3	2040	53	477158	-54	0														3		74												
WM080112	103818_fnca	1	1	1	1982539764	1	75.031	75.031	2.0.10.147	2.0.10.242	2.0.10.242	1.0.0.439	7	234	2	3	Verdana	1	80	0	0	0	WM Stimuli\	0.8	1132.375	1	851.4	0.9	1112.11111111111	1	787.6	0.8	1251.25	1	847.2	0.8	1225	0.9	974.777777777778	12	538719	3	538708	14	26	538733	-999999	538722	0	18	TrialsPROC	TO_008_TOOL8_BA.png	1	2	75	SessionSelectionList														nonlure	3	Tools	0-Back	65	80	64	0	0	97	3	39	479703	3	14	59	477664	-1	478733	1	1069	3	3	2039	53	479717	-54	0														4		75												
WM080112	103818_fnca	1	1	1	1982539764	1	75.031	75.031	2.0.10.147	2.0.10.242	2.0.10.242	1.0.0.439	7	234	2	3	Verdana	1	80	0	0	0	WM Stimuli\	0.8	1132.375	1	851.4	0.9	1112.11111111111	1	787.6	0.8	1251.25	1	847.2	0.8	1225	0.9	974.777777777778	12	538719	3	538708	14	26	538733	-999999	538722	0	18	TrialsPROC	TO_011_TOOL11_BA.png	1	2	76	SessionSelectionList														nonlure	3	Tools	0-Back	66	80	65	0	0	97	4	39	482262	2	14	59	480223	-1	481302	1	1079	3	3	2039	53	482276	-54	0														5		76												
WM080112	103818_fnca	1	1	1	1982539764	1	75.031	75.031	2.0.10.147	2.0.10.242	2.0.10.242	1.0.0.439	7	234	2	3	Verdana	1	80	0	0	0	WM Stimuli\	0.8	1132.375	1	851.4	0.9	1112.11111111111	1	787.6	0.8	1251.25	1	847.2	0.8	1225	0.9	974.777777777778	12	538719	3	538708	14	26	538733	-999999	538722	0	18	TrialsPROC	TO_012_TOOL12_BA.png	1	2	77	SessionSelectionList														nonlure	3	Tools	0-Back	67	80	66	0	0	97	5	39	484821	3	14	59	482782	-1	483808	1	1026	3	3	2039	53	484835	-54	0														6		77												
WM080112	103818_fnca	1	1	1	1982539764	1	75.031	75.031	2.0.10.147	2.0.10.242	2.0.10.242	1.0.0.439	7	234	2	3	Verdana	1	80	0	0	0	WM Stimuli\	0.8	1132.375	1	851.4	0.9	1112.11111111111	1	787.6	0.8	1251.25	1	847.2	0.8	1225	0.9	974.777777777778	12	538719	3	538708	14	26	538733	-999999	538722	0	18	TrialsPROC	TO_010_TOOL10_BA.png	1	2	78	SessionSelectionList														lure	3	Tools	0-Back	68	80	67	0	0	97	6	39	487380	2	14	59	485341	-1	486529	1	1188	3	3	2039	53	487394	-54	0														7		78												
WM080112	103818_fnca	1	1	1	1982539764	1	75.031	75.031	2.0.10.147	2.0.10.242	2.0.10.242	1.0.0.439	7	234	2	3	Verdana	1	80	0	0	0	WM Stimuli\	0.8	1132.375	1	851.4	0.9	1112.11111111111	1	787.6	0.8	1251.25	1	847.2	0.8	1225	0.9	974.777777777778	12	538719	3	538708	14	26	538733	-999999	538722	0	18	TrialsPROC	TO_007_TOOL7_BA.png	1	2	79	SessionSelectionList														target	2	Tools	0-Back	69	80	68	0	0	97	1	39	489939	3	14	59	487900	-1	488498	1	598	2	2	2039	53	489953	-54	0														8		79												
WM080112	103818_fnca	1	1	1	1982539764	1	75.031	75.031	2.0.10.147	2.0.10.242	2.0.10.242	1.0.0.439	7	234	2	3	Verdana	1	80	0	0	0	WM Stimuli\	0.8	1132.375	1	851.4	0.9	1112.11111111111	1	787.6	0.8	1251.25	1	847.2	0.8	1225	0.9	974.777777777778	12	538719	3	538708	14	26	538733	-999999	538722	0	18	TrialsPROC	TO_008_TOOL8_BA.png	1	2	80	SessionSelectionList														lure	3	Tools	0-Back	70	80	69	0	0	97	1	39	492498	2	14	59	490459	-1	491244	1	785	3	3	2039	53	492512	-54	0														9		80												
WM080112	103818_fnca	1	1	1	1982539764	1	75.031	75.031	2.0.10.147	2.0.10.242	2.0.10.242	1.0.0.439	7	234	2	3	Verdana	1	80	0	0	0	WM Stimuli\	0.8	1132.375	1	851.4	0.9	1112.11111111111	1	787.6	0.8	1251.25	1	847.2	0.8	1225	0.9	974.777777777778	12	538719	3	538708	14	26	538733	-999999	538722	0	18	TrialsPROC	TO_007_TOOL7_BA.png	1	2	81	SessionSelectionList														target	2	Tools	0-Back	71	80	70	0	0	98	1	39	495057	3	14	59	493018	-1	493808	1	790	2	2	2039	53	495071	-54	0														10		81												
WM080112	103818_fnca	1	1	1	1982539764	1	75.031	75.031	2.0.10.147	2.0.10.242	2.0.10.242	1.0.0.439	7	234	2	3	Verdana	1	80	0	0	0	WM Stimuli\	0.8	1132.375	1	851.4	0.9	1112.11111111111	1	787.6	0.8	1251.25	1	847.2	0.8	1225	0.9	974.777777777778	12	538719	3	538708	14	26	538733	-999999	538722	0	19	Cue2BackPROC	""	1	2	82	SessionSelectionList									6	495524	-7	0																																													82												
WM080112	103818_fnca	1	1	1	1982539764	1	75.031	75.031	2.0.10.147	2.0.10.242	2.0.10.242	1.0.0.439	7	234	2	3	Verdana	1	80	0	0	0	WM Stimuli\	0.8	1132.375	1	851.4	0.9	1112.11111111111	1	787.6	0.8	1251.25	1	847.2	0.8	1225	0.9	974.777777777778	12	538719	3	538708	14	26	538733	-999999	538722	0	20	TrialsPROC	PL_007_92026.png	1	2	83	SessionSelectionList														nonlure	3	Place	2-Back	72	80	70	0	1	98	1	39	500108	2	14	51	498069	-1	0	0	0	""	3	2039	53	500122	-54	0															1	83												
WM080112	103818_fnca	1	1	1	1982539764	1	75.031	75.031	2.0.10.147	2.0.10.242	2.0.10.242	1.0.0.439	7	234	2	3	Verdana	1	80	0	0	0	WM Stimuli\	0.8	1132.375	1	851.4	0.9	1112.11111111111	1	787.6	0.8	1251.25	1	847.2	0.8	1225	0.9	974.777777777778	12	538719	3	538708	14	26	538733	-999999	538722	0	20	TrialsPROC	PL_007_92026.png	1	2	84	SessionSelectionList														lure	3	Place	2-Back	73	80	71	0	0	98	1	39	502667	2	14	59	500628	-1	501776	1	1148	3	3	2039	53	502681	-54	0															2	84												
WM080112	103818_fnca	1	1	1	1982539764	1	75.031	75.031	2.0.10.147	2.0.10.242	2.0.10.242	1.0.0.439	7	234	2	3	Verdana	1	80	0	0	0	WM Stimuli\	0.8	1132.375	1	851.4	0.9	1112.11111111111	1	787.6	0.8	1251.25	1	847.2	0.8	1225	0.9	974.777777777778	12	538719	3	538708	14	26	538733	-999999	538722	0	20	TrialsPROC	PL_010_92038.png	1	2	85	SessionSelectionList														nonlure	3	Place	2-Back	74	80	72	0	0	98	2	39	505240	1	13	73	503201	-1	504802	1	1601	3	3	2039	52	505253	-53	0															3	85												
WM080112	103818_fnca	1	1	1	1982539764	1	75.031	75.031	2.0.10.147	2.0.10.242	2.0.10.242	1.0.0.439	7	234	2	3	Verdana	1	80	0	0	0	WM Stimuli\	0.8	1132.375	1	851.4	0.9	1112.11111111111	1	787.6	0.8	1251.25	1	847.2	0.8	1225	0.9	974.777777777778	12	538719	3	538708	14	26	538733	-999999	538722	0	20	TrialsPROC	PL_009_92037.png	1	2	86	SessionSelectionList														nonlure	3	Place	2-Back	75	80	73	0	0	98	3	39	507812	1	14	72	505773	-1	507169	1	1396	3	3	2039	53	507826	-54	0															4	86												
WM080112	103818_fnca	1	1	1	1982539764	1	75.031	75.031	2.0.10.147	2.0.10.242	2.0.10.242	1.0.0.439	7	234	2	3	Verdana	1	80	0	0	0	WM Stimuli\	0.8	1132.375	1	851.4	0.9	1112.11111111111	1	787.6	0.8	1251.25	1	847.2	0.8	1225	0.9	974.777777777778	12	538719	3	538708	14	26	538733	-999999	538722	0	20	TrialsPROC	PL_010_92038.png	1	2	87	SessionSelectionList														target	2	Place	2-Back	76	80	74	0	0	98	1	39	510384	3	14	72	508345	-1	509973	1	1628	2	2	2039	53	510398	-54	0															5	87												
WM080112	103818_fnca	1	1	1	1982539764	1	75.031	75.031	2.0.10.147	2.0.10.242	2.0.10.242	1.0.0.439	7	234	2	3	Verdana	1	80	0	0	0	WM Stimuli\	0.8	1132.375	1	851.4	0.9	1112.11111111111	1	787.6	0.8	1251.25	1	847.2	0.8	1225	0.9	974.777777777778	12	538719	3	538708	14	26	538733	-999999	538722	0	20	TrialsPROC	PL_009_92037.png	1	2	88	SessionSelectionList														target	2	Place	2-Back	77	80	75	0	0	98	1	40	512957	1	13	72	510917	-1	512148	0	1231	3	2	2040	53	512970	-54	0															6	88												
WM080112	103818_fnca	1	1	1	1982539764	1	75.031	75.031	2.0.10.147	2.0.10.242	2.0.10.242	1.0.0.439	7	234	2	3	Verdana	1	80	0	0	0	WM Stimuli\	0.8	1132.375	1	851.4	0.9	1112.11111111111	1	787.6	0.8	1251.25	1	847.2	0.8	1225	0.9	974.777777777778	12	538719	3	538708	14	26	538733	-999999	538722	0	20	TrialsPROC	PL_008_92033.png	1	2	89	SessionSelectionList														nonlure	3	Place	2-Back	78	80	76	0	0	98	2	39	515529	1	13	73	513490	-1	514645	1	1155	3	3	2039	52	515542	-53	0															7	89												
WM080112	103818_fnca	1	1	1	1982539764	1	75.031	75.031	2.0.10.147	2.0.10.242	2.0.10.242	1.0.0.439	7	234	2	3	Verdana	1	80	0	0	0	WM Stimuli\	0.8	1132.375	1	851.4	0.9	1112.11111111111	1	787.6	0.8	1251.25	1	847.2	0.8	1225	0.9	974.777777777778	12	538719	3	538708	14	26	538733	-999999	538722	0	20	TrialsPROC	PL_012_92047.png	1	2	90	SessionSelectionList														nonlure	3	Place	2-Back	79	80	77	0	0	98	3	39	518101	2	14	72	516062	-1	516832	1	770	3	3	2039	53	518115	-54	0															8	90												
WM080112	103818_fnca	1	1	1	1982539764	1	75.031	75.031	2.0.10.147	2.0.10.242	2.0.10.242	1.0.0.439	7	234	2	3	Verdana	1	80	0	0	0	WM Stimuli\	0.8	1132.375	1	851.4	0.9	1112.11111111111	1	787.6	0.8	1251.25	1	847.2	0.8	1225	0.9	974.777777777778	12	538719	3	538708	14	26	538733	-999999	538722	0	20	TrialsPROC	PL_012_92047.png	1	2	91	SessionSelectionList														lure	3	Place	2-Back	80	80	78	0	0	98	4	39	520673	2	14	72	518634	-1	519808	1	1174	3	3	2039	53	520687	-54	0															9	91												
WM080112	103818_fnca	1	1	1	1982539764	1	75.031	75.031	2.0.10.147	2.0.10.242	2.0.10.242	1.0.0.439	7	234	2	3	Verdana	1	80	0	0	0	WM Stimuli\	0.8	1132.375	1	851.4	0.9	1112.11111111111	1	787.6	0.8	1251.25	1	847.2	0.8	1225	0.9	974.777777777778	12	538719	3	538708	14	26	538733	-999999	538722	0	20	TrialsPROC	PL_011_92044.png	1	2	92	SessionSelectionList														nonlure	3	Place	2-Back	80	80	79	0	0	98	5	39	523246	1	13	73	521207	-1	522345	1	1138	3	3	2039	52	523259	-53	0															10	92												
WM080112	103818_fnca	1	1	1	1982539764	1	75.031	75.031	2.0.10.147	2.0.10.242	2.0.10.242	1.0.0.439	7	234	2	3	Verdana	1	80	0	0	0	WM Stimuli\	0.8	1132.375	1	851.4	0.9	1112.11111111111	1	787.6	0.8	1251.25	1	847.2	0.8	1225	0.9	974.777777777778	12	538719	3	538708	14	26	538733	-999999	538722	0	21	Fix15secPROC	""	1	2	93	SessionSelectionList																																															5	523712	-6	0							93												
