ExperimentName	HCPID	RunNumber	Subject	Session	RandomSeed	Group	Laptop.RefreshRate	ScannerD2.RefreshRate	StudioVersion	RuntimeVersion	RuntimeVersionExpected	ExperimentVersion	triggercode	Allowed	Target	Nontarget	FontStyle	RunTrialNumber[Session]	TrialsPerRun[Session]	TotalRespGreater200[Session]	ConsecRTLess200[Session]	ConsecNonResp[Session]	StimuliDir	ACC_2_Back_Body	Avg_RT_For_Correct_Trials_2_Back_Body	ACC_0_Back_Body	Avg_RT_For_Correct_Trials_0_Back_Body	ACC_2_Back_Face	Avg_RT_For_Correct_Trials_2_Back_Face	ACC_0_Back_Face	Avg_RT_For_Correct_Trials_0_Back_Face	ACC_2_Back_Place	Avg_RT_For_Correct_Trials_2_Back_Place	ACC_0_Back_Place	Avg_RT_For_Correct_Trials_0_Back_Place	ACC_2_Back_Tools	Avg_RT_For_Correct_Trials_2_Back_Tools	ACC_0_Back_Tools	Avg_RT_For_Correct_Trials_0_Back_Tools	ExpInstrucFeelFreeToRest.OnsetDelay	ExpInstrucFeelFreeToRest.OnsetTime	ExpInstrucFeelFreeToRest.DurationError	ExpInstrucFeelFreeToRest.StartTime	ExpInstrucFeelFreeToRest.OnsetToOnsetTime	FeelFreeToRest.OnsetDelay	FeelFreeToRest.OnsetTime	FeelFreeToRest.DurationError	FeelFreeToRest.StartTime	FeelFreeToRest.OnsetToOnsetTime	SessionSelectionList	Procedure[Block]	Stimulus[Block]	RunNumberFilterValue	SessionSelectionList.Cycle	SessionSelectionList.Sample	Running[Block]	IntroButtonMap.OnsetDelay	IntroButtonMap.OnsetTime	IntroButtonMap.DurationError	IntroButtonMap.OnsetToOnsetTime	GetReady.OnsetDelay	GetReady.OnsetTime	GetReady.DurationError	GetReady.OnsetToOnsetTime	Cue2Back.OnsetDelay	Cue2Back.OnsetTime	Cue2Back.DurationError	Cue2Back.OnsetToOnsetTime	Run1Block1	TargetType	CorrectResponse	StimType	BlockType	RunTrialNumber[Block]	TrialsPerRun[Block]	TotalRespGreater200[Block]	ConsecRTLess200[Block]	ConsecNonResp[Block]	ControlAcc	ConsecSameResp	ExperimenterWindow.OnsetDelay	ExperimenterWindow.OnsetTime	ExperimenterWindow.DurationError	ExperimenterWindow.OnsetToOnsetTime	Stim.OnsetDelay	Stim.OnsetTime	Stim.DurationError	Stim.RTTime	Stim.ACC	Stim.RT	Stim.RESP	Stim.CRESP	Stim.OnsetToOnsetTime	Fix.OnsetDelay	Fix.OnsetTime	Fix.DurationError	Fix.OnsetToOnsetTime	CueTarget.OnsetDelay	CueTarget.OnsetTime	CueTarget.DurationError	CueTarget.OnsetToOnsetTime	Run1Block2	Fix15sec.OnsetDelay	Fix15sec.OnsetTime	Fix15sec.DurationError	Fix15sec.OnsetToOnsetTime	Run1Block3	Run1Block4	Run1Block5	Run1Block6	Run1Block7	Run1Block8	Block	Procedure[Trial]	Stimulus[Trial]	ReadyList	Running[Trial]	ReadyList.Cycle	ReadyList.Sample	SyncSlide.OnsetDelay	SyncSlide.OnsetTime	SyncSlide.DurationError	SyncSlide.FinishTime	SyncSlide.OnsetToOnsetTime	Trial
WM080112	103111_fnca	1	1	1	-1817096975	1	75.031	75.030	2.0.10.147	2.0.10.242	2.0.10.242	1.0.0.439	7	234	2	3	Verdana	1	80	0	0	0	WM Stimuli\	0.4	957	0.7	1188.42857142857	1	951.4	1	753.6	1	1130.4	0.9	727.888888888889	1	920	1	749.4	13	537066	2	537054	27	40	537093	-999999	537069	0	1	TRSyncPROC	""	1	2	1	SessionSelectionList	103	200627	-999999	0	40	229816	-999999	0																																																	1	InitialTR	4	1	ReadyList	1	1	16	243836	-17	245819	0	1
WM080112	103111_fnca	1	1	1	-1817096975	1	75.031	75.030	2.0.10.147	2.0.10.242	2.0.10.242	1.0.0.439	7	234	2	3	Verdana	1	80	0	0	0	WM Stimuli\	0.4	957	0.7	1188.42857142857	1	951.4	1	753.6	1	1130.4	0.9	727.888888888889	1	920	1	749.4	13	537066	2	537054	27	40	537093	-999999	537069	0	1	TRSyncPROC	""	1	2	1	SessionSelectionList	103	200627	-999999	0	40	229816	-999999	0																																																	1	InitialTR	3	2	ReadyList	1	2	16	245836	-17	247819	0	2
WM080112	103111_fnca	1	1	1	-1817096975	1	75.031	75.030	2.0.10.147	2.0.10.242	2.0.10.242	1.0.0.439	7	234	2	3	Verdana	1	80	0	0	0	WM Stimuli\	0.4	957	0.7	1188.42857142857	1	951.4	1	753.6	1	1130.4	0.9	727.888888888889	1	920	1	749.4	13	537066	2	537054	27	40	537093	-999999	537069	0	1	TRSyncPROC	""	1	2	1	SessionSelectionList	103	200627	-999999	0	40	229816	-999999	0																																																	1	InitialTR	2	3	ReadyList	1	3	15	247835	-16	249819	0	3
WM080112	103111_fnca	1	1	1	-1817096975	1	75.031	75.030	2.0.10.147	2.0.10.242	2.0.10.242	1.0.0.439	7	234	2	3	Verdana	1	80	0	0	0	WM Stimuli\	0.4	957	0.7	1188.42857142857	1	951.4	1	753.6	1	1130.4	0.9	727.888888888889	1	920	1	749.4	13	537066	2	537054	27	40	537093	-999999	537069	0	1	TRSyncPROC	""	1	2	1	SessionSelectionList	103	200627	-999999	0	40	229816	-999999	0																																																	1	InitialTR	1	4	ReadyList	1	4	14	249834	-15	251819	0	4
WM080112	103111_fnca	1	1	1	-1817096975	1	75.031	75.030	2.0.10.147	2.0.10.242	2.0.10.242	1.0.0.439	7	234	2	3	Verdana	1	80	0	0	0	WM Stimuli\	0.4	957	0.7	1188.42857142857	1	951.4	1	753.6	1	1130.4	0.9	727.888888888889	1	920	1	749.4	13	537066	2	537054	27	40	537093	-999999	537069	0	2	Cue2BackPROC	""	1	2	2	SessionSelectionList									13	251833	-14	0																																													2												
WM080112	103111_fnca	1	1	1	-1817096975	1	75.031	75.030	2.0.10.147	2.0.10.242	2.0.10.242	1.0.0.439	7	234	2	3	Verdana	1	80	0	0	0	WM Stimuli\	0.4	957	0.7	1188.42857142857	1	951.4	1	753.6	1	1130.4	0.9	727.888888888889	1	920	1	749.4	13	537066	2	537054	27	40	537093	-999999	537069	0	3	TrialsPROC	BP_002_BP10_BA.png	1	2	3	SessionSelectionList													1	nonlure	3	Body	2-Back	2	80	0	0	1	0	0	52	256458	3	14	86	254406	-1	0	0	0	""	3	2052	66	256472	-67	0																3												
WM080112	103111_fnca	1	1	1	-1817096975	1	75.031	75.030	2.0.10.147	2.0.10.242	2.0.10.242	1.0.0.439	7	234	2	3	Verdana	1	80	0	0	0	WM Stimuli\	0.4	957	0.7	1188.42857142857	1	951.4	1	753.6	1	1130.4	0.9	727.888888888889	1	920	1	749.4	13	537066	2	537054	27	40	537093	-999999	537069	0	3	TrialsPROC	BP_001_BP1_BA.png	1	2	4	SessionSelectionList													2	nonlure	3	Body	2-Back	3	80	1	0	0	0	1	39	259017	2	14	72	256978	-1	257281	1	303	3	3	2039	53	259031	-54	0																4												
WM080112	103111_fnca	1	1	1	-1817096975	1	75.031	75.030	2.0.10.147	2.0.10.242	2.0.10.242	1.0.0.439	7	234	2	3	Verdana	1	80	0	0	0	WM Stimuli\	0.4	957	0.7	1188.42857142857	1	951.4	1	753.6	1	1130.4	0.9	727.888888888889	1	920	1	749.4	13	537066	2	537054	27	40	537093	-999999	537069	0	3	TrialsPROC	BP_006_BP2_BA.png	1	2	5	SessionSelectionList													3	nonlure	3	Body	2-Back	4	80	2	0	0	0	1	39	261576	1	14	59	259537	-1	260699	0	1162	2	3	2039	53	261590	-54	0																5												
WM080112	103111_fnca	1	1	1	-1817096975	1	75.031	75.030	2.0.10.147	2.0.10.242	2.0.10.242	1.0.0.439	7	234	2	3	Verdana	1	80	0	0	0	WM Stimuli\	0.4	957	0.7	1188.42857142857	1	951.4	1	753.6	1	1130.4	0.9	727.888888888889	1	920	1	749.4	13	537066	2	537054	27	40	537093	-999999	537069	0	3	TrialsPROC	BP_001_BP1_BA.png	1	2	6	SessionSelectionList													4	target	2	Body	2-Back	5	80	3	0	0	0	1	39	264148	2	14	72	262109	-1	263030	0	921	3	2	2039	53	264162	-54	0																6												
WM080112	103111_fnca	1	1	1	-1817096975	1	75.031	75.030	2.0.10.147	2.0.10.242	2.0.10.242	1.0.0.439	7	234	2	3	Verdana	1	80	0	0	0	WM Stimuli\	0.4	957	0.7	1188.42857142857	1	951.4	1	753.6	1	1130.4	0.9	727.888888888889	1	920	1	749.4	13	537066	2	537054	27	40	537093	-999999	537069	0	3	TrialsPROC	BP_005_BP19_BA.png	1	2	7	SessionSelectionList													5	nonlure	3	Body	2-Back	6	80	4	0	0	0	2	40	266721	1	13	72	264681	-1	265658	1	977	3	3	2040	53	266734	-54	0																7												
WM080112	103111_fnca	1	1	1	-1817096975	1	75.031	75.030	2.0.10.147	2.0.10.242	2.0.10.242	1.0.0.439	7	234	2	3	Verdana	1	80	0	0	0	WM Stimuli\	0.4	957	0.7	1188.42857142857	1	951.4	1	753.6	1	1130.4	0.9	727.888888888889	1	920	1	749.4	13	537066	2	537054	27	40	537093	-999999	537069	0	3	TrialsPROC	BP_003_BP16_BA.png	1	2	8	SessionSelectionList													6	nonlure	3	Body	2-Back	7	80	5	0	0	0	3	40	269280	1	13	59	267240	-1	268206	1	966	3	3	2040	53	269293	-54	0																8												
WM080112	103111_fnca	1	1	1	-1817096975	1	75.031	75.030	2.0.10.147	2.0.10.242	2.0.10.242	1.0.0.439	7	234	2	3	Verdana	1	80	0	0	0	WM Stimuli\	0.4	957	0.7	1188.42857142857	1	951.4	1	753.6	1	1130.4	0.9	727.888888888889	1	920	1	749.4	13	537066	2	537054	27	40	537093	-999999	537069	0	3	TrialsPROC	BP_006_BP2_BA.png	1	2	9	SessionSelectionList													7	lure	3	Body	2-Back	8	80	6	0	0	0	4	40	271839	1	13	59	269799	-1	271381	1	1582	3	3	2040	53	271852	-54	0																9												
WM080112	103111_fnca	1	1	1	-1817096975	1	75.031	75.030	2.0.10.147	2.0.10.242	2.0.10.242	1.0.0.439	7	234	2	3	Verdana	1	80	0	0	0	WM Stimuli\	0.4	957	0.7	1188.42857142857	1	951.4	1	753.6	1	1130.4	0.9	727.888888888889	1	920	1	749.4	13	537066	2	537054	27	40	537093	-999999	537069	0	3	TrialsPROC	BP_004_BP18_BA.png	1	2	10	SessionSelectionList													8	nonlure	3	Body	2-Back	9	80	7	0	0	0	1	40	274398	1	13	59	272358	-1	273890	0	1532	2	3	2040	53	274411	-54	0																10												
WM080112	103111_fnca	1	1	1	-1817096975	1	75.031	75.030	2.0.10.147	2.0.10.242	2.0.10.242	1.0.0.439	7	234	2	3	Verdana	1	80	0	0	0	WM Stimuli\	0.4	957	0.7	1188.42857142857	1	951.4	1	753.6	1	1130.4	0.9	727.888888888889	1	920	1	749.4	13	537066	2	537054	27	40	537093	-999999	537069	0	3	TrialsPROC	BP_005_BP19_BA.png	1	2	11	SessionSelectionList													9	lure	3	Body	2-Back	10	80	8	0	0	0	2	39	276957	1	13	60	274918	-1	275922	0	1004	2	3	2039	52	276970	-53	0																11												
WM080112	103111_fnca	1	1	1	-1817096975	1	75.031	75.030	2.0.10.147	2.0.10.242	2.0.10.242	1.0.0.439	7	234	2	3	Verdana	1	80	0	0	0	WM Stimuli\	0.4	957	0.7	1188.42857142857	1	951.4	1	753.6	1	1130.4	0.9	727.888888888889	1	920	1	749.4	13	537066	2	537054	27	40	537093	-999999	537069	0	3	TrialsPROC	BP_004_BP18_BA.png	1	2	12	SessionSelectionList													10	target	2	Body	2-Back	11	80	9	0	0	0	1	39	279515	2	14	58	277476	-1	278876	0	1400	3	2	2039	53	279529	-54	0																12												
WM080112	103111_fnca	1	1	1	-1817096975	1	75.031	75.030	2.0.10.147	2.0.10.242	2.0.10.242	1.0.0.439	7	234	2	3	Verdana	1	80	0	0	0	WM Stimuli\	0.4	957	0.7	1188.42857142857	1	951.4	1	753.6	1	1130.4	0.9	727.888888888889	1	920	1	749.4	13	537066	2	537054	27	40	537093	-999999	537069	0	4	Cue0BackPROC	FC_001_M1.png	1	2	13	SessionSelectionList																																										19	279995	-20	0												13												
WM080112	103111_fnca	1	1	1	-1817096975	1	75.031	75.030	2.0.10.147	2.0.10.242	2.0.10.242	1.0.0.439	7	234	2	3	Verdana	1	80	0	0	0	WM Stimuli\	0.4	957	0.7	1188.42857142857	1	951.4	1	753.6	1	1130.4	0.9	727.888888888889	1	920	1	749.4	13	537066	2	537054	27	40	537093	-999999	537069	0	5	TrialsPROC	FC_005_M3.png	1	2	14	SessionSelectionList														nonlure	3	Face	0-Back	12	80	10	0	0	100	2	39	284580	2	14	65	282541	-1	283340	1	799	3	3	2039	53	284594	-54	0					1											14												
WM080112	103111_fnca	1	1	1	-1817096975	1	75.031	75.030	2.0.10.147	2.0.10.242	2.0.10.242	1.0.0.439	7	234	2	3	Verdana	1	80	0	0	0	WM Stimuli\	0.4	957	0.7	1188.42857142857	1	951.4	1	753.6	1	1130.4	0.9	727.888888888889	1	920	1	749.4	13	537066	2	537054	27	40	537093	-999999	537069	0	5	TrialsPROC	FC_001_M1.png	1	2	15	SessionSelectionList														target	2	Face	0-Back	13	80	11	0	0	100	1	39	287152	2	14	72	285113	-1	285873	1	760	2	2	2039	53	287166	-54	0					2											15												
WM080112	103111_fnca	1	1	1	-1817096975	1	75.031	75.030	2.0.10.147	2.0.10.242	2.0.10.242	1.0.0.439	7	234	2	3	Verdana	1	80	0	0	0	WM Stimuli\	0.4	957	0.7	1188.42857142857	1	951.4	1	753.6	1	1130.4	0.9	727.888888888889	1	920	1	749.4	13	537066	2	537054	27	40	537093	-999999	537069	0	5	TrialsPROC	FC_003_M2.png	1	2	16	SessionSelectionList														nonlure	3	Face	0-Back	14	80	12	0	0	100	1	39	289725	1	13	73	287686	-1	288468	1	782	3	3	2039	52	289738	-53	0					3											16												
WM080112	103111_fnca	1	1	1	-1817096975	1	75.031	75.030	2.0.10.147	2.0.10.242	2.0.10.242	1.0.0.439	7	234	2	3	Verdana	1	80	0	0	0	WM Stimuli\	0.4	957	0.7	1188.42857142857	1	951.4	1	753.6	1	1130.4	0.9	727.888888888889	1	920	1	749.4	13	537066	2	537054	27	40	537093	-999999	537069	0	5	TrialsPROC	FC_004_F2.png	1	2	17	SessionSelectionList														nonlure	3	Face	0-Back	15	80	13	0	0	100	2	39	292297	1	14	72	290258	-1	290969	1	711	3	3	2039	53	292311	-54	0					4											17												
WM080112	103111_fnca	1	1	1	-1817096975	1	75.031	75.030	2.0.10.147	2.0.10.242	2.0.10.242	1.0.0.439	7	234	2	3	Verdana	1	80	0	0	0	WM Stimuli\	0.4	957	0.7	1188.42857142857	1	951.4	1	753.6	1	1130.4	0.9	727.888888888889	1	920	1	749.4	13	537066	2	537054	27	40	537093	-999999	537069	0	5	TrialsPROC	FC_004_F2.png	1	2	18	SessionSelectionList														lure	3	Face	0-Back	16	80	14	0	0	100	3	39	294869	2	14	72	292830	-1	293605	1	775	3	3	2039	53	294883	-54	0					5											18												
WM080112	103111_fnca	1	1	1	-1817096975	1	75.031	75.030	2.0.10.147	2.0.10.242	2.0.10.242	1.0.0.439	7	234	2	3	Verdana	1	80	0	0	0	WM Stimuli\	0.4	957	0.7	1188.42857142857	1	951.4	1	753.6	1	1130.4	0.9	727.888888888889	1	920	1	749.4	13	537066	2	537054	27	40	537093	-999999	537069	0	5	TrialsPROC	FC_001_M1.png	1	2	19	SessionSelectionList														target	2	Face	0-Back	17	80	15	0	0	100	1	40	297442	1	13	72	295402	-1	296067	1	665	2	2	2040	53	297455	-54	0					6											19												
WM080112	103111_fnca	1	1	1	-1817096975	1	75.031	75.030	2.0.10.147	2.0.10.242	2.0.10.242	1.0.0.439	7	234	2	3	Verdana	1	80	0	0	0	WM Stimuli\	0.4	957	0.7	1188.42857142857	1	951.4	1	753.6	1	1130.4	0.9	727.888888888889	1	920	1	749.4	13	537066	2	537054	27	40	537093	-999999	537069	0	5	TrialsPROC	FC_006_F3.png	1	2	20	SessionSelectionList														nonlure	3	Face	0-Back	18	80	16	0	0	100	1	39	300014	1	14	73	297975	-1	298674	1	699	3	3	2039	53	300028	-54	0					7											20												
WM080112	103111_fnca	1	1	1	-1817096975	1	75.031	75.030	2.0.10.147	2.0.10.242	2.0.10.242	1.0.0.439	7	234	2	3	Verdana	1	80	0	0	0	WM Stimuli\	0.4	957	0.7	1188.42857142857	1	951.4	1	753.6	1	1130.4	0.9	727.888888888889	1	920	1	749.4	13	537066	2	537054	27	40	537093	-999999	537069	0	5	TrialsPROC	FC_006_F3.png	1	2	21	SessionSelectionList														lure	3	Face	0-Back	19	80	17	0	0	100	2	39	302586	2	14	72	300547	-1	301374	1	827	3	3	2039	53	302600	-54	0					8											21												
WM080112	103111_fnca	1	1	1	-1817096975	1	75.031	75.030	2.0.10.147	2.0.10.242	2.0.10.242	1.0.0.439	7	234	2	3	Verdana	1	80	0	0	0	WM Stimuli\	0.4	957	0.7	1188.42857142857	1	951.4	1	753.6	1	1130.4	0.9	727.888888888889	1	920	1	749.4	13	537066	2	537054	27	40	537093	-999999	537069	0	5	TrialsPROC	FC_003_M2.png	1	2	22	SessionSelectionList														lure	3	Face	0-Back	20	80	18	0	0	100	3	40	305159	1	13	72	303119	-1	303908	1	789	3	3	2040	53	305172	-54	0					9											22												
WM080112	103111_fnca	1	1	1	-1817096975	1	75.031	75.030	2.0.10.147	2.0.10.242	2.0.10.242	1.0.0.439	7	234	2	3	Verdana	1	80	0	0	0	WM Stimuli\	0.4	957	0.7	1188.42857142857	1	951.4	1	753.6	1	1130.4	0.9	727.888888888889	1	920	1	749.4	13	537066	2	537054	27	40	537093	-999999	537069	0	5	TrialsPROC	FC_002_F1.png	1	2	23	SessionSelectionList														nonlure	3	Face	0-Back	21	80	19	0	0	100	4	39	307731	1	13	73	305692	-1	306421	1	729	3	3	2039	52	307744	-53	0					10											23												
WM080112	103111_fnca	1	1	1	-1817096975	1	75.031	75.030	2.0.10.147	2.0.10.242	2.0.10.242	1.0.0.439	7	234	2	3	Verdana	1	80	0	0	0	WM Stimuli\	0.4	957	0.7	1188.42857142857	1	951.4	1	753.6	1	1130.4	0.9	727.888888888889	1	920	1	749.4	13	537066	2	537054	27	40	537093	-999999	537069	0	6	Fix15secPROC	""	1	2	24	SessionSelectionList																																															6	308198	-7	0							24												
WM080112	103111_fnca	1	1	1	-1817096975	1	75.031	75.030	2.0.10.147	2.0.10.242	2.0.10.242	1.0.0.439	7	234	2	3	Verdana	1	80	0	0	0	WM Stimuli\	0.4	957	0.7	1188.42857142857	1	951.4	1	753.6	1	1130.4	0.9	727.888888888889	1	920	1	749.4	13	537066	2	537054	27	40	537093	-999999	537069	0	7	Cue2BackPROC	""	1	2	25	SessionSelectionList									13	323205	-14	0																																													25												
WM080112	103111_fnca	1	1	1	-1817096975	1	75.031	75.030	2.0.10.147	2.0.10.242	2.0.10.242	1.0.0.439	7	234	2	3	Verdana	1	80	0	0	0	WM Stimuli\	0.4	957	0.7	1188.42857142857	1	951.4	1	753.6	1	1130.4	0.9	727.888888888889	1	920	1	749.4	13	537066	2	537054	27	40	537093	-999999	537069	0	8	TrialsPROC	TO_001_TOOL1_BA.png	1	2	26	SessionSelectionList														nonlure	3	Tools	2-Back	22	80	20	0	0	100	5	39	327789	2	14	58	325750	-1	326526	1	776	3	3	2039	53	327803	-54	0										1						26												
WM080112	103111_fnca	1	1	1	-1817096975	1	75.031	75.030	2.0.10.147	2.0.10.242	2.0.10.242	1.0.0.439	7	234	2	3	Verdana	1	80	0	0	0	WM Stimuli\	0.4	957	0.7	1188.42857142857	1	951.4	1	753.6	1	1130.4	0.9	727.888888888889	1	920	1	749.4	13	537066	2	537054	27	40	537093	-999999	537069	0	8	TrialsPROC	TO_002_TOOL2_BA.png	1	2	27	SessionSelectionList														nonlure	3	Tools	2-Back	23	80	21	0	0	100	6	39	330348	2	14	59	328309	-1	328897	1	588	3	3	2039	53	330362	-54	0										2						27												
WM080112	103111_fnca	1	1	1	-1817096975	1	75.031	75.030	2.0.10.147	2.0.10.242	2.0.10.242	1.0.0.439	7	234	2	3	Verdana	1	80	0	0	0	WM Stimuli\	0.4	957	0.7	1188.42857142857	1	951.4	1	753.6	1	1130.4	0.9	727.888888888889	1	920	1	749.4	13	537066	2	537054	27	40	537093	-999999	537069	0	8	TrialsPROC	TO_004_TOOL4_BA.png	1	2	28	SessionSelectionList														nonlure	3	Tools	2-Back	24	80	22	0	0	100	7	39	332907	2	14	59	330868	-1	331583	1	715	3	3	2039	53	332921	-54	0										3						28												
WM080112	103111_fnca	1	1	1	-1817096975	1	75.031	75.030	2.0.10.147	2.0.10.242	2.0.10.242	1.0.0.439	7	234	2	3	Verdana	1	80	0	0	0	WM Stimuli\	0.4	957	0.7	1188.42857142857	1	951.4	1	753.6	1	1130.4	0.9	727.888888888889	1	920	1	749.4	13	537066	2	537054	27	40	537093	-999999	537069	0	8	TrialsPROC	TO_002_TOOL2_BA.png	1	2	29	SessionSelectionList														target	2	Tools	2-Back	25	80	23	0	0	100	1	39	335466	2	14	59	333427	-1	334023	1	596	2	2	2039	53	335480	-54	0										4						29												
WM080112	103111_fnca	1	1	1	-1817096975	1	75.031	75.030	2.0.10.147	2.0.10.242	2.0.10.242	1.0.0.439	7	234	2	3	Verdana	1	80	0	0	0	WM Stimuli\	0.4	957	0.7	1188.42857142857	1	951.4	1	753.6	1	1130.4	0.9	727.888888888889	1	920	1	749.4	13	537066	2	537054	27	40	537093	-999999	537069	0	8	TrialsPROC	TO_001_TOOL1_BA.png	1	2	30	SessionSelectionList														lure	3	Tools	2-Back	26	80	24	0	0	100	1	39	338025	2	14	59	335986	-1	336963	1	977	3	3	2039	53	338039	-54	0										5						30												
WM080112	103111_fnca	1	1	1	-1817096975	1	75.031	75.030	2.0.10.147	2.0.10.242	2.0.10.242	1.0.0.439	7	234	2	3	Verdana	1	80	0	0	0	WM Stimuli\	0.4	957	0.7	1188.42857142857	1	951.4	1	753.6	1	1130.4	0.9	727.888888888889	1	920	1	749.4	13	537066	2	537054	27	40	537093	-999999	537069	0	8	TrialsPROC	TO_004_TOOL4_BA.png	1	2	31	SessionSelectionList														lure	3	Tools	2-Back	27	80	25	0	0	100	2	39	340584	2	14	59	338545	-1	339648	1	1103	3	3	2039	53	340598	-54	0										6						31												
WM080112	103111_fnca	1	1	1	-1817096975	1	75.031	75.030	2.0.10.147	2.0.10.242	2.0.10.242	1.0.0.439	7	234	2	3	Verdana	1	80	0	0	0	WM Stimuli\	0.4	957	0.7	1188.42857142857	1	951.4	1	753.6	1	1130.4	0.9	727.888888888889	1	920	1	749.4	13	537066	2	537054	27	40	537093	-999999	537069	0	8	TrialsPROC	TO_006_TOOL6_BA.png	1	2	32	SessionSelectionList														nonlure	3	Tools	2-Back	28	80	26	0	0	100	3	39	343143	3	14	59	341104	-1	342478	1	1374	3	3	2039	53	343157	-54	0										7						32												
WM080112	103111_fnca	1	1	1	-1817096975	1	75.031	75.030	2.0.10.147	2.0.10.242	2.0.10.242	1.0.0.439	7	234	2	3	Verdana	1	80	0	0	0	WM Stimuli\	0.4	957	0.7	1188.42857142857	1	951.4	1	753.6	1	1130.4	0.9	727.888888888889	1	920	1	749.4	13	537066	2	537054	27	40	537093	-999999	537069	0	8	TrialsPROC	TO_005_TOOL5_BA.png	1	2	33	SessionSelectionList														nonlure	3	Tools	2-Back	29	80	27	0	0	100	4	39	345702	2	14	59	343663	-1	344860	1	1197	3	3	2039	53	345716	-54	0										8						33												
WM080112	103111_fnca	1	1	1	-1817096975	1	75.031	75.030	2.0.10.147	2.0.10.242	2.0.10.242	1.0.0.439	7	234	2	3	Verdana	1	80	0	0	0	WM Stimuli\	0.4	957	0.7	1188.42857142857	1	951.4	1	753.6	1	1130.4	0.9	727.888888888889	1	920	1	749.4	13	537066	2	537054	27	40	537093	-999999	537069	0	8	TrialsPROC	TO_006_TOOL6_BA.png	1	2	34	SessionSelectionList														target	2	Tools	2-Back	30	80	28	0	0	100	1	39	348261	2	14	59	346222	-1	347082	1	860	2	2	2039	53	348275	-54	0										9						34												
WM080112	103111_fnca	1	1	1	-1817096975	1	75.031	75.030	2.0.10.147	2.0.10.242	2.0.10.242	1.0.0.439	7	234	2	3	Verdana	1	80	0	0	0	WM Stimuli\	0.4	957	0.7	1188.42857142857	1	951.4	1	753.6	1	1130.4	0.9	727.888888888889	1	920	1	749.4	13	537066	2	537054	27	40	537093	-999999	537069	0	8	TrialsPROC	TO_003_TOOL3_BA.png	1	2	35	SessionSelectionList														nonlure	3	Tools	2-Back	31	80	29	0	0	100	1	39	350820	2	14	59	348781	-1	349795	1	1014	3	3	2039	53	350834	-54	0										10						35												
WM080112	103111_fnca	1	1	1	-1817096975	1	75.031	75.030	2.0.10.147	2.0.10.242	2.0.10.242	1.0.0.439	7	234	2	3	Verdana	1	80	0	0	0	WM Stimuli\	0.4	957	0.7	1188.42857142857	1	951.4	1	753.6	1	1130.4	0.9	727.888888888889	1	920	1	749.4	13	537066	2	537054	27	40	537093	-999999	537069	0	9	Cue0BackPROC	BP_007_BP20_BA.png	1	2	36	SessionSelectionList																																										19	351300	-20	0												36												
WM080112	103111_fnca	1	1	1	-1817096975	1	75.031	75.030	2.0.10.147	2.0.10.242	2.0.10.242	1.0.0.439	7	234	2	3	Verdana	1	80	0	0	0	WM Stimuli\	0.4	957	0.7	1188.42857142857	1	951.4	1	753.6	1	1130.4	0.9	727.888888888889	1	920	1	749.4	13	537066	2	537054	27	40	537093	-999999	537069	0	10	TrialsPROC	BP_007_BP20_BA.png	1	2	37	SessionSelectionList														target	2	Body	0-Back	32	80	30	0	0	91	2	40	355872	1	13	51	353832	-1	355384	0	1552	3	2	2040	53	355885	-54	0											1					37												
WM080112	103111_fnca	1	1	1	-1817096975	1	75.031	75.030	2.0.10.147	2.0.10.242	2.0.10.242	1.0.0.439	7	234	2	3	Verdana	1	80	0	0	0	WM Stimuli\	0.4	957	0.7	1188.42857142857	1	951.4	1	753.6	1	1130.4	0.9	727.888888888889	1	920	1	749.4	13	537066	2	537054	27	40	537093	-999999	537069	0	10	TrialsPROC	BP_011_BP4_BA.png	1	2	38	SessionSelectionList														nonlure	3	Body	0-Back	33	80	31	0	0	92	3	38	358430	2	14	60	356392	-1	358125	1	1733	3	3	2038	52	358444	-53	0											2					38												
WM080112	103111_fnca	1	1	1	-1817096975	1	75.031	75.030	2.0.10.147	2.0.10.242	2.0.10.242	1.0.0.439	7	234	2	3	Verdana	1	80	0	0	0	WM Stimuli\	0.4	957	0.7	1188.42857142857	1	951.4	1	753.6	1	1130.4	0.9	727.888888888889	1	920	1	749.4	13	537066	2	537054	27	40	537093	-999999	537069	0	10	TrialsPROC	BP_010_BP3_BA.png	1	2	39	SessionSelectionList														nonlure	3	Body	0-Back	34	80	32	0	0	92	4	39	360989	2	14	58	358950	-1	360268	1	1318	3	3	2039	53	361003	-54	0											3					39												
WM080112	103111_fnca	1	1	1	-1817096975	1	75.031	75.030	2.0.10.147	2.0.10.242	2.0.10.242	1.0.0.439	7	234	2	3	Verdana	1	80	0	0	0	WM Stimuli\	0.4	957	0.7	1188.42857142857	1	951.4	1	753.6	1	1130.4	0.9	727.888888888889	1	920	1	749.4	13	537066	2	537054	27	40	537093	-999999	537069	0	10	TrialsPROC	BP_008_BP21_BA.png	1	2	40	SessionSelectionList														nonlure	3	Body	0-Back	35	80	33	0	0	93	5	39	363548	2	14	59	361509	-1	362328	1	819	3	3	2039	53	363562	-54	0											4					40												
WM080112	103111_fnca	1	1	1	-1817096975	1	75.031	75.030	2.0.10.147	2.0.10.242	2.0.10.242	1.0.0.439	7	234	2	3	Verdana	1	80	0	0	0	WM Stimuli\	0.4	957	0.7	1188.42857142857	1	951.4	1	753.6	1	1130.4	0.9	727.888888888889	1	920	1	749.4	13	537066	2	537054	27	40	537093	-999999	537069	0	10	TrialsPROC	BP_011_BP4_BA.png	1	2	41	SessionSelectionList														lure	3	Body	0-Back	36	80	34	0	0	87	1	39	366121	1	13	73	364082	-1	365039	0	957	2	3	2039	52	366134	-53	0											5					41												
WM080112	103111_fnca	1	1	1	-1817096975	1	75.031	75.030	2.0.10.147	2.0.10.242	2.0.10.242	1.0.0.439	7	234	2	3	Verdana	1	80	0	0	0	WM Stimuli\	0.4	957	0.7	1188.42857142857	1	951.4	1	753.6	1	1130.4	0.9	727.888888888889	1	920	1	749.4	13	537066	2	537054	27	40	537093	-999999	537069	0	10	TrialsPROC	BP_009_BP22_BA.png	1	2	42	SessionSelectionList														nonlure	3	Body	0-Back	37	80	35	0	0	88	1	39	368680	1	13	59	366641	-1	367655	1	1014	3	3	2039	52	368693	-53	0											6					42												
WM080112	103111_fnca	1	1	1	-1817096975	1	75.031	75.030	2.0.10.147	2.0.10.242	2.0.10.242	1.0.0.439	7	234	2	3	Verdana	1	80	0	0	0	WM Stimuli\	0.4	957	0.7	1188.42857142857	1	951.4	1	753.6	1	1130.4	0.9	727.888888888889	1	920	1	749.4	13	537066	2	537054	27	40	537093	-999999	537069	0	10	TrialsPROC	BP_009_BP22_BA.png	1	2	43	SessionSelectionList														lure	3	Body	0-Back	38	80	36	0	0	82	1	39	371239	1	13	59	369200	-1	370443	0	1243	2	3	2039	52	371252	-53	0											7					43												
WM080112	103111_fnca	1	1	1	-1817096975	1	75.031	75.030	2.0.10.147	2.0.10.242	2.0.10.242	1.0.0.439	7	234	2	3	Verdana	1	80	0	0	0	WM Stimuli\	0.4	957	0.7	1188.42857142857	1	951.4	1	753.6	1	1130.4	0.9	727.888888888889	1	920	1	749.4	13	537066	2	537054	27	40	537093	-999999	537069	0	10	TrialsPROC	BP_008_BP21_BA.png	1	2	44	SessionSelectionList														lure	3	Body	0-Back	39	80	37	0	0	83	1	40	373798	1	13	58	371758	-1	373169	1	1411	3	3	2040	53	373811	-54	0											8					44												
WM080112	103111_fnca	1	1	1	-1817096975	1	75.031	75.030	2.0.10.147	2.0.10.242	2.0.10.242	1.0.0.439	7	234	2	3	Verdana	1	80	0	0	0	WM Stimuli\	0.4	957	0.7	1188.42857142857	1	951.4	1	753.6	1	1130.4	0.9	727.888888888889	1	920	1	749.4	13	537066	2	537054	27	40	537093	-999999	537069	0	10	TrialsPROC	BP_007_BP20_BA.png	1	2	45	SessionSelectionList														target	2	Body	0-Back	40	80	38	0	0	84	1	40	376357	1	13	59	374317	-1	375340	1	1023	2	2	2040	53	376370	-54	0											9					45												
WM080112	103111_fnca	1	1	1	-1817096975	1	75.031	75.030	2.0.10.147	2.0.10.242	2.0.10.242	1.0.0.439	7	234	2	3	Verdana	1	80	0	0	0	WM Stimuli\	0.4	957	0.7	1188.42857142857	1	951.4	1	753.6	1	1130.4	0.9	727.888888888889	1	920	1	749.4	13	537066	2	537054	27	40	537093	-999999	537069	0	10	TrialsPROC	BP_012_BP5_BA.png	1	2	46	SessionSelectionList														nonlure	3	Body	0-Back	41	80	39	0	0	85	1	39	378916	1	13	60	376877	-1	377878	1	1001	3	3	2039	52	378929	-53	0											10					46												
WM080112	103111_fnca	1	1	1	-1817096975	1	75.031	75.030	2.0.10.147	2.0.10.242	2.0.10.242	1.0.0.439	7	234	2	3	Verdana	1	80	0	0	0	WM Stimuli\	0.4	957	0.7	1188.42857142857	1	951.4	1	753.6	1	1130.4	0.9	727.888888888889	1	920	1	749.4	13	537066	2	537054	27	40	537093	-999999	537069	0	11	Fix15secPROC	""	1	2	47	SessionSelectionList																																															5	379382	-6	0							47												
WM080112	103111_fnca	1	1	1	-1817096975	1	75.031	75.030	2.0.10.147	2.0.10.242	2.0.10.242	1.0.0.439	7	234	2	3	Verdana	1	80	0	0	0	WM Stimuli\	0.4	957	0.7	1188.42857142857	1	951.4	1	753.6	1	1130.4	0.9	727.888888888889	1	920	1	749.4	13	537066	2	537054	27	40	537093	-999999	537069	0	12	Cue0BackPROC	PL_001_92012.png	1	2	48	SessionSelectionList																																										12	394389	-13	0												48												
WM080112	103111_fnca	1	1	1	-1817096975	1	75.031	75.030	2.0.10.147	2.0.10.242	2.0.10.242	1.0.0.439	7	234	2	3	Verdana	1	80	0	0	0	WM Stimuli\	0.4	957	0.7	1188.42857142857	1	951.4	1	753.6	1	1130.4	0.9	727.888888888889	1	920	1	749.4	13	537066	2	537054	27	40	537093	-999999	537069	0	13	TrialsPROC	PL_003_92016.png	1	2	49	SessionSelectionList														nonlure	3	Place	0-Back	42	80	40	0	0	86	2	40	398988	1	13	71	396948	-1	397802	1	854	3	3	2040	53	399001	-54	0												1				49												
WM080112	103111_fnca	1	1	1	-1817096975	1	75.031	75.030	2.0.10.147	2.0.10.242	2.0.10.242	1.0.0.439	7	234	2	3	Verdana	1	80	0	0	0	WM Stimuli\	0.4	957	0.7	1188.42857142857	1	951.4	1	753.6	1	1130.4	0.9	727.888888888889	1	920	1	749.4	13	537066	2	537054	27	40	537093	-999999	537069	0	13	TrialsPROC	PL_003_92016.png	1	2	50	SessionSelectionList														lure	3	Place	0-Back	43	80	40	0	1	82	2	39	401560	1	14	73	399521	-1	0	0	0	""	3	2039	53	401574	-54	0												2				50												
WM080112	103111_fnca	1	1	1	-1817096975	1	75.031	75.030	2.0.10.147	2.0.10.242	2.0.10.242	1.0.0.439	7	234	2	3	Verdana	1	80	0	0	0	WM Stimuli\	0.4	957	0.7	1188.42857142857	1	951.4	1	753.6	1	1130.4	0.9	727.888888888889	1	920	1	749.4	13	537066	2	537054	27	40	537093	-999999	537069	0	13	TrialsPROC	PL_006_92025.png	1	2	51	SessionSelectionList														nonlure	3	Place	0-Back	44	80	41	0	0	83	1	39	404132	2	14	72	402093	-1	402913	1	820	3	3	2039	53	404146	-54	0												3				51												
WM080112	103111_fnca	1	1	1	-1817096975	1	75.031	75.030	2.0.10.147	2.0.10.242	2.0.10.242	1.0.0.439	7	234	2	3	Verdana	1	80	0	0	0	WM Stimuli\	0.4	957	0.7	1188.42857142857	1	951.4	1	753.6	1	1130.4	0.9	727.888888888889	1	920	1	749.4	13	537066	2	537054	27	40	537093	-999999	537069	0	13	TrialsPROC	PL_001_92012.png	1	2	52	SessionSelectionList														target	2	Place	0-Back	45	80	42	0	0	83	1	39	406691	2	14	59	404652	-1	405189	1	537	2	2	2039	53	406705	-54	0												4				52												
WM080112	103111_fnca	1	1	1	-1817096975	1	75.031	75.030	2.0.10.147	2.0.10.242	2.0.10.242	1.0.0.439	7	234	2	3	Verdana	1	80	0	0	0	WM Stimuli\	0.4	957	0.7	1188.42857142857	1	951.4	1	753.6	1	1130.4	0.9	727.888888888889	1	920	1	749.4	13	537066	2	537054	27	40	537093	-999999	537069	0	13	TrialsPROC	PL_004_92023.png	1	2	53	SessionSelectionList														nonlure	3	Place	0-Back	46	80	43	0	0	84	1	39	409263	2	14	72	407224	-1	407885	1	661	3	3	2039	53	409277	-54	0												5				53												
WM080112	103111_fnca	1	1	1	-1817096975	1	75.031	75.030	2.0.10.147	2.0.10.242	2.0.10.242	1.0.0.439	7	234	2	3	Verdana	1	80	0	0	0	WM Stimuli\	0.4	957	0.7	1188.42857142857	1	951.4	1	753.6	1	1130.4	0.9	727.888888888889	1	920	1	749.4	13	537066	2	537054	27	40	537093	-999999	537069	0	13	TrialsPROC	PL_005_92024.png	1	2	54	SessionSelectionList														nonlure	3	Place	0-Back	47	80	44	0	0	85	2	39	411836	1	13	73	409797	-1	410899	1	1102	3	3	2039	52	411849	-53	0												6				54												
WM080112	103111_fnca	1	1	1	-1817096975	1	75.031	75.030	2.0.10.147	2.0.10.242	2.0.10.242	1.0.0.439	7	234	2	3	Verdana	1	80	0	0	0	WM Stimuli\	0.4	957	0.7	1188.42857142857	1	951.4	1	753.6	1	1130.4	0.9	727.888888888889	1	920	1	749.4	13	537066	2	537054	27	40	537093	-999999	537069	0	13	TrialsPROC	PL_001_92012.png	1	2	55	SessionSelectionList														target	2	Place	0-Back	48	80	45	0	0	85	1	39	414395	1	13	59	412356	-1	412998	1	642	2	2	2039	52	414408	-53	0												7				55												
WM080112	103111_fnca	1	1	1	-1817096975	1	75.031	75.030	2.0.10.147	2.0.10.242	2.0.10.242	1.0.0.439	7	234	2	3	Verdana	1	80	0	0	0	WM Stimuli\	0.4	957	0.7	1188.42857142857	1	951.4	1	753.6	1	1130.4	0.9	727.888888888889	1	920	1	749.4	13	537066	2	537054	27	40	537093	-999999	537069	0	13	TrialsPROC	PL_002_92014.png	1	2	56	SessionSelectionList														nonlure	3	Place	0-Back	49	80	46	0	0	86	1	39	416967	1	14	72	414928	-1	415548	1	620	3	3	2039	53	416981	-54	0												8				56												
WM080112	103111_fnca	1	1	1	-1817096975	1	75.031	75.030	2.0.10.147	2.0.10.242	2.0.10.242	1.0.0.439	7	234	2	3	Verdana	1	80	0	0	0	WM Stimuli\	0.4	957	0.7	1188.42857142857	1	951.4	1	753.6	1	1130.4	0.9	727.888888888889	1	920	1	749.4	13	537066	2	537054	27	40	537093	-999999	537069	0	13	TrialsPROC	PL_004_92023.png	1	2	57	SessionSelectionList														lure	3	Place	0-Back	50	80	47	0	0	86	2	39	419539	2	14	72	417500	-1	418116	1	616	3	3	2039	53	419553	-54	0												9				57												
WM080112	103111_fnca	1	1	1	-1817096975	1	75.031	75.030	2.0.10.147	2.0.10.242	2.0.10.242	1.0.0.439	7	234	2	3	Verdana	1	80	0	0	0	WM Stimuli\	0.4	957	0.7	1188.42857142857	1	951.4	1	753.6	1	1130.4	0.9	727.888888888889	1	920	1	749.4	13	537066	2	537054	27	40	537093	-999999	537069	0	13	TrialsPROC	PL_006_92025.png	1	2	58	SessionSelectionList														lure	3	Place	0-Back	51	80	48	0	0	87	3	39	422098	2	14	59	420059	-1	420758	1	699	3	3	2039	53	422112	-54	0												10				58												
WM080112	103111_fnca	1	1	1	-1817096975	1	75.031	75.030	2.0.10.147	2.0.10.242	2.0.10.242	1.0.0.439	7	234	2	3	Verdana	1	80	0	0	0	WM Stimuli\	0.4	957	0.7	1188.42857142857	1	951.4	1	753.6	1	1130.4	0.9	727.888888888889	1	920	1	749.4	13	537066	2	537054	27	40	537093	-999999	537069	0	14	Cue2BackPROC	""	1	2	59	SessionSelectionList									6	422565	-7	0																																													59												
WM080112	103111_fnca	1	1	1	-1817096975	1	75.031	75.030	2.0.10.147	2.0.10.242	2.0.10.242	1.0.0.439	7	234	2	3	Verdana	1	80	0	0	0	WM Stimuli\	0.4	957	0.7	1188.42857142857	1	951.4	1	753.6	1	1130.4	0.9	727.888888888889	1	920	1	749.4	13	537066	2	537054	27	40	537093	-999999	537069	0	15	TrialsPROC	FC_010_F5.png	1	2	60	SessionSelectionList														nonlure	3	Face	2-Back	52	80	49	0	0	87	4	39	427163	1	14	65	425124	-1	426305	1	1181	3	3	2039	53	427177	-54	0													1			60												
WM080112	103111_fnca	1	1	1	-1817096975	1	75.031	75.030	2.0.10.147	2.0.10.242	2.0.10.242	1.0.0.439	7	234	2	3	Verdana	1	80	0	0	0	WM Stimuli\	0.4	957	0.7	1188.42857142857	1	951.4	1	753.6	1	1130.4	0.9	727.888888888889	1	920	1	749.4	13	537066	2	537054	27	40	537093	-999999	537069	0	15	TrialsPROC	FC_012_F6.png	1	2	61	SessionSelectionList														nonlure	3	Face	2-Back	53	80	50	0	0	87	5	39	429735	2	14	72	427696	-1	428666	1	970	3	3	2039	53	429749	-54	0													2			61												
WM080112	103111_fnca	1	1	1	-1817096975	1	75.031	75.030	2.0.10.147	2.0.10.242	2.0.10.242	1.0.0.439	7	234	2	3	Verdana	1	80	0	0	0	WM Stimuli\	0.4	957	0.7	1188.42857142857	1	951.4	1	753.6	1	1130.4	0.9	727.888888888889	1	920	1	749.4	13	537066	2	537054	27	40	537093	-999999	537069	0	15	TrialsPROC	FC_010_F5.png	1	2	62	SessionSelectionList														target	2	Face	2-Back	54	80	51	0	0	87	1	40	432308	1	13	72	430268	-1	430836	1	568	2	2	2040	53	432321	-54	0													3			62												
WM080112	103111_fnca	1	1	1	-1817096975	1	75.031	75.030	2.0.10.147	2.0.10.242	2.0.10.242	1.0.0.439	7	234	2	3	Verdana	1	80	0	0	0	WM Stimuli\	0.4	957	0.7	1188.42857142857	1	951.4	1	753.6	1	1130.4	0.9	727.888888888889	1	920	1	749.4	13	537066	2	537054	27	40	537093	-999999	537069	0	15	TrialsPROC	FC_008_F4.png	1	2	63	SessionSelectionList														nonlure	3	Face	2-Back	55	80	52	0	0	87	1	39	434880	1	13	73	432841	-1	433794	1	953	3	3	2039	52	434893	-53	0													4			63												
WM080112	103111_fnca	1	1	1	-1817096975	1	75.031	75.030	2.0.10.147	2.0.10.242	2.0.10.242	1.0.0.439	7	234	2	3	Verdana	1	80	0	0	0	WM Stimuli\	0.4	957	0.7	1188.42857142857	1	951.4	1	753.6	1	1130.4	0.9	727.888888888889	1	920	1	749.4	13	537066	2	537054	27	40	537093	-999999	537069	0	15	TrialsPROC	FC_012_F6.png	1	2	64	SessionSelectionList														lure	3	Face	2-Back	56	80	53	0	0	87	2	39	437452	2	14	72	435413	-1	436405	1	992	3	3	2039	53	437466	-54	0													5			64												
WM080112	103111_fnca	1	1	1	-1817096975	1	75.031	75.030	2.0.10.147	2.0.10.242	2.0.10.242	1.0.0.439	7	234	2	3	Verdana	1	80	0	0	0	WM Stimuli\	0.4	957	0.7	1188.42857142857	1	951.4	1	753.6	1	1130.4	0.9	727.888888888889	1	920	1	749.4	13	537066	2	537054	27	40	537093	-999999	537069	0	15	TrialsPROC	FC_008_F4.png	1	2	65	SessionSelectionList														target	2	Face	2-Back	57	80	54	0	0	87	1	39	440024	2	14	72	437985	-1	438604	1	619	2	2	2039	53	440038	-54	0													6			65												
WM080112	103111_fnca	1	1	1	-1817096975	1	75.031	75.030	2.0.10.147	2.0.10.242	2.0.10.242	1.0.0.439	7	234	2	3	Verdana	1	80	0	0	0	WM Stimuli\	0.4	957	0.7	1188.42857142857	1	951.4	1	753.6	1	1130.4	0.9	727.888888888889	1	920	1	749.4	13	537066	2	537054	27	40	537093	-999999	537069	0	15	TrialsPROC	FC_007_M4.png	1	2	66	SessionSelectionList														nonlure	3	Face	2-Back	58	80	55	0	0	87	1	39	442597	1	13	73	440558	-1	441386	1	828	3	3	2039	52	442610	-53	0													7			66												
WM080112	103111_fnca	1	1	1	-1817096975	1	75.031	75.030	2.0.10.147	2.0.10.242	2.0.10.242	1.0.0.439	7	234	2	3	Verdana	1	80	0	0	0	WM Stimuli\	0.4	957	0.7	1188.42857142857	1	951.4	1	753.6	1	1130.4	0.9	727.888888888889	1	920	1	749.4	13	537066	2	537054	27	40	537093	-999999	537069	0	15	TrialsPROC	FC_007_M4.png	1	2	67	SessionSelectionList														lure	3	Face	2-Back	59	80	56	0	0	87	2	39	445169	1	14	72	443130	-1	444134	1	1004	3	3	2039	53	445183	-54	0													8			67												
WM080112	103111_fnca	1	1	1	-1817096975	1	75.031	75.030	2.0.10.147	2.0.10.242	2.0.10.242	1.0.0.439	7	234	2	3	Verdana	1	80	0	0	0	WM Stimuli\	0.4	957	0.7	1188.42857142857	1	951.4	1	753.6	1	1130.4	0.9	727.888888888889	1	920	1	749.4	13	537066	2	537054	27	40	537093	-999999	537069	0	15	TrialsPROC	FC_009_M5.png	1	2	68	SessionSelectionList														nonlure	3	Face	2-Back	60	80	57	0	0	87	3	39	447741	2	14	72	445702	-1	446928	1	1226	3	3	2039	53	447755	-54	0													9			68												
WM080112	103111_fnca	1	1	1	-1817096975	1	75.031	75.030	2.0.10.147	2.0.10.242	2.0.10.242	1.0.0.439	7	234	2	3	Verdana	1	80	0	0	0	WM Stimuli\	0.4	957	0.7	1188.42857142857	1	951.4	1	753.6	1	1130.4	0.9	727.888888888889	1	920	1	749.4	13	537066	2	537054	27	40	537093	-999999	537069	0	15	TrialsPROC	FC_011_M6.png	1	2	69	SessionSelectionList														nonlure	3	Face	2-Back	61	80	58	0	0	87	4	40	450314	1	13	72	448274	-1	449447	1	1173	3	3	2040	53	450327	-54	0													10			69												
WM080112	103111_fnca	1	1	1	-1817096975	1	75.031	75.030	2.0.10.147	2.0.10.242	2.0.10.242	1.0.0.439	7	234	2	3	Verdana	1	80	0	0	0	WM Stimuli\	0.4	957	0.7	1188.42857142857	1	951.4	1	753.6	1	1130.4	0.9	727.888888888889	1	920	1	749.4	13	537066	2	537054	27	40	537093	-999999	537069	0	16	Fix15secPROC	""	1	2	70	SessionSelectionList																																															6	450780	-7	0							70												
WM080112	103111_fnca	1	1	1	-1817096975	1	75.031	75.030	2.0.10.147	2.0.10.242	2.0.10.242	1.0.0.439	7	234	2	3	Verdana	1	80	0	0	0	WM Stimuli\	0.4	957	0.7	1188.42857142857	1	951.4	1	753.6	1	1130.4	0.9	727.888888888889	1	920	1	749.4	13	537066	2	537054	27	40	537093	-999999	537069	0	17	Cue0BackPROC	TO_007_TOOL7_BA.png	1	2	71	SessionSelectionList																																										13	465787	-14	0												71												
WM080112	103111_fnca	1	1	1	-1817096975	1	75.031	75.030	2.0.10.147	2.0.10.242	2.0.10.242	1.0.0.439	7	234	2	3	Verdana	1	80	0	0	0	WM Stimuli\	0.4	957	0.7	1188.42857142857	1	951.4	1	753.6	1	1130.4	0.9	727.888888888889	1	920	1	749.4	13	537066	2	537054	27	40	537093	-999999	537069	0	18	TrialsPROC	TO_010_TOOL10_BA.png	1	2	72	SessionSelectionList														nonlure	3	Tools	0-Back	62	80	59	0	0	87	5	39	470372	2	14	59	468333	-1	469298	1	965	3	3	2039	53	470386	-54	0														1		72												
WM080112	103111_fnca	1	1	1	-1817096975	1	75.031	75.030	2.0.10.147	2.0.10.242	2.0.10.242	1.0.0.439	7	234	2	3	Verdana	1	80	0	0	0	WM Stimuli\	0.4	957	0.7	1188.42857142857	1	951.4	1	753.6	1	1130.4	0.9	727.888888888889	1	920	1	749.4	13	537066	2	537054	27	40	537093	-999999	537069	0	18	TrialsPROC	TO_009_TOOL9_BA.png	1	2	73	SessionSelectionList														nonlure	3	Tools	0-Back	63	80	60	0	0	88	6	39	472931	2	14	59	470892	-1	471503	1	611	3	3	2039	53	472945	-54	0														2		73												
WM080112	103111_fnca	1	1	1	-1817096975	1	75.031	75.030	2.0.10.147	2.0.10.242	2.0.10.242	1.0.0.439	7	234	2	3	Verdana	1	80	0	0	0	WM Stimuli\	0.4	957	0.7	1188.42857142857	1	951.4	1	753.6	1	1130.4	0.9	727.888888888889	1	920	1	749.4	13	537066	2	537054	27	40	537093	-999999	537069	0	18	TrialsPROC	TO_009_TOOL9_BA.png	1	2	74	SessionSelectionList														lure	3	Tools	0-Back	64	80	61	0	0	88	7	39	475490	2	14	59	473451	-1	474158	1	707	3	3	2039	53	475504	-54	0														3		74												
WM080112	103111_fnca	1	1	1	-1817096975	1	75.031	75.030	2.0.10.147	2.0.10.242	2.0.10.242	1.0.0.439	7	234	2	3	Verdana	1	80	0	0	0	WM Stimuli\	0.4	957	0.7	1188.42857142857	1	951.4	1	753.6	1	1130.4	0.9	727.888888888889	1	920	1	749.4	13	537066	2	537054	27	40	537093	-999999	537069	0	18	TrialsPROC	TO_008_TOOL8_BA.png	1	2	75	SessionSelectionList														nonlure	3	Tools	0-Back	65	80	62	0	0	88	8	39	478049	2	14	59	476010	-1	476747	1	737	3	3	2039	53	478063	-54	0														4		75												
WM080112	103111_fnca	1	1	1	-1817096975	1	75.031	75.030	2.0.10.147	2.0.10.242	2.0.10.242	1.0.0.439	7	234	2	3	Verdana	1	80	0	0	0	WM Stimuli\	0.4	957	0.7	1188.42857142857	1	951.4	1	753.6	1	1130.4	0.9	727.888888888889	1	920	1	749.4	13	537066	2	537054	27	40	537093	-999999	537069	0	18	TrialsPROC	TO_011_TOOL11_BA.png	1	2	76	SessionSelectionList														nonlure	3	Tools	0-Back	66	80	63	0	0	89	9	39	480608	2	14	59	478569	-1	479339	1	770	3	3	2039	53	480622	-54	0														5		76												
WM080112	103111_fnca	1	1	1	-1817096975	1	75.031	75.030	2.0.10.147	2.0.10.242	2.0.10.242	1.0.0.439	7	234	2	3	Verdana	1	80	0	0	0	WM Stimuli\	0.4	957	0.7	1188.42857142857	1	951.4	1	753.6	1	1130.4	0.9	727.888888888889	1	920	1	749.4	13	537066	2	537054	27	40	537093	-999999	537069	0	18	TrialsPROC	TO_012_TOOL12_BA.png	1	2	77	SessionSelectionList														nonlure	3	Tools	0-Back	67	80	64	0	0	89	10	39	483167	2	14	59	481128	-1	482129	1	1001	3	3	2039	53	483181	-54	0														6		77												
WM080112	103111_fnca	1	1	1	-1817096975	1	75.031	75.030	2.0.10.147	2.0.10.242	2.0.10.242	1.0.0.439	7	234	2	3	Verdana	1	80	0	0	0	WM Stimuli\	0.4	957	0.7	1188.42857142857	1	951.4	1	753.6	1	1130.4	0.9	727.888888888889	1	920	1	749.4	13	537066	2	537054	27	40	537093	-999999	537069	0	18	TrialsPROC	TO_010_TOOL10_BA.png	1	2	78	SessionSelectionList														lure	3	Tools	0-Back	68	80	65	0	0	89	11	39	485726	2	14	59	483687	-1	484593	1	906	3	3	2039	53	485740	-54	0														7		78												
WM080112	103111_fnca	1	1	1	-1817096975	1	75.031	75.030	2.0.10.147	2.0.10.242	2.0.10.242	1.0.0.439	7	234	2	3	Verdana	1	80	0	0	0	WM Stimuli\	0.4	957	0.7	1188.42857142857	1	951.4	1	753.6	1	1130.4	0.9	727.888888888889	1	920	1	749.4	13	537066	2	537054	27	40	537093	-999999	537069	0	18	TrialsPROC	TO_007_TOOL7_BA.png	1	2	79	SessionSelectionList														target	2	Tools	0-Back	69	80	66	0	0	89	1	39	488285	1	14	59	486246	-1	486949	1	703	2	2	2039	53	488299	-54	0														8		79												
WM080112	103111_fnca	1	1	1	-1817096975	1	75.031	75.030	2.0.10.147	2.0.10.242	2.0.10.242	1.0.0.439	7	234	2	3	Verdana	1	80	0	0	0	WM Stimuli\	0.4	957	0.7	1188.42857142857	1	951.4	1	753.6	1	1130.4	0.9	727.888888888889	1	920	1	749.4	13	537066	2	537054	27	40	537093	-999999	537069	0	18	TrialsPROC	TO_008_TOOL8_BA.png	1	2	80	SessionSelectionList														lure	3	Tools	0-Back	70	80	67	0	0	90	1	39	490844	1	14	59	488805	-1	489347	1	542	3	3	2039	53	490858	-54	0														9		80												
WM080112	103111_fnca	1	1	1	-1817096975	1	75.031	75.030	2.0.10.147	2.0.10.242	2.0.10.242	1.0.0.439	7	234	2	3	Verdana	1	80	0	0	0	WM Stimuli\	0.4	957	0.7	1188.42857142857	1	951.4	1	753.6	1	1130.4	0.9	727.888888888889	1	920	1	749.4	13	537066	2	537054	27	40	537093	-999999	537069	0	18	TrialsPROC	TO_007_TOOL7_BA.png	1	2	81	SessionSelectionList														target	2	Tools	0-Back	71	80	68	0	0	90	1	39	493403	1	14	59	491364	-1	491916	1	552	2	2	2039	53	493417	-54	0														10		81												
WM080112	103111_fnca	1	1	1	-1817096975	1	75.031	75.030	2.0.10.147	2.0.10.242	2.0.10.242	1.0.0.439	7	234	2	3	Verdana	1	80	0	0	0	WM Stimuli\	0.4	957	0.7	1188.42857142857	1	951.4	1	753.6	1	1130.4	0.9	727.888888888889	1	920	1	749.4	13	537066	2	537054	27	40	537093	-999999	537069	0	19	Cue2BackPROC	""	1	2	82	SessionSelectionList									6	493870	-7	0																																													82												
WM080112	103111_fnca	1	1	1	-1817096975	1	75.031	75.030	2.0.10.147	2.0.10.242	2.0.10.242	1.0.0.439	7	234	2	3	Verdana	1	80	0	0	0	WM Stimuli\	0.4	957	0.7	1188.42857142857	1	951.4	1	753.6	1	1130.4	0.9	727.888888888889	1	920	1	749.4	13	537066	2	537054	27	40	537093	-999999	537069	0	20	TrialsPROC	PL_007_92026.png	1	2	83	SessionSelectionList														nonlure	3	Place	2-Back	72	80	69	0	0	90	1	39	498468	1	13	65	496429	-1	497547	1	1118	3	3	2039	52	498481	-53	0															1	83												
WM080112	103111_fnca	1	1	1	-1817096975	1	75.031	75.030	2.0.10.147	2.0.10.242	2.0.10.242	1.0.0.439	7	234	2	3	Verdana	1	80	0	0	0	WM Stimuli\	0.4	957	0.7	1188.42857142857	1	951.4	1	753.6	1	1130.4	0.9	727.888888888889	1	920	1	749.4	13	537066	2	537054	27	40	537093	-999999	537069	0	20	TrialsPROC	PL_007_92026.png	1	2	84	SessionSelectionList														lure	3	Place	2-Back	73	80	70	0	0	90	2	40	501027	1	13	58	498987	-1	500037	1	1050	3	3	2040	53	501040	-54	0															2	84												
WM080112	103111_fnca	1	1	1	-1817096975	1	75.031	75.030	2.0.10.147	2.0.10.242	2.0.10.242	1.0.0.439	7	234	2	3	Verdana	1	80	0	0	0	WM Stimuli\	0.4	957	0.7	1188.42857142857	1	951.4	1	753.6	1	1130.4	0.9	727.888888888889	1	920	1	749.4	13	537066	2	537054	27	40	537093	-999999	537069	0	20	TrialsPROC	PL_010_92038.png	1	2	85	SessionSelectionList														nonlure	3	Place	2-Back	74	80	71	0	0	90	3	39	503599	1	14	73	501560	-1	502633	1	1073	3	3	2039	53	503613	-54	0															3	85												
WM080112	103111_fnca	1	1	1	-1817096975	1	75.031	75.030	2.0.10.147	2.0.10.242	2.0.10.242	1.0.0.439	7	234	2	3	Verdana	1	80	0	0	0	WM Stimuli\	0.4	957	0.7	1188.42857142857	1	951.4	1	753.6	1	1130.4	0.9	727.888888888889	1	920	1	749.4	13	537066	2	537054	27	40	537093	-999999	537069	0	20	TrialsPROC	PL_009_92037.png	1	2	86	SessionSelectionList														nonlure	3	Place	2-Back	75	80	72	0	0	90	4	39	506171	2	14	72	504132	-1	505284	1	1152	3	3	2039	53	506185	-54	0															4	86												
WM080112	103111_fnca	1	1	1	-1817096975	1	75.031	75.030	2.0.10.147	2.0.10.242	2.0.10.242	1.0.0.439	7	234	2	3	Verdana	1	80	0	0	0	WM Stimuli\	0.4	957	0.7	1188.42857142857	1	951.4	1	753.6	1	1130.4	0.9	727.888888888889	1	920	1	749.4	13	537066	2	537054	27	40	537093	-999999	537069	0	20	TrialsPROC	PL_010_92038.png	1	2	87	SessionSelectionList														target	2	Place	2-Back	76	80	73	0	0	90	1	40	508744	2	13	72	506704	-1	507809	1	1105	2	2	2040	53	508757	-54	0															5	87												
WM080112	103111_fnca	1	1	1	-1817096975	1	75.031	75.030	2.0.10.147	2.0.10.242	2.0.10.242	1.0.0.439	7	234	2	3	Verdana	1	80	0	0	0	WM Stimuli\	0.4	957	0.7	1188.42857142857	1	951.4	1	753.6	1	1130.4	0.9	727.888888888889	1	920	1	749.4	13	537066	2	537054	27	40	537093	-999999	537069	0	20	TrialsPROC	PL_009_92037.png	1	2	88	SessionSelectionList														target	2	Place	2-Back	77	80	74	0	0	90	2	39	511316	1	13	73	509277	-1	510690	1	1413	2	2	2039	52	511329	-53	0															6	88												
WM080112	103111_fnca	1	1	1	-1817096975	1	75.031	75.030	2.0.10.147	2.0.10.242	2.0.10.242	1.0.0.439	7	234	2	3	Verdana	1	80	0	0	0	WM Stimuli\	0.4	957	0.7	1188.42857142857	1	951.4	1	753.6	1	1130.4	0.9	727.888888888889	1	920	1	749.4	13	537066	2	537054	27	40	537093	-999999	537069	0	20	TrialsPROC	PL_008_92033.png	1	2	89	SessionSelectionList														nonlure	3	Place	2-Back	78	80	75	0	0	90	1	39	513888	2	14	72	511849	-1	512806	1	957	3	3	2039	53	513902	-54	0															7	89												
WM080112	103111_fnca	1	1	1	-1817096975	1	75.031	75.030	2.0.10.147	2.0.10.242	2.0.10.242	1.0.0.439	7	234	2	3	Verdana	1	80	0	0	0	WM Stimuli\	0.4	957	0.7	1188.42857142857	1	951.4	1	753.6	1	1130.4	0.9	727.888888888889	1	920	1	749.4	13	537066	2	537054	27	40	537093	-999999	537069	0	20	TrialsPROC	PL_012_92047.png	1	2	90	SessionSelectionList														nonlure	3	Place	2-Back	79	80	76	0	0	90	2	39	516447	2	14	59	514408	-1	515339	1	931	3	3	2039	53	516461	-54	0															8	90												
WM080112	103111_fnca	1	1	1	-1817096975	1	75.031	75.030	2.0.10.147	2.0.10.242	2.0.10.242	1.0.0.439	7	234	2	3	Verdana	1	80	0	0	0	WM Stimuli\	0.4	957	0.7	1188.42857142857	1	951.4	1	753.6	1	1130.4	0.9	727.888888888889	1	920	1	749.4	13	537066	2	537054	27	40	537093	-999999	537069	0	20	TrialsPROC	PL_012_92047.png	1	2	91	SessionSelectionList														lure	3	Place	2-Back	80	80	77	0	0	90	3	39	519019	2	14	72	516980	-1	518314	1	1334	3	3	2039	53	519033	-54	0															9	91												
WM080112	103111_fnca	1	1	1	-1817096975	1	75.031	75.030	2.0.10.147	2.0.10.242	2.0.10.242	1.0.0.439	7	234	2	3	Verdana	1	80	0	0	0	WM Stimuli\	0.4	957	0.7	1188.42857142857	1	951.4	1	753.6	1	1130.4	0.9	727.888888888889	1	920	1	749.4	13	537066	2	537054	27	40	537093	-999999	537069	0	20	TrialsPROC	PL_011_92044.png	1	2	92	SessionSelectionList														nonlure	3	Place	2-Back	80	80	78	0	0	90	4	39	521592	1	13	73	519553	-1	520724	1	1171	3	3	2039	52	521605	-53	0															10	92												
WM080112	103111_fnca	1	1	1	-1817096975	1	75.031	75.030	2.0.10.147	2.0.10.242	2.0.10.242	1.0.0.439	7	234	2	3	Verdana	1	80	0	0	0	WM Stimuli\	0.4	957	0.7	1188.42857142857	1	951.4	1	753.6	1	1130.4	0.9	727.888888888889	1	920	1	749.4	13	537066	2	537054	27	40	537093	-999999	537069	0	21	Fix15secPROC	""	1	2	93	SessionSelectionList																																															6	522059	-7	0							93												
