ExperimentName	HCPID	RunNumber	Subject	Session	RandomSeed	Group	Laptop.RefreshRate	ScannerD2.RefreshRate	StudioVersion	RuntimeVersion	RuntimeVersionExpected	ExperimentVersion	triggercode	Allowed	Target	Nontarget	FontStyle	RunTrialNumber[Session]	TrialsPerRun[Session]	TotalRespGreater200[Session]	ConsecRTLess200[Session]	ConsecNonResp[Session]	StimuliDir	ACC_2_Back_Body	Avg_RT_For_Correct_Trials_2_Back_Body	ACC_0_Back_Body	Avg_RT_For_Correct_Trials_0_Back_Body	ACC_2_Back_Face	Avg_RT_For_Correct_Trials_2_Back_Face	ACC_0_Back_Face	Avg_RT_For_Correct_Trials_0_Back_Face	ACC_2_Back_Place	Avg_RT_For_Correct_Trials_2_Back_Place	ACC_0_Back_Place	Avg_RT_For_Correct_Trials_0_Back_Place	ACC_2_Back_Tools	Avg_RT_For_Correct_Trials_2_Back_Tools	ACC_0_Back_Tools	Avg_RT_For_Correct_Trials_0_Back_Tools	ExpInstrucFeelFreeToRest.OnsetDelay	ExpInstrucFeelFreeToRest.OnsetTime	ExpInstrucFeelFreeToRest.DurationError	ExpInstrucFeelFreeToRest.StartTime	ExpInstrucFeelFreeToRest.OnsetToOnsetTime	FeelFreeToRest.OnsetDelay	FeelFreeToRest.OnsetTime	FeelFreeToRest.DurationError	FeelFreeToRest.StartTime	FeelFreeToRest.OnsetToOnsetTime	SessionSelectionList	Procedure[Block]	Stimulus[Block]	RunNumberFilterValue	SessionSelectionList.Cycle	SessionSelectionList.Sample	Running[Block]	IntroButtonMap.OnsetDelay	IntroButtonMap.OnsetTime	IntroButtonMap.DurationError	IntroButtonMap.OnsetToOnsetTime	GetReady.OnsetDelay	GetReady.OnsetTime	GetReady.DurationError	GetReady.OnsetToOnsetTime	Cue2Back.OnsetDelay	Cue2Back.OnsetTime	Cue2Back.DurationError	Cue2Back.OnsetToOnsetTime	Run1Block1	TargetType	CorrectResponse	StimType	BlockType	RunTrialNumber[Block]	TrialsPerRun[Block]	TotalRespGreater200[Block]	ConsecRTLess200[Block]	ConsecNonResp[Block]	ControlAcc	ConsecSameResp	ExperimenterWindow.OnsetDelay	ExperimenterWindow.OnsetTime	ExperimenterWindow.DurationError	ExperimenterWindow.OnsetToOnsetTime	Stim.OnsetDelay	Stim.OnsetTime	Stim.DurationError	Stim.RTTime	Stim.ACC	Stim.RT	Stim.RESP	Stim.CRESP	Stim.OnsetToOnsetTime	Fix.OnsetDelay	Fix.OnsetTime	Fix.DurationError	Fix.OnsetToOnsetTime	CueTarget.OnsetDelay	CueTarget.OnsetTime	CueTarget.DurationError	CueTarget.OnsetToOnsetTime	Run1Block2	Fix15sec.OnsetDelay	Fix15sec.OnsetTime	Fix15sec.DurationError	Fix15sec.OnsetToOnsetTime	Run1Block3	Run1Block4	Run1Block5	Run1Block6	Run1Block7	Run1Block8	Block	Procedure[Trial]	Stimulus[Trial]	ReadyList	Running[Trial]	ReadyList.Cycle	ReadyList.Sample	SyncSlide.OnsetDelay	SyncSlide.OnsetTime	SyncSlide.DurationError	SyncSlide.FinishTime	SyncSlide.OnsetToOnsetTime	Trial
WM080112	130013_fnca	1	1	1	1635365205	1	75.032	75.031	2.0.10.147	2.0.10.242	2.0.10.242	1.0.0.439	7	234	2	3	Verdana	1	80	0	0	0	WM Stimuli\	0.9	1085.11111111111	1	827	0.8	1126.375	0.9	867.333333333333	0.5	1361.4	1	868.2	0.9	880.333333333333	0.9	792.888888888889	13	395434	2	395422	27	40	395461	-999999	395437	0	1	TRSyncPROC	""	1	2	1	SessionSelectionList	114	12045	-999999	0	39	87801	-999999	0																																																	1	InitialTR	4	1	ReadyList	1	1	16	101915	-17	103898	0	1
WM080112	130013_fnca	1	1	1	1635365205	1	75.032	75.031	2.0.10.147	2.0.10.242	2.0.10.242	1.0.0.439	7	234	2	3	Verdana	1	80	0	0	0	WM Stimuli\	0.9	1085.11111111111	1	827	0.8	1126.375	0.9	867.333333333333	0.5	1361.4	1	868.2	0.9	880.333333333333	0.9	792.888888888889	13	395434	2	395422	27	40	395461	-999999	395437	0	1	TRSyncPROC	""	1	2	1	SessionSelectionList	114	12045	-999999	0	39	87801	-999999	0																																																	1	InitialTR	3	2	ReadyList	1	2	15	103914	-16	105898	0	2
WM080112	130013_fnca	1	1	1	1635365205	1	75.032	75.031	2.0.10.147	2.0.10.242	2.0.10.242	1.0.0.439	7	234	2	3	Verdana	1	80	0	0	0	WM Stimuli\	0.9	1085.11111111111	1	827	0.8	1126.375	0.9	867.333333333333	0.5	1361.4	1	868.2	0.9	880.333333333333	0.9	792.888888888889	13	395434	2	395422	27	40	395461	-999999	395437	0	1	TRSyncPROC	""	1	2	1	SessionSelectionList	114	12045	-999999	0	39	87801	-999999	0																																																	1	InitialTR	2	3	ReadyList	1	3	14	105913	-15	107898	0	3
WM080112	130013_fnca	1	1	1	1635365205	1	75.032	75.031	2.0.10.147	2.0.10.242	2.0.10.242	1.0.0.439	7	234	2	3	Verdana	1	80	0	0	0	WM Stimuli\	0.9	1085.11111111111	1	827	0.8	1126.375	0.9	867.333333333333	0.5	1361.4	1	868.2	0.9	880.333333333333	0.9	792.888888888889	13	395434	2	395422	27	40	395461	-999999	395437	0	1	TRSyncPROC	""	1	2	1	SessionSelectionList	114	12045	-999999	0	39	87801	-999999	0																																																	1	InitialTR	1	4	ReadyList	1	4	13	107912	-14	109898	0	4
WM080112	130013_fnca	1	1	1	1635365205	1	75.032	75.031	2.0.10.147	2.0.10.242	2.0.10.242	1.0.0.439	7	234	2	3	Verdana	1	80	0	0	0	WM Stimuli\	0.9	1085.11111111111	1	827	0.8	1126.375	0.9	867.333333333333	0.5	1361.4	1	868.2	0.9	880.333333333333	0.9	792.888888888889	13	395434	2	395422	27	40	395461	-999999	395437	0	2	Cue2BackPROC	""	1	2	2	SessionSelectionList									12	109911	-13	0																																													2												
WM080112	130013_fnca	1	1	1	1635365205	1	75.032	75.031	2.0.10.147	2.0.10.242	2.0.10.242	1.0.0.439	7	234	2	3	Verdana	1	80	0	0	0	WM Stimuli\	0.9	1085.11111111111	1	827	0.8	1126.375	0.9	867.333333333333	0.5	1361.4	1	868.2	0.9	880.333333333333	0.9	792.888888888889	13	395434	2	395422	27	40	395461	-999999	395437	0	3	TrialsPROC	BP_002_BP10_BA.png	1	2	3	SessionSelectionList													1	nonlure	3	Body	2-Back	2	80	0	0	1	0	0	52	114536	3	14	85	112484	-1	0	0	0	""	3	2052	66	114550	-67	0																3												
WM080112	130013_fnca	1	1	1	1635365205	1	75.032	75.031	2.0.10.147	2.0.10.242	2.0.10.242	1.0.0.439	7	234	2	3	Verdana	1	80	0	0	0	WM Stimuli\	0.9	1085.11111111111	1	827	0.8	1126.375	0.9	867.333333333333	0.5	1361.4	1	868.2	0.9	880.333333333333	0.9	792.888888888889	13	395434	2	395422	27	40	395461	-999999	395437	0	3	TrialsPROC	BP_001_BP1_BA.png	1	2	4	SessionSelectionList													2	nonlure	3	Body	2-Back	3	80	1	0	0	0	1	39	117095	3	14	72	115056	-1	116436	1	1380	3	3	2039	53	117109	-54	0																4												
WM080112	130013_fnca	1	1	1	1635365205	1	75.032	75.031	2.0.10.147	2.0.10.242	2.0.10.242	1.0.0.439	7	234	2	3	Verdana	1	80	0	0	0	WM Stimuli\	0.9	1085.11111111111	1	827	0.8	1126.375	0.9	867.333333333333	0.5	1361.4	1	868.2	0.9	880.333333333333	0.9	792.888888888889	13	395434	2	395422	27	40	395461	-999999	395437	0	3	TrialsPROC	BP_006_BP2_BA.png	1	2	5	SessionSelectionList													3	nonlure	3	Body	2-Back	4	80	2	0	0	0	2	39	119654	1	14	59	117615	-1	118661	1	1046	3	3	2039	53	119668	-54	0																5												
WM080112	130013_fnca	1	1	1	1635365205	1	75.032	75.031	2.0.10.147	2.0.10.242	2.0.10.242	1.0.0.439	7	234	2	3	Verdana	1	80	0	0	0	WM Stimuli\	0.9	1085.11111111111	1	827	0.8	1126.375	0.9	867.333333333333	0.5	1361.4	1	868.2	0.9	880.333333333333	0.9	792.888888888889	13	395434	2	395422	27	40	395461	-999999	395437	0	3	TrialsPROC	BP_001_BP1_BA.png	1	2	6	SessionSelectionList													4	target	2	Body	2-Back	5	80	3	0	0	0	1	39	122226	2	14	72	120187	-1	121363	1	1176	2	2	2039	53	122240	-54	0																6												
WM080112	130013_fnca	1	1	1	1635365205	1	75.032	75.031	2.0.10.147	2.0.10.242	2.0.10.242	1.0.0.439	7	234	2	3	Verdana	1	80	0	0	0	WM Stimuli\	0.9	1085.11111111111	1	827	0.8	1126.375	0.9	867.333333333333	0.5	1361.4	1	868.2	0.9	880.333333333333	0.9	792.888888888889	13	395434	2	395422	27	40	395461	-999999	395437	0	3	TrialsPROC	BP_005_BP19_BA.png	1	2	7	SessionSelectionList													5	nonlure	3	Body	2-Back	6	80	4	0	0	0	1	40	124799	1	13	72	122759	-1	123617	1	858	3	3	2040	53	124812	-54	0																7												
WM080112	130013_fnca	1	1	1	1635365205	1	75.032	75.031	2.0.10.147	2.0.10.242	2.0.10.242	1.0.0.439	7	234	2	3	Verdana	1	80	0	0	0	WM Stimuli\	0.9	1085.11111111111	1	827	0.8	1126.375	0.9	867.333333333333	0.5	1361.4	1	868.2	0.9	880.333333333333	0.9	792.888888888889	13	395434	2	395422	27	40	395461	-999999	395437	0	3	TrialsPROC	BP_003_BP16_BA.png	1	2	8	SessionSelectionList													6	nonlure	3	Body	2-Back	7	80	5	0	0	0	2	40	127358	1	13	59	125318	-1	126103	1	785	3	3	2040	53	127371	-54	0																8												
WM080112	130013_fnca	1	1	1	1635365205	1	75.032	75.031	2.0.10.147	2.0.10.242	2.0.10.242	1.0.0.439	7	234	2	3	Verdana	1	80	0	0	0	WM Stimuli\	0.9	1085.11111111111	1	827	0.8	1126.375	0.9	867.333333333333	0.5	1361.4	1	868.2	0.9	880.333333333333	0.9	792.888888888889	13	395434	2	395422	27	40	395461	-999999	395437	0	3	TrialsPROC	BP_006_BP2_BA.png	1	2	9	SessionSelectionList													7	lure	3	Body	2-Back	8	80	6	0	0	0	3	40	129917	2	13	59	127877	-1	128869	1	992	3	3	2040	53	129930	-54	0																9												
WM080112	130013_fnca	1	1	1	1635365205	1	75.032	75.031	2.0.10.147	2.0.10.242	2.0.10.242	1.0.0.439	7	234	2	3	Verdana	1	80	0	0	0	WM Stimuli\	0.9	1085.11111111111	1	827	0.8	1126.375	0.9	867.333333333333	0.5	1361.4	1	868.2	0.9	880.333333333333	0.9	792.888888888889	13	395434	2	395422	27	40	395461	-999999	395437	0	3	TrialsPROC	BP_004_BP18_BA.png	1	2	10	SessionSelectionList													8	nonlure	3	Body	2-Back	9	80	7	0	0	0	4	39	132475	2	14	59	130436	-1	131375	1	939	3	3	2039	53	132489	-54	0																10												
WM080112	130013_fnca	1	1	1	1635365205	1	75.032	75.031	2.0.10.147	2.0.10.242	2.0.10.242	1.0.0.439	7	234	2	3	Verdana	1	80	0	0	0	WM Stimuli\	0.9	1085.11111111111	1	827	0.8	1126.375	0.9	867.333333333333	0.5	1361.4	1	868.2	0.9	880.333333333333	0.9	792.888888888889	13	395434	2	395422	27	40	395461	-999999	395437	0	3	TrialsPROC	BP_005_BP19_BA.png	1	2	11	SessionSelectionList													9	lure	3	Body	2-Back	10	80	8	0	0	0	5	39	135034	2	14	59	132995	-1	134672	1	1677	3	3	2039	53	135048	-54	0																11												
WM080112	130013_fnca	1	1	1	1635365205	1	75.032	75.031	2.0.10.147	2.0.10.242	2.0.10.242	1.0.0.439	7	234	2	3	Verdana	1	80	0	0	0	WM Stimuli\	0.9	1085.11111111111	1	827	0.8	1126.375	0.9	867.333333333333	0.5	1361.4	1	868.2	0.9	880.333333333333	0.9	792.888888888889	13	395434	2	395422	27	40	395461	-999999	395437	0	3	TrialsPROC	BP_004_BP18_BA.png	1	2	12	SessionSelectionList													10	target	2	Body	2-Back	11	80	9	0	0	0	1	39	137593	2	14	59	135554	-1	136467	1	913	2	2	2039	53	137607	-54	0																12												
WM080112	130013_fnca	1	1	1	1635365205	1	75.032	75.031	2.0.10.147	2.0.10.242	2.0.10.242	1.0.0.439	7	234	2	3	Verdana	1	80	0	0	0	WM Stimuli\	0.9	1085.11111111111	1	827	0.8	1126.375	0.9	867.333333333333	0.5	1361.4	1	868.2	0.9	880.333333333333	0.9	792.888888888889	13	395434	2	395422	27	40	395461	-999999	395437	0	4	Cue0BackPROC	FC_001_M1.png	1	2	13	SessionSelectionList																																										19	138073	-20	0												13												
WM080112	130013_fnca	1	1	1	1635365205	1	75.032	75.031	2.0.10.147	2.0.10.242	2.0.10.242	1.0.0.439	7	234	2	3	Verdana	1	80	0	0	0	WM Stimuli\	0.9	1085.11111111111	1	827	0.8	1126.375	0.9	867.333333333333	0.5	1361.4	1	868.2	0.9	880.333333333333	0.9	792.888888888889	13	395434	2	395422	27	40	395461	-999999	395437	0	5	TrialsPROC	FC_005_M3.png	1	2	14	SessionSelectionList														nonlure	3	Face	0-Back	12	80	10	0	0	100	1	39	142658	1	14	65	140619	-1	141806	1	1187	3	3	2039	53	142672	-54	0					1											14												
WM080112	130013_fnca	1	1	1	1635365205	1	75.032	75.031	2.0.10.147	2.0.10.242	2.0.10.242	1.0.0.439	7	234	2	3	Verdana	1	80	0	0	0	WM Stimuli\	0.9	1085.11111111111	1	827	0.8	1126.375	0.9	867.333333333333	0.5	1361.4	1	868.2	0.9	880.333333333333	0.9	792.888888888889	13	395434	2	395422	27	40	395461	-999999	395437	0	5	TrialsPROC	FC_001_M1.png	1	2	15	SessionSelectionList														target	2	Face	0-Back	13	80	11	0	0	100	1	39	145230	2	14	72	143191	-1	143716	1	525	2	2	2039	53	145244	-54	0					2											15												
WM080112	130013_fnca	1	1	1	1635365205	1	75.032	75.031	2.0.10.147	2.0.10.242	2.0.10.242	1.0.0.439	7	234	2	3	Verdana	1	80	0	0	0	WM Stimuli\	0.9	1085.11111111111	1	827	0.8	1126.375	0.9	867.333333333333	0.5	1361.4	1	868.2	0.9	880.333333333333	0.9	792.888888888889	13	395434	2	395422	27	40	395461	-999999	395437	0	5	TrialsPROC	FC_003_M2.png	1	2	16	SessionSelectionList														nonlure	3	Face	0-Back	14	80	12	0	0	100	1	40	147803	1	13	72	145763	-1	146478	1	715	3	3	2040	53	147816	-54	0					3											16												
WM080112	130013_fnca	1	1	1	1635365205	1	75.032	75.031	2.0.10.147	2.0.10.242	2.0.10.242	1.0.0.439	7	234	2	3	Verdana	1	80	0	0	0	WM Stimuli\	0.9	1085.11111111111	1	827	0.8	1126.375	0.9	867.333333333333	0.5	1361.4	1	868.2	0.9	880.333333333333	0.9	792.888888888889	13	395434	2	395422	27	40	395461	-999999	395437	0	5	TrialsPROC	FC_004_F2.png	1	2	17	SessionSelectionList														nonlure	3	Face	0-Back	15	80	13	0	0	75	1	39	150375	1	14	73	148336	-1	149046	0	710	2	3	2039	53	150389	-54	0					4											17												
WM080112	130013_fnca	1	1	1	1635365205	1	75.032	75.031	2.0.10.147	2.0.10.242	2.0.10.242	1.0.0.439	7	234	2	3	Verdana	1	80	0	0	0	WM Stimuli\	0.9	1085.11111111111	1	827	0.8	1126.375	0.9	867.333333333333	0.5	1361.4	1	868.2	0.9	880.333333333333	0.9	792.888888888889	13	395434	2	395422	27	40	395461	-999999	395437	0	5	TrialsPROC	FC_004_F2.png	1	2	18	SessionSelectionList														lure	3	Face	0-Back	16	80	14	0	0	80	1	39	152947	1	14	72	150908	-1	151967	1	1059	3	3	2039	53	152961	-54	0					5											18												
WM080112	130013_fnca	1	1	1	1635365205	1	75.032	75.031	2.0.10.147	2.0.10.242	2.0.10.242	1.0.0.439	7	234	2	3	Verdana	1	80	0	0	0	WM Stimuli\	0.9	1085.11111111111	1	827	0.8	1126.375	0.9	867.333333333333	0.5	1361.4	1	868.2	0.9	880.333333333333	0.9	792.888888888889	13	395434	2	395422	27	40	395461	-999999	395437	0	5	TrialsPROC	FC_001_M1.png	1	2	19	SessionSelectionList														target	2	Face	0-Back	17	80	15	0	0	83	1	39	155519	2	14	72	153480	-1	154253	1	773	2	2	2039	53	155533	-54	0					6											19												
WM080112	130013_fnca	1	1	1	1635365205	1	75.032	75.031	2.0.10.147	2.0.10.242	2.0.10.242	1.0.0.439	7	234	2	3	Verdana	1	80	0	0	0	WM Stimuli\	0.9	1085.11111111111	1	827	0.8	1126.375	0.9	867.333333333333	0.5	1361.4	1	868.2	0.9	880.333333333333	0.9	792.888888888889	13	395434	2	395422	27	40	395461	-999999	395437	0	5	TrialsPROC	FC_006_F3.png	1	2	20	SessionSelectionList														nonlure	3	Face	0-Back	18	80	16	0	0	86	1	40	158092	1	13	72	156052	-1	156956	1	904	3	3	2040	53	158105	-54	0					7											20												
WM080112	130013_fnca	1	1	1	1635365205	1	75.032	75.031	2.0.10.147	2.0.10.242	2.0.10.242	1.0.0.439	7	234	2	3	Verdana	1	80	0	0	0	WM Stimuli\	0.9	1085.11111111111	1	827	0.8	1126.375	0.9	867.333333333333	0.5	1361.4	1	868.2	0.9	880.333333333333	0.9	792.888888888889	13	395434	2	395422	27	40	395461	-999999	395437	0	5	TrialsPROC	FC_006_F3.png	1	2	21	SessionSelectionList														lure	3	Face	0-Back	19	80	17	0	0	88	2	39	160664	1	14	73	158625	-1	159328	1	703	3	3	2039	53	160678	-54	0					8											21												
WM080112	130013_fnca	1	1	1	1635365205	1	75.032	75.031	2.0.10.147	2.0.10.242	2.0.10.242	1.0.0.439	7	234	2	3	Verdana	1	80	0	0	0	WM Stimuli\	0.9	1085.11111111111	1	827	0.8	1126.375	0.9	867.333333333333	0.5	1361.4	1	868.2	0.9	880.333333333333	0.9	792.888888888889	13	395434	2	395422	27	40	395461	-999999	395437	0	5	TrialsPROC	FC_003_M2.png	1	2	22	SessionSelectionList														lure	3	Face	0-Back	20	80	18	0	0	89	3	39	163236	2	14	72	161197	-1	162243	1	1046	3	3	2039	53	163250	-54	0					9											22												
WM080112	130013_fnca	1	1	1	1635365205	1	75.032	75.031	2.0.10.147	2.0.10.242	2.0.10.242	1.0.0.439	7	234	2	3	Verdana	1	80	0	0	0	WM Stimuli\	0.9	1085.11111111111	1	827	0.8	1126.375	0.9	867.333333333333	0.5	1361.4	1	868.2	0.9	880.333333333333	0.9	792.888888888889	13	395434	2	395422	27	40	395461	-999999	395437	0	5	TrialsPROC	FC_002_F1.png	1	2	23	SessionSelectionList														nonlure	3	Face	0-Back	21	80	19	0	0	90	4	39	165808	2	14	72	163769	-1	164663	1	894	3	3	2039	53	165822	-54	0					10											23												
WM080112	130013_fnca	1	1	1	1635365205	1	75.032	75.031	2.0.10.147	2.0.10.242	2.0.10.242	1.0.0.439	7	234	2	3	Verdana	1	80	0	0	0	WM Stimuli\	0.9	1085.11111111111	1	827	0.8	1126.375	0.9	867.333333333333	0.5	1361.4	1	868.2	0.9	880.333333333333	0.9	792.888888888889	13	395434	2	395422	27	40	395461	-999999	395437	0	6	Fix15secPROC	""	1	2	24	SessionSelectionList																																															6	166275	-7	0							24												
WM080112	130013_fnca	1	1	1	1635365205	1	75.032	75.031	2.0.10.147	2.0.10.242	2.0.10.242	1.0.0.439	7	234	2	3	Verdana	1	80	0	0	0	WM Stimuli\	0.9	1085.11111111111	1	827	0.8	1126.375	0.9	867.333333333333	0.5	1361.4	1	868.2	0.9	880.333333333333	0.9	792.888888888889	13	395434	2	395422	27	40	395461	-999999	395437	0	7	Cue2BackPROC	""	1	2	25	SessionSelectionList									13	181282	-14	0																																													25												
WM080112	130013_fnca	1	1	1	1635365205	1	75.032	75.031	2.0.10.147	2.0.10.242	2.0.10.242	1.0.0.439	7	234	2	3	Verdana	1	80	0	0	0	WM Stimuli\	0.9	1085.11111111111	1	827	0.8	1126.375	0.9	867.333333333333	0.5	1361.4	1	868.2	0.9	880.333333333333	0.9	792.888888888889	13	395434	2	395422	27	40	395461	-999999	395437	0	8	TrialsPROC	TO_001_TOOL1_BA.png	1	2	26	SessionSelectionList														nonlure	3	Tools	2-Back	22	80	20	0	0	90	5	39	185867	2	14	59	183828	-1	185324	1	1496	3	3	2039	53	185881	-54	0										1						26												
WM080112	130013_fnca	1	1	1	1635365205	1	75.032	75.031	2.0.10.147	2.0.10.242	2.0.10.242	1.0.0.439	7	234	2	3	Verdana	1	80	0	0	0	WM Stimuli\	0.9	1085.11111111111	1	827	0.8	1126.375	0.9	867.333333333333	0.5	1361.4	1	868.2	0.9	880.333333333333	0.9	792.888888888889	13	395434	2	395422	27	40	395461	-999999	395437	0	8	TrialsPROC	TO_002_TOOL2_BA.png	1	2	27	SessionSelectionList														nonlure	3	Tools	2-Back	23	80	21	0	0	90	6	39	188426	1	14	59	186387	-1	187365	1	978	3	3	2039	53	188440	-54	0										2						27												
WM080112	130013_fnca	1	1	1	1635365205	1	75.032	75.031	2.0.10.147	2.0.10.242	2.0.10.242	1.0.0.439	7	234	2	3	Verdana	1	80	0	0	0	WM Stimuli\	0.9	1085.11111111111	1	827	0.8	1126.375	0.9	867.333333333333	0.5	1361.4	1	868.2	0.9	880.333333333333	0.9	792.888888888889	13	395434	2	395422	27	40	395461	-999999	395437	0	8	TrialsPROC	TO_004_TOOL4_BA.png	1	2	28	SessionSelectionList														nonlure	3	Tools	2-Back	24	80	22	0	0	90	7	39	190998	1	14	72	188959	-1	189892	1	933	3	3	2039	53	191012	-54	0										3						28												
WM080112	130013_fnca	1	1	1	1635365205	1	75.032	75.031	2.0.10.147	2.0.10.242	2.0.10.242	1.0.0.439	7	234	2	3	Verdana	1	80	0	0	0	WM Stimuli\	0.9	1085.11111111111	1	827	0.8	1126.375	0.9	867.333333333333	0.5	1361.4	1	868.2	0.9	880.333333333333	0.9	792.888888888889	13	395434	2	395422	27	40	395461	-999999	395437	0	8	TrialsPROC	TO_002_TOOL2_BA.png	1	2	29	SessionSelectionList														target	2	Tools	2-Back	25	80	23	0	0	90	1	39	193557	1	14	59	191518	-1	192217	1	699	2	2	2039	53	193571	-54	0										4						29												
WM080112	130013_fnca	1	1	1	1635365205	1	75.032	75.031	2.0.10.147	2.0.10.242	2.0.10.242	1.0.0.439	7	234	2	3	Verdana	1	80	0	0	0	WM Stimuli\	0.9	1085.11111111111	1	827	0.8	1126.375	0.9	867.333333333333	0.5	1361.4	1	868.2	0.9	880.333333333333	0.9	792.888888888889	13	395434	2	395422	27	40	395461	-999999	395437	0	8	TrialsPROC	TO_001_TOOL1_BA.png	1	2	30	SessionSelectionList														lure	3	Tools	2-Back	26	80	24	0	0	90	1	39	196116	1	14	59	194077	-1	195097	1	1020	3	3	2039	53	196130	-54	0										5						30												
WM080112	130013_fnca	1	1	1	1635365205	1	75.032	75.031	2.0.10.147	2.0.10.242	2.0.10.242	1.0.0.439	7	234	2	3	Verdana	1	80	0	0	0	WM Stimuli\	0.9	1085.11111111111	1	827	0.8	1126.375	0.9	867.333333333333	0.5	1361.4	1	868.2	0.9	880.333333333333	0.9	792.888888888889	13	395434	2	395422	27	40	395461	-999999	395437	0	8	TrialsPROC	TO_004_TOOL4_BA.png	1	2	31	SessionSelectionList														lure	3	Tools	2-Back	27	80	25	0	0	90	1	39	198675	1	14	59	196636	-1	197456	0	820	2	3	2039	53	198689	-54	0										6						31												
WM080112	130013_fnca	1	1	1	1635365205	1	75.032	75.031	2.0.10.147	2.0.10.242	2.0.10.242	1.0.0.439	7	234	2	3	Verdana	1	80	0	0	0	WM Stimuli\	0.9	1085.11111111111	1	827	0.8	1126.375	0.9	867.333333333333	0.5	1361.4	1	868.2	0.9	880.333333333333	0.9	792.888888888889	13	395434	2	395422	27	40	395461	-999999	395437	0	8	TrialsPROC	TO_006_TOOL6_BA.png	1	2	32	SessionSelectionList														nonlure	3	Tools	2-Back	28	80	26	0	0	90	1	39	201234	1	14	59	199195	-1	199917	1	722	3	3	2039	53	201248	-54	0										7						32												
WM080112	130013_fnca	1	1	1	1635365205	1	75.032	75.031	2.0.10.147	2.0.10.242	2.0.10.242	1.0.0.439	7	234	2	3	Verdana	1	80	0	0	0	WM Stimuli\	0.9	1085.11111111111	1	827	0.8	1126.375	0.9	867.333333333333	0.5	1361.4	1	868.2	0.9	880.333333333333	0.9	792.888888888889	13	395434	2	395422	27	40	395461	-999999	395437	0	8	TrialsPROC	TO_005_TOOL5_BA.png	1	2	33	SessionSelectionList														nonlure	3	Tools	2-Back	29	80	27	0	0	90	2	39	203793	1	14	59	201754	-1	202492	1	738	3	3	2039	53	203807	-54	0										8						33												
WM080112	130013_fnca	1	1	1	1635365205	1	75.032	75.031	2.0.10.147	2.0.10.242	2.0.10.242	1.0.0.439	7	234	2	3	Verdana	1	80	0	0	0	WM Stimuli\	0.9	1085.11111111111	1	827	0.8	1126.375	0.9	867.333333333333	0.5	1361.4	1	868.2	0.9	880.333333333333	0.9	792.888888888889	13	395434	2	395422	27	40	395461	-999999	395437	0	8	TrialsPROC	TO_006_TOOL6_BA.png	1	2	34	SessionSelectionList														target	2	Tools	2-Back	30	80	28	0	0	90	1	39	206352	1	13	59	204313	-1	204904	1	591	2	2	2039	52	206365	-53	0										9						34												
WM080112	130013_fnca	1	1	1	1635365205	1	75.032	75.031	2.0.10.147	2.0.10.242	2.0.10.242	1.0.0.439	7	234	2	3	Verdana	1	80	0	0	0	WM Stimuli\	0.9	1085.11111111111	1	827	0.8	1126.375	0.9	867.333333333333	0.5	1361.4	1	868.2	0.9	880.333333333333	0.9	792.888888888889	13	395434	2	395422	27	40	395461	-999999	395437	0	8	TrialsPROC	TO_003_TOOL3_BA.png	1	2	35	SessionSelectionList														nonlure	3	Tools	2-Back	31	80	29	0	0	90	1	39	208911	1	13	59	206872	-1	207618	1	746	3	3	2039	52	208924	-53	0										10						35												
WM080112	130013_fnca	1	1	1	1635365205	1	75.032	75.031	2.0.10.147	2.0.10.242	2.0.10.242	1.0.0.439	7	234	2	3	Verdana	1	80	0	0	0	WM Stimuli\	0.9	1085.11111111111	1	827	0.8	1126.375	0.9	867.333333333333	0.5	1361.4	1	868.2	0.9	880.333333333333	0.9	792.888888888889	13	395434	2	395422	27	40	395461	-999999	395437	0	9	Cue0BackPROC	BP_007_BP20_BA.png	1	2	36	SessionSelectionList																																										19	209391	-20	0												36												
WM080112	130013_fnca	1	1	1	1635365205	1	75.032	75.031	2.0.10.147	2.0.10.242	2.0.10.242	1.0.0.439	7	234	2	3	Verdana	1	80	0	0	0	WM Stimuli\	0.9	1085.11111111111	1	827	0.8	1126.375	0.9	867.333333333333	0.5	1361.4	1	868.2	0.9	880.333333333333	0.9	792.888888888889	13	395434	2	395422	27	40	395461	-999999	395437	0	10	TrialsPROC	BP_007_BP20_BA.png	1	2	37	SessionSelectionList														target	2	Body	0-Back	32	80	30	0	0	91	1	39	213962	1	14	51	211923	-1	213180	1	1257	2	2	2039	53	213976	-54	0											1					37												
WM080112	130013_fnca	1	1	1	1635365205	1	75.032	75.031	2.0.10.147	2.0.10.242	2.0.10.242	1.0.0.439	7	234	2	3	Verdana	1	80	0	0	0	WM Stimuli\	0.9	1085.11111111111	1	827	0.8	1126.375	0.9	867.333333333333	0.5	1361.4	1	868.2	0.9	880.333333333333	0.9	792.888888888889	13	395434	2	395422	27	40	395461	-999999	395437	0	10	TrialsPROC	BP_011_BP4_BA.png	1	2	38	SessionSelectionList														nonlure	3	Body	0-Back	33	80	31	0	0	92	1	39	216534	2	14	72	214495	-1	214975	1	480	3	3	2039	53	216548	-54	0											2					38												
WM080112	130013_fnca	1	1	1	1635365205	1	75.032	75.031	2.0.10.147	2.0.10.242	2.0.10.242	1.0.0.439	7	234	2	3	Verdana	1	80	0	0	0	WM Stimuli\	0.9	1085.11111111111	1	827	0.8	1126.375	0.9	867.333333333333	0.5	1361.4	1	868.2	0.9	880.333333333333	0.9	792.888888888889	13	395434	2	395422	27	40	395461	-999999	395437	0	10	TrialsPROC	BP_010_BP3_BA.png	1	2	39	SessionSelectionList														nonlure	3	Body	0-Back	34	80	32	0	0	92	2	39	219093	2	14	59	217054	-1	217824	1	770	3	3	2039	53	219107	-54	0											3					39												
WM080112	130013_fnca	1	1	1	1635365205	1	75.032	75.031	2.0.10.147	2.0.10.242	2.0.10.242	1.0.0.439	7	234	2	3	Verdana	1	80	0	0	0	WM Stimuli\	0.9	1085.11111111111	1	827	0.8	1126.375	0.9	867.333333333333	0.5	1361.4	1	868.2	0.9	880.333333333333	0.9	792.888888888889	13	395434	2	395422	27	40	395461	-999999	395437	0	10	TrialsPROC	BP_008_BP21_BA.png	1	2	40	SessionSelectionList														nonlure	3	Body	0-Back	35	80	33	0	0	93	3	39	221652	2	14	59	219613	-1	220616	1	1003	3	3	2039	53	221666	-54	0											4					40												
WM080112	130013_fnca	1	1	1	1635365205	1	75.032	75.031	2.0.10.147	2.0.10.242	2.0.10.242	1.0.0.439	7	234	2	3	Verdana	1	80	0	0	0	WM Stimuli\	0.9	1085.11111111111	1	827	0.8	1126.375	0.9	867.333333333333	0.5	1361.4	1	868.2	0.9	880.333333333333	0.9	792.888888888889	13	395434	2	395422	27	40	395461	-999999	395437	0	10	TrialsPROC	BP_011_BP4_BA.png	1	2	41	SessionSelectionList														lure	3	Body	0-Back	36	80	34	0	0	93	4	39	224224	2	14	72	222185	-1	222970	1	785	3	3	2039	53	224238	-54	0											5					41												
WM080112	130013_fnca	1	1	1	1635365205	1	75.032	75.031	2.0.10.147	2.0.10.242	2.0.10.242	1.0.0.439	7	234	2	3	Verdana	1	80	0	0	0	WM Stimuli\	0.9	1085.11111111111	1	827	0.8	1126.375	0.9	867.333333333333	0.5	1361.4	1	868.2	0.9	880.333333333333	0.9	792.888888888889	13	395434	2	395422	27	40	395461	-999999	395437	0	10	TrialsPROC	BP_009_BP22_BA.png	1	2	42	SessionSelectionList														nonlure	3	Body	0-Back	37	80	35	0	0	94	5	39	226783	2	14	59	224744	-1	225631	1	887	3	3	2039	53	226797	-54	0											6					42												
WM080112	130013_fnca	1	1	1	1635365205	1	75.032	75.031	2.0.10.147	2.0.10.242	2.0.10.242	1.0.0.439	7	234	2	3	Verdana	1	80	0	0	0	WM Stimuli\	0.9	1085.11111111111	1	827	0.8	1126.375	0.9	867.333333333333	0.5	1361.4	1	868.2	0.9	880.333333333333	0.9	792.888888888889	13	395434	2	395422	27	40	395461	-999999	395437	0	10	TrialsPROC	BP_009_BP22_BA.png	1	2	43	SessionSelectionList														lure	3	Body	0-Back	38	80	36	0	0	94	6	39	229342	3	14	59	227303	-1	228307	1	1004	3	3	2039	53	229356	-54	0											7					43												
WM080112	130013_fnca	1	1	1	1635365205	1	75.032	75.031	2.0.10.147	2.0.10.242	2.0.10.242	1.0.0.439	7	234	2	3	Verdana	1	80	0	0	0	WM Stimuli\	0.9	1085.11111111111	1	827	0.8	1126.375	0.9	867.333333333333	0.5	1361.4	1	868.2	0.9	880.333333333333	0.9	792.888888888889	13	395434	2	395422	27	40	395461	-999999	395437	0	10	TrialsPROC	BP_008_BP21_BA.png	1	2	44	SessionSelectionList														lure	3	Body	0-Back	39	80	37	0	0	94	7	39	231901	2	14	59	229862	-1	230555	1	693	3	3	2039	53	231915	-54	0											8					44												
WM080112	130013_fnca	1	1	1	1635365205	1	75.032	75.031	2.0.10.147	2.0.10.242	2.0.10.242	1.0.0.439	7	234	2	3	Verdana	1	80	0	0	0	WM Stimuli\	0.9	1085.11111111111	1	827	0.8	1126.375	0.9	867.333333333333	0.5	1361.4	1	868.2	0.9	880.333333333333	0.9	792.888888888889	13	395434	2	395422	27	40	395461	-999999	395437	0	10	TrialsPROC	BP_007_BP20_BA.png	1	2	45	SessionSelectionList														target	2	Body	0-Back	40	80	38	0	0	95	1	39	234460	2	14	59	232421	-1	233210	1	789	2	2	2039	53	234474	-54	0											9					45												
WM080112	130013_fnca	1	1	1	1635365205	1	75.032	75.031	2.0.10.147	2.0.10.242	2.0.10.242	1.0.0.439	7	234	2	3	Verdana	1	80	0	0	0	WM Stimuli\	0.9	1085.11111111111	1	827	0.8	1126.375	0.9	867.333333333333	0.5	1361.4	1	868.2	0.9	880.333333333333	0.9	792.888888888889	13	395434	2	395422	27	40	395461	-999999	395437	0	10	TrialsPROC	BP_012_BP5_BA.png	1	2	46	SessionSelectionList														nonlure	3	Body	0-Back	41	80	39	0	0	95	1	38	237019	2	14	60	234981	-1	235583	1	602	3	3	2038	52	237033	-53	0											10					46												
WM080112	130013_fnca	1	1	1	1635365205	1	75.032	75.031	2.0.10.147	2.0.10.242	2.0.10.242	1.0.0.439	7	234	2	3	Verdana	1	80	0	0	0	WM Stimuli\	0.9	1085.11111111111	1	827	0.8	1126.375	0.9	867.333333333333	0.5	1361.4	1	868.2	0.9	880.333333333333	0.9	792.888888888889	13	395434	2	395422	27	40	395461	-999999	395437	0	11	Fix15secPROC	""	1	2	47	SessionSelectionList																																															5	237486	-6	0							47												
WM080112	130013_fnca	1	1	1	1635365205	1	75.032	75.031	2.0.10.147	2.0.10.242	2.0.10.242	1.0.0.439	7	234	2	3	Verdana	1	80	0	0	0	WM Stimuli\	0.9	1085.11111111111	1	827	0.8	1126.375	0.9	867.333333333333	0.5	1361.4	1	868.2	0.9	880.333333333333	0.9	792.888888888889	13	395434	2	395422	27	40	395461	-999999	395437	0	12	Cue0BackPROC	PL_001_92012.png	1	2	48	SessionSelectionList																																										12	252493	-13	0												48												
WM080112	130013_fnca	1	1	1	1635365205	1	75.032	75.031	2.0.10.147	2.0.10.242	2.0.10.242	1.0.0.439	7	234	2	3	Verdana	1	80	0	0	0	WM Stimuli\	0.9	1085.11111111111	1	827	0.8	1126.375	0.9	867.333333333333	0.5	1361.4	1	868.2	0.9	880.333333333333	0.9	792.888888888889	13	395434	2	395422	27	40	395461	-999999	395437	0	13	TrialsPROC	PL_003_92016.png	1	2	49	SessionSelectionList														nonlure	3	Place	0-Back	42	80	40	0	0	95	2	39	257091	1	14	71	255052	-1	256355	1	1303	3	3	2039	53	257105	-54	0												1				49												
WM080112	130013_fnca	1	1	1	1635365205	1	75.032	75.031	2.0.10.147	2.0.10.242	2.0.10.242	1.0.0.439	7	234	2	3	Verdana	1	80	0	0	0	WM Stimuli\	0.9	1085.11111111111	1	827	0.8	1126.375	0.9	867.333333333333	0.5	1361.4	1	868.2	0.9	880.333333333333	0.9	792.888888888889	13	395434	2	395422	27	40	395461	-999999	395437	0	13	TrialsPROC	PL_003_92016.png	1	2	50	SessionSelectionList														lure	3	Place	0-Back	43	80	41	0	0	95	3	39	259663	2	14	72	257624	-1	258246	1	622	3	3	2039	53	259677	-54	0												2				50												
WM080112	130013_fnca	1	1	1	1635365205	1	75.032	75.031	2.0.10.147	2.0.10.242	2.0.10.242	1.0.0.439	7	234	2	3	Verdana	1	80	0	0	0	WM Stimuli\	0.9	1085.11111111111	1	827	0.8	1126.375	0.9	867.333333333333	0.5	1361.4	1	868.2	0.9	880.333333333333	0.9	792.888888888889	13	395434	2	395422	27	40	395461	-999999	395437	0	13	TrialsPROC	PL_006_92025.png	1	2	51	SessionSelectionList														nonlure	3	Place	0-Back	44	80	42	0	0	96	4	39	262235	2	14	72	260196	-1	261139	1	943	3	3	2039	53	262249	-54	0												3				51												
WM080112	130013_fnca	1	1	1	1635365205	1	75.032	75.031	2.0.10.147	2.0.10.242	2.0.10.242	1.0.0.439	7	234	2	3	Verdana	1	80	0	0	0	WM Stimuli\	0.9	1085.11111111111	1	827	0.8	1126.375	0.9	867.333333333333	0.5	1361.4	1	868.2	0.9	880.333333333333	0.9	792.888888888889	13	395434	2	395422	27	40	395461	-999999	395437	0	13	TrialsPROC	PL_001_92012.png	1	2	52	SessionSelectionList														target	2	Place	0-Back	45	80	43	0	0	96	1	39	264808	1	13	73	262769	-1	263698	1	929	2	2	2039	52	264821	-53	0												4				52												
WM080112	130013_fnca	1	1	1	1635365205	1	75.032	75.031	2.0.10.147	2.0.10.242	2.0.10.242	1.0.0.439	7	234	2	3	Verdana	1	80	0	0	0	WM Stimuli\	0.9	1085.11111111111	1	827	0.8	1126.375	0.9	867.333333333333	0.5	1361.4	1	868.2	0.9	880.333333333333	0.9	792.888888888889	13	395434	2	395422	27	40	395461	-999999	395437	0	13	TrialsPROC	PL_004_92023.png	1	2	53	SessionSelectionList														nonlure	3	Place	0-Back	46	80	44	0	0	96	1	39	267380	1	14	72	265341	-1	266079	1	738	3	3	2039	53	267394	-54	0												5				53												
WM080112	130013_fnca	1	1	1	1635365205	1	75.032	75.031	2.0.10.147	2.0.10.242	2.0.10.242	1.0.0.439	7	234	2	3	Verdana	1	80	0	0	0	WM Stimuli\	0.9	1085.11111111111	1	827	0.8	1126.375	0.9	867.333333333333	0.5	1361.4	1	868.2	0.9	880.333333333333	0.9	792.888888888889	13	395434	2	395422	27	40	395461	-999999	395437	0	13	TrialsPROC	PL_005_92024.png	1	2	54	SessionSelectionList														nonlure	3	Place	0-Back	47	80	45	0	0	96	2	39	269952	3	14	72	267913	-1	268650	1	737	3	3	2039	53	269966	-54	0												6				54												
WM080112	130013_fnca	1	1	1	1635365205	1	75.032	75.031	2.0.10.147	2.0.10.242	2.0.10.242	1.0.0.439	7	234	2	3	Verdana	1	80	0	0	0	WM Stimuli\	0.9	1085.11111111111	1	827	0.8	1126.375	0.9	867.333333333333	0.5	1361.4	1	868.2	0.9	880.333333333333	0.9	792.888888888889	13	395434	2	395422	27	40	395461	-999999	395437	0	13	TrialsPROC	PL_001_92012.png	1	2	55	SessionSelectionList														target	2	Place	0-Back	48	80	46	0	0	96	1	39	272511	2	14	59	270472	-1	271518	1	1046	2	2	2039	53	272525	-54	0												7				55												
WM080112	130013_fnca	1	1	1	1635365205	1	75.032	75.031	2.0.10.147	2.0.10.242	2.0.10.242	1.0.0.439	7	234	2	3	Verdana	1	80	0	0	0	WM Stimuli\	0.9	1085.11111111111	1	827	0.8	1126.375	0.9	867.333333333333	0.5	1361.4	1	868.2	0.9	880.333333333333	0.9	792.888888888889	13	395434	2	395422	27	40	395461	-999999	395437	0	13	TrialsPROC	PL_002_92014.png	1	2	56	SessionSelectionList														nonlure	3	Place	0-Back	49	80	47	0	0	96	1	40	275084	1	13	72	273044	-1	274024	1	980	3	3	2040	53	275097	-54	0												8				56												
WM080112	130013_fnca	1	1	1	1635365205	1	75.032	75.031	2.0.10.147	2.0.10.242	2.0.10.242	1.0.0.439	7	234	2	3	Verdana	1	80	0	0	0	WM Stimuli\	0.9	1085.11111111111	1	827	0.8	1126.375	0.9	867.333333333333	0.5	1361.4	1	868.2	0.9	880.333333333333	0.9	792.888888888889	13	395434	2	395422	27	40	395461	-999999	395437	0	13	TrialsPROC	PL_004_92023.png	1	2	57	SessionSelectionList														lure	3	Place	0-Back	50	80	48	0	0	97	2	39	277656	1	14	73	275617	-1	276252	1	635	3	3	2039	53	277670	-54	0												9				57												
WM080112	130013_fnca	1	1	1	1635365205	1	75.032	75.031	2.0.10.147	2.0.10.242	2.0.10.242	1.0.0.439	7	234	2	3	Verdana	1	80	0	0	0	WM Stimuli\	0.9	1085.11111111111	1	827	0.8	1126.375	0.9	867.333333333333	0.5	1361.4	1	868.2	0.9	880.333333333333	0.9	792.888888888889	13	395434	2	395422	27	40	395461	-999999	395437	0	13	TrialsPROC	PL_006_92025.png	1	2	58	SessionSelectionList														lure	3	Place	0-Back	51	80	49	0	0	97	3	39	280228	1	14	72	278189	-1	278938	1	749	3	3	2039	53	280242	-54	0												10				58												
WM080112	130013_fnca	1	1	1	1635365205	1	75.032	75.031	2.0.10.147	2.0.10.242	2.0.10.242	1.0.0.439	7	234	2	3	Verdana	1	80	0	0	0	WM Stimuli\	0.9	1085.11111111111	1	827	0.8	1126.375	0.9	867.333333333333	0.5	1361.4	1	868.2	0.9	880.333333333333	0.9	792.888888888889	13	395434	2	395422	27	40	395461	-999999	395437	0	14	Cue2BackPROC	""	1	2	59	SessionSelectionList									6	280695	-7	0																																													59												
WM080112	130013_fnca	1	1	1	1635365205	1	75.032	75.031	2.0.10.147	2.0.10.242	2.0.10.242	1.0.0.439	7	234	2	3	Verdana	1	80	0	0	0	WM Stimuli\	0.9	1085.11111111111	1	827	0.8	1126.375	0.9	867.333333333333	0.5	1361.4	1	868.2	0.9	880.333333333333	0.9	792.888888888889	13	395434	2	395422	27	40	395461	-999999	395437	0	15	TrialsPROC	FC_010_F5.png	1	2	60	SessionSelectionList														nonlure	3	Face	2-Back	52	80	49	0	1	97	3	39	285293	2	13	65	283254	-1	0	0	0	""	3	2039	52	285306	-53	0													1			60												
WM080112	130013_fnca	1	1	1	1635365205	1	75.032	75.031	2.0.10.147	2.0.10.242	2.0.10.242	1.0.0.439	7	234	2	3	Verdana	1	80	0	0	0	WM Stimuli\	0.9	1085.11111111111	1	827	0.8	1126.375	0.9	867.333333333333	0.5	1361.4	1	868.2	0.9	880.333333333333	0.9	792.888888888889	13	395434	2	395422	27	40	395461	-999999	395437	0	15	TrialsPROC	FC_012_F6.png	1	2	61	SessionSelectionList														nonlure	3	Face	2-Back	53	80	50	0	0	97	1	39	287865	1	14	72	285826	-1	286189	0	363	2	3	2039	53	287879	-54	0													2			61												
WM080112	130013_fnca	1	1	1	1635365205	1	75.032	75.031	2.0.10.147	2.0.10.242	2.0.10.242	1.0.0.439	7	234	2	3	Verdana	1	80	0	0	0	WM Stimuli\	0.9	1085.11111111111	1	827	0.8	1126.375	0.9	867.333333333333	0.5	1361.4	1	868.2	0.9	880.333333333333	0.9	792.888888888889	13	395434	2	395422	27	40	395461	-999999	395437	0	15	TrialsPROC	FC_010_F5.png	1	2	62	SessionSelectionList														target	2	Face	2-Back	54	80	51	0	0	97	2	39	290437	2	14	72	288398	-1	290222	1	1824	2	2	2039	53	290451	-54	0													3			62												
WM080112	130013_fnca	1	1	1	1635365205	1	75.032	75.031	2.0.10.147	2.0.10.242	2.0.10.242	1.0.0.439	7	234	2	3	Verdana	1	80	0	0	0	WM Stimuli\	0.9	1085.11111111111	1	827	0.8	1126.375	0.9	867.333333333333	0.5	1361.4	1	868.2	0.9	880.333333333333	0.9	792.888888888889	13	395434	2	395422	27	40	395461	-999999	395437	0	15	TrialsPROC	FC_008_F4.png	1	2	63	SessionSelectionList														nonlure	3	Face	2-Back	55	80	52	0	0	97	1	40	293010	1	13	72	290970	-1	291825	1	855	3	3	2040	53	293023	-54	0													4			63												
WM080112	130013_fnca	1	1	1	1635365205	1	75.032	75.031	2.0.10.147	2.0.10.242	2.0.10.242	1.0.0.439	7	234	2	3	Verdana	1	80	0	0	0	WM Stimuli\	0.9	1085.11111111111	1	827	0.8	1126.375	0.9	867.333333333333	0.5	1361.4	1	868.2	0.9	880.333333333333	0.9	792.888888888889	13	395434	2	395422	27	40	395461	-999999	395437	0	15	TrialsPROC	FC_012_F6.png	1	2	64	SessionSelectionList														lure	3	Face	2-Back	56	80	53	0	0	97	2	39	295582	1	13	73	293543	-1	294158	1	615	3	3	2039	52	295595	-53	0													5			64												
WM080112	130013_fnca	1	1	1	1635365205	1	75.032	75.031	2.0.10.147	2.0.10.242	2.0.10.242	1.0.0.439	7	234	2	3	Verdana	1	80	0	0	0	WM Stimuli\	0.9	1085.11111111111	1	827	0.8	1126.375	0.9	867.333333333333	0.5	1361.4	1	868.2	0.9	880.333333333333	0.9	792.888888888889	13	395434	2	395422	27	40	395461	-999999	395437	0	15	TrialsPROC	FC_008_F4.png	1	2	65	SessionSelectionList														target	2	Face	2-Back	57	80	54	0	0	97	1	39	298154	1	14	72	296115	-1	297799	1	1684	2	2	2039	53	298168	-54	0													6			65												
WM080112	130013_fnca	1	1	1	1635365205	1	75.032	75.031	2.0.10.147	2.0.10.242	2.0.10.242	1.0.0.439	7	234	2	3	Verdana	1	80	0	0	0	WM Stimuli\	0.9	1085.11111111111	1	827	0.8	1126.375	0.9	867.333333333333	0.5	1361.4	1	868.2	0.9	880.333333333333	0.9	792.888888888889	13	395434	2	395422	27	40	395461	-999999	395437	0	15	TrialsPROC	FC_007_M4.png	1	2	66	SessionSelectionList														nonlure	3	Face	2-Back	58	80	55	0	0	97	1	39	300740	1	13	86	298701	-1	300053	1	1352	3	3	2039	52	300753	-53	0													7			66												
WM080112	130013_fnca	1	1	1	1635365205	1	75.032	75.031	2.0.10.147	2.0.10.242	2.0.10.242	1.0.0.439	7	234	2	3	Verdana	1	80	0	0	0	WM Stimuli\	0.9	1085.11111111111	1	827	0.8	1126.375	0.9	867.333333333333	0.5	1361.4	1	868.2	0.9	880.333333333333	0.9	792.888888888889	13	395434	2	395422	27	40	395461	-999999	395437	0	15	TrialsPROC	FC_007_M4.png	1	2	67	SessionSelectionList														lure	3	Face	2-Back	59	80	56	0	0	97	2	39	303312	1	14	72	301273	-1	302158	1	885	3	3	2039	53	303326	-54	0													8			67												
WM080112	130013_fnca	1	1	1	1635365205	1	75.032	75.031	2.0.10.147	2.0.10.242	2.0.10.242	1.0.0.439	7	234	2	3	Verdana	1	80	0	0	0	WM Stimuli\	0.9	1085.11111111111	1	827	0.8	1126.375	0.9	867.333333333333	0.5	1361.4	1	868.2	0.9	880.333333333333	0.9	792.888888888889	13	395434	2	395422	27	40	395461	-999999	395437	0	15	TrialsPROC	FC_009_M5.png	1	2	68	SessionSelectionList														nonlure	3	Face	2-Back	60	80	57	0	0	97	3	39	305911	1	14	99	303872	-1	304896	1	1024	3	3	2039	53	305925	-54	0													9			68												
WM080112	130013_fnca	1	1	1	1635365205	1	75.032	75.031	2.0.10.147	2.0.10.242	2.0.10.242	1.0.0.439	7	234	2	3	Verdana	1	80	0	0	0	WM Stimuli\	0.9	1085.11111111111	1	827	0.8	1126.375	0.9	867.333333333333	0.5	1361.4	1	868.2	0.9	880.333333333333	0.9	792.888888888889	13	395434	2	395422	27	40	395461	-999999	395437	0	15	TrialsPROC	FC_011_M6.png	1	2	69	SessionSelectionList														nonlure	3	Face	2-Back	61	80	58	0	0	97	4	39	308496	2	14	85	306457	-1	307229	1	772	3	3	2039	53	308510	-54	0													10			69												
WM080112	130013_fnca	1	1	1	1635365205	1	75.032	75.031	2.0.10.147	2.0.10.242	2.0.10.242	1.0.0.439	7	234	2	3	Verdana	1	80	0	0	0	WM Stimuli\	0.9	1085.11111111111	1	827	0.8	1126.375	0.9	867.333333333333	0.5	1361.4	1	868.2	0.9	880.333333333333	0.9	792.888888888889	13	395434	2	395422	27	40	395461	-999999	395437	0	16	Fix15secPROC	""	1	2	70	SessionSelectionList																																															6	308963	-7	0							70												
WM080112	130013_fnca	1	1	1	1635365205	1	75.032	75.031	2.0.10.147	2.0.10.242	2.0.10.242	1.0.0.439	7	234	2	3	Verdana	1	80	0	0	0	WM Stimuli\	0.9	1085.11111111111	1	827	0.8	1126.375	0.9	867.333333333333	0.5	1361.4	1	868.2	0.9	880.333333333333	0.9	792.888888888889	13	395434	2	395422	27	40	395461	-999999	395437	0	17	Cue0BackPROC	TO_007_TOOL7_BA.png	1	2	71	SessionSelectionList																																										26	323983	-27	0												71												
WM080112	130013_fnca	1	1	1	1635365205	1	75.032	75.031	2.0.10.147	2.0.10.242	2.0.10.242	1.0.0.439	7	234	2	3	Verdana	1	80	0	0	0	WM Stimuli\	0.9	1085.11111111111	1	827	0.8	1126.375	0.9	867.333333333333	0.5	1361.4	1	868.2	0.9	880.333333333333	0.9	792.888888888889	13	395434	2	395422	27	40	395461	-999999	395437	0	18	TrialsPROC	TO_010_TOOL10_BA.png	1	2	72	SessionSelectionList														nonlure	3	Tools	0-Back	62	80	59	0	0	97	5	39	328568	2	14	72	326529	-1	327864	1	1335	3	3	2039	53	328582	-54	0														1		72												
WM080112	130013_fnca	1	1	1	1635365205	1	75.032	75.031	2.0.10.147	2.0.10.242	2.0.10.242	1.0.0.439	7	234	2	3	Verdana	1	80	0	0	0	WM Stimuli\	0.9	1085.11111111111	1	827	0.8	1126.375	0.9	867.333333333333	0.5	1361.4	1	868.2	0.9	880.333333333333	0.9	792.888888888889	13	395434	2	395422	27	40	395461	-999999	395437	0	18	TrialsPROC	TO_009_TOOL9_BA.png	1	2	73	SessionSelectionList														nonlure	3	Tools	0-Back	63	80	60	0	0	97	6	39	331140	2	14	72	329101	-1	329769	1	668	3	3	2039	53	331154	-54	0														2		73												
WM080112	130013_fnca	1	1	1	1635365205	1	75.032	75.031	2.0.10.147	2.0.10.242	2.0.10.242	1.0.0.439	7	234	2	3	Verdana	1	80	0	0	0	WM Stimuli\	0.9	1085.11111111111	1	827	0.8	1126.375	0.9	867.333333333333	0.5	1361.4	1	868.2	0.9	880.333333333333	0.9	792.888888888889	13	395434	2	395422	27	40	395461	-999999	395437	0	18	TrialsPROC	TO_009_TOOL9_BA.png	1	2	74	SessionSelectionList														lure	3	Tools	0-Back	64	80	61	0	0	97	7	39	333699	2	14	59	331660	-1	332473	1	813	3	3	2039	53	333713	-54	0														3		74												
WM080112	130013_fnca	1	1	1	1635365205	1	75.032	75.031	2.0.10.147	2.0.10.242	2.0.10.242	1.0.0.439	7	234	2	3	Verdana	1	80	0	0	0	WM Stimuli\	0.9	1085.11111111111	1	827	0.8	1126.375	0.9	867.333333333333	0.5	1361.4	1	868.2	0.9	880.333333333333	0.9	792.888888888889	13	395434	2	395422	27	40	395461	-999999	395437	0	18	TrialsPROC	TO_008_TOOL8_BA.png	1	2	75	SessionSelectionList														nonlure	3	Tools	0-Back	65	80	62	0	0	97	8	39	336285	1	14	86	334246	-1	335255	1	1009	3	3	2039	53	336299	-54	0														4		75												
WM080112	130013_fnca	1	1	1	1635365205	1	75.032	75.031	2.0.10.147	2.0.10.242	2.0.10.242	1.0.0.439	7	234	2	3	Verdana	1	80	0	0	0	WM Stimuli\	0.9	1085.11111111111	1	827	0.8	1126.375	0.9	867.333333333333	0.5	1361.4	1	868.2	0.9	880.333333333333	0.9	792.888888888889	13	395434	2	395422	27	40	395461	-999999	395437	0	18	TrialsPROC	TO_011_TOOL11_BA.png	1	2	76	SessionSelectionList														nonlure	3	Tools	0-Back	66	80	63	0	0	97	9	40	338871	1	13	85	336831	-1	337382	1	551	3	3	2040	53	338884	-54	0														5		76												
WM080112	130013_fnca	1	1	1	1635365205	1	75.032	75.031	2.0.10.147	2.0.10.242	2.0.10.242	1.0.0.439	7	234	2	3	Verdana	1	80	0	0	0	WM Stimuli\	0.9	1085.11111111111	1	827	0.8	1126.375	0.9	867.333333333333	0.5	1361.4	1	868.2	0.9	880.333333333333	0.9	792.888888888889	13	395434	2	395422	27	40	395461	-999999	395437	0	18	TrialsPROC	TO_012_TOOL12_BA.png	1	2	77	SessionSelectionList														nonlure	3	Tools	0-Back	67	80	64	0	0	97	10	39	341456	2	14	86	339417	-1	339955	1	538	3	3	2039	53	341470	-54	0														6		77												
WM080112	130013_fnca	1	1	1	1635365205	1	75.032	75.031	2.0.10.147	2.0.10.242	2.0.10.242	1.0.0.439	7	234	2	3	Verdana	1	80	0	0	0	WM Stimuli\	0.9	1085.11111111111	1	827	0.8	1126.375	0.9	867.333333333333	0.5	1361.4	1	868.2	0.9	880.333333333333	0.9	792.888888888889	13	395434	2	395422	27	40	395461	-999999	395437	0	18	TrialsPROC	TO_010_TOOL10_BA.png	1	2	78	SessionSelectionList														lure	3	Tools	0-Back	68	80	65	0	0	95	1	39	344015	2	14	59	341976	-1	342991	0	1015	2	3	2039	53	344029	-54	0														7		78												
WM080112	130013_fnca	1	1	1	1635365205	1	75.032	75.031	2.0.10.147	2.0.10.242	2.0.10.242	1.0.0.439	7	234	2	3	Verdana	1	80	0	0	0	WM Stimuli\	0.9	1085.11111111111	1	827	0.8	1126.375	0.9	867.333333333333	0.5	1361.4	1	868.2	0.9	880.333333333333	0.9	792.888888888889	13	395434	2	395422	27	40	395461	-999999	395437	0	18	TrialsPROC	TO_007_TOOL7_BA.png	1	2	79	SessionSelectionList														target	2	Tools	0-Back	69	80	66	0	0	95	2	39	346574	2	14	59	344535	-1	345533	1	998	2	2	2039	53	346588	-54	0														8		79												
WM080112	130013_fnca	1	1	1	1635365205	1	75.032	75.031	2.0.10.147	2.0.10.242	2.0.10.242	1.0.0.439	7	234	2	3	Verdana	1	80	0	0	0	WM Stimuli\	0.9	1085.11111111111	1	827	0.8	1126.375	0.9	867.333333333333	0.5	1361.4	1	868.2	0.9	880.333333333333	0.9	792.888888888889	13	395434	2	395422	27	40	395461	-999999	395437	0	18	TrialsPROC	TO_008_TOOL8_BA.png	1	2	80	SessionSelectionList														lure	3	Tools	0-Back	70	80	67	0	0	95	1	39	349133	1	14	59	347094	-1	347662	1	568	3	3	2039	53	349147	-54	0														9		80												
WM080112	130013_fnca	1	1	1	1635365205	1	75.032	75.031	2.0.10.147	2.0.10.242	2.0.10.242	1.0.0.439	7	234	2	3	Verdana	1	80	0	0	0	WM Stimuli\	0.9	1085.11111111111	1	827	0.8	1126.375	0.9	867.333333333333	0.5	1361.4	1	868.2	0.9	880.333333333333	0.9	792.888888888889	13	395434	2	395422	27	40	395461	-999999	395437	0	18	TrialsPROC	TO_007_TOOL7_BA.png	1	2	81	SessionSelectionList														target	2	Tools	0-Back	71	80	68	0	0	95	1	39	351692	1	14	59	349653	-1	350309	1	656	2	2	2039	53	351706	-54	0														10		81												
WM080112	130013_fnca	1	1	1	1635365205	1	75.032	75.031	2.0.10.147	2.0.10.242	2.0.10.242	1.0.0.439	7	234	2	3	Verdana	1	80	0	0	0	WM Stimuli\	0.9	1085.11111111111	1	827	0.8	1126.375	0.9	867.333333333333	0.5	1361.4	1	868.2	0.9	880.333333333333	0.9	792.888888888889	13	395434	2	395422	27	40	395461	-999999	395437	0	19	Cue2BackPROC	""	1	2	82	SessionSelectionList									6	352159	-7	0																																													82												
WM080112	130013_fnca	1	1	1	1635365205	1	75.032	75.031	2.0.10.147	2.0.10.242	2.0.10.242	1.0.0.439	7	234	2	3	Verdana	1	80	0	0	0	WM Stimuli\	0.9	1085.11111111111	1	827	0.8	1126.375	0.9	867.333333333333	0.5	1361.4	1	868.2	0.9	880.333333333333	0.9	792.888888888889	13	395434	2	395422	27	40	395461	-999999	395437	0	20	TrialsPROC	PL_007_92026.png	1	2	83	SessionSelectionList														nonlure	3	Place	2-Back	72	80	68	0	1	95	1	39	356770	1	14	78	354731	-1	0	0	0	""	3	2039	53	356784	-54	0															1	83												
WM080112	130013_fnca	1	1	1	1635365205	1	75.032	75.031	2.0.10.147	2.0.10.242	2.0.10.242	1.0.0.439	7	234	2	3	Verdana	1	80	0	0	0	WM Stimuli\	0.9	1085.11111111111	1	827	0.8	1126.375	0.9	867.333333333333	0.5	1361.4	1	868.2	0.9	880.333333333333	0.9	792.888888888889	13	395434	2	395422	27	40	395461	-999999	395437	0	20	TrialsPROC	PL_007_92026.png	1	2	84	SessionSelectionList														lure	3	Place	2-Back	73	80	69	0	0	95	1	39	359342	2	14	72	357303	-1	358347	0	1044	2	3	2039	53	359356	-54	0															2	84												
WM080112	130013_fnca	1	1	1	1635365205	1	75.032	75.031	2.0.10.147	2.0.10.242	2.0.10.242	1.0.0.439	7	234	2	3	Verdana	1	80	0	0	0	WM Stimuli\	0.9	1085.11111111111	1	827	0.8	1126.375	0.9	867.333333333333	0.5	1361.4	1	868.2	0.9	880.333333333333	0.9	792.888888888889	13	395434	2	395422	27	40	395461	-999999	395437	0	20	TrialsPROC	PL_010_92038.png	1	2	85	SessionSelectionList														nonlure	3	Place	2-Back	74	80	70	0	0	95	1	39	361928	1	14	86	359889	-1	361364	1	1475	3	3	2039	53	361942	-54	0															3	85												
WM080112	130013_fnca	1	1	1	1635365205	1	75.032	75.031	2.0.10.147	2.0.10.242	2.0.10.242	1.0.0.439	7	234	2	3	Verdana	1	80	0	0	0	WM Stimuli\	0.9	1085.11111111111	1	827	0.8	1126.375	0.9	867.333333333333	0.5	1361.4	1	868.2	0.9	880.333333333333	0.9	792.888888888889	13	395434	2	395422	27	40	395461	-999999	395437	0	20	TrialsPROC	PL_009_92037.png	1	2	86	SessionSelectionList														nonlure	3	Place	2-Back	75	80	71	0	0	95	2	39	364513	2	14	85	362474	-1	363231	1	757	3	3	2039	53	364527	-54	0															4	86												
WM080112	130013_fnca	1	1	1	1635365205	1	75.032	75.031	2.0.10.147	2.0.10.242	2.0.10.242	1.0.0.439	7	234	2	3	Verdana	1	80	0	0	0	WM Stimuli\	0.9	1085.11111111111	1	827	0.8	1126.375	0.9	867.333333333333	0.5	1361.4	1	868.2	0.9	880.333333333333	0.9	792.888888888889	13	395434	2	395422	27	40	395461	-999999	395437	0	20	TrialsPROC	PL_010_92038.png	1	2	87	SessionSelectionList														target	2	Place	2-Back	76	80	72	0	0	95	3	38	367072	2	14	60	365034	-1	365938	0	904	3	2	2038	52	367086	-53	0															5	87												
WM080112	130013_fnca	1	1	1	1635365205	1	75.032	75.031	2.0.10.147	2.0.10.242	2.0.10.242	1.0.0.439	7	234	2	3	Verdana	1	80	0	0	0	WM Stimuli\	0.9	1085.11111111111	1	827	0.8	1126.375	0.9	867.333333333333	0.5	1361.4	1	868.2	0.9	880.333333333333	0.9	792.888888888889	13	395434	2	395422	27	40	395461	-999999	395437	0	20	TrialsPROC	PL_009_92037.png	1	2	88	SessionSelectionList														target	2	Place	2-Back	77	80	73	0	0	95	4	38	369631	2	14	59	367593	-1	368676	0	1083	3	2	2038	52	369645	-53	0															6	88												
WM080112	130013_fnca	1	1	1	1635365205	1	75.032	75.031	2.0.10.147	2.0.10.242	2.0.10.242	1.0.0.439	7	234	2	3	Verdana	1	80	0	0	0	WM Stimuli\	0.9	1085.11111111111	1	827	0.8	1126.375	0.9	867.333333333333	0.5	1361.4	1	868.2	0.9	880.333333333333	0.9	792.888888888889	13	395434	2	395422	27	40	395461	-999999	395437	0	20	TrialsPROC	PL_008_92033.png	1	2	89	SessionSelectionList														nonlure	3	Place	2-Back	78	80	74	0	0	95	5	39	372217	1	14	85	370178	-1	371862	1	1684	3	3	2039	53	372231	-54	0															7	89												
WM080112	130013_fnca	1	1	1	1635365205	1	75.032	75.031	2.0.10.147	2.0.10.242	2.0.10.242	1.0.0.439	7	234	2	3	Verdana	1	80	0	0	0	WM Stimuli\	0.9	1085.11111111111	1	827	0.8	1126.375	0.9	867.333333333333	0.5	1361.4	1	868.2	0.9	880.333333333333	0.9	792.888888888889	13	395434	2	395422	27	40	395461	-999999	395437	0	20	TrialsPROC	PL_012_92047.png	1	2	90	SessionSelectionList														nonlure	3	Place	2-Back	79	80	75	0	0	95	6	40	374803	1	13	85	372763	-1	374707	1	1944	3	3	2040	53	374816	-54	0															8	90												
WM080112	130013_fnca	1	1	1	1635365205	1	75.032	75.031	2.0.10.147	2.0.10.242	2.0.10.242	1.0.0.439	7	234	2	3	Verdana	1	80	0	0	0	WM Stimuli\	0.9	1085.11111111111	1	827	0.8	1126.375	0.9	867.333333333333	0.5	1361.4	1	868.2	0.9	880.333333333333	0.9	792.888888888889	13	395434	2	395422	27	40	395461	-999999	395437	0	20	TrialsPROC	PL_012_92047.png	1	2	91	SessionSelectionList														lure	3	Place	2-Back	80	80	76	0	0	95	1	39	377375	1	14	73	375336	-1	376461	0	1125	2	3	2039	53	377389	-54	0															9	91												
WM080112	130013_fnca	1	1	1	1635365205	1	75.032	75.031	2.0.10.147	2.0.10.242	2.0.10.242	1.0.0.439	7	234	2	3	Verdana	1	80	0	0	0	WM Stimuli\	0.9	1085.11111111111	1	827	0.8	1126.375	0.9	867.333333333333	0.5	1361.4	1	868.2	0.9	880.333333333333	0.9	792.888888888889	13	395434	2	395422	27	40	395461	-999999	395437	0	20	TrialsPROC	PL_011_92044.png	1	2	92	SessionSelectionList														nonlure	3	Place	2-Back	80	80	77	0	0	95	1	39	379960	2	14	85	377921	-1	378868	1	947	3	3	2039	53	379974	-54	0															10	92												
WM080112	130013_fnca	1	1	1	1635365205	1	75.032	75.031	2.0.10.147	2.0.10.242	2.0.10.242	1.0.0.439	7	234	2	3	Verdana	1	80	0	0	0	WM Stimuli\	0.9	1085.11111111111	1	827	0.8	1126.375	0.9	867.333333333333	0.5	1361.4	1	868.2	0.9	880.333333333333	0.9	792.888888888889	13	395434	2	395422	27	40	395461	-999999	395437	0	21	Fix15secPROC	""	1	2	93	SessionSelectionList																																															6	380427	-7	0							93												
