ExperimentName	HCPID	RunNumber	Subject	Session	RandomSeed	Group	Laptop.RefreshRate	ScannerD2.RefreshRate	StudioVersion	RuntimeVersion	RuntimeVersionExpected	ExperimentVersion	triggercode	Allowed	Target	Nontarget	FontStyle	RunTrialNumber[Session]	TrialsPerRun[Session]	TotalRespGreater200[Session]	ConsecRTLess200[Session]	ConsecNonResp[Session]	StimuliDir	ACC_2_Back_Body	Avg_RT_For_Correct_Trials_2_Back_Body	ACC_0_Back_Body	Avg_RT_For_Correct_Trials_0_Back_Body	ACC_2_Back_Face	Avg_RT_For_Correct_Trials_2_Back_Face	ACC_0_Back_Face	Avg_RT_For_Correct_Trials_0_Back_Face	ACC_2_Back_Place	Avg_RT_For_Correct_Trials_2_Back_Place	ACC_0_Back_Place	Avg_RT_For_Correct_Trials_0_Back_Place	ACC_2_Back_Tools	Avg_RT_For_Correct_Trials_2_Back_Tools	ACC_0_Back_Tools	Avg_RT_For_Correct_Trials_0_Back_Tools	ExpInstrucFeelFreeToRest.OnsetDelay	ExpInstrucFeelFreeToRest.OnsetTime	ExpInstrucFeelFreeToRest.DurationError	ExpInstrucFeelFreeToRest.StartTime	ExpInstrucFeelFreeToRest.OnsetToOnsetTime	FeelFreeToRest.OnsetDelay	FeelFreeToRest.OnsetTime	FeelFreeToRest.DurationError	FeelFreeToRest.StartTime	FeelFreeToRest.OnsetToOnsetTime	SessionSelectionList	Procedure[Block]	Stimulus[Block]	RunNumberFilterValue	SessionSelectionList.Cycle	SessionSelectionList.Sample	Running[Block]	IntroButtonMap.OnsetDelay	IntroButtonMap.OnsetTime	IntroButtonMap.DurationError	IntroButtonMap.OnsetToOnsetTime	GetReady.OnsetDelay	GetReady.OnsetTime	GetReady.DurationError	GetReady.OnsetToOnsetTime	Cue2Back.OnsetDelay	Cue2Back.OnsetTime	Cue2Back.DurationError	Cue2Back.OnsetToOnsetTime	Run1Block1	TargetType	CorrectResponse	StimType	BlockType	RunTrialNumber[Block]	TrialsPerRun[Block]	TotalRespGreater200[Block]	ConsecRTLess200[Block]	ConsecNonResp[Block]	ControlAcc	ConsecSameResp	ExperimenterWindow.OnsetDelay	ExperimenterWindow.OnsetTime	ExperimenterWindow.DurationError	ExperimenterWindow.OnsetToOnsetTime	Stim.OnsetDelay	Stim.OnsetTime	Stim.DurationError	Stim.RTTime	Stim.ACC	Stim.RT	Stim.RESP	Stim.CRESP	Stim.OnsetToOnsetTime	Fix.OnsetDelay	Fix.OnsetTime	Fix.DurationError	Fix.OnsetToOnsetTime	CueTarget.OnsetDelay	CueTarget.OnsetTime	CueTarget.DurationError	CueTarget.OnsetToOnsetTime	Run1Block2	Fix15sec.OnsetDelay	Fix15sec.OnsetTime	Fix15sec.DurationError	Fix15sec.OnsetToOnsetTime	Run1Block3	Run1Block4	Run1Block5	Run1Block6	Run1Block7	Run1Block8	Block	Procedure[Trial]	Stimulus[Trial]	ReadyList	Running[Trial]	ReadyList.Cycle	ReadyList.Sample	SyncSlide.OnsetDelay	SyncSlide.OnsetTime	SyncSlide.DurationError	SyncSlide.FinishTime	SyncSlide.OnsetToOnsetTime	Trial
WM080112	156637_fnca	2	1	1	-1226182481	1	75.032	75.031	2.0.10.147	2.0.10.242	2.0.10.242	1.0.0.439	7	234	2	3	Verdana	1	80	0	0	0	WM Stimuli\	1	1046.4	0.9	711.333333333333	1	895.6	1	588.6	1	916.2	1	583.5	0.9	1108.88888888889	0.9	609.444444444444	12	327166	3	327155	27	39	327193	-999999	327169	0	22	TRSyncPROC	""	2	2	1	SessionSelectionList	103	8792	-999999	0	38	19348	-999999	0																																																	1	InitialTR	4	1	ReadyList	1	1	11	33356	-12	35344	0	1
WM080112	156637_fnca	2	1	1	-1226182481	1	75.032	75.031	2.0.10.147	2.0.10.242	2.0.10.242	1.0.0.439	7	234	2	3	Verdana	1	80	0	0	0	WM Stimuli\	1	1046.4	0.9	711.333333333333	1	895.6	1	588.6	1	916.2	1	583.5	0.9	1108.88888888889	0.9	609.444444444444	12	327166	3	327155	27	39	327193	-999999	327169	0	22	TRSyncPROC	""	2	2	1	SessionSelectionList	103	8792	-999999	0	38	19348	-999999	0																																																	1	InitialTR	3	2	ReadyList	1	2	10	35355	-11	37344	0	2
WM080112	156637_fnca	2	1	1	-1226182481	1	75.032	75.031	2.0.10.147	2.0.10.242	2.0.10.242	1.0.0.439	7	234	2	3	Verdana	1	80	0	0	0	WM Stimuli\	1	1046.4	0.9	711.333333333333	1	895.6	1	588.6	1	916.2	1	583.5	0.9	1108.88888888889	0.9	609.444444444444	12	327166	3	327155	27	39	327193	-999999	327169	0	22	TRSyncPROC	""	2	2	1	SessionSelectionList	103	8792	-999999	0	38	19348	-999999	0																																																	1	InitialTR	2	3	ReadyList	1	3	9	37354	-10	39344	0	3
WM080112	156637_fnca	2	1	1	-1226182481	1	75.032	75.031	2.0.10.147	2.0.10.242	2.0.10.242	1.0.0.439	7	234	2	3	Verdana	1	80	0	0	0	WM Stimuli\	1	1046.4	0.9	711.333333333333	1	895.6	1	588.6	1	916.2	1	583.5	0.9	1108.88888888889	0.9	609.444444444444	12	327166	3	327155	27	39	327193	-999999	327169	0	22	TRSyncPROC	""	2	2	1	SessionSelectionList	103	8792	-999999	0	38	19348	-999999	0																																																	1	InitialTR	1	4	ReadyList	1	4	8	39353	-9	41344	0	4
WM080112	156637_fnca	2	1	1	-1226182481	1	75.032	75.031	2.0.10.147	2.0.10.242	2.0.10.242	1.0.0.439	7	234	2	3	Verdana	1	80	0	0	0	WM Stimuli\	1	1046.4	0.9	711.333333333333	1	895.6	1	588.6	1	916.2	1	583.5	0.9	1108.88888888889	0.9	609.444444444444	12	327166	3	327155	27	39	327193	-999999	327169	0	23	Cue2BackPROC	""	2	2	2	SessionSelectionList									7	41352	-8	0																																													2												
WM080112	156637_fnca	2	1	1	-1226182481	1	75.032	75.031	2.0.10.147	2.0.10.242	2.0.10.242	1.0.0.439	7	234	2	3	Verdana	1	80	0	0	0	WM Stimuli\	1	1046.4	0.9	711.333333333333	1	895.6	1	588.6	1	916.2	1	583.5	0.9	1108.88888888889	0.9	609.444444444444	12	327166	3	327155	27	39	327193	-999999	327169	0	24	TrialsPROC	TO_014_TOOL14_BA.png	2	2	3	SessionSelectionList														nonlure	3	Tools	2-Back	2	80	1	0	0	0	1	53	45977	3	14	79	43924	-1	45061	1	1137	3	3	2053	67	45991	-68	0																3												
WM080112	156637_fnca	2	1	1	-1226182481	1	75.032	75.031	2.0.10.147	2.0.10.242	2.0.10.242	1.0.0.439	7	234	2	3	Verdana	1	80	0	0	0	WM Stimuli\	1	1046.4	0.9	711.333333333333	1	895.6	1	588.6	1	916.2	1	583.5	0.9	1108.88888888889	0.9	609.444444444444	12	327166	3	327155	27	39	327193	-999999	327169	0	24	TrialsPROC	TO_013_TOOL13_BA.png	2	2	4	SessionSelectionList														nonlure	3	Tools	2-Back	3	80	2	0	0	0	2	39	48523	1	13	60	46484	-1	47729	1	1245	3	3	2039	52	48536	-53	0																4												
WM080112	156637_fnca	2	1	1	-1226182481	1	75.032	75.031	2.0.10.147	2.0.10.242	2.0.10.242	1.0.0.439	7	234	2	3	Verdana	1	80	0	0	0	WM Stimuli\	1	1046.4	0.9	711.333333333333	1	895.6	1	588.6	1	916.2	1	583.5	0.9	1108.88888888889	0.9	609.444444444444	12	327166	3	327155	27	39	327193	-999999	327169	0	24	TrialsPROC	TO_016_TOOL16_BA.png	2	2	5	SessionSelectionList														nonlure	3	Tools	2-Back	4	80	3	0	0	0	3	39	51082	1	13	59	49043	-1	50438	1	1395	3	3	2039	52	51095	-53	0																5												
WM080112	156637_fnca	2	1	1	-1226182481	1	75.032	75.031	2.0.10.147	2.0.10.242	2.0.10.242	1.0.0.439	7	234	2	3	Verdana	1	80	0	0	0	WM Stimuli\	1	1046.4	0.9	711.333333333333	1	895.6	1	588.6	1	916.2	1	583.5	0.9	1108.88888888889	0.9	609.444444444444	12	327166	3	327155	27	39	327193	-999999	327169	0	24	TrialsPROC	TO_014_TOOL14_BA.png	2	2	6	SessionSelectionList														lure	3	Tools	2-Back	5	80	4	0	0	0	4	39	53654	1	13	72	51615	-1	53130	1	1515	3	3	2039	52	53667	-53	0																6												
WM080112	156637_fnca	2	1	1	-1226182481	1	75.032	75.031	2.0.10.147	2.0.10.242	2.0.10.242	1.0.0.439	7	234	2	3	Verdana	1	80	0	0	0	WM Stimuli\	1	1046.4	0.9	711.333333333333	1	895.6	1	588.6	1	916.2	1	583.5	0.9	1108.88888888889	0.9	609.444444444444	12	327166	3	327155	27	39	327193	-999999	327169	0	24	TrialsPROC	TO_016_TOOL16_BA.png	2	2	7	SessionSelectionList														target	2	Tools	2-Back	6	80	5	0	0	0	1	39	56213	1	13	59	54174	-1	55330	1	1156	2	2	2039	52	56226	-53	0																7												
WM080112	156637_fnca	2	1	1	-1226182481	1	75.032	75.031	2.0.10.147	2.0.10.242	2.0.10.242	1.0.0.439	7	234	2	3	Verdana	1	80	0	0	0	WM Stimuli\	1	1046.4	0.9	711.333333333333	1	895.6	1	588.6	1	916.2	1	583.5	0.9	1108.88888888889	0.9	609.444444444444	12	327166	3	327155	27	39	327193	-999999	327169	0	24	TrialsPROC	TO_018_TOOL18_BA.png	2	2	8	SessionSelectionList														nonlure	3	Tools	2-Back	7	80	6	0	0	0	1	40	58772	1	13	58	56732	-1	57915	1	1183	3	3	2040	53	58785	-54	0																8												
WM080112	156637_fnca	2	1	1	-1226182481	1	75.032	75.031	2.0.10.147	2.0.10.242	2.0.10.242	1.0.0.439	7	234	2	3	Verdana	1	80	0	0	0	WM Stimuli\	1	1046.4	0.9	711.333333333333	1	895.6	1	588.6	1	916.2	1	583.5	0.9	1108.88888888889	0.9	609.444444444444	12	327166	3	327155	27	39	327193	-999999	327169	0	24	TrialsPROC	TO_017_TOOL17_BA.png	2	2	9	SessionSelectionList														nonlure	3	Tools	2-Back	8	80	7	0	0	0	2	40	61331	1	13	59	59291	-1	60128	1	837	3	3	2040	53	61344	-54	0																9												
WM080112	156637_fnca	2	1	1	-1226182481	1	75.032	75.031	2.0.10.147	2.0.10.242	2.0.10.242	1.0.0.439	7	234	2	3	Verdana	1	80	0	0	0	WM Stimuli\	1	1046.4	0.9	711.333333333333	1	895.6	1	588.6	1	916.2	1	583.5	0.9	1108.88888888889	0.9	609.444444444444	12	327166	3	327155	27	39	327193	-999999	327169	0	24	TrialsPROC	TO_018_TOOL18_BA.png	2	2	10	SessionSelectionList														target	2	Tools	2-Back	9	80	8	0	0	0	1	39	63889	2	14	59	61850	-1	62335	1	485	2	2	2039	53	63903	-54	0																10												
WM080112	156637_fnca	2	1	1	-1226182481	1	75.032	75.031	2.0.10.147	2.0.10.242	2.0.10.242	1.0.0.439	7	234	2	3	Verdana	1	80	0	0	0	WM Stimuli\	1	1046.4	0.9	711.333333333333	1	895.6	1	588.6	1	916.2	1	583.5	0.9	1108.88888888889	0.9	609.444444444444	12	327166	3	327155	27	39	327193	-999999	327169	0	24	TrialsPROC	TO_015_TOOL15_BA.png	2	2	11	SessionSelectionList														nonlure	3	Tools	2-Back	10	80	9	0	0	0	1	39	66448	2	14	59	64409	-1	65436	1	1027	3	3	2039	53	66462	-54	0																11												
WM080112	156637_fnca	2	1	1	-1226182481	1	75.032	75.031	2.0.10.147	2.0.10.242	2.0.10.242	1.0.0.439	7	234	2	3	Verdana	1	80	0	0	0	WM Stimuli\	1	1046.4	0.9	711.333333333333	1	895.6	1	588.6	1	916.2	1	583.5	0.9	1108.88888888889	0.9	609.444444444444	12	327166	3	327155	27	39	327193	-999999	327169	0	24	TrialsPROC	TO_017_TOOL17_BA.png	2	2	12	SessionSelectionList														lure	3	Tools	2-Back	11	80	9	0	1	0	1	39	69007	2	14	59	66968	-1	0	0	0	""	3	2039	53	69021	-54	0																12												
WM080112	156637_fnca	2	1	1	-1226182481	1	75.032	75.031	2.0.10.147	2.0.10.242	2.0.10.242	1.0.0.439	7	234	2	3	Verdana	1	80	0	0	0	WM Stimuli\	1	1046.4	0.9	711.333333333333	1	895.6	1	588.6	1	916.2	1	583.5	0.9	1108.88888888889	0.9	609.444444444444	12	327166	3	327155	27	39	327193	-999999	327169	0	25	Cue0BackPROC	BP_013_BP7_BA.png	2	2	13	SessionSelectionList																																										19	69487	-20	0												13												
WM080112	156637_fnca	2	1	1	-1226182481	1	75.032	75.031	2.0.10.147	2.0.10.242	2.0.10.242	1.0.0.439	7	234	2	3	Verdana	1	80	0	0	0	WM Stimuli\	1	1046.4	0.9	711.333333333333	1	895.6	1	588.6	1	916.2	1	583.5	0.9	1108.88888888889	0.9	609.444444444444	12	327166	3	327155	27	39	327193	-999999	327169	0	26	TrialsPROC	BP_015_H10-T_BA.png	2	2	14	SessionSelectionList														nonlure	3	Body	0-Back	12	80	10	0	0	100	1	39	74072	1	14	65	72033	-1	72834	1	801	3	3	2039	53	74086	-54	0																14												
WM080112	156637_fnca	2	1	1	-1226182481	1	75.032	75.031	2.0.10.147	2.0.10.242	2.0.10.242	1.0.0.439	7	234	2	3	Verdana	1	80	0	0	0	WM Stimuli\	1	1046.4	0.9	711.333333333333	1	895.6	1	588.6	1	916.2	1	583.5	0.9	1108.88888888889	0.9	609.444444444444	12	327166	3	327155	27	39	327193	-999999	327169	0	26	TrialsPROC	BP_018_H13-T_BA.png	2	2	15	SessionSelectionList														nonlure	3	Body	0-Back	13	80	11	0	0	100	2	39	76631	1	14	59	74592	-1	75494	1	902	3	3	2039	53	76645	-54	0																15												
WM080112	156637_fnca	2	1	1	-1226182481	1	75.032	75.031	2.0.10.147	2.0.10.242	2.0.10.242	1.0.0.439	7	234	2	3	Verdana	1	80	0	0	0	WM Stimuli\	1	1046.4	0.9	711.333333333333	1	895.6	1	588.6	1	916.2	1	583.5	0.9	1108.88888888889	0.9	609.444444444444	12	327166	3	327155	27	39	327193	-999999	327169	0	26	TrialsPROC	BP_014_BP9_BA.png	2	2	16	SessionSelectionList														nonlure	3	Body	0-Back	14	80	12	0	0	100	3	39	79190	1	13	59	77151	-1	77935	1	784	3	3	2039	52	79203	-53	0																16												
WM080112	156637_fnca	2	1	1	-1226182481	1	75.032	75.031	2.0.10.147	2.0.10.242	2.0.10.242	1.0.0.439	7	234	2	3	Verdana	1	80	0	0	0	WM Stimuli\	1	1046.4	0.9	711.333333333333	1	895.6	1	588.6	1	916.2	1	583.5	0.9	1108.88888888889	0.9	609.444444444444	12	327166	3	327155	27	39	327193	-999999	327169	0	26	TrialsPROC	BP_018_H13-T_BA.png	2	2	17	SessionSelectionList														lure	3	Body	0-Back	15	80	13	0	0	100	4	39	81749	1	13	59	79710	-1	80483	1	773	3	3	2039	52	81762	-53	0																17												
WM080112	156637_fnca	2	1	1	-1226182481	1	75.032	75.031	2.0.10.147	2.0.10.242	2.0.10.242	1.0.0.439	7	234	2	3	Verdana	1	80	0	0	0	WM Stimuli\	1	1046.4	0.9	711.333333333333	1	895.6	1	588.6	1	916.2	1	583.5	0.9	1108.88888888889	0.9	609.444444444444	12	327166	3	327155	27	39	327193	-999999	327169	0	26	TrialsPROC	BP_013_BP7_BA.png	2	2	18	SessionSelectionList														target	2	Body	0-Back	16	80	14	0	0	100	1	39	84308	1	13	59	82269	-1	82871	1	602	2	2	2039	52	84321	-53	0																18												
WM080112	156637_fnca	2	1	1	-1226182481	1	75.032	75.031	2.0.10.147	2.0.10.242	2.0.10.242	1.0.0.439	7	234	2	3	Verdana	1	80	0	0	0	WM Stimuli\	1	1046.4	0.9	711.333333333333	1	895.6	1	588.6	1	916.2	1	583.5	0.9	1108.88888888889	0.9	609.444444444444	12	327166	3	327155	27	39	327193	-999999	327169	0	26	TrialsPROC	BP_015_H10-T_BA.png	2	2	19	SessionSelectionList														lure	3	Body	0-Back	17	80	15	0	0	100	1	39	86867	1	13	59	84828	-1	85376	1	548	3	3	2039	52	86880	-53	0																19												
WM080112	156637_fnca	2	1	1	-1226182481	1	75.032	75.031	2.0.10.147	2.0.10.242	2.0.10.242	1.0.0.439	7	234	2	3	Verdana	1	80	0	0	0	WM Stimuli\	1	1046.4	0.9	711.333333333333	1	895.6	1	588.6	1	916.2	1	583.5	0.9	1108.88888888889	0.9	609.444444444444	12	327166	3	327155	27	39	327193	-999999	327169	0	26	TrialsPROC	BP_016_H11-T_BA.png	2	2	20	SessionSelectionList														nonlure	3	Body	0-Back	18	80	16	0	0	100	2	39	89439	1	14	72	87400	-1	88191	1	791	3	3	2039	53	89453	-54	0																20												
WM080112	156637_fnca	2	1	1	-1226182481	1	75.032	75.031	2.0.10.147	2.0.10.242	2.0.10.242	1.0.0.439	7	234	2	3	Verdana	1	80	0	0	0	WM Stimuli\	1	1046.4	0.9	711.333333333333	1	895.6	1	588.6	1	916.2	1	583.5	0.9	1108.88888888889	0.9	609.444444444444	12	327166	3	327155	27	39	327193	-999999	327169	0	26	TrialsPROC	BP_013_BP7_BA.png	2	2	21	SessionSelectionList														target	2	Body	0-Back	19	80	17	0	0	100	1	39	91998	1	13	59	89959	-1	90583	1	624	2	2	2039	52	92011	-53	0																21												
WM080112	156637_fnca	2	1	1	-1226182481	1	75.032	75.031	2.0.10.147	2.0.10.242	2.0.10.242	1.0.0.439	7	234	2	3	Verdana	1	80	0	0	0	WM Stimuli\	1	1046.4	0.9	711.333333333333	1	895.6	1	588.6	1	916.2	1	583.5	0.9	1108.88888888889	0.9	609.444444444444	12	327166	3	327155	27	39	327193	-999999	327169	0	26	TrialsPROC	BP_017_H12-T_BA.png	2	2	22	SessionSelectionList														nonlure	3	Body	0-Back	20	80	18	0	0	100	1	39	94557	1	13	59	92518	-1	93095	1	577	3	3	2039	52	94570	-53	0																22												
WM080112	156637_fnca	2	1	1	-1226182481	1	75.032	75.031	2.0.10.147	2.0.10.242	2.0.10.242	1.0.0.439	7	234	2	3	Verdana	1	80	0	0	0	WM Stimuli\	1	1046.4	0.9	711.333333333333	1	895.6	1	588.6	1	916.2	1	583.5	0.9	1108.88888888889	0.9	609.444444444444	12	327166	3	327155	27	39	327193	-999999	327169	0	26	TrialsPROC	BP_014_BP9_BA.png	2	2	23	SessionSelectionList														lure	3	Body	0-Back	21	80	19	0	0	90	1	39	97116	1	13	59	95077	-1	96233	0	1156	2	3	2039	52	97129	-53	0																23												
WM080112	156637_fnca	2	1	1	-1226182481	1	75.032	75.031	2.0.10.147	2.0.10.242	2.0.10.242	1.0.0.439	7	234	2	3	Verdana	1	80	0	0	0	WM Stimuli\	1	1046.4	0.9	711.333333333333	1	895.6	1	588.6	1	916.2	1	583.5	0.9	1108.88888888889	0.9	609.444444444444	12	327166	3	327155	27	39	327193	-999999	327169	0	27	Fix15secPROC	""	2	2	24	SessionSelectionList																																															5	97582	-6	0							24												
WM080112	156637_fnca	2	1	1	-1226182481	1	75.032	75.031	2.0.10.147	2.0.10.242	2.0.10.242	1.0.0.439	7	234	2	3	Verdana	1	80	0	0	0	WM Stimuli\	1	1046.4	0.9	711.333333333333	1	895.6	1	588.6	1	916.2	1	583.5	0.9	1108.88888888889	0.9	609.444444444444	12	327166	3	327155	27	39	327193	-999999	327169	0	28	Cue2BackPROC	""	2	2	25	SessionSelectionList									12	112589	-13	0																																													25												
WM080112	156637_fnca	2	1	1	-1226182481	1	75.032	75.031	2.0.10.147	2.0.10.242	2.0.10.242	1.0.0.439	7	234	2	3	Verdana	1	80	0	0	0	WM Stimuli\	1	1046.4	0.9	711.333333333333	1	895.6	1	588.6	1	916.2	1	583.5	0.9	1108.88888888889	0.9	609.444444444444	12	327166	3	327155	27	39	327193	-999999	327169	0	29	TrialsPROC	FC_015_M8.png	2	2	26	SessionSelectionList														nonlure	3	Face	2-Back	22	80	20	0	0	90	1	39	117187	2	14	71	115148	-1	116913	1	1765	3	3	2039	53	117201	-54	0																26												
WM080112	156637_fnca	2	1	1	-1226182481	1	75.032	75.031	2.0.10.147	2.0.10.242	2.0.10.242	1.0.0.439	7	234	2	3	Verdana	1	80	0	0	0	WM Stimuli\	1	1046.4	0.9	711.333333333333	1	895.6	1	588.6	1	916.2	1	583.5	0.9	1108.88888888889	0.9	609.444444444444	12	327166	3	327155	27	39	327193	-999999	327169	0	29	TrialsPROC	FC_018_F9.png	2	2	27	SessionSelectionList														nonlure	3	Face	2-Back	23	80	21	0	0	90	2	40	119760	1	13	72	117720	-1	118466	1	746	3	3	2040	53	119773	-54	0																27												
WM080112	156637_fnca	2	1	1	-1226182481	1	75.032	75.031	2.0.10.147	2.0.10.242	2.0.10.242	1.0.0.439	7	234	2	3	Verdana	1	80	0	0	0	WM Stimuli\	1	1046.4	0.9	711.333333333333	1	895.6	1	588.6	1	916.2	1	583.5	0.9	1108.88888888889	0.9	609.444444444444	12	327166	3	327155	27	39	327193	-999999	327169	0	29	TrialsPROC	FC_018_F9.png	2	2	28	SessionSelectionList														lure	3	Face	2-Back	24	80	22	0	0	90	3	39	122332	1	13	73	120293	-1	121081	1	788	3	3	2039	52	122345	-53	0																28												
WM080112	156637_fnca	2	1	1	-1226182481	1	75.032	75.031	2.0.10.147	2.0.10.242	2.0.10.242	1.0.0.439	7	234	2	3	Verdana	1	80	0	0	0	WM Stimuli\	1	1046.4	0.9	711.333333333333	1	895.6	1	588.6	1	916.2	1	583.5	0.9	1108.88888888889	0.9	609.444444444444	12	327166	3	327155	27	39	327193	-999999	327169	0	29	TrialsPROC	FC_017_M9.png	2	2	29	SessionSelectionList														nonlure	3	Face	2-Back	25	80	23	0	0	90	4	39	124904	2	14	72	122865	-1	124019	1	1154	3	3	2039	53	124918	-54	0																29												
WM080112	156637_fnca	2	1	1	-1226182481	1	75.032	75.031	2.0.10.147	2.0.10.242	2.0.10.242	1.0.0.439	7	234	2	3	Verdana	1	80	0	0	0	WM Stimuli\	1	1046.4	0.9	711.333333333333	1	895.6	1	588.6	1	916.2	1	583.5	0.9	1108.88888888889	0.9	609.444444444444	12	327166	3	327155	27	39	327193	-999999	327169	0	29	TrialsPROC	FC_017_M9.png	2	2	30	SessionSelectionList														lure	3	Face	2-Back	26	80	24	0	0	90	5	39	127476	2	14	72	125437	-1	126064	1	627	3	3	2039	53	127490	-54	0																30												
WM080112	156637_fnca	2	1	1	-1226182481	1	75.032	75.031	2.0.10.147	2.0.10.242	2.0.10.242	1.0.0.439	7	234	2	3	Verdana	1	80	0	0	0	WM Stimuli\	1	1046.4	0.9	711.333333333333	1	895.6	1	588.6	1	916.2	1	583.5	0.9	1108.88888888889	0.9	609.444444444444	12	327166	3	327155	27	39	327193	-999999	327169	0	29	TrialsPROC	FC_016_F8.png	2	2	31	SessionSelectionList														nonlure	3	Face	2-Back	27	80	25	0	0	90	6	40	130049	1	13	72	128009	-1	128836	1	827	3	3	2040	53	130062	-54	0																31												
WM080112	156637_fnca	2	1	1	-1226182481	1	75.032	75.031	2.0.10.147	2.0.10.242	2.0.10.242	1.0.0.439	7	234	2	3	Verdana	1	80	0	0	0	WM Stimuli\	1	1046.4	0.9	711.333333333333	1	895.6	1	588.6	1	916.2	1	583.5	0.9	1108.88888888889	0.9	609.444444444444	12	327166	3	327155	27	39	327193	-999999	327169	0	29	TrialsPROC	FC_013_M7.png	2	2	32	SessionSelectionList														nonlure	3	Face	2-Back	28	80	26	0	0	90	7	39	132621	1	14	73	130582	-1	131587	1	1005	3	3	2039	53	132635	-54	0																32												
WM080112	156637_fnca	2	1	1	-1226182481	1	75.032	75.031	2.0.10.147	2.0.10.242	2.0.10.242	1.0.0.439	7	234	2	3	Verdana	1	80	0	0	0	WM Stimuli\	1	1046.4	0.9	711.333333333333	1	895.6	1	588.6	1	916.2	1	583.5	0.9	1108.88888888889	0.9	609.444444444444	12	327166	3	327155	27	39	327193	-999999	327169	0	29	TrialsPROC	FC_014_F7.png	2	2	33	SessionSelectionList														nonlure	3	Face	2-Back	29	80	27	0	0	90	8	39	135193	2	14	72	133154	-1	133917	1	763	3	3	2039	53	135207	-54	0																33												
WM080112	156637_fnca	2	1	1	-1226182481	1	75.032	75.031	2.0.10.147	2.0.10.242	2.0.10.242	1.0.0.439	7	234	2	3	Verdana	1	80	0	0	0	WM Stimuli\	1	1046.4	0.9	711.333333333333	1	895.6	1	588.6	1	916.2	1	583.5	0.9	1108.88888888889	0.9	609.444444444444	12	327166	3	327155	27	39	327193	-999999	327169	0	29	TrialsPROC	FC_013_M7.png	2	2	34	SessionSelectionList														target	2	Face	2-Back	30	80	28	0	0	90	1	39	137765	2	14	72	135726	-1	136181	1	455	2	2	2039	53	137779	-54	0																34												
WM080112	156637_fnca	2	1	1	-1226182481	1	75.032	75.031	2.0.10.147	2.0.10.242	2.0.10.242	1.0.0.439	7	234	2	3	Verdana	1	80	0	0	0	WM Stimuli\	1	1046.4	0.9	711.333333333333	1	895.6	1	588.6	1	916.2	1	583.5	0.9	1108.88888888889	0.9	609.444444444444	12	327166	3	327155	27	39	327193	-999999	327169	0	29	TrialsPROC	FC_014_F7.png	2	2	35	SessionSelectionList														target	2	Face	2-Back	31	80	29	0	0	90	2	40	140338	1	13	72	138298	-1	139124	1	826	2	2	2040	53	140351	-54	0																35												
WM080112	156637_fnca	2	1	1	-1226182481	1	75.032	75.031	2.0.10.147	2.0.10.242	2.0.10.242	1.0.0.439	7	234	2	3	Verdana	1	80	0	0	0	WM Stimuli\	1	1046.4	0.9	711.333333333333	1	895.6	1	588.6	1	916.2	1	583.5	0.9	1108.88888888889	0.9	609.444444444444	12	327166	3	327155	27	39	327193	-999999	327169	0	30	Cue0BackPROC	TO_019_TOOL19_BA.png	2	2	36	SessionSelectionList																																										19	140817	-20	0												36												
WM080112	156637_fnca	2	1	1	-1226182481	1	75.032	75.031	2.0.10.147	2.0.10.242	2.0.10.242	1.0.0.439	7	234	2	3	Verdana	1	80	0	0	0	WM Stimuli\	1	1046.4	0.9	711.333333333333	1	895.6	1	588.6	1	916.2	1	583.5	0.9	1108.88888888889	0.9	609.444444444444	12	327166	3	327155	27	39	327193	-999999	327169	0	31	TrialsPROC	TO_019_TOOL19_BA.png	2	2	37	SessionSelectionList														target	2	Tools	0-Back	32	80	29	0	1	82	2	39	145389	1	14	52	143350	-1	0	0	0	""	2	2039	53	145403	-54	0																37												
WM080112	156637_fnca	2	1	1	-1226182481	1	75.032	75.031	2.0.10.147	2.0.10.242	2.0.10.242	1.0.0.439	7	234	2	3	Verdana	1	80	0	0	0	WM Stimuli\	1	1046.4	0.9	711.333333333333	1	895.6	1	588.6	1	916.2	1	583.5	0.9	1108.88888888889	0.9	609.444444444444	12	327166	3	327155	27	39	327193	-999999	327169	0	31	TrialsPROC	TO_024_TOOL24_BA.png	2	2	38	SessionSelectionList														nonlure	3	Tools	0-Back	33	80	30	0	0	83	1	39	147948	1	13	59	145909	-1	146759	1	850	3	3	2039	52	147961	-53	0																38												
WM080112	156637_fnca	2	1	1	-1226182481	1	75.032	75.031	2.0.10.147	2.0.10.242	2.0.10.242	1.0.0.439	7	234	2	3	Verdana	1	80	0	0	0	WM Stimuli\	1	1046.4	0.9	711.333333333333	1	895.6	1	588.6	1	916.2	1	583.5	0.9	1108.88888888889	0.9	609.444444444444	12	327166	3	327155	27	39	327193	-999999	327169	0	31	TrialsPROC	TO_019_TOOL19_BA.png	2	2	39	SessionSelectionList														target	2	Tools	0-Back	34	80	31	0	0	85	1	39	150507	1	13	59	148468	-1	149036	1	568	2	2	2039	52	150520	-53	0																39												
WM080112	156637_fnca	2	1	1	-1226182481	1	75.032	75.031	2.0.10.147	2.0.10.242	2.0.10.242	1.0.0.439	7	234	2	3	Verdana	1	80	0	0	0	WM Stimuli\	1	1046.4	0.9	711.333333333333	1	895.6	1	588.6	1	916.2	1	583.5	0.9	1108.88888888889	0.9	609.444444444444	12	327166	3	327155	27	39	327193	-999999	327169	0	31	TrialsPROC	TO_023_TOOL23_BA.png	2	2	40	SessionSelectionList														nonlure	3	Tools	0-Back	35	80	32	0	0	86	1	39	153066	1	13	59	151027	-1	151633	1	606	3	3	2039	52	153079	-53	0																40												
WM080112	156637_fnca	2	1	1	-1226182481	1	75.032	75.031	2.0.10.147	2.0.10.242	2.0.10.242	1.0.0.439	7	234	2	3	Verdana	1	80	0	0	0	WM Stimuli\	1	1046.4	0.9	711.333333333333	1	895.6	1	588.6	1	916.2	1	583.5	0.9	1108.88888888889	0.9	609.444444444444	12	327166	3	327155	27	39	327193	-999999	327169	0	31	TrialsPROC	TO_020_TOOL20_BA.png	2	2	41	SessionSelectionList														nonlure	3	Tools	0-Back	36	80	33	0	0	87	2	40	155625	1	13	58	153585	-1	154011	1	426	3	3	2040	53	155638	-54	0																41												
WM080112	156637_fnca	2	1	1	-1226182481	1	75.032	75.031	2.0.10.147	2.0.10.242	2.0.10.242	1.0.0.439	7	234	2	3	Verdana	1	80	0	0	0	WM Stimuli\	1	1046.4	0.9	711.333333333333	1	895.6	1	588.6	1	916.2	1	583.5	0.9	1108.88888888889	0.9	609.444444444444	12	327166	3	327155	27	39	327193	-999999	327169	0	31	TrialsPROC	TO_020_TOOL20_BA.png	2	2	42	SessionSelectionList														lure	3	Tools	0-Back	37	80	34	0	0	88	3	39	158183	2	14	59	156144	-1	156741	1	597	3	3	2039	53	158197	-54	0																42												
WM080112	156637_fnca	2	1	1	-1226182481	1	75.032	75.031	2.0.10.147	2.0.10.242	2.0.10.242	1.0.0.439	7	234	2	3	Verdana	1	80	0	0	0	WM Stimuli\	1	1046.4	0.9	711.333333333333	1	895.6	1	588.6	1	916.2	1	583.5	0.9	1108.88888888889	0.9	609.444444444444	12	327166	3	327155	27	39	327193	-999999	327169	0	31	TrialsPROC	TO_022_TOOL22_BA.png	2	2	43	SessionSelectionList														nonlure	3	Tools	0-Back	38	80	35	0	0	88	4	39	160742	2	14	59	158703	-1	159578	1	875	3	3	2039	53	160756	-54	0																43												
WM080112	156637_fnca	2	1	1	-1226182481	1	75.032	75.031	2.0.10.147	2.0.10.242	2.0.10.242	1.0.0.439	7	234	2	3	Verdana	1	80	0	0	0	WM Stimuli\	1	1046.4	0.9	711.333333333333	1	895.6	1	588.6	1	916.2	1	583.5	0.9	1108.88888888889	0.9	609.444444444444	12	327166	3	327155	27	39	327193	-999999	327169	0	31	TrialsPROC	TO_022_TOOL22_BA.png	2	2	44	SessionSelectionList														lure	3	Tools	0-Back	39	80	36	0	0	89	5	39	163301	2	14	59	161262	-1	161743	1	481	3	3	2039	53	163315	-54	0																44												
WM080112	156637_fnca	2	1	1	-1226182481	1	75.032	75.031	2.0.10.147	2.0.10.242	2.0.10.242	1.0.0.439	7	234	2	3	Verdana	1	80	0	0	0	WM Stimuli\	1	1046.4	0.9	711.333333333333	1	895.6	1	588.6	1	916.2	1	583.5	0.9	1108.88888888889	0.9	609.444444444444	12	327166	3	327155	27	39	327193	-999999	327169	0	31	TrialsPROC	TO_021_TOOL21_BA.png	2	2	45	SessionSelectionList														nonlure	3	Tools	0-Back	40	80	37	0	0	89	6	39	165860	2	14	59	163821	-1	164371	1	550	3	3	2039	53	165874	-54	0																45												
WM080112	156637_fnca	2	1	1	-1226182481	1	75.032	75.031	2.0.10.147	2.0.10.242	2.0.10.242	1.0.0.439	7	234	2	3	Verdana	1	80	0	0	0	WM Stimuli\	1	1046.4	0.9	711.333333333333	1	895.6	1	588.6	1	916.2	1	583.5	0.9	1108.88888888889	0.9	609.444444444444	12	327166	3	327155	27	39	327193	-999999	327169	0	31	TrialsPROC	TO_021_TOOL21_BA.png	2	2	46	SessionSelectionList														lure	3	Tools	0-Back	41	80	38	0	0	90	7	39	168419	2	14	59	166380	-1	166912	1	532	3	3	2039	53	168433	-54	0																46												
WM080112	156637_fnca	2	1	1	-1226182481	1	75.032	75.031	2.0.10.147	2.0.10.242	2.0.10.242	1.0.0.439	7	234	2	3	Verdana	1	80	0	0	0	WM Stimuli\	1	1046.4	0.9	711.333333333333	1	895.6	1	588.6	1	916.2	1	583.5	0.9	1108.88888888889	0.9	609.444444444444	12	327166	3	327155	27	39	327193	-999999	327169	0	32	Fix15secPROC	""	2	2	47	SessionSelectionList																																															6	168886	-7	0							47												
WM080112	156637_fnca	2	1	1	-1226182481	1	75.032	75.031	2.0.10.147	2.0.10.242	2.0.10.242	1.0.0.439	7	234	2	3	Verdana	1	80	0	0	0	WM Stimuli\	1	1046.4	0.9	711.333333333333	1	895.6	1	588.6	1	916.2	1	583.5	0.9	1108.88888888889	0.9	609.444444444444	12	327166	3	327155	27	39	327193	-999999	327169	0	33	Cue2BackPROC	""	2	2	48	SessionSelectionList									13	183893	-14	0																																													48												
WM080112	156637_fnca	2	1	1	-1226182481	1	75.032	75.031	2.0.10.147	2.0.10.242	2.0.10.242	1.0.0.439	7	234	2	3	Verdana	1	80	0	0	0	WM Stimuli\	1	1046.4	0.9	711.333333333333	1	895.6	1	588.6	1	916.2	1	583.5	0.9	1108.88888888889	0.9	609.444444444444	12	327166	3	327155	27	39	327193	-999999	327169	0	34	TrialsPROC	BP_020_H17-T_BA.png	2	2	49	SessionSelectionList														nonlure	3	Body	2-Back	42	80	39	0	0	90	8	39	188491	1	14	72	186452	-1	187151	1	699	3	3	2039	53	188505	-54	0																49												
WM080112	156637_fnca	2	1	1	-1226182481	1	75.032	75.031	2.0.10.147	2.0.10.242	2.0.10.242	1.0.0.439	7	234	2	3	Verdana	1	80	0	0	0	WM Stimuli\	1	1046.4	0.9	711.333333333333	1	895.6	1	588.6	1	916.2	1	583.5	0.9	1108.88888888889	0.9	609.444444444444	12	327166	3	327155	27	39	327193	-999999	327169	0	34	TrialsPROC	BP_019_H14-T_BA.png	2	2	50	SessionSelectionList														nonlure	3	Body	2-Back	43	80	40	0	0	90	9	39	191050	1	13	59	189011	-1	189746	1	735	3	3	2039	52	191063	-53	0																50												
WM080112	156637_fnca	2	1	1	-1226182481	1	75.032	75.031	2.0.10.147	2.0.10.242	2.0.10.242	1.0.0.439	7	234	2	3	Verdana	1	80	0	0	0	WM Stimuli\	1	1046.4	0.9	711.333333333333	1	895.6	1	588.6	1	916.2	1	583.5	0.9	1108.88888888889	0.9	609.444444444444	12	327166	3	327155	27	39	327193	-999999	327169	0	34	TrialsPROC	BP_020_H17-T_BA.png	2	2	51	SessionSelectionList														target	2	Body	2-Back	44	80	41	0	0	90	1	39	193609	1	13	59	191570	-1	192076	1	506	2	2	2039	52	193622	-53	0																51												
WM080112	156637_fnca	2	1	1	-1226182481	1	75.032	75.031	2.0.10.147	2.0.10.242	2.0.10.242	1.0.0.439	7	234	2	3	Verdana	1	80	0	0	0	WM Stimuli\	1	1046.4	0.9	711.333333333333	1	895.6	1	588.6	1	916.2	1	583.5	0.9	1108.88888888889	0.9	609.444444444444	12	327166	3	327155	27	39	327193	-999999	327169	0	34	TrialsPROC	BP_019_H14-T_BA.png	2	2	52	SessionSelectionList														target	2	Body	2-Back	45	80	42	0	0	90	2	39	196168	1	13	59	194129	-1	195603	1	1474	2	2	2039	52	196181	-53	0																52												
WM080112	156637_fnca	2	1	1	-1226182481	1	75.032	75.031	2.0.10.147	2.0.10.242	2.0.10.242	1.0.0.439	7	234	2	3	Verdana	1	80	0	0	0	WM Stimuli\	1	1046.4	0.9	711.333333333333	1	895.6	1	588.6	1	916.2	1	583.5	0.9	1108.88888888889	0.9	609.444444444444	12	327166	3	327155	27	39	327193	-999999	327169	0	34	TrialsPROC	BP_024_H3-T_BA.png	2	2	53	SessionSelectionList														nonlure	3	Body	2-Back	46	80	43	0	0	90	1	40	198767	1	13	98	196727	-1	198013	1	1286	3	3	2040	53	198780	-54	0																53												
WM080112	156637_fnca	2	1	1	-1226182481	1	75.032	75.031	2.0.10.147	2.0.10.242	2.0.10.242	1.0.0.439	7	234	2	3	Verdana	1	80	0	0	0	WM Stimuli\	1	1046.4	0.9	711.333333333333	1	895.6	1	588.6	1	916.2	1	583.5	0.9	1108.88888888889	0.9	609.444444444444	12	327166	3	327155	27	39	327193	-999999	327169	0	34	TrialsPROC	BP_024_H3-T_BA.png	2	2	54	SessionSelectionList														lure	3	Body	2-Back	47	80	44	0	0	90	2	38	201325	2	14	60	199287	-1	200278	1	991	3	3	2038	52	201339	-53	0																54												
WM080112	156637_fnca	2	1	1	-1226182481	1	75.032	75.031	2.0.10.147	2.0.10.242	2.0.10.242	1.0.0.439	7	234	2	3	Verdana	1	80	0	0	0	WM Stimuli\	1	1046.4	0.9	711.333333333333	1	895.6	1	588.6	1	916.2	1	583.5	0.9	1108.88888888889	0.9	609.444444444444	12	327166	3	327155	27	39	327193	-999999	327169	0	34	TrialsPROC	BP_025_H5-T_BA.png	2	2	55	SessionSelectionList														nonlure	3	Body	2-Back	48	80	45	0	0	90	3	39	203898	1	14	72	201859	-1	203704	1	1845	3	3	2039	53	203912	-54	0																55												
WM080112	156637_fnca	2	1	1	-1226182481	1	75.032	75.031	2.0.10.147	2.0.10.242	2.0.10.242	1.0.0.439	7	234	2	3	Verdana	1	80	0	0	0	WM Stimuli\	1	1046.4	0.9	711.333333333333	1	895.6	1	588.6	1	916.2	1	583.5	0.9	1108.88888888889	0.9	609.444444444444	12	327166	3	327155	27	39	327193	-999999	327169	0	34	TrialsPROC	BP_023_H25-T_BA.png	2	2	56	SessionSelectionList														nonlure	3	Body	2-Back	49	80	46	0	0	90	4	39	206497	1	13	99	204458	-1	205613	1	1155	3	3	2039	52	206510	-53	0																56												
WM080112	156637_fnca	2	1	1	-1226182481	1	75.032	75.031	2.0.10.147	2.0.10.242	2.0.10.242	1.0.0.439	7	234	2	3	Verdana	1	80	0	0	0	WM Stimuli\	1	1046.4	0.9	711.333333333333	1	895.6	1	588.6	1	916.2	1	583.5	0.9	1108.88888888889	0.9	609.444444444444	12	327166	3	327155	27	39	327193	-999999	327169	0	34	TrialsPROC	BP_022_H24-T_BA.png	2	2	57	SessionSelectionList														nonlure	3	Body	2-Back	50	80	47	0	0	90	5	39	209082	2	14	85	207043	-1	207991	1	948	3	3	2039	53	209096	-54	0																57												
WM080112	156637_fnca	2	1	1	-1226182481	1	75.032	75.031	2.0.10.147	2.0.10.242	2.0.10.242	1.0.0.439	7	234	2	3	Verdana	1	80	0	0	0	WM Stimuli\	1	1046.4	0.9	711.333333333333	1	895.6	1	588.6	1	916.2	1	583.5	0.9	1108.88888888889	0.9	609.444444444444	12	327166	3	327155	27	39	327193	-999999	327169	0	34	TrialsPROC	BP_022_H24-T_BA.png	2	2	58	SessionSelectionList														lure	3	Body	2-Back	51	80	48	0	0	90	6	39	211641	2	14	59	209602	-1	210427	1	825	3	3	2039	53	211655	-54	0																58												
WM080112	156637_fnca	2	1	1	-1226182481	1	75.032	75.031	2.0.10.147	2.0.10.242	2.0.10.242	1.0.0.439	7	234	2	3	Verdana	1	80	0	0	0	WM Stimuli\	1	1046.4	0.9	711.333333333333	1	895.6	1	588.6	1	916.2	1	583.5	0.9	1108.88888888889	0.9	609.444444444444	12	327166	3	327155	27	39	327193	-999999	327169	0	35	Cue2BackPROC	""	2	2	59	SessionSelectionList									6	212108	-7	0																																													59												
WM080112	156637_fnca	2	1	1	-1226182481	1	75.032	75.031	2.0.10.147	2.0.10.242	2.0.10.242	1.0.0.439	7	234	2	3	Verdana	1	80	0	0	0	WM Stimuli\	1	1046.4	0.9	711.333333333333	1	895.6	1	588.6	1	916.2	1	583.5	0.9	1108.88888888889	0.9	609.444444444444	12	327166	3	327155	27	39	327193	-999999	327169	0	36	TrialsPROC	PL_019_SCENE_05.png	2	2	60	SessionSelectionList														nonlure	3	Place	2-Back	52	80	49	0	0	90	7	39	216732	2	14	91	214693	-1	216176	1	1483	3	3	2039	53	216746	-54	0																60												
WM080112	156637_fnca	2	1	1	-1226182481	1	75.032	75.031	2.0.10.147	2.0.10.242	2.0.10.242	1.0.0.439	7	234	2	3	Verdana	1	80	0	0	0	WM Stimuli\	1	1046.4	0.9	711.333333333333	1	895.6	1	588.6	1	916.2	1	583.5	0.9	1108.88888888889	0.9	609.444444444444	12	327166	3	327155	27	39	327193	-999999	327169	0	36	TrialsPROC	PL_017_SCENE_03.png	2	2	61	SessionSelectionList														nonlure	3	Place	2-Back	53	80	50	0	0	90	8	39	219331	2	14	99	217292	-1	218098	1	806	3	3	2039	53	219345	-54	0																61												
WM080112	156637_fnca	2	1	1	-1226182481	1	75.032	75.031	2.0.10.147	2.0.10.242	2.0.10.242	1.0.0.439	7	234	2	3	Verdana	1	80	0	0	0	WM Stimuli\	1	1046.4	0.9	711.333333333333	1	895.6	1	588.6	1	916.2	1	583.5	0.9	1108.88888888889	0.9	609.444444444444	12	327166	3	327155	27	39	327193	-999999	327169	0	36	TrialsPROC	PL_017_SCENE_03.png	2	2	62	SessionSelectionList														lure	3	Place	2-Back	54	80	51	0	0	90	9	40	221904	1	13	72	219864	-1	220681	1	817	3	3	2040	53	221917	-54	0																62												
WM080112	156637_fnca	2	1	1	-1226182481	1	75.032	75.031	2.0.10.147	2.0.10.242	2.0.10.242	1.0.0.439	7	234	2	3	Verdana	1	80	0	0	0	WM Stimuli\	1	1046.4	0.9	711.333333333333	1	895.6	1	588.6	1	916.2	1	583.5	0.9	1108.88888888889	0.9	609.444444444444	12	327166	3	327155	27	39	327193	-999999	327169	0	36	TrialsPROC	PL_016_SCENE_02.png	2	2	63	SessionSelectionList														nonlure	3	Place	2-Back	55	80	52	0	0	90	10	39	224502	2	14	99	222463	-1	223656	1	1193	3	3	2039	53	224516	-54	0																63												
WM080112	156637_fnca	2	1	1	-1226182481	1	75.032	75.031	2.0.10.147	2.0.10.242	2.0.10.242	1.0.0.439	7	234	2	3	Verdana	1	80	0	0	0	WM Stimuli\	1	1046.4	0.9	711.333333333333	1	895.6	1	588.6	1	916.2	1	583.5	0.9	1108.88888888889	0.9	609.444444444444	12	327166	3	327155	27	39	327193	-999999	327169	0	36	TrialsPROC	PL_015_SCENE_01.png	2	2	64	SessionSelectionList														nonlure	3	Place	2-Back	56	80	53	0	0	90	11	39	227101	2	14	99	225062	-1	225858	1	796	3	3	2039	53	227115	-54	0																64												
WM080112	156637_fnca	2	1	1	-1226182481	1	75.032	75.031	2.0.10.147	2.0.10.242	2.0.10.242	1.0.0.439	7	234	2	3	Verdana	1	80	0	0	0	WM Stimuli\	1	1046.4	0.9	711.333333333333	1	895.6	1	588.6	1	916.2	1	583.5	0.9	1108.88888888889	0.9	609.444444444444	12	327166	3	327155	27	39	327193	-999999	327169	0	36	TrialsPROC	PL_016_SCENE_02.png	2	2	65	SessionSelectionList														target	2	Place	2-Back	57	80	54	0	0	90	1	39	229674	2	13	73	227635	-1	228232	1	597	2	2	2039	52	229687	-53	0																65												
WM080112	156637_fnca	2	1	1	-1226182481	1	75.032	75.031	2.0.10.147	2.0.10.242	2.0.10.242	1.0.0.439	7	234	2	3	Verdana	1	80	0	0	0	WM Stimuli\	1	1046.4	0.9	711.333333333333	1	895.6	1	588.6	1	916.2	1	583.5	0.9	1108.88888888889	0.9	609.444444444444	12	327166	3	327155	27	39	327193	-999999	327169	0	36	TrialsPROC	PL_015_SCENE_01.png	2	2	66	SessionSelectionList														target	2	Place	2-Back	58	80	55	0	0	90	2	39	232246	1	14	72	230207	-1	231214	1	1007	2	2	2039	53	232260	-54	0																66												
WM080112	156637_fnca	2	1	1	-1226182481	1	75.032	75.031	2.0.10.147	2.0.10.242	2.0.10.242	1.0.0.439	7	234	2	3	Verdana	1	80	0	0	0	WM Stimuli\	1	1046.4	0.9	711.333333333333	1	895.6	1	588.6	1	916.2	1	583.5	0.9	1108.88888888889	0.9	609.444444444444	12	327166	3	327155	27	39	327193	-999999	327169	0	36	TrialsPROC	PL_020_SCENE_06.png	2	2	67	SessionSelectionList														nonlure	3	Place	2-Back	59	80	56	0	0	90	1	39	234845	1	14	99	232806	-1	233827	1	1021	3	3	2039	53	234859	-54	0																67												
WM080112	156637_fnca	2	1	1	-1226182481	1	75.032	75.031	2.0.10.147	2.0.10.242	2.0.10.242	1.0.0.439	7	234	2	3	Verdana	1	80	0	0	0	WM Stimuli\	1	1046.4	0.9	711.333333333333	1	895.6	1	588.6	1	916.2	1	583.5	0.9	1108.88888888889	0.9	609.444444444444	12	327166	3	327155	27	39	327193	-999999	327169	0	36	TrialsPROC	PL_020_SCENE_06.png	2	2	68	SessionSelectionList														lure	3	Place	2-Back	60	80	57	0	0	90	2	39	237417	2	14	72	235378	-1	236331	1	953	3	3	2039	53	237431	-54	0																68												
WM080112	156637_fnca	2	1	1	-1226182481	1	75.032	75.031	2.0.10.147	2.0.10.242	2.0.10.242	1.0.0.439	7	234	2	3	Verdana	1	80	0	0	0	WM Stimuli\	1	1046.4	0.9	711.333333333333	1	895.6	1	588.6	1	916.2	1	583.5	0.9	1108.88888888889	0.9	609.444444444444	12	327166	3	327155	27	39	327193	-999999	327169	0	36	TrialsPROC	PL_018_SCENE_04.png	2	2	69	SessionSelectionList														nonlure	3	Place	2-Back	61	80	58	0	0	90	3	39	240016	1	14	99	237977	-1	238466	1	489	3	3	2039	53	240030	-54	0																69												
WM080112	156637_fnca	2	1	1	-1226182481	1	75.032	75.031	2.0.10.147	2.0.10.242	2.0.10.242	1.0.0.439	7	234	2	3	Verdana	1	80	0	0	0	WM Stimuli\	1	1046.4	0.9	711.333333333333	1	895.6	1	588.6	1	916.2	1	583.5	0.9	1108.88888888889	0.9	609.444444444444	12	327166	3	327155	27	39	327193	-999999	327169	0	37	Fix15secPROC	""	2	2	70	SessionSelectionList																																															6	240483	-7	0							70												
WM080112	156637_fnca	2	1	1	-1226182481	1	75.032	75.031	2.0.10.147	2.0.10.242	2.0.10.242	1.0.0.439	7	234	2	3	Verdana	1	80	0	0	0	WM Stimuli\	1	1046.4	0.9	711.333333333333	1	895.6	1	588.6	1	916.2	1	583.5	0.9	1108.88888888889	0.9	609.444444444444	12	327166	3	327155	27	39	327193	-999999	327169	0	38	Cue0BackPROC	FC_020_F10.png	2	2	71	SessionSelectionList																																										53	255530	-54	0												71												
WM080112	156637_fnca	2	1	1	-1226182481	1	75.032	75.031	2.0.10.147	2.0.10.242	2.0.10.242	1.0.0.439	7	234	2	3	Verdana	1	80	0	0	0	WM Stimuli\	1	1046.4	0.9	711.333333333333	1	895.6	1	588.6	1	916.2	1	583.5	0.9	1108.88888888889	0.9	609.444444444444	12	327166	3	327155	27	39	327193	-999999	327169	0	39	TrialsPROC	FC_024_F12.png	2	2	72	SessionSelectionList														nonlure	3	Face	0-Back	62	80	59	0	0	90	4	39	260114	2	14	98	258075	-1	258745	1	670	3	3	2039	53	260128	-54	0																72												
WM080112	156637_fnca	2	1	1	-1226182481	1	75.032	75.031	2.0.10.147	2.0.10.242	2.0.10.242	1.0.0.439	7	234	2	3	Verdana	1	80	0	0	0	WM Stimuli\	1	1046.4	0.9	711.333333333333	1	895.6	1	588.6	1	916.2	1	583.5	0.9	1108.88888888889	0.9	609.444444444444	12	327166	3	327155	27	39	327193	-999999	327169	0	39	TrialsPROC	FC_023_M12.png	2	2	73	SessionSelectionList														nonlure	3	Face	0-Back	63	80	60	0	0	91	5	39	262700	1	14	86	260661	-1	261144	1	483	3	3	2039	53	262714	-54	0																73												
WM080112	156637_fnca	2	1	1	-1226182481	1	75.032	75.031	2.0.10.147	2.0.10.242	2.0.10.242	1.0.0.439	7	234	2	3	Verdana	1	80	0	0	0	WM Stimuli\	1	1046.4	0.9	711.333333333333	1	895.6	1	588.6	1	916.2	1	583.5	0.9	1108.88888888889	0.9	609.444444444444	12	327166	3	327155	27	39	327193	-999999	327169	0	39	TrialsPROC	FC_020_F10.png	2	2	74	SessionSelectionList														target	2	Face	0-Back	64	80	61	0	0	91	1	39	265272	2	14	72	263233	-1	263907	1	674	2	2	2039	53	265286	-54	0																74												
WM080112	156637_fnca	2	1	1	-1226182481	1	75.032	75.031	2.0.10.147	2.0.10.242	2.0.10.242	1.0.0.439	7	234	2	3	Verdana	1	80	0	0	0	WM Stimuli\	1	1046.4	0.9	711.333333333333	1	895.6	1	588.6	1	916.2	1	583.5	0.9	1108.88888888889	0.9	609.444444444444	12	327166	3	327155	27	39	327193	-999999	327169	0	39	TrialsPROC	FC_024_F12.png	2	2	75	SessionSelectionList														lure	3	Face	0-Back	65	80	62	0	0	92	1	39	267844	2	14	72	265805	-1	266565	1	760	3	3	2039	53	267858	-54	0																75												
WM080112	156637_fnca	2	1	1	-1226182481	1	75.032	75.031	2.0.10.147	2.0.10.242	2.0.10.242	1.0.0.439	7	234	2	3	Verdana	1	80	0	0	0	WM Stimuli\	1	1046.4	0.9	711.333333333333	1	895.6	1	588.6	1	916.2	1	583.5	0.9	1108.88888888889	0.9	609.444444444444	12	327166	3	327155	27	39	327193	-999999	327169	0	39	TrialsPROC	FC_020_F10.png	2	2	76	SessionSelectionList														target	2	Face	0-Back	66	80	63	0	0	92	1	39	270417	1	13	73	268378	-1	268858	1	480	2	2	2039	52	270430	-53	0																76												
WM080112	156637_fnca	2	1	1	-1226182481	1	75.032	75.031	2.0.10.147	2.0.10.242	2.0.10.242	1.0.0.439	7	234	2	3	Verdana	1	80	0	0	0	WM Stimuli\	1	1046.4	0.9	711.333333333333	1	895.6	1	588.6	1	916.2	1	583.5	0.9	1108.88888888889	0.9	609.444444444444	12	327166	3	327155	27	39	327193	-999999	327169	0	39	TrialsPROC	FC_022_F11.png	2	2	77	SessionSelectionList														nonlure	3	Face	0-Back	67	80	64	0	0	92	1	40	273016	1	13	98	270976	-1	271459	1	483	3	3	2040	53	273029	-54	0																77												
WM080112	156637_fnca	2	1	1	-1226182481	1	75.032	75.031	2.0.10.147	2.0.10.242	2.0.10.242	1.0.0.439	7	234	2	3	Verdana	1	80	0	0	0	WM Stimuli\	1	1046.4	0.9	711.333333333333	1	895.6	1	588.6	1	916.2	1	583.5	0.9	1108.88888888889	0.9	609.444444444444	12	327166	3	327155	27	39	327193	-999999	327169	0	39	TrialsPROC	FC_023_M12.png	2	2	78	SessionSelectionList														lure	3	Face	0-Back	68	80	65	0	0	93	2	39	275588	1	14	73	273549	-1	274350	1	801	3	3	2039	53	275602	-54	0																78												
WM080112	156637_fnca	2	1	1	-1226182481	1	75.032	75.031	2.0.10.147	2.0.10.242	2.0.10.242	1.0.0.439	7	234	2	3	Verdana	1	80	0	0	0	WM Stimuli\	1	1046.4	0.9	711.333333333333	1	895.6	1	588.6	1	916.2	1	583.5	0.9	1108.88888888889	0.9	609.444444444444	12	327166	3	327155	27	39	327193	-999999	327169	0	39	TrialsPROC	FC_021_M11.png	2	2	79	SessionSelectionList														nonlure	3	Face	0-Back	69	80	66	0	0	93	3	39	278187	1	13	99	276148	-1	276859	1	711	3	3	2039	52	278200	-53	0																79												
WM080112	156637_fnca	2	1	1	-1226182481	1	75.032	75.031	2.0.10.147	2.0.10.242	2.0.10.242	1.0.0.439	7	234	2	3	Verdana	1	80	0	0	0	WM Stimuli\	1	1046.4	0.9	711.333333333333	1	895.6	1	588.6	1	916.2	1	583.5	0.9	1108.88888888889	0.9	609.444444444444	12	327166	3	327155	27	39	327193	-999999	327169	0	39	TrialsPROC	FC_021_M11.png	2	2	80	SessionSelectionList														lure	3	Face	0-Back	70	80	67	0	0	93	4	39	280759	1	14	72	278720	-1	279111	1	391	3	3	2039	53	280773	-54	0																80												
WM080112	156637_fnca	2	1	1	-1226182481	1	75.032	75.031	2.0.10.147	2.0.10.242	2.0.10.242	1.0.0.439	7	234	2	3	Verdana	1	80	0	0	0	WM Stimuli\	1	1046.4	0.9	711.333333333333	1	895.6	1	588.6	1	916.2	1	583.5	0.9	1108.88888888889	0.9	609.444444444444	12	327166	3	327155	27	39	327193	-999999	327169	0	39	TrialsPROC	FC_019_M10.png	2	2	81	SessionSelectionList														nonlure	3	Face	0-Back	71	80	68	0	0	93	5	39	283358	1	14	99	281319	-1	281752	1	433	3	3	2039	53	283372	-54	0																81												
WM080112	156637_fnca	2	1	1	-1226182481	1	75.032	75.031	2.0.10.147	2.0.10.242	2.0.10.242	1.0.0.439	7	234	2	3	Verdana	1	80	0	0	0	WM Stimuli\	1	1046.4	0.9	711.333333333333	1	895.6	1	588.6	1	916.2	1	583.5	0.9	1108.88888888889	0.9	609.444444444444	12	327166	3	327155	27	39	327193	-999999	327169	0	40	Cue0BackPROC	PL_021_SCENE_07.png	2	2	82	SessionSelectionList																																										45	283864	-46	0												82												
WM080112	156637_fnca	2	1	1	-1226182481	1	75.032	75.031	2.0.10.147	2.0.10.242	2.0.10.242	1.0.0.439	7	234	2	3	Verdana	1	80	0	0	0	WM Stimuli\	1	1046.4	0.9	711.333333333333	1	895.6	1	588.6	1	916.2	1	583.5	0.9	1108.88888888889	0.9	609.444444444444	12	327166	3	327155	27	39	327193	-999999	327169	0	41	TrialsPROC	PL_025_SCENE_18.png	2	2	83	SessionSelectionList														nonlure	3	Place	0-Back	72	80	69	0	0	94	6	39	288449	2	14	91	286410	-1	287016	1	606	3	3	2039	53	288463	-54	0																83												
WM080112	156637_fnca	2	1	1	-1226182481	1	75.032	75.031	2.0.10.147	2.0.10.242	2.0.10.242	1.0.0.439	7	234	2	3	Verdana	1	80	0	0	0	WM Stimuli\	1	1046.4	0.9	711.333333333333	1	895.6	1	588.6	1	916.2	1	583.5	0.9	1108.88888888889	0.9	609.444444444444	12	327166	3	327155	27	39	327193	-999999	327169	0	41	TrialsPROC	PL_026_SCENE_24.png	2	2	84	SessionSelectionList														nonlure	3	Place	0-Back	73	80	70	0	0	94	7	39	291035	1	13	86	288996	-1	289433	1	437	3	3	2039	52	291048	-53	0																84												
WM080112	156637_fnca	2	1	1	-1226182481	1	75.032	75.031	2.0.10.147	2.0.10.242	2.0.10.242	1.0.0.439	7	234	2	3	Verdana	1	80	0	0	0	WM Stimuli\	1	1046.4	0.9	711.333333333333	1	895.6	1	588.6	1	916.2	1	583.5	0.9	1108.88888888889	0.9	609.444444444444	12	327166	3	327155	27	39	327193	-999999	327169	0	41	TrialsPROC	PL_025_SCENE_18.png	2	2	85	SessionSelectionList														lure	3	Place	0-Back	74	80	71	0	0	94	8	39	293607	1	14	72	291568	-1	292184	1	616	3	3	2039	53	293621	-54	0																85												
WM080112	156637_fnca	2	1	1	-1226182481	1	75.032	75.031	2.0.10.147	2.0.10.242	2.0.10.242	1.0.0.439	7	234	2	3	Verdana	1	80	0	0	0	WM Stimuli\	1	1046.4	0.9	711.333333333333	1	895.6	1	588.6	1	916.2	1	583.5	0.9	1108.88888888889	0.9	609.444444444444	12	327166	3	327155	27	39	327193	-999999	327169	0	41	TrialsPROC	PL_022_SCENE_08.png	2	2	86	SessionSelectionList														nonlure	3	Place	0-Back	75	80	72	0	0	94	9	39	296206	1	14	99	294167	-1	294851	1	684	3	3	2039	53	296220	-54	0																86												
WM080112	156637_fnca	2	1	1	-1226182481	1	75.032	75.031	2.0.10.147	2.0.10.242	2.0.10.242	1.0.0.439	7	234	2	3	Verdana	1	80	0	0	0	WM Stimuli\	1	1046.4	0.9	711.333333333333	1	895.6	1	588.6	1	916.2	1	583.5	0.9	1108.88888888889	0.9	609.444444444444	12	327166	3	327155	27	39	327193	-999999	327169	0	41	TrialsPROC	PL_026_SCENE_24.png	2	2	87	SessionSelectionList														lure	3	Place	0-Back	76	80	73	0	0	94	10	39	298778	2	14	72	296739	-1	297152	1	413	3	3	2039	53	298792	-54	0																87												
WM080112	156637_fnca	2	1	1	-1226182481	1	75.032	75.031	2.0.10.147	2.0.10.242	2.0.10.242	1.0.0.439	7	234	2	3	Verdana	1	80	0	0	0	WM Stimuli\	1	1046.4	0.9	711.333333333333	1	895.6	1	588.6	1	916.2	1	583.5	0.9	1108.88888888889	0.9	609.444444444444	12	327166	3	327155	27	39	327193	-999999	327169	0	41	TrialsPROC	PL_021_SCENE_07.png	2	2	88	SessionSelectionList														target	2	Place	0-Back	77	80	74	0	0	94	1	39	301350	2	14	72	299311	-1	300035	1	724	2	2	2039	53	301364	-54	0																88												
WM080112	156637_fnca	2	1	1	-1226182481	1	75.032	75.031	2.0.10.147	2.0.10.242	2.0.10.242	1.0.0.439	7	234	2	3	Verdana	1	80	0	0	0	WM Stimuli\	1	1046.4	0.9	711.333333333333	1	895.6	1	588.6	1	916.2	1	583.5	0.9	1108.88888888889	0.9	609.444444444444	12	327166	3	327155	27	39	327193	-999999	327169	0	41	TrialsPROC	PL_021_SCENE_07.png	2	2	89	SessionSelectionList														target	2	Place	0-Back	78	80	75	0	0	95	2	39	303923	1	13	73	301884	-1	302469	1	585	2	2	2039	52	303936	-53	0																89												
WM080112	156637_fnca	2	1	1	-1226182481	1	75.032	75.031	2.0.10.147	2.0.10.242	2.0.10.242	1.0.0.439	7	234	2	3	Verdana	1	80	0	0	0	WM Stimuli\	1	1046.4	0.9	711.333333333333	1	895.6	1	588.6	1	916.2	1	583.5	0.9	1108.88888888889	0.9	609.444444444444	12	327166	3	327155	27	39	327193	-999999	327169	0	41	TrialsPROC	PL_023_SCENE_09.png	2	2	90	SessionSelectionList														nonlure	3	Place	0-Back	79	80	76	0	0	95	1	40	306522	1	13	98	304482	-1	305029	1	547	3	3	2040	53	306535	-54	0																90												
WM080112	156637_fnca	2	1	1	-1226182481	1	75.032	75.031	2.0.10.147	2.0.10.242	2.0.10.242	1.0.0.439	7	234	2	3	Verdana	1	80	0	0	0	WM Stimuli\	1	1046.4	0.9	711.333333333333	1	895.6	1	588.6	1	916.2	1	583.5	0.9	1108.88888888889	0.9	609.444444444444	12	327166	3	327155	27	39	327193	-999999	327169	0	41	TrialsPROC	PL_024_SCENE_10.png	2	2	91	SessionSelectionList														nonlure	3	Place	0-Back	80	80	77	0	0	95	2	40	309121	1	13	99	307081	-1	307720	1	639	3	3	2040	53	309134	-54	0																91												
WM080112	156637_fnca	2	1	1	-1226182481	1	75.032	75.031	2.0.10.147	2.0.10.242	2.0.10.242	1.0.0.439	7	234	2	3	Verdana	1	80	0	0	0	WM Stimuli\	1	1046.4	0.9	711.333333333333	1	895.6	1	588.6	1	916.2	1	583.5	0.9	1108.88888888889	0.9	609.444444444444	12	327166	3	327155	27	39	327193	-999999	327169	0	41	TrialsPROC	PL_022_SCENE_08.png	2	2	92	SessionSelectionList														lure	3	Place	0-Back	80	80	78	0	0	95	3	39	311693	1	13	73	309654	-1	310238	1	584	3	3	2039	52	311706	-53	0																92												
WM080112	156637_fnca	2	1	1	-1226182481	1	75.032	75.031	2.0.10.147	2.0.10.242	2.0.10.242	1.0.0.439	7	234	2	3	Verdana	1	80	0	0	0	WM Stimuli\	1	1046.4	0.9	711.333333333333	1	895.6	1	588.6	1	916.2	1	583.5	0.9	1108.88888888889	0.9	609.444444444444	12	327166	3	327155	27	39	327193	-999999	327169	0	42	Fix15secPROC	""	2	2	93	SessionSelectionList																																															6	312160	-7	0							93												
