ExperimentName	HCPID	RunNumber	Subject	Session	RandomSeed	Group	Laptop.RefreshRate	ScannerD2.RefreshRate	StudioVersion	RuntimeVersion	RuntimeVersionExpected	ExperimentVersion	triggercode	Allowed	Target	Nontarget	FontStyle	RunTrialNumber[Session]	TrialsPerRun[Session]	TotalRespGreater200[Session]	ConsecRTLess200[Session]	ConsecNonResp[Session]	StimuliDir	ACC_2_Back_Body	Avg_RT_For_Correct_Trials_2_Back_Body	ACC_0_Back_Body	Avg_RT_For_Correct_Trials_0_Back_Body	ACC_2_Back_Face	Avg_RT_For_Correct_Trials_2_Back_Face	ACC_0_Back_Face	Avg_RT_For_Correct_Trials_0_Back_Face	ACC_2_Back_Place	Avg_RT_For_Correct_Trials_2_Back_Place	ACC_0_Back_Place	Avg_RT_For_Correct_Trials_0_Back_Place	ACC_2_Back_Tools	Avg_RT_For_Correct_Trials_2_Back_Tools	ACC_0_Back_Tools	Avg_RT_For_Correct_Trials_0_Back_Tools	ExpInstrucFeelFreeToRest.OnsetDelay	ExpInstrucFeelFreeToRest.OnsetTime	ExpInstrucFeelFreeToRest.DurationError	ExpInstrucFeelFreeToRest.StartTime	ExpInstrucFeelFreeToRest.OnsetToOnsetTime	FeelFreeToRest.OnsetDelay	FeelFreeToRest.OnsetTime	FeelFreeToRest.DurationError	FeelFreeToRest.StartTime	FeelFreeToRest.OnsetToOnsetTime	SessionSelectionList	Procedure[Block]	Stimulus[Block]	RunNumberFilterValue	SessionSelectionList.Cycle	SessionSelectionList.Sample	Running[Block]	IntroButtonMap.OnsetDelay	IntroButtonMap.OnsetTime	IntroButtonMap.DurationError	IntroButtonMap.OnsetToOnsetTime	GetReady.OnsetDelay	GetReady.OnsetTime	GetReady.DurationError	GetReady.OnsetToOnsetTime	Cue2Back.OnsetDelay	Cue2Back.OnsetTime	Cue2Back.DurationError	Cue2Back.OnsetToOnsetTime	Run1Block1	TargetType	CorrectResponse	StimType	BlockType	RunTrialNumber[Block]	TrialsPerRun[Block]	TotalRespGreater200[Block]	ConsecRTLess200[Block]	ConsecNonResp[Block]	ControlAcc	ConsecSameResp	ExperimenterWindow.OnsetDelay	ExperimenterWindow.OnsetTime	ExperimenterWindow.DurationError	ExperimenterWindow.OnsetToOnsetTime	Stim.OnsetDelay	Stim.OnsetTime	Stim.DurationError	Stim.RTTime	Stim.ACC	Stim.RT	Stim.RESP	Stim.CRESP	Stim.OnsetToOnsetTime	Fix.OnsetDelay	Fix.OnsetTime	Fix.DurationError	Fix.OnsetToOnsetTime	CueTarget.OnsetDelay	CueTarget.OnsetTime	CueTarget.DurationError	CueTarget.OnsetToOnsetTime	Run1Block2	Fix15sec.OnsetDelay	Fix15sec.OnsetTime	Fix15sec.DurationError	Fix15sec.OnsetToOnsetTime	Run1Block3	Run1Block4	Run1Block5	Run1Block6	Run1Block7	Run1Block8	Block	Procedure[Trial]	Stimulus[Trial]	ReadyList	Running[Trial]	ReadyList.Cycle	ReadyList.Sample	SyncSlide.OnsetDelay	SyncSlide.OnsetTime	SyncSlide.DurationError	SyncSlide.FinishTime	SyncSlide.OnsetToOnsetTime	Trial
WM080112	148335_fnca	2	1	1	-1430186995	1	75.036	75.031	2.0.10.147	2.0.10.242	2.0.10.242	1.0.0.439	7	234	2	3	Verdana	1	80	0	0	0	WM Stimuli\	0.7	1035.85714285714	0.5	901.6	0.9	774.111111111111	0.9	581.666666666667	0.9	764.333333333333	1	749.9	0.8	806.375	1	682.7	13	341335	2	341323	14	27	341349	-999999	341338	0	22	TRSyncPROC	""	2	2	1	SessionSelectionList	99	33473	-999999	0	32	33807	-999999	0																																																	1	InitialTR	4	1	ReadyList	1	1	8	48067	-9	50058	0	1
WM080112	148335_fnca	2	1	1	-1430186995	1	75.036	75.031	2.0.10.147	2.0.10.242	2.0.10.242	1.0.0.439	7	234	2	3	Verdana	1	80	0	0	0	WM Stimuli\	0.7	1035.85714285714	0.5	901.6	0.9	774.111111111111	0.9	581.666666666667	0.9	764.333333333333	1	749.9	0.8	806.375	1	682.7	13	341335	2	341323	14	27	341349	-999999	341338	0	22	TRSyncPROC	""	2	2	1	SessionSelectionList	99	33473	-999999	0	32	33807	-999999	0																																																	1	InitialTR	3	2	ReadyList	1	2	8	50067	-9	52058	0	2
WM080112	148335_fnca	2	1	1	-1430186995	1	75.036	75.031	2.0.10.147	2.0.10.242	2.0.10.242	1.0.0.439	7	234	2	3	Verdana	1	80	0	0	0	WM Stimuli\	0.7	1035.85714285714	0.5	901.6	0.9	774.111111111111	0.9	581.666666666667	0.9	764.333333333333	1	749.9	0.8	806.375	1	682.7	13	341335	2	341323	14	27	341349	-999999	341338	0	22	TRSyncPROC	""	2	2	1	SessionSelectionList	99	33473	-999999	0	32	33807	-999999	0																																																	1	InitialTR	2	3	ReadyList	1	3	7	52066	-8	54058	0	3
WM080112	148335_fnca	2	1	1	-1430186995	1	75.036	75.031	2.0.10.147	2.0.10.242	2.0.10.242	1.0.0.439	7	234	2	3	Verdana	1	80	0	0	0	WM Stimuli\	0.7	1035.85714285714	0.5	901.6	0.9	774.111111111111	0.9	581.666666666667	0.9	764.333333333333	1	749.9	0.8	806.375	1	682.7	13	341335	2	341323	14	27	341349	-999999	341338	0	22	TRSyncPROC	""	2	2	1	SessionSelectionList	99	33473	-999999	0	32	33807	-999999	0																																																	1	InitialTR	1	4	ReadyList	1	4	6	54065	-7	56058	0	4
WM080112	148335_fnca	2	1	1	-1430186995	1	75.036	75.031	2.0.10.147	2.0.10.242	2.0.10.242	1.0.0.439	7	234	2	3	Verdana	1	80	0	0	0	WM Stimuli\	0.7	1035.85714285714	0.5	901.6	0.9	774.111111111111	0.9	581.666666666667	0.9	764.333333333333	1	749.9	0.8	806.375	1	682.7	13	341335	2	341323	14	27	341349	-999999	341338	0	23	Cue2BackPROC	""	2	2	2	SessionSelectionList									5	56064	-6	0																																													2												
WM080112	148335_fnca	2	1	1	-1430186995	1	75.036	75.031	2.0.10.147	2.0.10.242	2.0.10.242	1.0.0.439	7	234	2	3	Verdana	1	80	0	0	0	WM Stimuli\	0.7	1035.85714285714	0.5	901.6	0.9	774.111111111111	0.9	581.666666666667	0.9	764.333333333333	1	749.9	0.8	806.375	1	682.7	13	341335	2	341323	14	27	341349	-999999	341338	0	24	TrialsPROC	TO_014_TOOL14_BA.png	2	2	3	SessionSelectionList														nonlure	3	Tools	2-Back	2	80	1	0	0	0	1	53	60689	3	14	77	58636	-1	59389	1	753	3	3	2053	67	60703	-68	0																3												
WM080112	148335_fnca	2	1	1	-1430186995	1	75.036	75.031	2.0.10.147	2.0.10.242	2.0.10.242	1.0.0.439	7	234	2	3	Verdana	1	80	0	0	0	WM Stimuli\	0.7	1035.85714285714	0.5	901.6	0.9	774.111111111111	0.9	581.666666666667	0.9	764.333333333333	1	749.9	0.8	806.375	1	682.7	13	341335	2	341323	14	27	341349	-999999	341338	0	24	TrialsPROC	TO_013_TOOL13_BA.png	2	2	4	SessionSelectionList														nonlure	3	Tools	2-Back	3	80	2	0	0	0	2	40	63235	2	13	59	61195	-1	61636	1	441	3	3	2040	53	63248	-54	0																4												
WM080112	148335_fnca	2	1	1	-1430186995	1	75.036	75.031	2.0.10.147	2.0.10.242	2.0.10.242	1.0.0.439	7	234	2	3	Verdana	1	80	0	0	0	WM Stimuli\	0.7	1035.85714285714	0.5	901.6	0.9	774.111111111111	0.9	581.666666666667	0.9	764.333333333333	1	749.9	0.8	806.375	1	682.7	13	341335	2	341323	14	27	341349	-999999	341338	0	24	TrialsPROC	TO_016_TOOL16_BA.png	2	2	5	SessionSelectionList														nonlure	3	Tools	2-Back	4	80	3	0	0	0	3	40	65794	1	13	59	63754	-1	64627	1	873	3	3	2040	53	65807	-54	0																5												
WM080112	148335_fnca	2	1	1	-1430186995	1	75.036	75.031	2.0.10.147	2.0.10.242	2.0.10.242	1.0.0.439	7	234	2	3	Verdana	1	80	0	0	0	WM Stimuli\	0.7	1035.85714285714	0.5	901.6	0.9	774.111111111111	0.9	581.666666666667	0.9	764.333333333333	1	749.9	0.8	806.375	1	682.7	13	341335	2	341323	14	27	341349	-999999	341338	0	24	TrialsPROC	TO_014_TOOL14_BA.png	2	2	6	SessionSelectionList														lure	3	Tools	2-Back	5	80	4	0	0	0	4	39	68366	1	14	73	66327	-1	67787	1	1460	3	3	2039	53	68380	-54	0																6												
WM080112	148335_fnca	2	1	1	-1430186995	1	75.036	75.031	2.0.10.147	2.0.10.242	2.0.10.242	1.0.0.439	7	234	2	3	Verdana	1	80	0	0	0	WM Stimuli\	0.7	1035.85714285714	0.5	901.6	0.9	774.111111111111	0.9	581.666666666667	0.9	764.333333333333	1	749.9	0.8	806.375	1	682.7	13	341335	2	341323	14	27	341349	-999999	341338	0	24	TrialsPROC	TO_016_TOOL16_BA.png	2	2	7	SessionSelectionList														target	2	Tools	2-Back	6	80	5	0	0	0	5	39	70925	1	14	59	68886	-1	70619	0	1733	3	2	2039	53	70939	-54	0																7												
WM080112	148335_fnca	2	1	1	-1430186995	1	75.036	75.031	2.0.10.147	2.0.10.242	2.0.10.242	1.0.0.439	7	234	2	3	Verdana	1	80	0	0	0	WM Stimuli\	0.7	1035.85714285714	0.5	901.6	0.9	774.111111111111	0.9	581.666666666667	0.9	764.333333333333	1	749.9	0.8	806.375	1	682.7	13	341335	2	341323	14	27	341349	-999999	341338	0	24	TrialsPROC	TO_018_TOOL18_BA.png	2	2	8	SessionSelectionList														nonlure	3	Tools	2-Back	7	80	6	0	0	0	6	39	73484	1	14	59	71445	-1	72257	1	812	3	3	2039	53	73498	-54	0																8												
WM080112	148335_fnca	2	1	1	-1430186995	1	75.036	75.031	2.0.10.147	2.0.10.242	2.0.10.242	1.0.0.439	7	234	2	3	Verdana	1	80	0	0	0	WM Stimuli\	0.7	1035.85714285714	0.5	901.6	0.9	774.111111111111	0.9	581.666666666667	0.9	764.333333333333	1	749.9	0.8	806.375	1	682.7	13	341335	2	341323	14	27	341349	-999999	341338	0	24	TrialsPROC	TO_017_TOOL17_BA.png	2	2	9	SessionSelectionList														nonlure	3	Tools	2-Back	8	80	7	0	0	0	7	39	76043	1	13	59	74004	-1	74763	1	759	3	3	2039	52	76056	-53	0																9												
WM080112	148335_fnca	2	1	1	-1430186995	1	75.036	75.031	2.0.10.147	2.0.10.242	2.0.10.242	1.0.0.439	7	234	2	3	Verdana	1	80	0	0	0	WM Stimuli\	0.7	1035.85714285714	0.5	901.6	0.9	774.111111111111	0.9	581.666666666667	0.9	764.333333333333	1	749.9	0.8	806.375	1	682.7	13	341335	2	341323	14	27	341349	-999999	341338	0	24	TrialsPROC	TO_018_TOOL18_BA.png	2	2	10	SessionSelectionList														target	2	Tools	2-Back	9	80	8	0	0	0	1	40	78602	1	13	58	76562	-1	77179	1	617	2	2	2040	53	78615	-54	0																10												
WM080112	148335_fnca	2	1	1	-1430186995	1	75.036	75.031	2.0.10.147	2.0.10.242	2.0.10.242	1.0.0.439	7	234	2	3	Verdana	1	80	0	0	0	WM Stimuli\	0.7	1035.85714285714	0.5	901.6	0.9	774.111111111111	0.9	581.666666666667	0.9	764.333333333333	1	749.9	0.8	806.375	1	682.7	13	341335	2	341323	14	27	341349	-999999	341338	0	24	TrialsPROC	TO_015_TOOL15_BA.png	2	2	11	SessionSelectionList														nonlure	3	Tools	2-Back	10	80	9	0	0	0	1	40	81161	1	13	59	79121	-1	79857	1	736	3	3	2040	53	81174	-54	0																11												
WM080112	148335_fnca	2	1	1	-1430186995	1	75.036	75.031	2.0.10.147	2.0.10.242	2.0.10.242	1.0.0.439	7	234	2	3	Verdana	1	80	0	0	0	WM Stimuli\	0.7	1035.85714285714	0.5	901.6	0.9	774.111111111111	0.9	581.666666666667	0.9	764.333333333333	1	749.9	0.8	806.375	1	682.7	13	341335	2	341323	14	27	341349	-999999	341338	0	24	TrialsPROC	TO_017_TOOL17_BA.png	2	2	12	SessionSelectionList														lure	3	Tools	2-Back	11	80	10	0	0	0	1	40	83720	1	13	59	81680	-1	82386	0	706	2	3	2040	53	83733	-54	0																12												
WM080112	148335_fnca	2	1	1	-1430186995	1	75.036	75.031	2.0.10.147	2.0.10.242	2.0.10.242	1.0.0.439	7	234	2	3	Verdana	1	80	0	0	0	WM Stimuli\	0.7	1035.85714285714	0.5	901.6	0.9	774.111111111111	0.9	581.666666666667	0.9	764.333333333333	1	749.9	0.8	806.375	1	682.7	13	341335	2	341323	14	27	341349	-999999	341338	0	25	Cue0BackPROC	BP_013_BP7_BA.png	2	2	13	SessionSelectionList																																										19	84199	-20	0												13												
WM080112	148335_fnca	2	1	1	-1430186995	1	75.036	75.031	2.0.10.147	2.0.10.242	2.0.10.242	1.0.0.439	7	234	2	3	Verdana	1	80	0	0	0	WM Stimuli\	0.7	1035.85714285714	0.5	901.6	0.9	774.111111111111	0.9	581.666666666667	0.9	764.333333333333	1	749.9	0.8	806.375	1	682.7	13	341335	2	341323	14	27	341349	-999999	341338	0	26	TrialsPROC	BP_015_H10-T_BA.png	2	2	14	SessionSelectionList														nonlure	3	Body	0-Back	12	80	11	0	0	100	1	39	88784	2	14	65	86745	-1	87697	1	952	3	3	2039	53	88798	-54	0																14												
WM080112	148335_fnca	2	1	1	-1430186995	1	75.036	75.031	2.0.10.147	2.0.10.242	2.0.10.242	1.0.0.439	7	234	2	3	Verdana	1	80	0	0	0	WM Stimuli\	0.7	1035.85714285714	0.5	901.6	0.9	774.111111111111	0.9	581.666666666667	0.9	764.333333333333	1	749.9	0.8	806.375	1	682.7	13	341335	2	341323	14	27	341349	-999999	341338	0	26	TrialsPROC	BP_018_H13-T_BA.png	2	2	15	SessionSelectionList														nonlure	3	Body	0-Back	13	80	12	0	0	50	1	39	91343	2	14	59	89304	-1	90540	0	1236	2	3	2039	53	91357	-54	0																15												
WM080112	148335_fnca	2	1	1	-1430186995	1	75.036	75.031	2.0.10.147	2.0.10.242	2.0.10.242	1.0.0.439	7	234	2	3	Verdana	1	80	0	0	0	WM Stimuli\	0.7	1035.85714285714	0.5	901.6	0.9	774.111111111111	0.9	581.666666666667	0.9	764.333333333333	1	749.9	0.8	806.375	1	682.7	13	341335	2	341323	14	27	341349	-999999	341338	0	26	TrialsPROC	BP_014_BP9_BA.png	2	2	16	SessionSelectionList														nonlure	3	Body	0-Back	14	80	13	0	0	67	1	39	93902	1	14	59	91863	-1	92443	1	580	3	3	2039	53	93916	-54	0																16												
WM080112	148335_fnca	2	1	1	-1430186995	1	75.036	75.031	2.0.10.147	2.0.10.242	2.0.10.242	1.0.0.439	7	234	2	3	Verdana	1	80	0	0	0	WM Stimuli\	0.7	1035.85714285714	0.5	901.6	0.9	774.111111111111	0.9	581.666666666667	0.9	764.333333333333	1	749.9	0.8	806.375	1	682.7	13	341335	2	341323	14	27	341349	-999999	341338	0	26	TrialsPROC	BP_018_H13-T_BA.png	2	2	17	SessionSelectionList														lure	3	Body	0-Back	15	80	14	0	0	50	1	39	96461	1	14	59	94422	-1	95231	0	809	2	3	2039	53	96475	-54	0																17												
WM080112	148335_fnca	2	1	1	-1430186995	1	75.036	75.031	2.0.10.147	2.0.10.242	2.0.10.242	1.0.0.439	7	234	2	3	Verdana	1	80	0	0	0	WM Stimuli\	0.7	1035.85714285714	0.5	901.6	0.9	774.111111111111	0.9	581.666666666667	0.9	764.333333333333	1	749.9	0.8	806.375	1	682.7	13	341335	2	341323	14	27	341349	-999999	341338	0	26	TrialsPROC	BP_013_BP7_BA.png	2	2	18	SessionSelectionList														target	2	Body	0-Back	16	80	15	0	0	40	1	39	99020	1	14	59	96981	-1	97443	0	462	3	2	2039	53	99034	-54	0																18												
WM080112	148335_fnca	2	1	1	-1430186995	1	75.036	75.031	2.0.10.147	2.0.10.242	2.0.10.242	1.0.0.439	7	234	2	3	Verdana	1	80	0	0	0	WM Stimuli\	0.7	1035.85714285714	0.5	901.6	0.9	774.111111111111	0.9	581.666666666667	0.9	764.333333333333	1	749.9	0.8	806.375	1	682.7	13	341335	2	341323	14	27	341349	-999999	341338	0	26	TrialsPROC	BP_015_H10-T_BA.png	2	2	19	SessionSelectionList														lure	3	Body	0-Back	17	80	16	0	0	33	1	39	101579	1	14	59	99540	-1	100313	0	773	2	3	2039	53	101593	-54	0																19												
WM080112	148335_fnca	2	1	1	-1430186995	1	75.036	75.031	2.0.10.147	2.0.10.242	2.0.10.242	1.0.0.439	7	234	2	3	Verdana	1	80	0	0	0	WM Stimuli\	0.7	1035.85714285714	0.5	901.6	0.9	774.111111111111	0.9	581.666666666667	0.9	764.333333333333	1	749.9	0.8	806.375	1	682.7	13	341335	2	341323	14	27	341349	-999999	341338	0	26	TrialsPROC	BP_016_H11-T_BA.png	2	2	20	SessionSelectionList														nonlure	3	Body	0-Back	18	80	17	0	0	43	1	39	104138	1	14	59	102099	-1	103171	1	1072	3	3	2039	53	104152	-54	0																20												
WM080112	148335_fnca	2	1	1	-1430186995	1	75.036	75.031	2.0.10.147	2.0.10.242	2.0.10.242	1.0.0.439	7	234	2	3	Verdana	1	80	0	0	0	WM Stimuli\	0.7	1035.85714285714	0.5	901.6	0.9	774.111111111111	0.9	581.666666666667	0.9	764.333333333333	1	749.9	0.8	806.375	1	682.7	13	341335	2	341323	14	27	341349	-999999	341338	0	26	TrialsPROC	BP_013_BP7_BA.png	2	2	21	SessionSelectionList														target	2	Body	0-Back	19	80	18	0	0	38	2	39	106697	1	14	59	104658	-1	105204	0	546	3	2	2039	53	106711	-54	0																21												
WM080112	148335_fnca	2	1	1	-1430186995	1	75.036	75.031	2.0.10.147	2.0.10.242	2.0.10.242	1.0.0.439	7	234	2	3	Verdana	1	80	0	0	0	WM Stimuli\	0.7	1035.85714285714	0.5	901.6	0.9	774.111111111111	0.9	581.666666666667	0.9	764.333333333333	1	749.9	0.8	806.375	1	682.7	13	341335	2	341323	14	27	341349	-999999	341338	0	26	TrialsPROC	BP_017_H12-T_BA.png	2	2	22	SessionSelectionList														nonlure	3	Body	0-Back	20	80	19	0	0	44	3	39	109256	2	14	59	107217	-1	108176	1	959	3	3	2039	53	109270	-54	0																22												
WM080112	148335_fnca	2	1	1	-1430186995	1	75.036	75.031	2.0.10.147	2.0.10.242	2.0.10.242	1.0.0.439	7	234	2	3	Verdana	1	80	0	0	0	WM Stimuli\	0.7	1035.85714285714	0.5	901.6	0.9	774.111111111111	0.9	581.666666666667	0.9	764.333333333333	1	749.9	0.8	806.375	1	682.7	13	341335	2	341323	14	27	341349	-999999	341338	0	26	TrialsPROC	BP_014_BP9_BA.png	2	2	23	SessionSelectionList														lure	3	Body	0-Back	21	80	20	0	0	50	4	39	111815	1	14	59	109776	-1	110721	1	945	3	3	2039	53	111829	-54	0																23												
WM080112	148335_fnca	2	1	1	-1430186995	1	75.036	75.031	2.0.10.147	2.0.10.242	2.0.10.242	1.0.0.439	7	234	2	3	Verdana	1	80	0	0	0	WM Stimuli\	0.7	1035.85714285714	0.5	901.6	0.9	774.111111111111	0.9	581.666666666667	0.9	764.333333333333	1	749.9	0.8	806.375	1	682.7	13	341335	2	341323	14	27	341349	-999999	341338	0	27	Fix15secPROC	""	2	2	24	SessionSelectionList																																															6	112282	-7	0							24												
WM080112	148335_fnca	2	1	1	-1430186995	1	75.036	75.031	2.0.10.147	2.0.10.242	2.0.10.242	1.0.0.439	7	234	2	3	Verdana	1	80	0	0	0	WM Stimuli\	0.7	1035.85714285714	0.5	901.6	0.9	774.111111111111	0.9	581.666666666667	0.9	764.333333333333	1	749.9	0.8	806.375	1	682.7	13	341335	2	341323	14	27	341349	-999999	341338	0	28	Cue2BackPROC	""	2	2	25	SessionSelectionList									13	127289	-14	0																																													25												
WM080112	148335_fnca	2	1	1	-1430186995	1	75.036	75.031	2.0.10.147	2.0.10.242	2.0.10.242	1.0.0.439	7	234	2	3	Verdana	1	80	0	0	0	WM Stimuli\	0.7	1035.85714285714	0.5	901.6	0.9	774.111111111111	0.9	581.666666666667	0.9	764.333333333333	1	749.9	0.8	806.375	1	682.7	13	341335	2	341323	14	27	341349	-999999	341338	0	29	TrialsPROC	FC_015_M8.png	2	2	26	SessionSelectionList														nonlure	3	Face	2-Back	22	80	21	0	0	50	5	39	131887	1	13	72	129848	-1	130811	1	963	3	3	2039	52	131900	-53	0																26												
WM080112	148335_fnca	2	1	1	-1430186995	1	75.036	75.031	2.0.10.147	2.0.10.242	2.0.10.242	1.0.0.439	7	234	2	3	Verdana	1	80	0	0	0	WM Stimuli\	0.7	1035.85714285714	0.5	901.6	0.9	774.111111111111	0.9	581.666666666667	0.9	764.333333333333	1	749.9	0.8	806.375	1	682.7	13	341335	2	341323	14	27	341349	-999999	341338	0	29	TrialsPROC	FC_018_F9.png	2	2	27	SessionSelectionList														nonlure	3	Face	2-Back	23	80	22	0	0	50	6	39	134459	1	14	72	132420	-1	132836	1	416	3	3	2039	53	134473	-54	0																27												
WM080112	148335_fnca	2	1	1	-1430186995	1	75.036	75.031	2.0.10.147	2.0.10.242	2.0.10.242	1.0.0.439	7	234	2	3	Verdana	1	80	0	0	0	WM Stimuli\	0.7	1035.85714285714	0.5	901.6	0.9	774.111111111111	0.9	581.666666666667	0.9	764.333333333333	1	749.9	0.8	806.375	1	682.7	13	341335	2	341323	14	27	341349	-999999	341338	0	29	TrialsPROC	FC_018_F9.png	2	2	28	SessionSelectionList														lure	3	Face	2-Back	24	80	23	0	0	50	7	39	137031	2	14	72	134992	-1	136230	1	1238	3	3	2039	53	137045	-54	0																28												
WM080112	148335_fnca	2	1	1	-1430186995	1	75.036	75.031	2.0.10.147	2.0.10.242	2.0.10.242	1.0.0.439	7	234	2	3	Verdana	1	80	0	0	0	WM Stimuli\	0.7	1035.85714285714	0.5	901.6	0.9	774.111111111111	0.9	581.666666666667	0.9	764.333333333333	1	749.9	0.8	806.375	1	682.7	13	341335	2	341323	14	27	341349	-999999	341338	0	29	TrialsPROC	FC_017_M9.png	2	2	29	SessionSelectionList														nonlure	3	Face	2-Back	25	80	24	0	0	50	8	40	139604	1	13	72	137564	-1	138398	1	834	3	3	2040	53	139617	-54	0																29												
WM080112	148335_fnca	2	1	1	-1430186995	1	75.036	75.031	2.0.10.147	2.0.10.242	2.0.10.242	1.0.0.439	7	234	2	3	Verdana	1	80	0	0	0	WM Stimuli\	0.7	1035.85714285714	0.5	901.6	0.9	774.111111111111	0.9	581.666666666667	0.9	764.333333333333	1	749.9	0.8	806.375	1	682.7	13	341335	2	341323	14	27	341349	-999999	341338	0	29	TrialsPROC	FC_017_M9.png	2	2	30	SessionSelectionList														lure	3	Face	2-Back	26	80	25	0	0	50	9	39	142176	1	14	73	140137	-1	140933	1	796	3	3	2039	53	142190	-54	0																30												
WM080112	148335_fnca	2	1	1	-1430186995	1	75.036	75.031	2.0.10.147	2.0.10.242	2.0.10.242	1.0.0.439	7	234	2	3	Verdana	1	80	0	0	0	WM Stimuli\	0.7	1035.85714285714	0.5	901.6	0.9	774.111111111111	0.9	581.666666666667	0.9	764.333333333333	1	749.9	0.8	806.375	1	682.7	13	341335	2	341323	14	27	341349	-999999	341338	0	29	TrialsPROC	FC_016_F8.png	2	2	31	SessionSelectionList														nonlure	3	Face	2-Back	27	80	26	0	0	50	10	39	144748	1	14	72	142709	-1	143461	1	752	3	3	2039	53	144762	-54	0																31												
WM080112	148335_fnca	2	1	1	-1430186995	1	75.036	75.031	2.0.10.147	2.0.10.242	2.0.10.242	1.0.0.439	7	234	2	3	Verdana	1	80	0	0	0	WM Stimuli\	0.7	1035.85714285714	0.5	901.6	0.9	774.111111111111	0.9	581.666666666667	0.9	764.333333333333	1	749.9	0.8	806.375	1	682.7	13	341335	2	341323	14	27	341349	-999999	341338	0	29	TrialsPROC	FC_013_M7.png	2	2	32	SessionSelectionList														nonlure	3	Face	2-Back	28	80	27	0	0	50	11	39	147320	2	14	72	145281	-1	146003	1	722	3	3	2039	53	147334	-54	0																32												
WM080112	148335_fnca	2	1	1	-1430186995	1	75.036	75.031	2.0.10.147	2.0.10.242	2.0.10.242	1.0.0.439	7	234	2	3	Verdana	1	80	0	0	0	WM Stimuli\	0.7	1035.85714285714	0.5	901.6	0.9	774.111111111111	0.9	581.666666666667	0.9	764.333333333333	1	749.9	0.8	806.375	1	682.7	13	341335	2	341323	14	27	341349	-999999	341338	0	29	TrialsPROC	FC_014_F7.png	2	2	33	SessionSelectionList														nonlure	3	Face	2-Back	29	80	28	0	0	50	12	39	149893	1	13	73	147854	-1	148572	1	718	3	3	2039	52	149906	-53	0																33												
WM080112	148335_fnca	2	1	1	-1430186995	1	75.036	75.031	2.0.10.147	2.0.10.242	2.0.10.242	1.0.0.439	7	234	2	3	Verdana	1	80	0	0	0	WM Stimuli\	0.7	1035.85714285714	0.5	901.6	0.9	774.111111111111	0.9	581.666666666667	0.9	764.333333333333	1	749.9	0.8	806.375	1	682.7	13	341335	2	341323	14	27	341349	-999999	341338	0	29	TrialsPROC	FC_013_M7.png	2	2	34	SessionSelectionList														target	2	Face	2-Back	30	80	29	0	0	50	1	39	152465	1	14	72	150426	-1	150954	1	528	2	2	2039	53	152479	-54	0																34												
WM080112	148335_fnca	2	1	1	-1430186995	1	75.036	75.031	2.0.10.147	2.0.10.242	2.0.10.242	1.0.0.439	7	234	2	3	Verdana	1	80	0	0	0	WM Stimuli\	0.7	1035.85714285714	0.5	901.6	0.9	774.111111111111	0.9	581.666666666667	0.9	764.333333333333	1	749.9	0.8	806.375	1	682.7	13	341335	2	341323	14	27	341349	-999999	341338	0	29	TrialsPROC	FC_014_F7.png	2	2	35	SessionSelectionList														target	2	Face	2-Back	31	80	30	0	0	50	1	39	155037	2	14	72	152998	-1	153795	0	797	3	2	2039	53	155051	-54	0																35												
WM080112	148335_fnca	2	1	1	-1430186995	1	75.036	75.031	2.0.10.147	2.0.10.242	2.0.10.242	1.0.0.439	7	234	2	3	Verdana	1	80	0	0	0	WM Stimuli\	0.7	1035.85714285714	0.5	901.6	0.9	774.111111111111	0.9	581.666666666667	0.9	764.333333333333	1	749.9	0.8	806.375	1	682.7	13	341335	2	341323	14	27	341349	-999999	341338	0	30	Cue0BackPROC	TO_019_TOOL19_BA.png	2	2	36	SessionSelectionList																																										19	155517	-20	0												36												
WM080112	148335_fnca	2	1	1	-1430186995	1	75.036	75.031	2.0.10.147	2.0.10.242	2.0.10.242	1.0.0.439	7	234	2	3	Verdana	1	80	0	0	0	WM Stimuli\	0.7	1035.85714285714	0.5	901.6	0.9	774.111111111111	0.9	581.666666666667	0.9	764.333333333333	1	749.9	0.8	806.375	1	682.7	13	341335	2	341323	14	27	341349	-999999	341338	0	31	TrialsPROC	TO_019_TOOL19_BA.png	2	2	37	SessionSelectionList														target	2	Tools	0-Back	32	80	31	0	0	55	1	40	160089	1	13	51	158049	-1	159626	1	1577	2	2	2040	53	160102	-54	0																37												
WM080112	148335_fnca	2	1	1	-1430186995	1	75.036	75.031	2.0.10.147	2.0.10.242	2.0.10.242	1.0.0.439	7	234	2	3	Verdana	1	80	0	0	0	WM Stimuli\	0.7	1035.85714285714	0.5	901.6	0.9	774.111111111111	0.9	581.666666666667	0.9	764.333333333333	1	749.9	0.8	806.375	1	682.7	13	341335	2	341323	14	27	341349	-999999	341338	0	31	TrialsPROC	TO_024_TOOL24_BA.png	2	2	38	SessionSelectionList														nonlure	3	Tools	0-Back	33	80	32	0	0	58	1	40	162648	1	13	59	160608	-1	161129	1	521	3	3	2040	53	162661	-54	0																38												
WM080112	148335_fnca	2	1	1	-1430186995	1	75.036	75.031	2.0.10.147	2.0.10.242	2.0.10.242	1.0.0.439	7	234	2	3	Verdana	1	80	0	0	0	WM Stimuli\	0.7	1035.85714285714	0.5	901.6	0.9	774.111111111111	0.9	581.666666666667	0.9	764.333333333333	1	749.9	0.8	806.375	1	682.7	13	341335	2	341323	14	27	341349	-999999	341338	0	31	TrialsPROC	TO_019_TOOL19_BA.png	2	2	39	SessionSelectionList														target	2	Tools	0-Back	34	80	33	0	0	62	1	39	165206	2	14	59	163167	-1	163804	1	637	2	2	2039	53	165220	-54	0																39												
WM080112	148335_fnca	2	1	1	-1430186995	1	75.036	75.031	2.0.10.147	2.0.10.242	2.0.10.242	1.0.0.439	7	234	2	3	Verdana	1	80	0	0	0	WM Stimuli\	0.7	1035.85714285714	0.5	901.6	0.9	774.111111111111	0.9	581.666666666667	0.9	764.333333333333	1	749.9	0.8	806.375	1	682.7	13	341335	2	341323	14	27	341349	-999999	341338	0	31	TrialsPROC	TO_023_TOOL23_BA.png	2	2	40	SessionSelectionList														nonlure	3	Tools	0-Back	35	80	34	0	0	64	1	39	167765	2	14	59	165726	-1	166291	1	565	3	3	2039	53	167779	-54	0																40												
WM080112	148335_fnca	2	1	1	-1430186995	1	75.036	75.031	2.0.10.147	2.0.10.242	2.0.10.242	1.0.0.439	7	234	2	3	Verdana	1	80	0	0	0	WM Stimuli\	0.7	1035.85714285714	0.5	901.6	0.9	774.111111111111	0.9	581.666666666667	0.9	764.333333333333	1	749.9	0.8	806.375	1	682.7	13	341335	2	341323	14	27	341349	-999999	341338	0	31	TrialsPROC	TO_020_TOOL20_BA.png	2	2	41	SessionSelectionList														nonlure	3	Tools	0-Back	36	80	35	0	0	67	2	39	170324	2	14	59	168285	-1	168984	1	699	3	3	2039	53	170338	-54	0																41												
WM080112	148335_fnca	2	1	1	-1430186995	1	75.036	75.031	2.0.10.147	2.0.10.242	2.0.10.242	1.0.0.439	7	234	2	3	Verdana	1	80	0	0	0	WM Stimuli\	0.7	1035.85714285714	0.5	901.6	0.9	774.111111111111	0.9	581.666666666667	0.9	764.333333333333	1	749.9	0.8	806.375	1	682.7	13	341335	2	341323	14	27	341349	-999999	341338	0	31	TrialsPROC	TO_020_TOOL20_BA.png	2	2	42	SessionSelectionList														lure	3	Tools	0-Back	37	80	36	0	0	69	3	39	172883	2	14	59	170844	-1	171371	1	527	3	3	2039	53	172897	-54	0																42												
WM080112	148335_fnca	2	1	1	-1430186995	1	75.036	75.031	2.0.10.147	2.0.10.242	2.0.10.242	1.0.0.439	7	234	2	3	Verdana	1	80	0	0	0	WM Stimuli\	0.7	1035.85714285714	0.5	901.6	0.9	774.111111111111	0.9	581.666666666667	0.9	764.333333333333	1	749.9	0.8	806.375	1	682.7	13	341335	2	341323	14	27	341349	-999999	341338	0	31	TrialsPROC	TO_022_TOOL22_BA.png	2	2	43	SessionSelectionList														nonlure	3	Tools	0-Back	38	80	37	0	0	71	4	39	175442	2	14	59	173403	-1	173975	1	572	3	3	2039	53	175456	-54	0																43												
WM080112	148335_fnca	2	1	1	-1430186995	1	75.036	75.031	2.0.10.147	2.0.10.242	2.0.10.242	1.0.0.439	7	234	2	3	Verdana	1	80	0	0	0	WM Stimuli\	0.7	1035.85714285714	0.5	901.6	0.9	774.111111111111	0.9	581.666666666667	0.9	764.333333333333	1	749.9	0.8	806.375	1	682.7	13	341335	2	341323	14	27	341349	-999999	341338	0	31	TrialsPROC	TO_022_TOOL22_BA.png	2	2	44	SessionSelectionList														lure	3	Tools	0-Back	39	80	38	0	0	72	5	39	178001	2	14	59	175962	-1	176496	1	534	3	3	2039	53	178015	-54	0																44												
WM080112	148335_fnca	2	1	1	-1430186995	1	75.036	75.031	2.0.10.147	2.0.10.242	2.0.10.242	1.0.0.439	7	234	2	3	Verdana	1	80	0	0	0	WM Stimuli\	0.7	1035.85714285714	0.5	901.6	0.9	774.111111111111	0.9	581.666666666667	0.9	764.333333333333	1	749.9	0.8	806.375	1	682.7	13	341335	2	341323	14	27	341349	-999999	341338	0	31	TrialsPROC	TO_021_TOOL21_BA.png	2	2	45	SessionSelectionList														nonlure	3	Tools	0-Back	40	80	39	0	0	74	6	39	180560	2	14	59	178521	-1	179158	1	637	3	3	2039	53	180574	-54	0																45												
WM080112	148335_fnca	2	1	1	-1430186995	1	75.036	75.031	2.0.10.147	2.0.10.242	2.0.10.242	1.0.0.439	7	234	2	3	Verdana	1	80	0	0	0	WM Stimuli\	0.7	1035.85714285714	0.5	901.6	0.9	774.111111111111	0.9	581.666666666667	0.9	764.333333333333	1	749.9	0.8	806.375	1	682.7	13	341335	2	341323	14	27	341349	-999999	341338	0	31	TrialsPROC	TO_021_TOOL21_BA.png	2	2	46	SessionSelectionList														lure	3	Tools	0-Back	41	80	40	0	0	75	7	39	183119	2	14	59	181080	-1	181638	1	558	3	3	2039	53	183133	-54	0																46												
WM080112	148335_fnca	2	1	1	-1430186995	1	75.036	75.031	2.0.10.147	2.0.10.242	2.0.10.242	1.0.0.439	7	234	2	3	Verdana	1	80	0	0	0	WM Stimuli\	0.7	1035.85714285714	0.5	901.6	0.9	774.111111111111	0.9	581.666666666667	0.9	764.333333333333	1	749.9	0.8	806.375	1	682.7	13	341335	2	341323	14	27	341349	-999999	341338	0	32	Fix15secPROC	""	2	2	47	SessionSelectionList																																															6	183586	-7	0							47												
WM080112	148335_fnca	2	1	1	-1430186995	1	75.036	75.031	2.0.10.147	2.0.10.242	2.0.10.242	1.0.0.439	7	234	2	3	Verdana	1	80	0	0	0	WM Stimuli\	0.7	1035.85714285714	0.5	901.6	0.9	774.111111111111	0.9	581.666666666667	0.9	764.333333333333	1	749.9	0.8	806.375	1	682.7	13	341335	2	341323	14	27	341349	-999999	341338	0	33	Cue2BackPROC	""	2	2	48	SessionSelectionList									13	198593	-14	0																																													48												
WM080112	148335_fnca	2	1	1	-1430186995	1	75.036	75.031	2.0.10.147	2.0.10.242	2.0.10.242	1.0.0.439	7	234	2	3	Verdana	1	80	0	0	0	WM Stimuli\	0.7	1035.85714285714	0.5	901.6	0.9	774.111111111111	0.9	581.666666666667	0.9	764.333333333333	1	749.9	0.8	806.375	1	682.7	13	341335	2	341323	14	27	341349	-999999	341338	0	34	TrialsPROC	BP_020_H17-T_BA.png	2	2	49	SessionSelectionList														nonlure	3	Body	2-Back	42	80	41	0	0	75	8	39	203178	1	13	59	201139	-1	201926	1	787	3	3	2039	52	203191	-53	0																49												
WM080112	148335_fnca	2	1	1	-1430186995	1	75.036	75.031	2.0.10.147	2.0.10.242	2.0.10.242	1.0.0.439	7	234	2	3	Verdana	1	80	0	0	0	WM Stimuli\	0.7	1035.85714285714	0.5	901.6	0.9	774.111111111111	0.9	581.666666666667	0.9	764.333333333333	1	749.9	0.8	806.375	1	682.7	13	341335	2	341323	14	27	341349	-999999	341338	0	34	TrialsPROC	BP_019_H14-T_BA.png	2	2	50	SessionSelectionList														nonlure	3	Body	2-Back	43	80	42	0	0	75	9	39	205737	1	13	59	203698	-1	204067	1	369	3	3	2039	52	205750	-53	0																50												
WM080112	148335_fnca	2	1	1	-1430186995	1	75.036	75.031	2.0.10.147	2.0.10.242	2.0.10.242	1.0.0.439	7	234	2	3	Verdana	1	80	0	0	0	WM Stimuli\	0.7	1035.85714285714	0.5	901.6	0.9	774.111111111111	0.9	581.666666666667	0.9	764.333333333333	1	749.9	0.8	806.375	1	682.7	13	341335	2	341323	14	27	341349	-999999	341338	0	34	TrialsPROC	BP_020_H17-T_BA.png	2	2	51	SessionSelectionList														target	2	Body	2-Back	44	80	43	0	0	75	1	39	208296	1	13	59	206257	-1	207573	1	1316	2	2	2039	52	208309	-53	0																51												
WM080112	148335_fnca	2	1	1	-1430186995	1	75.036	75.031	2.0.10.147	2.0.10.242	2.0.10.242	1.0.0.439	7	234	2	3	Verdana	1	80	0	0	0	WM Stimuli\	0.7	1035.85714285714	0.5	901.6	0.9	774.111111111111	0.9	581.666666666667	0.9	764.333333333333	1	749.9	0.8	806.375	1	682.7	13	341335	2	341323	14	27	341349	-999999	341338	0	34	TrialsPROC	BP_019_H14-T_BA.png	2	2	52	SessionSelectionList														target	2	Body	2-Back	45	80	44	0	0	75	1	39	210855	1	13	59	208816	-1	210120	0	1304	3	2	2039	52	210868	-53	0																52												
WM080112	148335_fnca	2	1	1	-1430186995	1	75.036	75.031	2.0.10.147	2.0.10.242	2.0.10.242	1.0.0.439	7	234	2	3	Verdana	1	80	0	0	0	WM Stimuli\	0.7	1035.85714285714	0.5	901.6	0.9	774.111111111111	0.9	581.666666666667	0.9	764.333333333333	1	749.9	0.8	806.375	1	682.7	13	341335	2	341323	14	27	341349	-999999	341338	0	34	TrialsPROC	BP_024_H3-T_BA.png	2	2	53	SessionSelectionList														nonlure	3	Body	2-Back	46	80	45	0	0	75	2	39	213414	1	13	59	211375	-1	212693	1	1318	3	3	2039	52	213427	-53	0																53												
WM080112	148335_fnca	2	1	1	-1430186995	1	75.036	75.031	2.0.10.147	2.0.10.242	2.0.10.242	1.0.0.439	7	234	2	3	Verdana	1	80	0	0	0	WM Stimuli\	0.7	1035.85714285714	0.5	901.6	0.9	774.111111111111	0.9	581.666666666667	0.9	764.333333333333	1	749.9	0.8	806.375	1	682.7	13	341335	2	341323	14	27	341349	-999999	341338	0	34	TrialsPROC	BP_024_H3-T_BA.png	2	2	54	SessionSelectionList														lure	3	Body	2-Back	47	80	46	0	0	75	1	39	215973	1	13	59	213934	-1	215206	0	1272	2	3	2039	52	215986	-53	0																54												
WM080112	148335_fnca	2	1	1	-1430186995	1	75.036	75.031	2.0.10.147	2.0.10.242	2.0.10.242	1.0.0.439	7	234	2	3	Verdana	1	80	0	0	0	WM Stimuli\	0.7	1035.85714285714	0.5	901.6	0.9	774.111111111111	0.9	581.666666666667	0.9	764.333333333333	1	749.9	0.8	806.375	1	682.7	13	341335	2	341323	14	27	341349	-999999	341338	0	34	TrialsPROC	BP_025_H5-T_BA.png	2	2	55	SessionSelectionList														nonlure	3	Body	2-Back	48	80	47	0	0	75	1	39	218531	2	14	58	216492	-1	218164	1	1672	3	3	2039	53	218545	-54	0																55												
WM080112	148335_fnca	2	1	1	-1430186995	1	75.036	75.031	2.0.10.147	2.0.10.242	2.0.10.242	1.0.0.439	7	234	2	3	Verdana	1	80	0	0	0	WM Stimuli\	0.7	1035.85714285714	0.5	901.6	0.9	774.111111111111	0.9	581.666666666667	0.9	764.333333333333	1	749.9	0.8	806.375	1	682.7	13	341335	2	341323	14	27	341349	-999999	341338	0	34	TrialsPROC	BP_023_H25-T_BA.png	2	2	56	SessionSelectionList														nonlure	3	Body	2-Back	49	80	48	0	0	75	2	38	221090	2	14	60	219052	-1	219993	1	941	3	3	2038	52	221104	-53	0																56												
WM080112	148335_fnca	2	1	1	-1430186995	1	75.036	75.031	2.0.10.147	2.0.10.242	2.0.10.242	1.0.0.439	7	234	2	3	Verdana	1	80	0	0	0	WM Stimuli\	0.7	1035.85714285714	0.5	901.6	0.9	774.111111111111	0.9	581.666666666667	0.9	764.333333333333	1	749.9	0.8	806.375	1	682.7	13	341335	2	341323	14	27	341349	-999999	341338	0	34	TrialsPROC	BP_022_H24-T_BA.png	2	2	57	SessionSelectionList														nonlure	3	Body	2-Back	50	80	49	0	0	75	1	39	223649	2	14	58	221610	-1	223521	0	1911	2	3	2039	53	223663	-54	0																57												
WM080112	148335_fnca	2	1	1	-1430186995	1	75.036	75.031	2.0.10.147	2.0.10.242	2.0.10.242	1.0.0.439	7	234	2	3	Verdana	1	80	0	0	0	WM Stimuli\	0.7	1035.85714285714	0.5	901.6	0.9	774.111111111111	0.9	581.666666666667	0.9	764.333333333333	1	749.9	0.8	806.375	1	682.7	13	341335	2	341323	14	27	341349	-999999	341338	0	34	TrialsPROC	BP_022_H24-T_BA.png	2	2	58	SessionSelectionList														lure	3	Body	2-Back	51	80	50	0	0	75	1	39	226208	2	14	59	224169	-1	225017	1	848	3	3	2039	53	226222	-54	0																58												
WM080112	148335_fnca	2	1	1	-1430186995	1	75.036	75.031	2.0.10.147	2.0.10.242	2.0.10.242	1.0.0.439	7	234	2	3	Verdana	1	80	0	0	0	WM Stimuli\	0.7	1035.85714285714	0.5	901.6	0.9	774.111111111111	0.9	581.666666666667	0.9	764.333333333333	1	749.9	0.8	806.375	1	682.7	13	341335	2	341323	14	27	341349	-999999	341338	0	35	Cue2BackPROC	""	2	2	59	SessionSelectionList									6	226675	-7	0																																													59												
WM080112	148335_fnca	2	1	1	-1430186995	1	75.036	75.031	2.0.10.147	2.0.10.242	2.0.10.242	1.0.0.439	7	234	2	3	Verdana	1	80	0	0	0	WM Stimuli\	0.7	1035.85714285714	0.5	901.6	0.9	774.111111111111	0.9	581.666666666667	0.9	764.333333333333	1	749.9	0.8	806.375	1	682.7	13	341335	2	341323	14	27	341349	-999999	341338	0	36	TrialsPROC	PL_019_SCENE_05.png	2	2	60	SessionSelectionList														nonlure	3	Place	2-Back	52	80	51	0	0	75	2	39	231273	1	14	65	229234	-1	229900	1	666	3	3	2039	53	231287	-54	0																60												
WM080112	148335_fnca	2	1	1	-1430186995	1	75.036	75.031	2.0.10.147	2.0.10.242	2.0.10.242	1.0.0.439	7	234	2	3	Verdana	1	80	0	0	0	WM Stimuli\	0.7	1035.85714285714	0.5	901.6	0.9	774.111111111111	0.9	581.666666666667	0.9	764.333333333333	1	749.9	0.8	806.375	1	682.7	13	341335	2	341323	14	27	341349	-999999	341338	0	36	TrialsPROC	PL_017_SCENE_03.png	2	2	61	SessionSelectionList														nonlure	3	Place	2-Back	53	80	52	0	0	75	3	39	233845	2	14	72	231806	-1	232275	1	469	3	3	2039	53	233859	-54	0																61												
WM080112	148335_fnca	2	1	1	-1430186995	1	75.036	75.031	2.0.10.147	2.0.10.242	2.0.10.242	1.0.0.439	7	234	2	3	Verdana	1	80	0	0	0	WM Stimuli\	0.7	1035.85714285714	0.5	901.6	0.9	774.111111111111	0.9	581.666666666667	0.9	764.333333333333	1	749.9	0.8	806.375	1	682.7	13	341335	2	341323	14	27	341349	-999999	341338	0	36	TrialsPROC	PL_017_SCENE_03.png	2	2	62	SessionSelectionList														lure	3	Place	2-Back	54	80	53	0	0	75	4	40	236418	1	13	72	234378	-1	235070	1	692	3	3	2040	53	236431	-54	0																62												
WM080112	148335_fnca	2	1	1	-1430186995	1	75.036	75.031	2.0.10.147	2.0.10.242	2.0.10.242	1.0.0.439	7	234	2	3	Verdana	1	80	0	0	0	WM Stimuli\	0.7	1035.85714285714	0.5	901.6	0.9	774.111111111111	0.9	581.666666666667	0.9	764.333333333333	1	749.9	0.8	806.375	1	682.7	13	341335	2	341323	14	27	341349	-999999	341338	0	36	TrialsPROC	PL_016_SCENE_02.png	2	2	63	SessionSelectionList														nonlure	3	Place	2-Back	55	80	54	0	0	75	5	39	238990	1	14	73	236951	-1	237980	1	1029	3	3	2039	53	239004	-54	0																63												
WM080112	148335_fnca	2	1	1	-1430186995	1	75.036	75.031	2.0.10.147	2.0.10.242	2.0.10.242	1.0.0.439	7	234	2	3	Verdana	1	80	0	0	0	WM Stimuli\	0.7	1035.85714285714	0.5	901.6	0.9	774.111111111111	0.9	581.666666666667	0.9	764.333333333333	1	749.9	0.8	806.375	1	682.7	13	341335	2	341323	14	27	341349	-999999	341338	0	36	TrialsPROC	PL_015_SCENE_01.png	2	2	64	SessionSelectionList														nonlure	3	Place	2-Back	56	80	55	0	0	75	6	39	241562	2	14	72	239523	-1	240386	1	863	3	3	2039	53	241576	-54	0																64												
WM080112	148335_fnca	2	1	1	-1430186995	1	75.036	75.031	2.0.10.147	2.0.10.242	2.0.10.242	1.0.0.439	7	234	2	3	Verdana	1	80	0	0	0	WM Stimuli\	0.7	1035.85714285714	0.5	901.6	0.9	774.111111111111	0.9	581.666666666667	0.9	764.333333333333	1	749.9	0.8	806.375	1	682.7	13	341335	2	341323	14	27	341349	-999999	341338	0	36	TrialsPROC	PL_016_SCENE_02.png	2	2	65	SessionSelectionList														target	2	Place	2-Back	57	80	56	0	0	75	1	39	244134	2	14	72	242095	-1	242934	1	839	2	2	2039	53	244148	-54	0																65												
WM080112	148335_fnca	2	1	1	-1430186995	1	75.036	75.031	2.0.10.147	2.0.10.242	2.0.10.242	1.0.0.439	7	234	2	3	Verdana	1	80	0	0	0	WM Stimuli\	0.7	1035.85714285714	0.5	901.6	0.9	774.111111111111	0.9	581.666666666667	0.9	764.333333333333	1	749.9	0.8	806.375	1	682.7	13	341335	2	341323	14	27	341349	-999999	341338	0	36	TrialsPROC	PL_015_SCENE_01.png	2	2	66	SessionSelectionList														target	2	Place	2-Back	58	80	57	0	0	75	1	39	246707	1	13	73	244668	-1	245543	0	875	3	2	2039	52	246720	-53	0																66												
WM080112	148335_fnca	2	1	1	-1430186995	1	75.036	75.031	2.0.10.147	2.0.10.242	2.0.10.242	1.0.0.439	7	234	2	3	Verdana	1	80	0	0	0	WM Stimuli\	0.7	1035.85714285714	0.5	901.6	0.9	774.111111111111	0.9	581.666666666667	0.9	764.333333333333	1	749.9	0.8	806.375	1	682.7	13	341335	2	341323	14	27	341349	-999999	341338	0	36	TrialsPROC	PL_020_SCENE_06.png	2	2	67	SessionSelectionList														nonlure	3	Place	2-Back	59	80	58	0	0	75	2	39	249279	1	14	72	247240	-1	247872	1	632	3	3	2039	53	249293	-54	0																67												
WM080112	148335_fnca	2	1	1	-1430186995	1	75.036	75.031	2.0.10.147	2.0.10.242	2.0.10.242	1.0.0.439	7	234	2	3	Verdana	1	80	0	0	0	WM Stimuli\	0.7	1035.85714285714	0.5	901.6	0.9	774.111111111111	0.9	581.666666666667	0.9	764.333333333333	1	749.9	0.8	806.375	1	682.7	13	341335	2	341323	14	27	341349	-999999	341338	0	36	TrialsPROC	PL_020_SCENE_06.png	2	2	68	SessionSelectionList														lure	3	Place	2-Back	60	80	59	0	0	75	3	39	251851	2	14	72	249812	-1	250627	1	815	3	3	2039	53	251865	-54	0																68												
WM080112	148335_fnca	2	1	1	-1430186995	1	75.036	75.031	2.0.10.147	2.0.10.242	2.0.10.242	1.0.0.439	7	234	2	3	Verdana	1	80	0	0	0	WM Stimuli\	0.7	1035.85714285714	0.5	901.6	0.9	774.111111111111	0.9	581.666666666667	0.9	764.333333333333	1	749.9	0.8	806.375	1	682.7	13	341335	2	341323	14	27	341349	-999999	341338	0	36	TrialsPROC	PL_018_SCENE_04.png	2	2	69	SessionSelectionList														nonlure	3	Place	2-Back	61	80	60	0	0	75	4	40	254424	1	13	72	252384	-1	253258	1	874	3	3	2040	53	254437	-54	0																69												
WM080112	148335_fnca	2	1	1	-1430186995	1	75.036	75.031	2.0.10.147	2.0.10.242	2.0.10.242	1.0.0.439	7	234	2	3	Verdana	1	80	0	0	0	WM Stimuli\	0.7	1035.85714285714	0.5	901.6	0.9	774.111111111111	0.9	581.666666666667	0.9	764.333333333333	1	749.9	0.8	806.375	1	682.7	13	341335	2	341323	14	27	341349	-999999	341338	0	37	Fix15secPROC	""	2	2	70	SessionSelectionList																																															6	254890	-7	0							70												
WM080112	148335_fnca	2	1	1	-1430186995	1	75.036	75.031	2.0.10.147	2.0.10.242	2.0.10.242	1.0.0.439	7	234	2	3	Verdana	1	80	0	0	0	WM Stimuli\	0.7	1035.85714285714	0.5	901.6	0.9	774.111111111111	0.9	581.666666666667	0.9	764.333333333333	1	749.9	0.8	806.375	1	682.7	13	341335	2	341323	14	27	341349	-999999	341338	0	38	Cue0BackPROC	FC_020_F10.png	2	2	71	SessionSelectionList																																										14	269898	-15	0												71												
WM080112	148335_fnca	2	1	1	-1430186995	1	75.036	75.031	2.0.10.147	2.0.10.242	2.0.10.242	1.0.0.439	7	234	2	3	Verdana	1	80	0	0	0	WM Stimuli\	0.7	1035.85714285714	0.5	901.6	0.9	774.111111111111	0.9	581.666666666667	0.9	764.333333333333	1	749.9	0.8	806.375	1	682.7	13	341335	2	341323	14	27	341349	-999999	341338	0	39	TrialsPROC	FC_024_F12.png	2	2	72	SessionSelectionList														nonlure	3	Face	0-Back	62	80	61	0	0	71	1	39	274495	2	14	72	272456	-1	273656	0	1200	2	3	2039	53	274509	-54	0																72												
WM080112	148335_fnca	2	1	1	-1430186995	1	75.036	75.031	2.0.10.147	2.0.10.242	2.0.10.242	1.0.0.439	7	234	2	3	Verdana	1	80	0	0	0	WM Stimuli\	0.7	1035.85714285714	0.5	901.6	0.9	774.111111111111	0.9	581.666666666667	0.9	764.333333333333	1	749.9	0.8	806.375	1	682.7	13	341335	2	341323	14	27	341349	-999999	341338	0	39	TrialsPROC	FC_023_M12.png	2	2	73	SessionSelectionList														nonlure	3	Face	0-Back	63	80	62	0	0	73	1	39	277068	1	13	73	275029	-1	276245	1	1216	3	3	2039	52	277081	-53	0																73												
WM080112	148335_fnca	2	1	1	-1430186995	1	75.036	75.031	2.0.10.147	2.0.10.242	2.0.10.242	1.0.0.439	7	234	2	3	Verdana	1	80	0	0	0	WM Stimuli\	0.7	1035.85714285714	0.5	901.6	0.9	774.111111111111	0.9	581.666666666667	0.9	764.333333333333	1	749.9	0.8	806.375	1	682.7	13	341335	2	341323	14	27	341349	-999999	341338	0	39	TrialsPROC	FC_020_F10.png	2	2	74	SessionSelectionList														target	2	Face	0-Back	64	80	63	0	0	74	1	39	279640	1	14	72	277601	-1	278169	1	568	2	2	2039	53	279654	-54	0																74												
WM080112	148335_fnca	2	1	1	-1430186995	1	75.036	75.031	2.0.10.147	2.0.10.242	2.0.10.242	1.0.0.439	7	234	2	3	Verdana	1	80	0	0	0	WM Stimuli\	0.7	1035.85714285714	0.5	901.6	0.9	774.111111111111	0.9	581.666666666667	0.9	764.333333333333	1	749.9	0.8	806.375	1	682.7	13	341335	2	341323	14	27	341349	-999999	341338	0	39	TrialsPROC	FC_024_F12.png	2	2	75	SessionSelectionList														lure	3	Face	0-Back	65	80	64	0	0	75	1	39	282212	2	14	72	280173	-1	280582	1	409	3	3	2039	53	282226	-54	0																75												
WM080112	148335_fnca	2	1	1	-1430186995	1	75.036	75.031	2.0.10.147	2.0.10.242	2.0.10.242	1.0.0.439	7	234	2	3	Verdana	1	80	0	0	0	WM Stimuli\	0.7	1035.85714285714	0.5	901.6	0.9	774.111111111111	0.9	581.666666666667	0.9	764.333333333333	1	749.9	0.8	806.375	1	682.7	13	341335	2	341323	14	27	341349	-999999	341338	0	39	TrialsPROC	FC_020_F10.png	2	2	76	SessionSelectionList														target	2	Face	0-Back	66	80	65	0	0	76	1	40	284785	1	13	72	282745	-1	283411	1	666	2	2	2040	53	284798	-54	0																76												
WM080112	148335_fnca	2	1	1	-1430186995	1	75.036	75.031	2.0.10.147	2.0.10.242	2.0.10.242	1.0.0.439	7	234	2	3	Verdana	1	80	0	0	0	WM Stimuli\	0.7	1035.85714285714	0.5	901.6	0.9	774.111111111111	0.9	581.666666666667	0.9	764.333333333333	1	749.9	0.8	806.375	1	682.7	13	341335	2	341323	14	27	341349	-999999	341338	0	39	TrialsPROC	FC_022_F11.png	2	2	77	SessionSelectionList														nonlure	3	Face	0-Back	67	80	66	0	0	77	1	39	287357	1	14	73	285318	-1	285772	1	454	3	3	2039	53	287371	-54	0																77												
WM080112	148335_fnca	2	1	1	-1430186995	1	75.036	75.031	2.0.10.147	2.0.10.242	2.0.10.242	1.0.0.439	7	234	2	3	Verdana	1	80	0	0	0	WM Stimuli\	0.7	1035.85714285714	0.5	901.6	0.9	774.111111111111	0.9	581.666666666667	0.9	764.333333333333	1	749.9	0.8	806.375	1	682.7	13	341335	2	341323	14	27	341349	-999999	341338	0	39	TrialsPROC	FC_023_M12.png	2	2	78	SessionSelectionList														lure	3	Face	0-Back	68	80	67	0	0	78	2	39	289929	2	14	72	287890	-1	288312	1	422	3	3	2039	53	289943	-54	0																78												
WM080112	148335_fnca	2	1	1	-1430186995	1	75.036	75.031	2.0.10.147	2.0.10.242	2.0.10.242	1.0.0.439	7	234	2	3	Verdana	1	80	0	0	0	WM Stimuli\	0.7	1035.85714285714	0.5	901.6	0.9	774.111111111111	0.9	581.666666666667	0.9	764.333333333333	1	749.9	0.8	806.375	1	682.7	13	341335	2	341323	14	27	341349	-999999	341338	0	39	TrialsPROC	FC_021_M11.png	2	2	79	SessionSelectionList														nonlure	3	Face	0-Back	69	80	68	0	0	79	3	39	292501	2	14	72	290462	-1	290921	1	459	3	3	2039	53	292515	-54	0																79												
WM080112	148335_fnca	2	1	1	-1430186995	1	75.036	75.031	2.0.10.147	2.0.10.242	2.0.10.242	1.0.0.439	7	234	2	3	Verdana	1	80	0	0	0	WM Stimuli\	0.7	1035.85714285714	0.5	901.6	0.9	774.111111111111	0.9	581.666666666667	0.9	764.333333333333	1	749.9	0.8	806.375	1	682.7	13	341335	2	341323	14	27	341349	-999999	341338	0	39	TrialsPROC	FC_021_M11.png	2	2	80	SessionSelectionList														lure	3	Face	0-Back	70	80	69	0	0	79	4	39	295074	1	13	73	293035	-1	293500	1	465	3	3	2039	52	295087	-53	0																80												
WM080112	148335_fnca	2	1	1	-1430186995	1	75.036	75.031	2.0.10.147	2.0.10.242	2.0.10.242	1.0.0.439	7	234	2	3	Verdana	1	80	0	0	0	WM Stimuli\	0.7	1035.85714285714	0.5	901.6	0.9	774.111111111111	0.9	581.666666666667	0.9	764.333333333333	1	749.9	0.8	806.375	1	682.7	13	341335	2	341323	14	27	341349	-999999	341338	0	39	TrialsPROC	FC_019_M10.png	2	2	81	SessionSelectionList														nonlure	3	Face	0-Back	71	80	70	0	0	80	5	39	297646	1	14	72	295607	-1	296183	1	576	3	3	2039	53	297660	-54	0																81												
WM080112	148335_fnca	2	1	1	-1430186995	1	75.036	75.031	2.0.10.147	2.0.10.242	2.0.10.242	1.0.0.439	7	234	2	3	Verdana	1	80	0	0	0	WM Stimuli\	0.7	1035.85714285714	0.5	901.6	0.9	774.111111111111	0.9	581.666666666667	0.9	764.333333333333	1	749.9	0.8	806.375	1	682.7	13	341335	2	341323	14	27	341349	-999999	341338	0	40	Cue0BackPROC	PL_021_SCENE_07.png	2	2	82	SessionSelectionList																																										19	298126	-20	0												82												
WM080112	148335_fnca	2	1	1	-1430186995	1	75.036	75.031	2.0.10.147	2.0.10.242	2.0.10.242	1.0.0.439	7	234	2	3	Verdana	1	80	0	0	0	WM Stimuli\	0.7	1035.85714285714	0.5	901.6	0.9	774.111111111111	0.9	581.666666666667	0.9	764.333333333333	1	749.9	0.8	806.375	1	682.7	13	341335	2	341323	14	27	341349	-999999	341338	0	41	TrialsPROC	PL_025_SCENE_18.png	2	2	83	SessionSelectionList														nonlure	3	Place	0-Back	72	80	71	0	0	81	6	40	302711	1	13	64	300671	-1	301918	1	1247	3	3	2040	53	302724	-54	0																83												
WM080112	148335_fnca	2	1	1	-1430186995	1	75.036	75.031	2.0.10.147	2.0.10.242	2.0.10.242	1.0.0.439	7	234	2	3	Verdana	1	80	0	0	0	WM Stimuli\	0.7	1035.85714285714	0.5	901.6	0.9	774.111111111111	0.9	581.666666666667	0.9	764.333333333333	1	749.9	0.8	806.375	1	682.7	13	341335	2	341323	14	27	341349	-999999	341338	0	41	TrialsPROC	PL_026_SCENE_24.png	2	2	84	SessionSelectionList														nonlure	3	Place	0-Back	73	80	72	0	0	81	7	39	305283	1	14	73	303244	-1	303758	1	514	3	3	2039	53	305297	-54	0																84												
WM080112	148335_fnca	2	1	1	-1430186995	1	75.036	75.031	2.0.10.147	2.0.10.242	2.0.10.242	1.0.0.439	7	234	2	3	Verdana	1	80	0	0	0	WM Stimuli\	0.7	1035.85714285714	0.5	901.6	0.9	774.111111111111	0.9	581.666666666667	0.9	764.333333333333	1	749.9	0.8	806.375	1	682.7	13	341335	2	341323	14	27	341349	-999999	341338	0	41	TrialsPROC	PL_025_SCENE_18.png	2	2	85	SessionSelectionList														lure	3	Place	0-Back	74	80	73	0	0	82	8	39	307855	2	14	72	305816	-1	306932	1	1116	3	3	2039	53	307869	-54	0																85												
WM080112	148335_fnca	2	1	1	-1430186995	1	75.036	75.031	2.0.10.147	2.0.10.242	2.0.10.242	1.0.0.439	7	234	2	3	Verdana	1	80	0	0	0	WM Stimuli\	0.7	1035.85714285714	0.5	901.6	0.9	774.111111111111	0.9	581.666666666667	0.9	764.333333333333	1	749.9	0.8	806.375	1	682.7	13	341335	2	341323	14	27	341349	-999999	341338	0	41	TrialsPROC	PL_022_SCENE_08.png	2	2	86	SessionSelectionList														nonlure	3	Place	0-Back	75	80	74	0	0	82	9	39	310427	2	14	72	308388	-1	309142	1	754	3	3	2039	53	310441	-54	0																86												
WM080112	148335_fnca	2	1	1	-1430186995	1	75.036	75.031	2.0.10.147	2.0.10.242	2.0.10.242	1.0.0.439	7	234	2	3	Verdana	1	80	0	0	0	WM Stimuli\	0.7	1035.85714285714	0.5	901.6	0.9	774.111111111111	0.9	581.666666666667	0.9	764.333333333333	1	749.9	0.8	806.375	1	682.7	13	341335	2	341323	14	27	341349	-999999	341338	0	41	TrialsPROC	PL_026_SCENE_24.png	2	2	87	SessionSelectionList														lure	3	Place	0-Back	76	80	75	0	0	83	10	39	313000	1	14	73	310961	-1	311451	1	490	3	3	2039	53	313014	-54	0																87												
WM080112	148335_fnca	2	1	1	-1430186995	1	75.036	75.031	2.0.10.147	2.0.10.242	2.0.10.242	1.0.0.439	7	234	2	3	Verdana	1	80	0	0	0	WM Stimuli\	0.7	1035.85714285714	0.5	901.6	0.9	774.111111111111	0.9	581.666666666667	0.9	764.333333333333	1	749.9	0.8	806.375	1	682.7	13	341335	2	341323	14	27	341349	-999999	341338	0	41	TrialsPROC	PL_021_SCENE_07.png	2	2	88	SessionSelectionList														target	2	Place	0-Back	77	80	76	0	0	83	1	39	315572	1	14	72	313533	-1	314128	1	595	2	2	2039	53	315586	-54	0																88												
WM080112	148335_fnca	2	1	1	-1430186995	1	75.036	75.031	2.0.10.147	2.0.10.242	2.0.10.242	1.0.0.439	7	234	2	3	Verdana	1	80	0	0	0	WM Stimuli\	0.7	1035.85714285714	0.5	901.6	0.9	774.111111111111	0.9	581.666666666667	0.9	764.333333333333	1	749.9	0.8	806.375	1	682.7	13	341335	2	341323	14	27	341349	-999999	341338	0	41	TrialsPROC	PL_021_SCENE_07.png	2	2	89	SessionSelectionList														target	2	Place	0-Back	78	80	77	0	0	84	2	39	318144	2	14	72	316105	-1	317232	1	1127	2	2	2039	53	318158	-54	0																89												
WM080112	148335_fnca	2	1	1	-1430186995	1	75.036	75.031	2.0.10.147	2.0.10.242	2.0.10.242	1.0.0.439	7	234	2	3	Verdana	1	80	0	0	0	WM Stimuli\	0.7	1035.85714285714	0.5	901.6	0.9	774.111111111111	0.9	581.666666666667	0.9	764.333333333333	1	749.9	0.8	806.375	1	682.7	13	341335	2	341323	14	27	341349	-999999	341338	0	41	TrialsPROC	PL_023_SCENE_09.png	2	2	90	SessionSelectionList														nonlure	3	Place	0-Back	79	80	78	0	0	84	1	40	320717	1	13	72	318677	-1	319155	1	478	3	3	2040	53	320730	-54	0																90												
WM080112	148335_fnca	2	1	1	-1430186995	1	75.036	75.031	2.0.10.147	2.0.10.242	2.0.10.242	1.0.0.439	7	234	2	3	Verdana	1	80	0	0	0	WM Stimuli\	0.7	1035.85714285714	0.5	901.6	0.9	774.111111111111	0.9	581.666666666667	0.9	764.333333333333	1	749.9	0.8	806.375	1	682.7	13	341335	2	341323	14	27	341349	-999999	341338	0	41	TrialsPROC	PL_024_SCENE_10.png	2	2	91	SessionSelectionList														nonlure	3	Place	0-Back	80	80	79	0	0	85	2	39	323289	1	14	73	321250	-1	321732	1	482	3	3	2039	53	323303	-54	0																91												
WM080112	148335_fnca	2	1	1	-1430186995	1	75.036	75.031	2.0.10.147	2.0.10.242	2.0.10.242	1.0.0.439	7	234	2	3	Verdana	1	80	0	0	0	WM Stimuli\	0.7	1035.85714285714	0.5	901.6	0.9	774.111111111111	0.9	581.666666666667	0.9	764.333333333333	1	749.9	0.8	806.375	1	682.7	13	341335	2	341323	14	27	341349	-999999	341338	0	41	TrialsPROC	PL_022_SCENE_08.png	2	2	92	SessionSelectionList														lure	3	Place	0-Back	80	80	80	0	0	85	3	39	325861	2	14	72	323822	-1	324518	1	696	3	3	2039	53	325875	-54	0																92												
WM080112	148335_fnca	2	1	1	-1430186995	1	75.036	75.031	2.0.10.147	2.0.10.242	2.0.10.242	1.0.0.439	7	234	2	3	Verdana	1	80	0	0	0	WM Stimuli\	0.7	1035.85714285714	0.5	901.6	0.9	774.111111111111	0.9	581.666666666667	0.9	764.333333333333	1	749.9	0.8	806.375	1	682.7	13	341335	2	341323	14	27	341349	-999999	341338	0	42	Fix15secPROC	""	2	2	93	SessionSelectionList																																															6	326328	-7	0							93												
