ExperimentName	HCPID	RunNumber	Subject	Session	RandomSeed	Group	Laptop.RefreshRate	ScannerD2.RefreshRate	StudioVersion	RuntimeVersion	RuntimeVersionExpected	ExperimentVersion	triggercode	Allowed	Target	Nontarget	FontStyle	RunTrialNumber[Session]	TrialsPerRun[Session]	TotalRespGreater200[Session]	ConsecRTLess200[Session]	ConsecNonResp[Session]	StimuliDir	ACC_2_Back_Body	Avg_RT_For_Correct_Trials_2_Back_Body	ACC_0_Back_Body	Avg_RT_For_Correct_Trials_0_Back_Body	ACC_2_Back_Face	Avg_RT_For_Correct_Trials_2_Back_Face	ACC_0_Back_Face	Avg_RT_For_Correct_Trials_0_Back_Face	ACC_2_Back_Place	Avg_RT_For_Correct_Trials_2_Back_Place	ACC_0_Back_Place	Avg_RT_For_Correct_Trials_0_Back_Place	ACC_2_Back_Tools	Avg_RT_For_Correct_Trials_2_Back_Tools	ACC_0_Back_Tools	Avg_RT_For_Correct_Trials_0_Back_Tools	ExpInstrucFeelFreeToRest.OnsetDelay	ExpInstrucFeelFreeToRest.OnsetTime	ExpInstrucFeelFreeToRest.DurationError	ExpInstrucFeelFreeToRest.StartTime	ExpInstrucFeelFreeToRest.OnsetToOnsetTime	FeelFreeToRest.OnsetDelay	FeelFreeToRest.OnsetTime	FeelFreeToRest.DurationError	FeelFreeToRest.StartTime	FeelFreeToRest.OnsetToOnsetTime	SessionSelectionList	Procedure[Block]	Stimulus[Block]	RunNumberFilterValue	SessionSelectionList.Cycle	SessionSelectionList.Sample	Running[Block]	IntroButtonMap.OnsetDelay	IntroButtonMap.OnsetTime	IntroButtonMap.DurationError	IntroButtonMap.OnsetToOnsetTime	GetReady.OnsetDelay	GetReady.OnsetTime	GetReady.DurationError	GetReady.OnsetToOnsetTime	Cue2Back.OnsetDelay	Cue2Back.OnsetTime	Cue2Back.DurationError	Cue2Back.OnsetToOnsetTime	Run1Block1	TargetType	CorrectResponse	StimType	BlockType	RunTrialNumber[Block]	TrialsPerRun[Block]	TotalRespGreater200[Block]	ConsecRTLess200[Block]	ConsecNonResp[Block]	ControlAcc	ConsecSameResp	ExperimenterWindow.OnsetDelay	ExperimenterWindow.OnsetTime	ExperimenterWindow.DurationError	ExperimenterWindow.OnsetToOnsetTime	Stim.OnsetDelay	Stim.OnsetTime	Stim.DurationError	Stim.RTTime	Stim.ACC	Stim.RT	Stim.RESP	Stim.CRESP	Stim.OnsetToOnsetTime	Fix.OnsetDelay	Fix.OnsetTime	Fix.DurationError	Fix.OnsetToOnsetTime	CueTarget.OnsetDelay	CueTarget.OnsetTime	CueTarget.DurationError	CueTarget.OnsetToOnsetTime	Run1Block2	Fix15sec.OnsetDelay	Fix15sec.OnsetTime	Fix15sec.DurationError	Fix15sec.OnsetToOnsetTime	Run1Block3	Run1Block4	Run1Block5	Run1Block6	Run1Block7	Run1Block8	Block	Procedure[Trial]	Stimulus[Trial]	ReadyList	Running[Trial]	ReadyList.Cycle	ReadyList.Sample	SyncSlide.OnsetDelay	SyncSlide.OnsetTime	SyncSlide.DurationError	SyncSlide.FinishTime	SyncSlide.OnsetToOnsetTime	Trial
WM080112	126325_fnca	3	1	1	-782435908	1	75.032	75.031	2.0.10.147	2.0.10.242	2.0.10.242	1.0.0.439	7	234	2	3	Verdana	1	80	0	0	0	WM Stimuli\	1	793.3	0.9	613.555555555556	0.9	559.888888888889	1	511.9	1	691	1	480.6	0.9	748.555555555556	1	700.2	13	333454	2	333442	27	40	333481	-999999	333457	0	43	TRSyncPROC	""	3	2	1	SessionSelectionList	115	25939	-999999	0	32	26713	-999999	0																																																	1	InitialTR	4	1	ReadyList	1	1	18	39401	-19	41382	0	1
WM080112	126325_fnca	3	1	1	-782435908	1	75.032	75.031	2.0.10.147	2.0.10.242	2.0.10.242	1.0.0.439	7	234	2	3	Verdana	1	80	0	0	0	WM Stimuli\	1	793.3	0.9	613.555555555556	0.9	559.888888888889	1	511.9	1	691	1	480.6	0.9	748.555555555556	1	700.2	13	333454	2	333442	27	40	333481	-999999	333457	0	43	TRSyncPROC	""	3	2	1	SessionSelectionList	115	25939	-999999	0	32	26713	-999999	0																																																	1	InitialTR	3	2	ReadyList	1	2	17	41400	-18	43382	0	2
WM080112	126325_fnca	3	1	1	-782435908	1	75.032	75.031	2.0.10.147	2.0.10.242	2.0.10.242	1.0.0.439	7	234	2	3	Verdana	1	80	0	0	0	WM Stimuli\	1	793.3	0.9	613.555555555556	0.9	559.888888888889	1	511.9	1	691	1	480.6	0.9	748.555555555556	1	700.2	13	333454	2	333442	27	40	333481	-999999	333457	0	43	TRSyncPROC	""	3	2	1	SessionSelectionList	115	25939	-999999	0	32	26713	-999999	0																																																	1	InitialTR	2	3	ReadyList	1	3	16	43399	-17	45382	0	3
WM080112	126325_fnca	3	1	1	-782435908	1	75.032	75.031	2.0.10.147	2.0.10.242	2.0.10.242	1.0.0.439	7	234	2	3	Verdana	1	80	0	0	0	WM Stimuli\	1	793.3	0.9	613.555555555556	0.9	559.888888888889	1	511.9	1	691	1	480.6	0.9	748.555555555556	1	700.2	13	333454	2	333442	27	40	333481	-999999	333457	0	43	TRSyncPROC	""	3	2	1	SessionSelectionList	115	25939	-999999	0	32	26713	-999999	0																																																	1	InitialTR	1	4	ReadyList	1	4	15	45398	-16	47382	0	4
WM080112	126325_fnca	3	1	1	-782435908	1	75.032	75.031	2.0.10.147	2.0.10.242	2.0.10.242	1.0.0.439	7	234	2	3	Verdana	1	80	0	0	0	WM Stimuli\	1	793.3	0.9	613.555555555556	0.9	559.888888888889	1	511.9	1	691	1	480.6	0.9	748.555555555556	1	700.2	13	333454	2	333442	27	40	333481	-999999	333457	0	44	Cue0BackPROC	TO_025_TOOL25_BA.png	3	2	2	SessionSelectionList																																										41	47424	-42	0												2												
WM080112	126325_fnca	3	1	1	-782435908	1	75.032	75.031	2.0.10.147	2.0.10.242	2.0.10.242	1.0.0.439	7	234	2	3	Verdana	1	80	0	0	0	WM Stimuli\	1	793.3	0.9	613.555555555556	0.9	559.888888888889	1	511.9	1	691	1	480.6	0.9	748.555555555556	1	700.2	13	333454	2	333442	27	40	333481	-999999	333457	0	45	TrialsPROC	TO_028_TOOL28_BA.png	3	2	3	SessionSelectionList														nonlure	3	Tools	0-Back	2	80	1	0	0	100	1	52	52062	3	14	127	50010	-1	50848	1	838	3	3	2052	66	52076	-67	0																3												
WM080112	126325_fnca	3	1	1	-782435908	1	75.032	75.031	2.0.10.147	2.0.10.242	2.0.10.242	1.0.0.439	7	234	2	3	Verdana	1	80	0	0	0	WM Stimuli\	1	793.3	0.9	613.555555555556	0.9	559.888888888889	1	511.9	1	691	1	480.6	0.9	748.555555555556	1	700.2	13	333454	2	333442	27	40	333481	-999999	333457	0	45	TrialsPROC	TO_026_TOOL26_BA.png	3	2	4	SessionSelectionList														nonlure	3	Tools	0-Back	3	80	2	0	0	100	2	39	54648	1	14	99	52609	-1	54479	1	1870	3	3	2039	53	54662	-54	0																4												
WM080112	126325_fnca	3	1	1	-782435908	1	75.032	75.031	2.0.10.147	2.0.10.242	2.0.10.242	1.0.0.439	7	234	2	3	Verdana	1	80	0	0	0	WM Stimuli\	1	793.3	0.9	613.555555555556	0.9	559.888888888889	1	511.9	1	691	1	480.6	0.9	748.555555555556	1	700.2	13	333454	2	333442	27	40	333481	-999999	333457	0	45	TrialsPROC	TO_025_TOOL25_BA.png	3	2	5	SessionSelectionList														target	2	Tools	0-Back	4	80	3	0	0	100	1	39	57207	1	13	59	55168	-1	55862	1	694	2	2	2039	52	57220	-53	0																5												
WM080112	126325_fnca	3	1	1	-782435908	1	75.032	75.031	2.0.10.147	2.0.10.242	2.0.10.242	1.0.0.439	7	234	2	3	Verdana	1	80	0	0	0	WM Stimuli\	1	793.3	0.9	613.555555555556	0.9	559.888888888889	1	511.9	1	691	1	480.6	0.9	748.555555555556	1	700.2	13	333454	2	333442	27	40	333481	-999999	333457	0	45	TrialsPROC	TO_026_TOOL26_BA.png	3	2	6	SessionSelectionList														lure	3	Tools	0-Back	5	80	4	0	0	100	1	39	59779	1	14	72	57740	-1	58372	1	632	3	3	2039	53	59793	-54	0																6												
WM080112	126325_fnca	3	1	1	-782435908	1	75.032	75.031	2.0.10.147	2.0.10.242	2.0.10.242	1.0.0.439	7	234	2	3	Verdana	1	80	0	0	0	WM Stimuli\	1	793.3	0.9	613.555555555556	0.9	559.888888888889	1	511.9	1	691	1	480.6	0.9	748.555555555556	1	700.2	13	333454	2	333442	27	40	333481	-999999	333457	0	45	TrialsPROC	TO_030_TOOL30_BA.png	3	2	7	SessionSelectionList														nonlure	3	Tools	0-Back	6	80	5	0	0	100	2	40	62365	1	13	85	60325	-1	60749	1	424	3	3	2040	53	62378	-54	0																7												
WM080112	126325_fnca	3	1	1	-782435908	1	75.032	75.031	2.0.10.147	2.0.10.242	2.0.10.242	1.0.0.439	7	234	2	3	Verdana	1	80	0	0	0	WM Stimuli\	1	793.3	0.9	613.555555555556	0.9	559.888888888889	1	511.9	1	691	1	480.6	0.9	748.555555555556	1	700.2	13	333454	2	333442	27	40	333481	-999999	333457	0	45	TrialsPROC	TO_025_TOOL25_BA.png	3	2	8	SessionSelectionList														target	2	Tools	0-Back	7	80	6	0	0	100	1	40	64924	2	13	59	62884	-1	63380	1	496	2	2	2040	53	64937	-54	0																8												
WM080112	126325_fnca	3	1	1	-782435908	1	75.032	75.031	2.0.10.147	2.0.10.242	2.0.10.242	1.0.0.439	7	234	2	3	Verdana	1	80	0	0	0	WM Stimuli\	1	793.3	0.9	613.555555555556	0.9	559.888888888889	1	511.9	1	691	1	480.6	0.9	748.555555555556	1	700.2	13	333454	2	333442	27	40	333481	-999999	333457	0	45	TrialsPROC	TO_027_TOOL27_BA.png	3	2	9	SessionSelectionList														nonlure	3	Tools	0-Back	8	80	7	0	0	100	1	39	67522	2	14	99	65483	-1	65902	1	419	3	3	2039	53	67536	-54	0																9												
WM080112	126325_fnca	3	1	1	-782435908	1	75.032	75.031	2.0.10.147	2.0.10.242	2.0.10.242	1.0.0.439	7	234	2	3	Verdana	1	80	0	0	0	WM Stimuli\	1	793.3	0.9	613.555555555556	0.9	559.888888888889	1	511.9	1	691	1	480.6	0.9	748.555555555556	1	700.2	13	333454	2	333442	27	40	333481	-999999	333457	0	45	TrialsPROC	TO_030_TOOL30_BA.png	3	2	10	SessionSelectionList														lure	3	Tools	0-Back	9	80	8	0	0	100	2	39	70081	2	14	59	68042	-1	68571	1	529	3	3	2039	53	70095	-54	0																10												
WM080112	126325_fnca	3	1	1	-782435908	1	75.032	75.031	2.0.10.147	2.0.10.242	2.0.10.242	1.0.0.439	7	234	2	3	Verdana	1	80	0	0	0	WM Stimuli\	1	793.3	0.9	613.555555555556	0.9	559.888888888889	1	511.9	1	691	1	480.6	0.9	748.555555555556	1	700.2	13	333454	2	333442	27	40	333481	-999999	333457	0	45	TrialsPROC	TO_028_TOOL28_BA.png	3	2	11	SessionSelectionList														lure	3	Tools	0-Back	10	80	9	0	0	100	3	39	72640	2	14	59	70601	-1	71237	1	636	3	3	2039	53	72654	-54	0																11												
WM080112	126325_fnca	3	1	1	-782435908	1	75.032	75.031	2.0.10.147	2.0.10.242	2.0.10.242	1.0.0.439	7	234	2	3	Verdana	1	80	0	0	0	WM Stimuli\	1	793.3	0.9	613.555555555556	0.9	559.888888888889	1	511.9	1	691	1	480.6	0.9	748.555555555556	1	700.2	13	333454	2	333442	27	40	333481	-999999	333457	0	45	TrialsPROC	TO_029_TOOL29_BA.png	3	2	12	SessionSelectionList														nonlure	3	Tools	0-Back	11	80	10	0	0	100	4	39	75239	2	14	99	73200	-1	73664	1	464	3	3	2039	53	75253	-54	0																12												
WM080112	126325_fnca	3	1	1	-782435908	1	75.032	75.031	2.0.10.147	2.0.10.242	2.0.10.242	1.0.0.439	7	234	2	3	Verdana	1	80	0	0	0	WM Stimuli\	1	793.3	0.9	613.555555555556	0.9	559.888888888889	1	511.9	1	691	1	480.6	0.9	748.555555555556	1	700.2	13	333454	2	333442	27	40	333481	-999999	333457	0	46	Cue2BackPROC	""	3	2	13	SessionSelectionList									6	75706	-7	0																																													13												
WM080112	126325_fnca	3	1	1	-782435908	1	75.032	75.031	2.0.10.147	2.0.10.242	2.0.10.242	1.0.0.439	7	234	2	3	Verdana	1	80	0	0	0	WM Stimuli\	1	793.3	0.9	613.555555555556	0.9	559.888888888889	1	511.9	1	691	1	480.6	0.9	748.555555555556	1	700.2	13	333454	2	333442	27	40	333481	-999999	333457	0	47	TrialsPROC	FC_029_M15.png	3	2	14	SessionSelectionList														nonlure	3	Face	2-Back	12	80	11	0	0	100	5	40	80331	1	13	91	78291	-1	78663	1	372	3	3	2040	53	80344	-54	0																14												
WM080112	126325_fnca	3	1	1	-782435908	1	75.032	75.031	2.0.10.147	2.0.10.242	2.0.10.242	1.0.0.439	7	234	2	3	Verdana	1	80	0	0	0	WM Stimuli\	1	793.3	0.9	613.555555555556	0.9	559.888888888889	1	511.9	1	691	1	480.6	0.9	748.555555555556	1	700.2	13	333454	2	333442	27	40	333481	-999999	333457	0	47	TrialsPROC	FC_026_F13.png	3	2	15	SessionSelectionList														nonlure	3	Face	2-Back	13	80	12	0	0	100	6	39	82929	2	14	99	80890	-1	81186	1	296	3	3	2039	53	82943	-54	0																15												
WM080112	126325_fnca	3	1	1	-782435908	1	75.032	75.031	2.0.10.147	2.0.10.242	2.0.10.242	1.0.0.439	7	234	2	3	Verdana	1	80	0	0	0	WM Stimuli\	1	793.3	0.9	613.555555555556	0.9	559.888888888889	1	511.9	1	691	1	480.6	0.9	748.555555555556	1	700.2	13	333454	2	333442	27	40	333481	-999999	333457	0	47	TrialsPROC	FC_029_M15.png	3	2	16	SessionSelectionList														target	2	Face	2-Back	14	80	13	0	0	100	1	39	85502	1	14	73	83463	-1	83833	1	370	2	2	2039	53	85516	-54	0																16												
WM080112	126325_fnca	3	1	1	-782435908	1	75.032	75.031	2.0.10.147	2.0.10.242	2.0.10.242	1.0.0.439	7	234	2	3	Verdana	1	80	0	0	0	WM Stimuli\	1	793.3	0.9	613.555555555556	0.9	559.888888888889	1	511.9	1	691	1	480.6	0.9	748.555555555556	1	700.2	13	333454	2	333442	27	40	333481	-999999	333457	0	47	TrialsPROC	FC_028_F14.png	3	2	17	SessionSelectionList														nonlure	3	Face	2-Back	15	80	14	0	0	100	1	39	88101	1	13	99	86062	-1	86565	1	503	3	3	2039	52	88114	-53	0																17												
WM080112	126325_fnca	3	1	1	-782435908	1	75.032	75.031	2.0.10.147	2.0.10.242	2.0.10.242	1.0.0.439	7	234	2	3	Verdana	1	80	0	0	0	WM Stimuli\	1	793.3	0.9	613.555555555556	0.9	559.888888888889	1	511.9	1	691	1	480.6	0.9	748.555555555556	1	700.2	13	333454	2	333442	27	40	333481	-999999	333457	0	47	TrialsPROC	FC_025_M13.png	3	2	18	SessionSelectionList														nonlure	3	Face	2-Back	16	80	15	0	0	100	2	40	90700	1	13	98	88660	-1	89171	1	511	3	3	2040	53	90713	-54	0																18												
WM080112	126325_fnca	3	1	1	-782435908	1	75.032	75.031	2.0.10.147	2.0.10.242	2.0.10.242	1.0.0.439	7	234	2	3	Verdana	1	80	0	0	0	WM Stimuli\	1	793.3	0.9	613.555555555556	0.9	559.888888888889	1	511.9	1	691	1	480.6	0.9	748.555555555556	1	700.2	13	333454	2	333442	27	40	333481	-999999	333457	0	47	TrialsPROC	FC_026_F13.png	3	2	19	SessionSelectionList														lure	3	Face	2-Back	17	80	16	0	0	100	3	39	93272	1	14	73	91233	-1	92312	1	1079	3	3	2039	53	93286	-54	0																19												
WM080112	126325_fnca	3	1	1	-782435908	1	75.032	75.031	2.0.10.147	2.0.10.242	2.0.10.242	1.0.0.439	7	234	2	3	Verdana	1	80	0	0	0	WM Stimuli\	1	793.3	0.9	613.555555555556	0.9	559.888888888889	1	511.9	1	691	1	480.6	0.9	748.555555555556	1	700.2	13	333454	2	333442	27	40	333481	-999999	333457	0	47	TrialsPROC	FC_027_M14.png	3	2	20	SessionSelectionList														nonlure	3	Face	2-Back	18	80	17	0	0	100	1	39	95871	1	14	99	93832	-1	94924	0	1092	2	3	2039	53	95885	-54	0																20												
WM080112	126325_fnca	3	1	1	-782435908	1	75.032	75.031	2.0.10.147	2.0.10.242	2.0.10.242	1.0.0.439	7	234	2	3	Verdana	1	80	0	0	0	WM Stimuli\	1	793.3	0.9	613.555555555556	0.9	559.888888888889	1	511.9	1	691	1	480.6	0.9	748.555555555556	1	700.2	13	333454	2	333442	27	40	333481	-999999	333457	0	47	TrialsPROC	FC_028_F14.png	3	2	21	SessionSelectionList														lure	3	Face	2-Back	19	80	18	0	0	100	1	39	98443	2	14	72	96404	-1	96929	1	525	3	3	2039	53	98457	-54	0																21												
WM080112	126325_fnca	3	1	1	-782435908	1	75.032	75.031	2.0.10.147	2.0.10.242	2.0.10.242	1.0.0.439	7	234	2	3	Verdana	1	80	0	0	0	WM Stimuli\	1	793.3	0.9	613.555555555556	0.9	559.888888888889	1	511.9	1	691	1	480.6	0.9	748.555555555556	1	700.2	13	333454	2	333442	27	40	333481	-999999	333457	0	47	TrialsPROC	FC_027_M14.png	3	2	22	SessionSelectionList														target	2	Face	2-Back	20	80	19	0	0	100	1	39	101015	2	14	72	98976	-1	99814	1	838	2	2	2039	53	101029	-54	0																22												
WM080112	126325_fnca	3	1	1	-782435908	1	75.032	75.031	2.0.10.147	2.0.10.242	2.0.10.242	1.0.0.439	7	234	2	3	Verdana	1	80	0	0	0	WM Stimuli\	1	793.3	0.9	613.555555555556	0.9	559.888888888889	1	511.9	1	691	1	480.6	0.9	748.555555555556	1	700.2	13	333454	2	333442	27	40	333481	-999999	333457	0	47	TrialsPROC	FC_030_F15.png	3	2	23	SessionSelectionList														nonlure	3	Face	2-Back	21	80	20	0	0	100	1	39	103614	2	14	99	101575	-1	102120	1	545	3	3	2039	53	103628	-54	0																23												
WM080112	126325_fnca	3	1	1	-782435908	1	75.032	75.031	2.0.10.147	2.0.10.242	2.0.10.242	1.0.0.439	7	234	2	3	Verdana	1	80	0	0	0	WM Stimuli\	1	793.3	0.9	613.555555555556	0.9	559.888888888889	1	511.9	1	691	1	480.6	0.9	748.555555555556	1	700.2	13	333454	2	333442	27	40	333481	-999999	333457	0	48	Fix15secPROC	""	3	2	24	SessionSelectionList																																															6	104081	-7	0							24												
WM080112	126325_fnca	3	1	1	-782435908	1	75.032	75.031	2.0.10.147	2.0.10.242	2.0.10.242	1.0.0.439	7	234	2	3	Verdana	1	80	0	0	0	WM Stimuli\	1	793.3	0.9	613.555555555556	0.9	559.888888888889	1	511.9	1	691	1	480.6	0.9	748.555555555556	1	700.2	13	333454	2	333442	27	40	333481	-999999	333457	0	49	Cue0BackPROC	BP_026_H8-T_BA.png	3	2	25	SessionSelectionList																																										40	119115	-41	0												25												
WM080112	126325_fnca	3	1	1	-782435908	1	75.032	75.031	2.0.10.147	2.0.10.242	2.0.10.242	1.0.0.439	7	234	2	3	Verdana	1	80	0	0	0	WM Stimuli\	1	793.3	0.9	613.555555555556	0.9	559.888888888889	1	511.9	1	691	1	480.6	0.9	748.555555555556	1	700.2	13	333454	2	333442	27	40	333481	-999999	333457	0	50	TrialsPROC	BP_026_H8-T_BA.png	3	2	26	SessionSelectionList														target	2	Body	0-Back	22	80	20	0	1	91	1	39	123673	1	14	59	121634	-1	0	0	0	""	2	2039	53	123687	-54	0																26												
WM080112	126325_fnca	3	1	1	-782435908	1	75.032	75.031	2.0.10.147	2.0.10.242	2.0.10.242	1.0.0.439	7	234	2	3	Verdana	1	80	0	0	0	WM Stimuli\	1	793.3	0.9	613.555555555556	0.9	559.888888888889	1	511.9	1	691	1	480.6	0.9	748.555555555556	1	700.2	13	333454	2	333442	27	40	333481	-999999	333457	0	50	TrialsPROC	BP_031_FLBHS_BA.png	3	2	27	SessionSelectionList														nonlure	3	Body	0-Back	23	80	21	0	0	92	1	39	126258	2	14	85	124219	-1	125580	1	1361	3	3	2039	53	126272	-54	0																27												
WM080112	126325_fnca	3	1	1	-782435908	1	75.032	75.031	2.0.10.147	2.0.10.242	2.0.10.242	1.0.0.439	7	234	2	3	Verdana	1	80	0	0	0	WM Stimuli\	1	793.3	0.9	613.555555555556	0.9	559.888888888889	1	511.9	1	691	1	480.6	0.9	748.555555555556	1	700.2	13	333454	2	333442	27	40	333481	-999999	333457	0	50	TrialsPROC	BP_027_FBBHI_BA.png	3	2	28	SessionSelectionList														nonlure	3	Body	0-Back	24	80	22	0	0	92	2	39	128857	2	14	99	126818	-1	127546	1	728	3	3	2039	53	128871	-54	0																28												
WM080112	126325_fnca	3	1	1	-782435908	1	75.032	75.031	2.0.10.147	2.0.10.242	2.0.10.242	1.0.0.439	7	234	2	3	Verdana	1	80	0	0	0	WM Stimuli\	1	793.3	0.9	613.555555555556	0.9	559.888888888889	1	511.9	1	691	1	480.6	0.9	748.555555555556	1	700.2	13	333454	2	333442	27	40	333481	-999999	333457	0	50	TrialsPROC	BP_026_H8-T_BA.png	3	2	29	SessionSelectionList														target	2	Body	0-Back	25	80	23	0	0	93	1	39	131416	2	14	59	129377	-1	129929	1	552	2	2	2039	53	131430	-54	0																29												
WM080112	126325_fnca	3	1	1	-782435908	1	75.032	75.031	2.0.10.147	2.0.10.242	2.0.10.242	1.0.0.439	7	234	2	3	Verdana	1	80	0	0	0	WM Stimuli\	1	793.3	0.9	613.555555555556	0.9	559.888888888889	1	511.9	1	691	1	480.6	0.9	748.555555555556	1	700.2	13	333454	2	333442	27	40	333481	-999999	333457	0	50	TrialsPROC	BP_027_FBBHI_BA.png	3	2	30	SessionSelectionList														lure	3	Body	0-Back	26	80	24	0	0	93	1	38	133975	2	14	60	131937	-1	132535	1	598	3	3	2038	52	133989	-53	0																30												
WM080112	126325_fnca	3	1	1	-782435908	1	75.032	75.031	2.0.10.147	2.0.10.242	2.0.10.242	1.0.0.439	7	234	2	3	Verdana	1	80	0	0	0	WM Stimuli\	1	793.3	0.9	613.555555555556	0.9	559.888888888889	1	511.9	1	691	1	480.6	0.9	748.555555555556	1	700.2	13	333454	2	333442	27	40	333481	-999999	333457	0	50	TrialsPROC	BP_030_FLBFS_BA.png	3	2	31	SessionSelectionList														nonlure	3	Body	0-Back	27	80	25	0	0	94	2	39	136574	2	14	98	134535	-1	134992	1	457	3	3	2039	53	136588	-54	0																31												
WM080112	126325_fnca	3	1	1	-782435908	1	75.032	75.031	2.0.10.147	2.0.10.242	2.0.10.242	1.0.0.439	7	234	2	3	Verdana	1	80	0	0	0	WM Stimuli\	1	793.3	0.9	613.555555555556	0.9	559.888888888889	1	511.9	1	691	1	480.6	0.9	748.555555555556	1	700.2	13	333454	2	333442	27	40	333481	-999999	333457	0	50	TrialsPROC	BP_029_FLBAS_BA.png	3	2	32	SessionSelectionList														nonlure	3	Body	0-Back	28	80	26	0	0	94	3	39	139173	2	14	99	137134	-1	137631	1	497	3	3	2039	53	139187	-54	0																32												
WM080112	126325_fnca	3	1	1	-782435908	1	75.032	75.031	2.0.10.147	2.0.10.242	2.0.10.242	1.0.0.439	7	234	2	3	Verdana	1	80	0	0	0	WM Stimuli\	1	793.3	0.9	613.555555555556	0.9	559.888888888889	1	511.9	1	691	1	480.6	0.9	748.555555555556	1	700.2	13	333454	2	333442	27	40	333481	-999999	333457	0	50	TrialsPROC	BP_028_FBBHS_BA.png	3	2	33	SessionSelectionList														nonlure	3	Body	0-Back	29	80	27	0	0	94	4	39	141759	2	14	86	139720	-1	140193	1	473	3	3	2039	53	141773	-54	0																33												
WM080112	126325_fnca	3	1	1	-782435908	1	75.032	75.031	2.0.10.147	2.0.10.242	2.0.10.242	1.0.0.439	7	234	2	3	Verdana	1	80	0	0	0	WM Stimuli\	1	793.3	0.9	613.555555555556	0.9	559.888888888889	1	511.9	1	691	1	480.6	0.9	748.555555555556	1	700.2	13	333454	2	333442	27	40	333481	-999999	333457	0	50	TrialsPROC	BP_031_FLBHS_BA.png	3	2	34	SessionSelectionList														lure	3	Body	0-Back	30	80	28	0	0	95	5	39	144318	1	13	59	142279	-1	142669	1	390	3	3	2039	52	144331	-53	0																34												
WM080112	126325_fnca	3	1	1	-782435908	1	75.032	75.031	2.0.10.147	2.0.10.242	2.0.10.242	1.0.0.439	7	234	2	3	Verdana	1	80	0	0	0	WM Stimuli\	1	793.3	0.9	613.555555555556	0.9	559.888888888889	1	511.9	1	691	1	480.6	0.9	748.555555555556	1	700.2	13	333454	2	333442	27	40	333481	-999999	333457	0	50	TrialsPROC	BP_030_FLBFS_BA.png	3	2	35	SessionSelectionList														lure	3	Body	0-Back	31	80	29	0	0	95	6	39	146877	1	13	59	144838	-1	145304	1	466	3	3	2039	52	146890	-53	0																35												
WM080112	126325_fnca	3	1	1	-782435908	1	75.032	75.031	2.0.10.147	2.0.10.242	2.0.10.242	1.0.0.439	7	234	2	3	Verdana	1	80	0	0	0	WM Stimuli\	1	793.3	0.9	613.555555555556	0.9	559.888888888889	1	511.9	1	691	1	480.6	0.9	748.555555555556	1	700.2	13	333454	2	333442	27	40	333481	-999999	333457	0	51	Cue2BackPROC	""	3	2	36	SessionSelectionList									5	147343	-6	0																																													36												
WM080112	126325_fnca	3	1	1	-782435908	1	75.032	75.031	2.0.10.147	2.0.10.242	2.0.10.242	1.0.0.439	7	234	2	3	Verdana	1	80	0	0	0	WM Stimuli\	1	793.3	0.9	613.555555555556	0.9	559.888888888889	1	511.9	1	691	1	480.6	0.9	748.555555555556	1	700.2	13	333454	2	333442	27	40	333481	-999999	333457	0	52	TrialsPROC	TO_033_TOOL33_BA.png	3	2	37	SessionSelectionList														nonlure	3	Tools	2-Back	32	80	30	0	0	95	7	40	151955	1	13	77	149915	-1	151317	1	1402	3	3	2040	53	151968	-54	0																37												
WM080112	126325_fnca	3	1	1	-782435908	1	75.032	75.031	2.0.10.147	2.0.10.242	2.0.10.242	1.0.0.439	7	234	2	3	Verdana	1	80	0	0	0	WM Stimuli\	1	793.3	0.9	613.555555555556	0.9	559.888888888889	1	511.9	1	691	1	480.6	0.9	748.555555555556	1	700.2	13	333454	2	333442	27	40	333481	-999999	333457	0	52	TrialsPROC	TO_031_TOOL31_BA.png	3	2	38	SessionSelectionList														nonlure	3	Tools	2-Back	33	80	31	0	0	95	8	39	154527	1	14	73	152488	-1	152773	1	285	3	3	2039	53	154541	-54	0																38												
WM080112	126325_fnca	3	1	1	-782435908	1	75.032	75.031	2.0.10.147	2.0.10.242	2.0.10.242	1.0.0.439	7	234	2	3	Verdana	1	80	0	0	0	WM Stimuli\	1	793.3	0.9	613.555555555556	0.9	559.888888888889	1	511.9	1	691	1	480.6	0.9	748.555555555556	1	700.2	13	333454	2	333442	27	40	333481	-999999	333457	0	52	TrialsPROC	TO_031_TOOL31_BA.png	3	2	39	SessionSelectionList														lure	3	Tools	2-Back	34	80	32	0	0	95	9	39	157086	1	14	59	155047	-1	155815	1	768	3	3	2039	53	157100	-54	0																39												
WM080112	126325_fnca	3	1	1	-782435908	1	75.032	75.031	2.0.10.147	2.0.10.242	2.0.10.242	1.0.0.439	7	234	2	3	Verdana	1	80	0	0	0	WM Stimuli\	1	793.3	0.9	613.555555555556	0.9	559.888888888889	1	511.9	1	691	1	480.6	0.9	748.555555555556	1	700.2	13	333454	2	333442	27	40	333481	-999999	333457	0	52	TrialsPROC	TO_033_TOOL33_BA.png	3	2	40	SessionSelectionList														lure	3	Tools	2-Back	35	80	33	0	0	95	1	39	159645	1	14	59	157606	-1	158887	0	1281	2	3	2039	53	159659	-54	0																40												
WM080112	126325_fnca	3	1	1	-782435908	1	75.032	75.031	2.0.10.147	2.0.10.242	2.0.10.242	1.0.0.439	7	234	2	3	Verdana	1	80	0	0	0	WM Stimuli\	1	793.3	0.9	613.555555555556	0.9	559.888888888889	1	511.9	1	691	1	480.6	0.9	748.555555555556	1	700.2	13	333454	2	333442	27	40	333481	-999999	333457	0	52	TrialsPROC	TO_036_TOOL36_BA.png	3	2	41	SessionSelectionList														nonlure	3	Tools	2-Back	36	80	34	0	0	95	1	39	162244	1	13	99	160205	-1	161040	1	835	3	3	2039	52	162257	-53	0																41												
WM080112	126325_fnca	3	1	1	-782435908	1	75.032	75.031	2.0.10.147	2.0.10.242	2.0.10.242	1.0.0.439	7	234	2	3	Verdana	1	80	0	0	0	WM Stimuli\	1	793.3	0.9	613.555555555556	0.9	559.888888888889	1	511.9	1	691	1	480.6	0.9	748.555555555556	1	700.2	13	333454	2	333442	27	40	333481	-999999	333457	0	52	TrialsPROC	TO_034_TOOL34_BA.png	3	2	42	SessionSelectionList														nonlure	3	Tools	2-Back	37	80	35	0	0	95	2	39	164803	1	13	59	162764	-1	163423	1	659	3	3	2039	52	164816	-53	0																42												
WM080112	126325_fnca	3	1	1	-782435908	1	75.032	75.031	2.0.10.147	2.0.10.242	2.0.10.242	1.0.0.439	7	234	2	3	Verdana	1	80	0	0	0	WM Stimuli\	1	793.3	0.9	613.555555555556	0.9	559.888888888889	1	511.9	1	691	1	480.6	0.9	748.555555555556	1	700.2	13	333454	2	333442	27	40	333481	-999999	333457	0	52	TrialsPROC	TO_032_TOOL32_BA.png	3	2	43	SessionSelectionList														nonlure	3	Tools	2-Back	38	80	36	0	0	95	3	39	167375	1	14	72	165336	-1	165924	1	588	3	3	2039	53	167389	-54	0																43												
WM080112	126325_fnca	3	1	1	-782435908	1	75.032	75.031	2.0.10.147	2.0.10.242	2.0.10.242	1.0.0.439	7	234	2	3	Verdana	1	80	0	0	0	WM Stimuli\	1	793.3	0.9	613.555555555556	0.9	559.888888888889	1	511.9	1	691	1	480.6	0.9	748.555555555556	1	700.2	13	333454	2	333442	27	40	333481	-999999	333457	0	52	TrialsPROC	TO_034_TOOL34_BA.png	3	2	44	SessionSelectionList														target	2	Tools	2-Back	39	80	37	0	0	95	1	39	169934	1	14	59	167895	-1	168694	1	799	2	2	2039	53	169948	-54	0																44												
WM080112	126325_fnca	3	1	1	-782435908	1	75.032	75.031	2.0.10.147	2.0.10.242	2.0.10.242	1.0.0.439	7	234	2	3	Verdana	1	80	0	0	0	WM Stimuli\	1	793.3	0.9	613.555555555556	0.9	559.888888888889	1	511.9	1	691	1	480.6	0.9	748.555555555556	1	700.2	13	333454	2	333442	27	40	333481	-999999	333457	0	52	TrialsPROC	TO_032_TOOL32_BA.png	3	2	45	SessionSelectionList														target	2	Tools	2-Back	40	80	38	0	0	95	2	39	172493	1	14	59	170454	-1	171107	1	653	2	2	2039	53	172507	-54	0																45												
WM080112	126325_fnca	3	1	1	-782435908	1	75.032	75.031	2.0.10.147	2.0.10.242	2.0.10.242	1.0.0.439	7	234	2	3	Verdana	1	80	0	0	0	WM Stimuli\	1	793.3	0.9	613.555555555556	0.9	559.888888888889	1	511.9	1	691	1	480.6	0.9	748.555555555556	1	700.2	13	333454	2	333442	27	40	333481	-999999	333457	0	52	TrialsPROC	TO_035_TOOL35_BA.png	3	2	46	SessionSelectionList														nonlure	3	Tools	2-Back	41	80	39	0	0	95	1	39	175065	2	14	72	173026	-1	173774	1	748	3	3	2039	53	175079	-54	0																46												
WM080112	126325_fnca	3	1	1	-782435908	1	75.032	75.031	2.0.10.147	2.0.10.242	2.0.10.242	1.0.0.439	7	234	2	3	Verdana	1	80	0	0	0	WM Stimuli\	1	793.3	0.9	613.555555555556	0.9	559.888888888889	1	511.9	1	691	1	480.6	0.9	748.555555555556	1	700.2	13	333454	2	333442	27	40	333481	-999999	333457	0	53	Fix15secPROC	""	3	2	47	SessionSelectionList																																															6	175532	-7	0							47												
WM080112	126325_fnca	3	1	1	-782435908	1	75.032	75.031	2.0.10.147	2.0.10.242	2.0.10.242	1.0.0.439	7	234	2	3	Verdana	1	80	0	0	0	WM Stimuli\	1	793.3	0.9	613.555555555556	0.9	559.888888888889	1	511.9	1	691	1	480.6	0.9	748.555555555556	1	700.2	13	333454	2	333442	27	40	333481	-999999	333457	0	54	Cue2BackPROC	""	3	2	48	SessionSelectionList									13	190539	-14	0																																													48												
WM080112	126325_fnca	3	1	1	-782435908	1	75.032	75.031	2.0.10.147	2.0.10.242	2.0.10.242	1.0.0.439	7	234	2	3	Verdana	1	80	0	0	0	WM Stimuli\	1	793.3	0.9	613.555555555556	0.9	559.888888888889	1	511.9	1	691	1	480.6	0.9	748.555555555556	1	700.2	13	333454	2	333442	27	40	333481	-999999	333457	0	55	TrialsPROC	PL_032_COLORADO.png	3	2	49	SessionSelectionList														nonlure	3	Place	2-Back	42	80	40	0	0	95	2	39	195137	1	14	72	193098	-1	194100	1	1002	3	3	2039	53	195151	-54	0																49												
WM080112	126325_fnca	3	1	1	-782435908	1	75.032	75.031	2.0.10.147	2.0.10.242	2.0.10.242	1.0.0.439	7	234	2	3	Verdana	1	80	0	0	0	WM Stimuli\	1	793.3	0.9	613.555555555556	0.9	559.888888888889	1	511.9	1	691	1	480.6	0.9	748.555555555556	1	700.2	13	333454	2	333442	27	40	333481	-999999	333457	0	55	TrialsPROC	PL_029_SCENE_39.png	3	2	50	SessionSelectionList														nonlure	3	Place	2-Back	43	80	41	0	0	95	3	39	197709	2	14	72	195670	-1	195959	1	289	3	3	2039	53	197723	-54	0																50												
WM080112	126325_fnca	3	1	1	-782435908	1	75.032	75.031	2.0.10.147	2.0.10.242	2.0.10.242	1.0.0.439	7	234	2	3	Verdana	1	80	0	0	0	WM Stimuli\	1	793.3	0.9	613.555555555556	0.9	559.888888888889	1	511.9	1	691	1	480.6	0.9	748.555555555556	1	700.2	13	333454	2	333442	27	40	333481	-999999	333457	0	55	TrialsPROC	PL_032_COLORADO.png	3	2	51	SessionSelectionList														target	2	Place	2-Back	44	80	42	0	0	95	1	39	200268	2	14	59	198229	-1	198776	1	547	2	2	2039	53	200282	-54	0																51												
WM080112	126325_fnca	3	1	1	-782435908	1	75.032	75.031	2.0.10.147	2.0.10.242	2.0.10.242	1.0.0.439	7	234	2	3	Verdana	1	80	0	0	0	WM Stimuli\	1	793.3	0.9	613.555555555556	0.9	559.888888888889	1	511.9	1	691	1	480.6	0.9	748.555555555556	1	700.2	13	333454	2	333442	27	40	333481	-999999	333457	0	55	TrialsPROC	PL_028_SCENE_35.png	3	2	52	SessionSelectionList														nonlure	3	Place	2-Back	45	80	43	0	0	95	1	39	202840	2	14	72	200801	-1	201330	1	529	3	3	2039	53	202854	-54	0																52												
WM080112	126325_fnca	3	1	1	-782435908	1	75.032	75.031	2.0.10.147	2.0.10.242	2.0.10.242	1.0.0.439	7	234	2	3	Verdana	1	80	0	0	0	WM Stimuli\	1	793.3	0.9	613.555555555556	0.9	559.888888888889	1	511.9	1	691	1	480.6	0.9	748.555555555556	1	700.2	13	333454	2	333442	27	40	333481	-999999	333457	0	55	TrialsPROC	PL_031_CANAL.png	3	2	53	SessionSelectionList														nonlure	3	Place	2-Back	46	80	44	0	0	95	2	39	205413	1	13	73	203374	-1	203884	1	510	3	3	2039	52	205426	-53	0																53												
WM080112	126325_fnca	3	1	1	-782435908	1	75.032	75.031	2.0.10.147	2.0.10.242	2.0.10.242	1.0.0.439	7	234	2	3	Verdana	1	80	0	0	0	WM Stimuli\	1	793.3	0.9	613.555555555556	0.9	559.888888888889	1	511.9	1	691	1	480.6	0.9	748.555555555556	1	700.2	13	333454	2	333442	27	40	333481	-999999	333457	0	55	TrialsPROC	PL_030_SCENE_40.png	3	2	54	SessionSelectionList														nonlure	3	Place	2-Back	47	80	45	0	0	95	3	39	207998	2	14	85	205959	-1	206426	1	467	3	3	2039	53	208012	-54	0																54												
WM080112	126325_fnca	3	1	1	-782435908	1	75.032	75.031	2.0.10.147	2.0.10.242	2.0.10.242	1.0.0.439	7	234	2	3	Verdana	1	80	0	0	0	WM Stimuli\	1	793.3	0.9	613.555555555556	0.9	559.888888888889	1	511.9	1	691	1	480.6	0.9	748.555555555556	1	700.2	13	333454	2	333442	27	40	333481	-999999	333457	0	55	TrialsPROC	PL_031_CANAL.png	3	2	55	SessionSelectionList														target	2	Place	2-Back	48	80	46	0	0	95	1	39	210557	2	14	59	208518	-1	209164	1	646	2	2	2039	53	210571	-54	0																55												
WM080112	126325_fnca	3	1	1	-782435908	1	75.032	75.031	2.0.10.147	2.0.10.242	2.0.10.242	1.0.0.439	7	234	2	3	Verdana	1	80	0	0	0	WM Stimuli\	1	793.3	0.9	613.555555555556	0.9	559.888888888889	1	511.9	1	691	1	480.6	0.9	748.555555555556	1	700.2	13	333454	2	333442	27	40	333481	-999999	333457	0	55	TrialsPROC	PL_028_SCENE_35.png	3	2	56	SessionSelectionList														lure	3	Place	2-Back	49	80	47	0	0	95	1	40	213130	1	13	72	211090	-1	212169	1	1079	3	3	2040	53	213143	-54	0																56												
WM080112	126325_fnca	3	1	1	-782435908	1	75.032	75.031	2.0.10.147	2.0.10.242	2.0.10.242	1.0.0.439	7	234	2	3	Verdana	1	80	0	0	0	WM Stimuli\	1	793.3	0.9	613.555555555556	0.9	559.888888888889	1	511.9	1	691	1	480.6	0.9	748.555555555556	1	700.2	13	333454	2	333442	27	40	333481	-999999	333457	0	55	TrialsPROC	PL_027_SCENE_27.png	3	2	57	SessionSelectionList														nonlure	3	Place	2-Back	50	80	48	0	0	95	2	39	215715	2	14	86	213676	-1	214619	1	943	3	3	2039	53	215729	-54	0																57												
WM080112	126325_fnca	3	1	1	-782435908	1	75.032	75.031	2.0.10.147	2.0.10.242	2.0.10.242	1.0.0.439	7	234	2	3	Verdana	1	80	0	0	0	WM Stimuli\	1	793.3	0.9	613.555555555556	0.9	559.888888888889	1	511.9	1	691	1	480.6	0.9	748.555555555556	1	700.2	13	333454	2	333442	27	40	333481	-999999	333457	0	55	TrialsPROC	PL_027_SCENE_27.png	3	2	58	SessionSelectionList														lure	3	Place	2-Back	51	80	49	0	0	95	3	39	218287	2	14	72	216248	-1	217146	1	898	3	3	2039	53	218301	-54	0																58												
WM080112	126325_fnca	3	1	1	-782435908	1	75.032	75.031	2.0.10.147	2.0.10.242	2.0.10.242	1.0.0.439	7	234	2	3	Verdana	1	80	0	0	0	WM Stimuli\	1	793.3	0.9	613.555555555556	0.9	559.888888888889	1	511.9	1	691	1	480.6	0.9	748.555555555556	1	700.2	13	333454	2	333442	27	40	333481	-999999	333457	0	56	Cue0BackPROC	FC_032_F16.png	3	2	59	SessionSelectionList																																										33	218781	-34	0												59												
WM080112	126325_fnca	3	1	1	-782435908	1	75.032	75.031	2.0.10.147	2.0.10.242	2.0.10.242	1.0.0.439	7	234	2	3	Verdana	1	80	0	0	0	WM Stimuli\	1	793.3	0.9	613.555555555556	0.9	559.888888888889	1	511.9	1	691	1	480.6	0.9	748.555555555556	1	700.2	13	333454	2	333442	27	40	333481	-999999	333457	0	57	TrialsPROC	FC_033_M17.png	3	2	60	SessionSelectionList														nonlure	3	Face	0-Back	52	80	50	0	0	95	4	39	223365	2	14	78	221326	-1	222092	1	766	3	3	2039	53	223379	-54	0																60												
WM080112	126325_fnca	3	1	1	-782435908	1	75.032	75.031	2.0.10.147	2.0.10.242	2.0.10.242	1.0.0.439	7	234	2	3	Verdana	1	80	0	0	0	WM Stimuli\	1	793.3	0.9	613.555555555556	0.9	559.888888888889	1	511.9	1	691	1	480.6	0.9	748.555555555556	1	700.2	13	333454	2	333442	27	40	333481	-999999	333457	0	57	TrialsPROC	FC_032_F16.png	3	2	61	SessionSelectionList														target	2	Face	0-Back	53	80	51	0	0	95	1	40	225938	1	13	72	223898	-1	224425	1	527	2	2	2040	53	225951	-54	0																61												
WM080112	126325_fnca	3	1	1	-782435908	1	75.032	75.031	2.0.10.147	2.0.10.242	2.0.10.242	1.0.0.439	7	234	2	3	Verdana	1	80	0	0	0	WM Stimuli\	1	793.3	0.9	613.555555555556	0.9	559.888888888889	1	511.9	1	691	1	480.6	0.9	748.555555555556	1	700.2	13	333454	2	333442	27	40	333481	-999999	333457	0	57	TrialsPROC	FC_035_M18.png	3	2	62	SessionSelectionList														nonlure	3	Face	0-Back	54	80	52	0	0	96	1	40	228537	1	13	99	226497	-1	226753	1	256	3	3	2040	53	228550	-54	0																62												
WM080112	126325_fnca	3	1	1	-782435908	1	75.032	75.031	2.0.10.147	2.0.10.242	2.0.10.242	1.0.0.439	7	234	2	3	Verdana	1	80	0	0	0	WM Stimuli\	1	793.3	0.9	613.555555555556	0.9	559.888888888889	1	511.9	1	691	1	480.6	0.9	748.555555555556	1	700.2	13	333454	2	333442	27	40	333481	-999999	333457	0	57	TrialsPROC	FC_036_F18.png	3	2	63	SessionSelectionList														nonlure	3	Face	0-Back	55	80	53	0	0	96	2	39	231122	2	14	86	229083	-1	229522	1	439	3	3	2039	53	231136	-54	0																63												
WM080112	126325_fnca	3	1	1	-782435908	1	75.032	75.031	2.0.10.147	2.0.10.242	2.0.10.242	1.0.0.439	7	234	2	3	Verdana	1	80	0	0	0	WM Stimuli\	1	793.3	0.9	613.555555555556	0.9	559.888888888889	1	511.9	1	691	1	480.6	0.9	748.555555555556	1	700.2	13	333454	2	333442	27	40	333481	-999999	333457	0	57	TrialsPROC	FC_032_F16.png	3	2	64	SessionSelectionList														target	2	Face	0-Back	56	80	54	0	0	96	1	39	233694	2	14	72	231655	-1	232309	1	654	2	2	2039	53	233708	-54	0																64												
WM080112	126325_fnca	3	1	1	-782435908	1	75.032	75.031	2.0.10.147	2.0.10.242	2.0.10.242	1.0.0.439	7	234	2	3	Verdana	1	80	0	0	0	WM Stimuli\	1	793.3	0.9	613.555555555556	0.9	559.888888888889	1	511.9	1	691	1	480.6	0.9	748.555555555556	1	700.2	13	333454	2	333442	27	40	333481	-999999	333457	0	57	TrialsPROC	FC_031_M16.png	3	2	65	SessionSelectionList														nonlure	3	Face	0-Back	57	80	55	0	0	96	1	39	236280	2	14	86	234241	-1	234635	1	394	3	3	2039	53	236294	-54	0																65												
WM080112	126325_fnca	3	1	1	-782435908	1	75.032	75.031	2.0.10.147	2.0.10.242	2.0.10.242	1.0.0.439	7	234	2	3	Verdana	1	80	0	0	0	WM Stimuli\	1	793.3	0.9	613.555555555556	0.9	559.888888888889	1	511.9	1	691	1	480.6	0.9	748.555555555556	1	700.2	13	333454	2	333442	27	40	333481	-999999	333457	0	57	TrialsPROC	FC_036_F18.png	3	2	66	SessionSelectionList														lure	3	Face	0-Back	58	80	56	0	0	96	2	39	238852	2	14	72	236813	-1	237347	1	534	3	3	2039	53	238866	-54	0																66												
WM080112	126325_fnca	3	1	1	-782435908	1	75.032	75.031	2.0.10.147	2.0.10.242	2.0.10.242	1.0.0.439	7	234	2	3	Verdana	1	80	0	0	0	WM Stimuli\	1	793.3	0.9	613.555555555556	0.9	559.888888888889	1	511.9	1	691	1	480.6	0.9	748.555555555556	1	700.2	13	333454	2	333442	27	40	333481	-999999	333457	0	57	TrialsPROC	FC_035_M18.png	3	2	67	SessionSelectionList														lure	3	Face	0-Back	59	80	57	0	0	96	3	40	241425	1	13	72	239385	-1	239881	1	496	3	3	2040	53	241438	-54	0																67												
WM080112	126325_fnca	3	1	1	-782435908	1	75.032	75.031	2.0.10.147	2.0.10.242	2.0.10.242	1.0.0.439	7	234	2	3	Verdana	1	80	0	0	0	WM Stimuli\	1	793.3	0.9	613.555555555556	0.9	559.888888888889	1	511.9	1	691	1	480.6	0.9	748.555555555556	1	700.2	13	333454	2	333442	27	40	333481	-999999	333457	0	57	TrialsPROC	FC_034_F17.png	3	2	68	SessionSelectionList														nonlure	3	Face	0-Back	60	80	58	0	0	97	4	39	244010	2	14	86	241971	-1	242459	1	488	3	3	2039	53	244024	-54	0																68												
WM080112	126325_fnca	3	1	1	-782435908	1	75.032	75.031	2.0.10.147	2.0.10.242	2.0.10.242	1.0.0.439	7	234	2	3	Verdana	1	80	0	0	0	WM Stimuli\	1	793.3	0.9	613.555555555556	0.9	559.888888888889	1	511.9	1	691	1	480.6	0.9	748.555555555556	1	700.2	13	333454	2	333442	27	40	333481	-999999	333457	0	57	TrialsPROC	FC_033_M17.png	3	2	69	SessionSelectionList														lure	3	Face	0-Back	61	80	59	0	0	97	5	40	246583	1	13	72	244543	-1	245108	1	565	3	3	2040	53	246596	-54	0																69												
WM080112	126325_fnca	3	1	1	-782435908	1	75.032	75.031	2.0.10.147	2.0.10.242	2.0.10.242	1.0.0.439	7	234	2	3	Verdana	1	80	0	0	0	WM Stimuli\	1	793.3	0.9	613.555555555556	0.9	559.888888888889	1	511.9	1	691	1	480.6	0.9	748.555555555556	1	700.2	13	333454	2	333442	27	40	333481	-999999	333457	0	58	Fix15secPROC	""	3	2	70	SessionSelectionList																																															6	247049	-7	0							70												
WM080112	126325_fnca	3	1	1	-782435908	1	75.032	75.031	2.0.10.147	2.0.10.242	2.0.10.242	1.0.0.439	7	234	2	3	Verdana	1	80	0	0	0	WM Stimuli\	1	793.3	0.9	613.555555555556	0.9	559.888888888889	1	511.9	1	691	1	480.6	0.9	748.555555555556	1	700.2	13	333454	2	333442	27	40	333481	-999999	333457	0	59	Cue0BackPROC	PL_033_DESERT.png	3	2	71	SessionSelectionList																																										26	262069	-27	0												71												
WM080112	126325_fnca	3	1	1	-782435908	1	75.032	75.031	2.0.10.147	2.0.10.242	2.0.10.242	1.0.0.439	7	234	2	3	Verdana	1	80	0	0	0	WM Stimuli\	1	793.3	0.9	613.555555555556	0.9	559.888888888889	1	511.9	1	691	1	480.6	0.9	748.555555555556	1	700.2	13	333454	2	333442	27	40	333481	-999999	333457	0	60	TrialsPROC	PL_035_LEXINGTON02.png	3	2	72	SessionSelectionList														nonlure	3	Place	0-Back	62	80	60	0	0	97	6	39	266654	2	14	72	264615	-1	265161	1	546	3	3	2039	53	266668	-54	0																72												
WM080112	126325_fnca	3	1	1	-782435908	1	75.032	75.031	2.0.10.147	2.0.10.242	2.0.10.242	1.0.0.439	7	234	2	3	Verdana	1	80	0	0	0	WM Stimuli\	1	793.3	0.9	613.555555555556	0.9	559.888888888889	1	511.9	1	691	1	480.6	0.9	748.555555555556	1	700.2	13	333454	2	333442	27	40	333481	-999999	333457	0	60	TrialsPROC	PL_038_LEXINGTON05.png	3	2	73	SessionSelectionList														nonlure	3	Place	0-Back	63	80	61	0	0	97	7	39	269240	1	14	86	267201	-1	267582	1	381	3	3	2039	53	269254	-54	0																73												
WM080112	126325_fnca	3	1	1	-782435908	1	75.032	75.031	2.0.10.147	2.0.10.242	2.0.10.242	1.0.0.439	7	234	2	3	Verdana	1	80	0	0	0	WM Stimuli\	1	793.3	0.9	613.555555555556	0.9	559.888888888889	1	511.9	1	691	1	480.6	0.9	748.555555555556	1	700.2	13	333454	2	333442	27	40	333481	-999999	333457	0	60	TrialsPROC	PL_033_DESERT.png	3	2	74	SessionSelectionList														target	2	Place	0-Back	64	80	62	0	0	97	1	39	271799	1	14	59	269760	-1	270274	1	514	2	2	2039	53	271813	-54	0																74												
WM080112	126325_fnca	3	1	1	-782435908	1	75.032	75.031	2.0.10.147	2.0.10.242	2.0.10.242	1.0.0.439	7	234	2	3	Verdana	1	80	0	0	0	WM Stimuli\	1	793.3	0.9	613.555555555556	0.9	559.888888888889	1	511.9	1	691	1	480.6	0.9	748.555555555556	1	700.2	13	333454	2	333442	27	40	333481	-999999	333457	0	60	TrialsPROC	PL_037_LEXINGTON04.png	3	2	75	SessionSelectionList														nonlure	3	Place	0-Back	65	80	63	0	0	97	1	39	274384	2	14	85	272345	-1	272902	1	557	3	3	2039	53	274398	-54	0																75												
WM080112	126325_fnca	3	1	1	-782435908	1	75.032	75.031	2.0.10.147	2.0.10.242	2.0.10.242	1.0.0.439	7	234	2	3	Verdana	1	80	0	0	0	WM Stimuli\	1	793.3	0.9	613.555555555556	0.9	559.888888888889	1	511.9	1	691	1	480.6	0.9	748.555555555556	1	700.2	13	333454	2	333442	27	40	333481	-999999	333457	0	60	TrialsPROC	PL_037_LEXINGTON04.png	3	2	76	SessionSelectionList														lure	3	Place	0-Back	66	80	64	0	0	97	2	39	276943	2	14	59	274904	-1	275218	1	314	3	3	2039	53	276957	-54	0																76												
WM080112	126325_fnca	3	1	1	-782435908	1	75.032	75.031	2.0.10.147	2.0.10.242	2.0.10.242	1.0.0.439	7	234	2	3	Verdana	1	80	0	0	0	WM Stimuli\	1	793.3	0.9	613.555555555556	0.9	559.888888888889	1	511.9	1	691	1	480.6	0.9	748.555555555556	1	700.2	13	333454	2	333442	27	40	333481	-999999	333457	0	60	TrialsPROC	PL_038_LEXINGTON05.png	3	2	77	SessionSelectionList														lure	3	Place	0-Back	67	80	65	0	0	97	3	39	279502	2	14	59	277463	-1	277934	1	471	3	3	2039	53	279516	-54	0																77												
WM080112	126325_fnca	3	1	1	-782435908	1	75.032	75.031	2.0.10.147	2.0.10.242	2.0.10.242	1.0.0.439	7	234	2	3	Verdana	1	80	0	0	0	WM Stimuli\	1	793.3	0.9	613.555555555556	0.9	559.888888888889	1	511.9	1	691	1	480.6	0.9	748.555555555556	1	700.2	13	333454	2	333442	27	40	333481	-999999	333457	0	60	TrialsPROC	PL_034_FOXISLAND.png	3	2	78	SessionSelectionList														nonlure	3	Place	0-Back	68	80	66	0	0	97	4	40	282075	1	13	72	280035	-1	280537	1	502	3	3	2040	53	282088	-54	0																78												
WM080112	126325_fnca	3	1	1	-782435908	1	75.032	75.031	2.0.10.147	2.0.10.242	2.0.10.242	1.0.0.439	7	234	2	3	Verdana	1	80	0	0	0	WM Stimuli\	1	793.3	0.9	613.555555555556	0.9	559.888888888889	1	511.9	1	691	1	480.6	0.9	748.555555555556	1	700.2	13	333454	2	333442	27	40	333481	-999999	333457	0	60	TrialsPROC	PL_036_LEXINGTON03.png	3	2	79	SessionSelectionList														nonlure	3	Place	0-Back	69	80	67	0	0	97	5	39	284647	1	14	73	282608	-1	283122	1	514	3	3	2039	53	284661	-54	0																79												
WM080112	126325_fnca	3	1	1	-782435908	1	75.032	75.031	2.0.10.147	2.0.10.242	2.0.10.242	1.0.0.439	7	234	2	3	Verdana	1	80	0	0	0	WM Stimuli\	1	793.3	0.9	613.555555555556	0.9	559.888888888889	1	511.9	1	691	1	480.6	0.9	748.555555555556	1	700.2	13	333454	2	333442	27	40	333481	-999999	333457	0	60	TrialsPROC	PL_033_DESERT.png	3	2	80	SessionSelectionList														target	2	Place	0-Back	70	80	68	0	0	97	1	39	287206	1	14	59	285167	-1	285713	1	546	2	2	2039	53	287220	-54	0																80												
WM080112	126325_fnca	3	1	1	-782435908	1	75.032	75.031	2.0.10.147	2.0.10.242	2.0.10.242	1.0.0.439	7	234	2	3	Verdana	1	80	0	0	0	WM Stimuli\	1	793.3	0.9	613.555555555556	0.9	559.888888888889	1	511.9	1	691	1	480.6	0.9	748.555555555556	1	700.2	13	333454	2	333442	27	40	333481	-999999	333457	0	60	TrialsPROC	PL_036_LEXINGTON03.png	3	2	81	SessionSelectionList														lure	3	Place	0-Back	71	80	69	0	0	98	1	39	289765	2	14	59	287726	-1	288187	1	461	3	3	2039	53	289779	-54	0																81												
WM080112	126325_fnca	3	1	1	-782435908	1	75.032	75.031	2.0.10.147	2.0.10.242	2.0.10.242	1.0.0.439	7	234	2	3	Verdana	1	80	0	0	0	WM Stimuli\	1	793.3	0.9	613.555555555556	0.9	559.888888888889	1	511.9	1	691	1	480.6	0.9	748.555555555556	1	700.2	13	333454	2	333442	27	40	333481	-999999	333457	0	61	Cue2BackPROC	""	3	2	82	SessionSelectionList									5	290231	-6	0																																													82												
WM080112	126325_fnca	3	1	1	-782435908	1	75.032	75.031	2.0.10.147	2.0.10.242	2.0.10.242	1.0.0.439	7	234	2	3	Verdana	1	80	0	0	0	WM Stimuli\	1	793.3	0.9	613.555555555556	0.9	559.888888888889	1	511.9	1	691	1	480.6	0.9	748.555555555556	1	700.2	13	333454	2	333442	27	40	333481	-999999	333457	0	62	TrialsPROC	BP_035_FLPUS_BA.png	3	2	83	SessionSelectionList														nonlure	3	Body	2-Back	72	80	70	0	0	98	2	39	294829	2	14	64	292790	-1	293802	1	1012	3	3	2039	53	294843	-54	0																83												
WM080112	126325_fnca	3	1	1	-782435908	1	75.032	75.031	2.0.10.147	2.0.10.242	2.0.10.242	1.0.0.439	7	234	2	3	Verdana	1	80	0	0	0	WM Stimuli\	1	793.3	0.9	613.555555555556	0.9	559.888888888889	1	511.9	1	691	1	480.6	0.9	748.555555555556	1	700.2	13	333454	2	333442	27	40	333481	-999999	333457	0	62	TrialsPROC	BP_037_FRBFS_BA.png	3	2	84	SessionSelectionList														nonlure	3	Body	2-Back	73	80	71	0	0	98	3	39	297402	1	13	73	295363	-1	295605	1	242	3	3	2039	52	297415	-53	0																84												
WM080112	126325_fnca	3	1	1	-782435908	1	75.032	75.031	2.0.10.147	2.0.10.242	2.0.10.242	1.0.0.439	7	234	2	3	Verdana	1	80	0	0	0	WM Stimuli\	1	793.3	0.9	613.555555555556	0.9	559.888888888889	1	511.9	1	691	1	480.6	0.9	748.555555555556	1	700.2	13	333454	2	333442	27	40	333481	-999999	333457	0	62	TrialsPROC	BP_036_FRBAI_BA.png	3	2	85	SessionSelectionList														nonlure	3	Body	2-Back	74	80	72	0	0	98	4	39	299987	2	14	85	297948	-1	298516	1	568	3	3	2039	53	300001	-54	0																85												
WM080112	126325_fnca	3	1	1	-782435908	1	75.032	75.031	2.0.10.147	2.0.10.242	2.0.10.242	1.0.0.439	7	234	2	3	Verdana	1	80	0	0	0	WM Stimuli\	1	793.3	0.9	613.555555555556	0.9	559.888888888889	1	511.9	1	691	1	480.6	0.9	748.555555555556	1	700.2	13	333454	2	333442	27	40	333481	-999999	333457	0	62	TrialsPROC	BP_037_FRBFS_BA.png	3	2	86	SessionSelectionList														target	2	Body	2-Back	75	80	73	0	0	98	1	39	302547	1	13	60	300508	-1	301028	1	520	2	2	2039	52	302560	-53	0																86												
WM080112	126325_fnca	3	1	1	-782435908	1	75.032	75.031	2.0.10.147	2.0.10.242	2.0.10.242	1.0.0.439	7	234	2	3	Verdana	1	80	0	0	0	WM Stimuli\	1	793.3	0.9	613.555555555556	0.9	559.888888888889	1	511.9	1	691	1	480.6	0.9	748.555555555556	1	700.2	13	333454	2	333442	27	40	333481	-999999	333457	0	62	TrialsPROC	BP_036_FRBAI_BA.png	3	2	87	SessionSelectionList														target	2	Body	2-Back	76	80	74	0	0	98	2	40	305119	1	13	71	303079	-1	303808	1	729	2	2	2040	53	305132	-54	0																87												
WM080112	126325_fnca	3	1	1	-782435908	1	75.032	75.031	2.0.10.147	2.0.10.242	2.0.10.242	1.0.0.439	7	234	2	3	Verdana	1	80	0	0	0	WM Stimuli\	1	793.3	0.9	613.555555555556	0.9	559.888888888889	1	511.9	1	691	1	480.6	0.9	748.555555555556	1	700.2	13	333454	2	333442	27	40	333481	-999999	333457	0	62	TrialsPROC	BP_033_FLCHS_BA.png	3	2	88	SessionSelectionList														nonlure	3	Body	2-Back	77	80	75	0	0	98	1	39	307704	2	14	86	305665	-1	306424	1	759	3	3	2039	53	307718	-54	0																88												
WM080112	126325_fnca	3	1	1	-782435908	1	75.032	75.031	2.0.10.147	2.0.10.242	2.0.10.242	1.0.0.439	7	234	2	3	Verdana	1	80	0	0	0	WM Stimuli\	1	793.3	0.9	613.555555555556	0.9	559.888888888889	1	511.9	1	691	1	480.6	0.9	748.555555555556	1	700.2	13	333454	2	333442	27	40	333481	-999999	333457	0	62	TrialsPROC	BP_032_FLCHI_BA.png	3	2	89	SessionSelectionList														nonlure	3	Body	2-Back	78	80	76	0	0	98	2	39	310290	1	14	86	308251	-1	308862	1	611	3	3	2039	53	310304	-54	0																89												
WM080112	126325_fnca	3	1	1	-782435908	1	75.032	75.031	2.0.10.147	2.0.10.242	2.0.10.242	1.0.0.439	7	234	2	3	Verdana	1	80	0	0	0	WM Stimuli\	1	793.3	0.9	613.555555555556	0.9	559.888888888889	1	511.9	1	691	1	480.6	0.9	748.555555555556	1	700.2	13	333454	2	333442	27	40	333481	-999999	333457	0	62	TrialsPROC	BP_034_FLPUI_BA.png	3	2	90	SessionSelectionList														nonlure	3	Body	2-Back	79	80	77	0	0	98	3	39	312862	2	14	72	310823	-1	311700	1	877	3	3	2039	53	312876	-54	0																90												
WM080112	126325_fnca	3	1	1	-782435908	1	75.032	75.031	2.0.10.147	2.0.10.242	2.0.10.242	1.0.0.439	7	234	2	3	Verdana	1	80	0	0	0	WM Stimuli\	1	793.3	0.9	613.555555555556	0.9	559.888888888889	1	511.9	1	691	1	480.6	0.9	748.555555555556	1	700.2	13	333454	2	333442	27	40	333481	-999999	333457	0	62	TrialsPROC	BP_034_FLPUI_BA.png	3	2	91	SessionSelectionList														lure	3	Body	2-Back	80	80	78	0	0	98	4	39	315421	2	14	59	313382	-1	314765	1	1383	3	3	2039	53	315435	-54	0																91												
WM080112	126325_fnca	3	1	1	-782435908	1	75.032	75.031	2.0.10.147	2.0.10.242	2.0.10.242	1.0.0.439	7	234	2	3	Verdana	1	80	0	0	0	WM Stimuli\	1	793.3	0.9	613.555555555556	0.9	559.888888888889	1	511.9	1	691	1	480.6	0.9	748.555555555556	1	700.2	13	333454	2	333442	27	40	333481	-999999	333457	0	62	TrialsPROC	BP_033_FLCHS_BA.png	3	2	92	SessionSelectionList														lure	3	Body	2-Back	80	80	79	0	0	98	5	39	317980	1	14	59	315941	-1	317173	1	1232	3	3	2039	53	317994	-54	0																92												
WM080112	126325_fnca	3	1	1	-782435908	1	75.032	75.031	2.0.10.147	2.0.10.242	2.0.10.242	1.0.0.439	7	234	2	3	Verdana	1	80	0	0	0	WM Stimuli\	1	793.3	0.9	613.555555555556	0.9	559.888888888889	1	511.9	1	691	1	480.6	0.9	748.555555555556	1	700.2	13	333454	2	333442	27	40	333481	-999999	333457	0	63	Fix15secPROC	""	3	2	93	SessionSelectionList																																															6	318447	-7	0							93												
