ExperimentName	HCPID	RunNumber	Subject	Session	RandomSeed	Group	Laptop.RefreshRate	ScannerD2.RefreshRate	StudioVersion	RuntimeVersion	RuntimeVersionExpected	ExperimentVersion	triggercode	Allowed	Target	Nontarget	FontStyle	RunTrialNumber[Session]	TrialsPerRun[Session]	TotalRespGreater200[Session]	ConsecRTLess200[Session]	ConsecNonResp[Session]	StimuliDir	ACC_2_Back_Body	Avg_RT_For_Correct_Trials_2_Back_Body	ACC_0_Back_Body	Avg_RT_For_Correct_Trials_0_Back_Body	ACC_2_Back_Face	Avg_RT_For_Correct_Trials_2_Back_Face	ACC_0_Back_Face	Avg_RT_For_Correct_Trials_0_Back_Face	ACC_2_Back_Place	Avg_RT_For_Correct_Trials_2_Back_Place	ACC_0_Back_Place	Avg_RT_For_Correct_Trials_0_Back_Place	ACC_2_Back_Tools	Avg_RT_For_Correct_Trials_2_Back_Tools	ACC_0_Back_Tools	Avg_RT_For_Correct_Trials_0_Back_Tools	ExpInstrucFeelFreeToRest.OnsetDelay	ExpInstrucFeelFreeToRest.OnsetTime	ExpInstrucFeelFreeToRest.DurationError	ExpInstrucFeelFreeToRest.StartTime	ExpInstrucFeelFreeToRest.OnsetToOnsetTime	FeelFreeToRest.OnsetDelay	FeelFreeToRest.OnsetTime	FeelFreeToRest.DurationError	FeelFreeToRest.StartTime	FeelFreeToRest.OnsetToOnsetTime	SessionSelectionList	Procedure[Block]	Stimulus[Block]	RunNumberFilterValue	SessionSelectionList.Cycle	SessionSelectionList.Sample	Running[Block]	IntroButtonMap.OnsetDelay	IntroButtonMap.OnsetTime	IntroButtonMap.DurationError	IntroButtonMap.OnsetToOnsetTime	GetReady.OnsetDelay	GetReady.OnsetTime	GetReady.DurationError	GetReady.OnsetToOnsetTime	Cue2Back.OnsetDelay	Cue2Back.OnsetTime	Cue2Back.DurationError	Cue2Back.OnsetToOnsetTime	Run1Block1	TargetType	CorrectResponse	StimType	BlockType	RunTrialNumber[Block]	TrialsPerRun[Block]	TotalRespGreater200[Block]	ConsecRTLess200[Block]	ConsecNonResp[Block]	ControlAcc	ConsecSameResp	ExperimenterWindow.OnsetDelay	ExperimenterWindow.OnsetTime	ExperimenterWindow.DurationError	ExperimenterWindow.OnsetToOnsetTime	Stim.OnsetDelay	Stim.OnsetTime	Stim.DurationError	Stim.RTTime	Stim.ACC	Stim.RT	Stim.RESP	Stim.CRESP	Stim.OnsetToOnsetTime	Fix.OnsetDelay	Fix.OnsetTime	Fix.DurationError	Fix.OnsetToOnsetTime	CueTarget.OnsetDelay	CueTarget.OnsetTime	CueTarget.DurationError	CueTarget.OnsetToOnsetTime	Run1Block2	Fix15sec.OnsetDelay	Fix15sec.OnsetTime	Fix15sec.DurationError	Fix15sec.OnsetToOnsetTime	Run1Block3	Run1Block4	Run1Block5	Run1Block6	Run1Block7	Run1Block8	Block	Procedure[Trial]	Stimulus[Trial]	ReadyList	Running[Trial]	ReadyList.Cycle	ReadyList.Sample	SyncSlide.OnsetDelay	SyncSlide.OnsetTime	SyncSlide.DurationError	SyncSlide.FinishTime	SyncSlide.OnsetToOnsetTime	Trial
WM080112	118528_fnca	1	1	1	2068901916	1	75.030	75.031	2.0.10.147	2.0.10.242	2.0.10.242	1.0.0.439	7	234	2	3	Verdana	1	80	0	0	0	WM Stimuli\	0.9	1225.11111111111	0.9	1436.22222222222	0.8	925.875	0.6	1014	0.9	1317.22222222222	1	753.7	0.9	826.111111111111	0.9	754.666666666667	13	422477	2	422465	27	40	422504	-999999	422480	0	1	TRSyncPROC	""	1	2	1	SessionSelectionList	116	10298	-999999	0	40	114975	-999999	0																																																	1	InitialTR	4	1	ReadyList	1	1	21	128330	-22	130308	0	1
WM080112	118528_fnca	1	1	1	2068901916	1	75.030	75.031	2.0.10.147	2.0.10.242	2.0.10.242	1.0.0.439	7	234	2	3	Verdana	1	80	0	0	0	WM Stimuli\	0.9	1225.11111111111	0.9	1436.22222222222	0.8	925.875	0.6	1014	0.9	1317.22222222222	1	753.7	0.9	826.111111111111	0.9	754.666666666667	13	422477	2	422465	27	40	422504	-999999	422480	0	1	TRSyncPROC	""	1	2	1	SessionSelectionList	116	10298	-999999	0	40	114975	-999999	0																																																	1	InitialTR	3	2	ReadyList	1	2	20	130329	-21	132308	0	2
WM080112	118528_fnca	1	1	1	2068901916	1	75.030	75.031	2.0.10.147	2.0.10.242	2.0.10.242	1.0.0.439	7	234	2	3	Verdana	1	80	0	0	0	WM Stimuli\	0.9	1225.11111111111	0.9	1436.22222222222	0.8	925.875	0.6	1014	0.9	1317.22222222222	1	753.7	0.9	826.111111111111	0.9	754.666666666667	13	422477	2	422465	27	40	422504	-999999	422480	0	1	TRSyncPROC	""	1	2	1	SessionSelectionList	116	10298	-999999	0	40	114975	-999999	0																																																	1	InitialTR	2	3	ReadyList	1	3	6	132315	-7	134308	0	3
WM080112	118528_fnca	1	1	1	2068901916	1	75.030	75.031	2.0.10.147	2.0.10.242	2.0.10.242	1.0.0.439	7	234	2	3	Verdana	1	80	0	0	0	WM Stimuli\	0.9	1225.11111111111	0.9	1436.22222222222	0.8	925.875	0.6	1014	0.9	1317.22222222222	1	753.7	0.9	826.111111111111	0.9	754.666666666667	13	422477	2	422465	27	40	422504	-999999	422480	0	1	TRSyncPROC	""	1	2	1	SessionSelectionList	116	10298	-999999	0	40	114975	-999999	0																																																	1	InitialTR	1	4	ReadyList	1	4	5	134314	-6	136308	0	4
WM080112	118528_fnca	1	1	1	2068901916	1	75.030	75.031	2.0.10.147	2.0.10.242	2.0.10.242	1.0.0.439	7	234	2	3	Verdana	1	80	0	0	0	WM Stimuli\	0.9	1225.11111111111	0.9	1436.22222222222	0.8	925.875	0.6	1014	0.9	1317.22222222222	1	753.7	0.9	826.111111111111	0.9	754.666666666667	13	422477	2	422465	27	40	422504	-999999	422480	0	2	Cue2BackPROC	""	1	2	2	SessionSelectionList									18	136327	-19	0																																													2												
WM080112	118528_fnca	1	1	1	2068901916	1	75.030	75.031	2.0.10.147	2.0.10.242	2.0.10.242	1.0.0.439	7	234	2	3	Verdana	1	80	0	0	0	WM Stimuli\	0.9	1225.11111111111	0.9	1436.22222222222	0.8	925.875	0.6	1014	0.9	1317.22222222222	1	753.7	0.9	826.111111111111	0.9	754.666666666667	13	422477	2	422465	27	40	422504	-999999	422480	0	3	TrialsPROC	BP_002_BP10_BA.png	1	2	3	SessionSelectionList													1	nonlure	3	Body	2-Back	2	80	1	0	0	0	1	53	140965	3	13	103	138912	-1	140111	1	1199	3	3	2053	66	140978	-67	0																3												
WM080112	118528_fnca	1	1	1	2068901916	1	75.030	75.031	2.0.10.147	2.0.10.242	2.0.10.242	1.0.0.439	7	234	2	3	Verdana	1	80	0	0	0	WM Stimuli\	0.9	1225.11111111111	0.9	1436.22222222222	0.8	925.875	0.6	1014	0.9	1317.22222222222	1	753.7	0.9	826.111111111111	0.9	754.666666666667	13	422477	2	422465	27	40	422504	-999999	422480	0	3	TrialsPROC	BP_001_BP1_BA.png	1	2	4	SessionSelectionList													2	nonlure	3	Body	2-Back	3	80	2	0	0	0	2	39	143537	2	14	86	141498	-1	142154	1	656	3	3	2039	53	143551	-54	0																4												
WM080112	118528_fnca	1	1	1	2068901916	1	75.030	75.031	2.0.10.147	2.0.10.242	2.0.10.242	1.0.0.439	7	234	2	3	Verdana	1	80	0	0	0	WM Stimuli\	0.9	1225.11111111111	0.9	1436.22222222222	0.8	925.875	0.6	1014	0.9	1317.22222222222	1	753.7	0.9	826.111111111111	0.9	754.666666666667	13	422477	2	422465	27	40	422504	-999999	422480	0	3	TrialsPROC	BP_006_BP2_BA.png	1	2	5	SessionSelectionList													3	nonlure	3	Body	2-Back	4	80	3	0	0	0	1	39	146096	1	14	59	144057	-1	144881	0	824	2	3	2039	53	146110	-54	0																5												
WM080112	118528_fnca	1	1	1	2068901916	1	75.030	75.031	2.0.10.147	2.0.10.242	2.0.10.242	1.0.0.439	7	234	2	3	Verdana	1	80	0	0	0	WM Stimuli\	0.9	1225.11111111111	0.9	1436.22222222222	0.8	925.875	0.6	1014	0.9	1317.22222222222	1	753.7	0.9	826.111111111111	0.9	754.666666666667	13	422477	2	422465	27	40	422504	-999999	422480	0	3	TrialsPROC	BP_001_BP1_BA.png	1	2	6	SessionSelectionList													4	target	2	Body	2-Back	5	80	4	0	0	0	2	39	148668	2	14	72	146629	-1	147919	1	1290	2	2	2039	53	148682	-54	0																6												
WM080112	118528_fnca	1	1	1	2068901916	1	75.030	75.031	2.0.10.147	2.0.10.242	2.0.10.242	1.0.0.439	7	234	2	3	Verdana	1	80	0	0	0	WM Stimuli\	0.9	1225.11111111111	0.9	1436.22222222222	0.8	925.875	0.6	1014	0.9	1317.22222222222	1	753.7	0.9	826.111111111111	0.9	754.666666666667	13	422477	2	422465	27	40	422504	-999999	422480	0	3	TrialsPROC	BP_005_BP19_BA.png	1	2	7	SessionSelectionList													5	nonlure	3	Body	2-Back	6	80	5	0	0	0	1	39	151254	1	13	86	149215	-1	150355	1	1140	3	3	2039	52	151267	-53	0																7												
WM080112	118528_fnca	1	1	1	2068901916	1	75.030	75.031	2.0.10.147	2.0.10.242	2.0.10.242	1.0.0.439	7	234	2	3	Verdana	1	80	0	0	0	WM Stimuli\	0.9	1225.11111111111	0.9	1436.22222222222	0.8	925.875	0.6	1014	0.9	1317.22222222222	1	753.7	0.9	826.111111111111	0.9	754.666666666667	13	422477	2	422465	27	40	422504	-999999	422480	0	3	TrialsPROC	BP_003_BP16_BA.png	1	2	8	SessionSelectionList													6	nonlure	3	Body	2-Back	7	80	6	0	0	0	2	39	153839	2	14	85	151800	-1	152944	1	1144	3	3	2039	53	153853	-54	0																8												
WM080112	118528_fnca	1	1	1	2068901916	1	75.030	75.031	2.0.10.147	2.0.10.242	2.0.10.242	1.0.0.439	7	234	2	3	Verdana	1	80	0	0	0	WM Stimuli\	0.9	1225.11111111111	0.9	1436.22222222222	0.8	925.875	0.6	1014	0.9	1317.22222222222	1	753.7	0.9	826.111111111111	0.9	754.666666666667	13	422477	2	422465	27	40	422504	-999999	422480	0	3	TrialsPROC	BP_006_BP2_BA.png	1	2	9	SessionSelectionList													7	lure	3	Body	2-Back	8	80	7	0	0	0	3	39	156398	2	14	59	154359	-1	155633	1	1274	3	3	2039	53	156412	-54	0																9												
WM080112	118528_fnca	1	1	1	2068901916	1	75.030	75.031	2.0.10.147	2.0.10.242	2.0.10.242	1.0.0.439	7	234	2	3	Verdana	1	80	0	0	0	WM Stimuli\	0.9	1225.11111111111	0.9	1436.22222222222	0.8	925.875	0.6	1014	0.9	1317.22222222222	1	753.7	0.9	826.111111111111	0.9	754.666666666667	13	422477	2	422465	27	40	422504	-999999	422480	0	3	TrialsPROC	BP_004_BP18_BA.png	1	2	10	SessionSelectionList													8	nonlure	3	Body	2-Back	9	80	8	0	0	0	4	39	158984	1	14	86	156945	-1	158266	1	1321	3	3	2039	53	158998	-54	0																10												
WM080112	118528_fnca	1	1	1	2068901916	1	75.030	75.031	2.0.10.147	2.0.10.242	2.0.10.242	1.0.0.439	7	234	2	3	Verdana	1	80	0	0	0	WM Stimuli\	0.9	1225.11111111111	0.9	1436.22222222222	0.8	925.875	0.6	1014	0.9	1317.22222222222	1	753.7	0.9	826.111111111111	0.9	754.666666666667	13	422477	2	422465	27	40	422504	-999999	422480	0	3	TrialsPROC	BP_005_BP19_BA.png	1	2	11	SessionSelectionList													9	lure	3	Body	2-Back	10	80	9	0	0	0	5	39	161543	1	14	59	159504	-1	161179	1	1675	3	3	2039	53	161557	-54	0																11												
WM080112	118528_fnca	1	1	1	2068901916	1	75.030	75.031	2.0.10.147	2.0.10.242	2.0.10.242	1.0.0.439	7	234	2	3	Verdana	1	80	0	0	0	WM Stimuli\	0.9	1225.11111111111	0.9	1436.22222222222	0.8	925.875	0.6	1014	0.9	1317.22222222222	1	753.7	0.9	826.111111111111	0.9	754.666666666667	13	422477	2	422465	27	40	422504	-999999	422480	0	3	TrialsPROC	BP_004_BP18_BA.png	1	2	12	SessionSelectionList													10	target	2	Body	2-Back	11	80	10	0	0	0	1	39	164102	1	14	59	162063	-1	163390	1	1327	2	2	2039	53	164116	-54	0																12												
WM080112	118528_fnca	1	1	1	2068901916	1	75.030	75.031	2.0.10.147	2.0.10.242	2.0.10.242	1.0.0.439	7	234	2	3	Verdana	1	80	0	0	0	WM Stimuli\	0.9	1225.11111111111	0.9	1436.22222222222	0.8	925.875	0.6	1014	0.9	1317.22222222222	1	753.7	0.9	826.111111111111	0.9	754.666666666667	13	422477	2	422465	27	40	422504	-999999	422480	0	4	Cue0BackPROC	FC_001_M1.png	1	2	13	SessionSelectionList																																										59	164622	-60	0												13												
WM080112	118528_fnca	1	1	1	2068901916	1	75.030	75.031	2.0.10.147	2.0.10.242	2.0.10.242	1.0.0.439	7	234	2	3	Verdana	1	80	0	0	0	WM Stimuli\	0.9	1225.11111111111	0.9	1436.22222222222	0.8	925.875	0.6	1014	0.9	1317.22222222222	1	753.7	0.9	826.111111111111	0.9	754.666666666667	13	422477	2	422465	27	40	422504	-999999	422480	0	5	TrialsPROC	FC_005_M3.png	1	2	14	SessionSelectionList														nonlure	3	Face	0-Back	12	80	11	0	0	100	1	39	169180	1	14	78	167141	-1	168547	1	1406	3	3	2039	53	169194	-54	0					1											14												
WM080112	118528_fnca	1	1	1	2068901916	1	75.030	75.031	2.0.10.147	2.0.10.242	2.0.10.242	1.0.0.439	7	234	2	3	Verdana	1	80	0	0	0	WM Stimuli\	0.9	1225.11111111111	0.9	1436.22222222222	0.8	925.875	0.6	1014	0.9	1317.22222222222	1	753.7	0.9	826.111111111111	0.9	754.666666666667	13	422477	2	422465	27	40	422504	-999999	422480	0	5	TrialsPROC	FC_001_M1.png	1	2	15	SessionSelectionList														target	2	Face	0-Back	13	80	12	0	0	50	2	39	171752	2	14	72	169713	-1	171108	0	1395	3	2	2039	53	171766	-54	0					2											15												
WM080112	118528_fnca	1	1	1	2068901916	1	75.030	75.031	2.0.10.147	2.0.10.242	2.0.10.242	1.0.0.439	7	234	2	3	Verdana	1	80	0	0	0	WM Stimuli\	0.9	1225.11111111111	0.9	1436.22222222222	0.8	925.875	0.6	1014	0.9	1317.22222222222	1	753.7	0.9	826.111111111111	0.9	754.666666666667	13	422477	2	422465	27	40	422504	-999999	422480	0	5	TrialsPROC	FC_003_M2.png	1	2	16	SessionSelectionList														nonlure	3	Face	0-Back	14	80	13	0	0	33	1	39	174351	2	14	99	172312	-1	173370	0	1058	2	3	2039	53	174365	-54	0					3											16												
WM080112	118528_fnca	1	1	1	2068901916	1	75.030	75.031	2.0.10.147	2.0.10.242	2.0.10.242	1.0.0.439	7	234	2	3	Verdana	1	80	0	0	0	WM Stimuli\	0.9	1225.11111111111	0.9	1436.22222222222	0.8	925.875	0.6	1014	0.9	1317.22222222222	1	753.7	0.9	826.111111111111	0.9	754.666666666667	13	422477	2	422465	27	40	422504	-999999	422480	0	5	TrialsPROC	FC_004_F2.png	1	2	17	SessionSelectionList														nonlure	3	Face	0-Back	15	80	14	0	0	50	1	39	176937	1	13	86	174898	-1	175856	1	958	3	3	2039	52	176950	-53	0					4											17												
WM080112	118528_fnca	1	1	1	2068901916	1	75.030	75.031	2.0.10.147	2.0.10.242	2.0.10.242	1.0.0.439	7	234	2	3	Verdana	1	80	0	0	0	WM Stimuli\	0.9	1225.11111111111	0.9	1436.22222222222	0.8	925.875	0.6	1014	0.9	1317.22222222222	1	753.7	0.9	826.111111111111	0.9	754.666666666667	13	422477	2	422465	27	40	422504	-999999	422480	0	5	TrialsPROC	FC_004_F2.png	1	2	18	SessionSelectionList														lure	3	Face	0-Back	16	80	15	0	0	60	2	39	179509	1	14	72	177470	-1	178602	1	1132	3	3	2039	53	179523	-54	0					5											18												
WM080112	118528_fnca	1	1	1	2068901916	1	75.030	75.031	2.0.10.147	2.0.10.242	2.0.10.242	1.0.0.439	7	234	2	3	Verdana	1	80	0	0	0	WM Stimuli\	0.9	1225.11111111111	0.9	1436.22222222222	0.8	925.875	0.6	1014	0.9	1317.22222222222	1	753.7	0.9	826.111111111111	0.9	754.666666666667	13	422477	2	422465	27	40	422504	-999999	422480	0	5	TrialsPROC	FC_001_M1.png	1	2	19	SessionSelectionList														target	2	Face	0-Back	17	80	16	0	0	50	3	39	182081	2	14	72	180042	-1	181447	0	1405	3	2	2039	53	182095	-54	0					6											19												
WM080112	118528_fnca	1	1	1	2068901916	1	75.030	75.031	2.0.10.147	2.0.10.242	2.0.10.242	1.0.0.439	7	234	2	3	Verdana	1	80	0	0	0	WM Stimuli\	0.9	1225.11111111111	0.9	1436.22222222222	0.8	925.875	0.6	1014	0.9	1317.22222222222	1	753.7	0.9	826.111111111111	0.9	754.666666666667	13	422477	2	422465	27	40	422504	-999999	422480	0	5	TrialsPROC	FC_006_F3.png	1	2	20	SessionSelectionList														nonlure	3	Face	0-Back	18	80	17	0	0	57	4	39	184667	1	14	86	182628	-1	183674	1	1046	3	3	2039	53	184681	-54	0					7											20												
WM080112	118528_fnca	1	1	1	2068901916	1	75.030	75.031	2.0.10.147	2.0.10.242	2.0.10.242	1.0.0.439	7	234	2	3	Verdana	1	80	0	0	0	WM Stimuli\	0.9	1225.11111111111	0.9	1436.22222222222	0.8	925.875	0.6	1014	0.9	1317.22222222222	1	753.7	0.9	826.111111111111	0.9	754.666666666667	13	422477	2	422465	27	40	422504	-999999	422480	0	5	TrialsPROC	FC_006_F3.png	1	2	21	SessionSelectionList														lure	3	Face	0-Back	19	80	18	0	0	62	5	39	187239	2	14	72	185200	-1	186084	1	884	3	3	2039	53	187253	-54	0					8											21												
WM080112	118528_fnca	1	1	1	2068901916	1	75.030	75.031	2.0.10.147	2.0.10.242	2.0.10.242	1.0.0.439	7	234	2	3	Verdana	1	80	0	0	0	WM Stimuli\	0.9	1225.11111111111	0.9	1436.22222222222	0.8	925.875	0.6	1014	0.9	1317.22222222222	1	753.7	0.9	826.111111111111	0.9	754.666666666667	13	422477	2	422465	27	40	422504	-999999	422480	0	5	TrialsPROC	FC_003_M2.png	1	2	22	SessionSelectionList														lure	3	Face	0-Back	20	80	19	0	0	56	1	39	189811	2	14	72	187772	-1	188683	0	911	2	3	2039	53	189825	-54	0					9											22												
WM080112	118528_fnca	1	1	1	2068901916	1	75.030	75.031	2.0.10.147	2.0.10.242	2.0.10.242	1.0.0.439	7	234	2	3	Verdana	1	80	0	0	0	WM Stimuli\	0.9	1225.11111111111	0.9	1436.22222222222	0.8	925.875	0.6	1014	0.9	1317.22222222222	1	753.7	0.9	826.111111111111	0.9	754.666666666667	13	422477	2	422465	27	40	422504	-999999	422480	0	5	TrialsPROC	FC_002_F1.png	1	2	23	SessionSelectionList														nonlure	3	Face	0-Back	21	80	20	0	0	60	1	39	192397	2	14	86	190358	-1	191016	1	658	3	3	2039	53	192411	-54	0					10											23												
WM080112	118528_fnca	1	1	1	2068901916	1	75.030	75.031	2.0.10.147	2.0.10.242	2.0.10.242	1.0.0.439	7	234	2	3	Verdana	1	80	0	0	0	WM Stimuli\	0.9	1225.11111111111	0.9	1436.22222222222	0.8	925.875	0.6	1014	0.9	1317.22222222222	1	753.7	0.9	826.111111111111	0.9	754.666666666667	13	422477	2	422465	27	40	422504	-999999	422480	0	6	Fix15secPROC	""	1	2	24	SessionSelectionList																																															6	192864	-7	0							24												
WM080112	118528_fnca	1	1	1	2068901916	1	75.030	75.031	2.0.10.147	2.0.10.242	2.0.10.242	1.0.0.439	7	234	2	3	Verdana	1	80	0	0	0	WM Stimuli\	0.9	1225.11111111111	0.9	1436.22222222222	0.8	925.875	0.6	1014	0.9	1317.22222222222	1	753.7	0.9	826.111111111111	0.9	754.666666666667	13	422477	2	422465	27	40	422504	-999999	422480	0	7	Cue2BackPROC	""	1	2	25	SessionSelectionList									13	207871	-14	0																																													25												
WM080112	118528_fnca	1	1	1	2068901916	1	75.030	75.031	2.0.10.147	2.0.10.242	2.0.10.242	1.0.0.439	7	234	2	3	Verdana	1	80	0	0	0	WM Stimuli\	0.9	1225.11111111111	0.9	1436.22222222222	0.8	925.875	0.6	1014	0.9	1317.22222222222	1	753.7	0.9	826.111111111111	0.9	754.666666666667	13	422477	2	422465	27	40	422504	-999999	422480	0	8	TrialsPROC	TO_001_TOOL1_BA.png	1	2	26	SessionSelectionList														nonlure	3	Tools	2-Back	22	80	21	0	0	60	2	40	212496	1	13	98	210456	-1	211683	1	1227	3	3	2040	53	212509	-54	0										1						26												
WM080112	118528_fnca	1	1	1	2068901916	1	75.030	75.031	2.0.10.147	2.0.10.242	2.0.10.242	1.0.0.439	7	234	2	3	Verdana	1	80	0	0	0	WM Stimuli\	0.9	1225.11111111111	0.9	1436.22222222222	0.8	925.875	0.6	1014	0.9	1317.22222222222	1	753.7	0.9	826.111111111111	0.9	754.666666666667	13	422477	2	422465	27	40	422504	-999999	422480	0	8	TrialsPROC	TO_002_TOOL2_BA.png	1	2	27	SessionSelectionList														nonlure	3	Tools	2-Back	23	80	22	0	0	60	3	39	215081	2	14	86	213042	-1	213654	1	612	3	3	2039	53	215095	-54	0										2						27												
WM080112	118528_fnca	1	1	1	2068901916	1	75.030	75.031	2.0.10.147	2.0.10.242	2.0.10.242	1.0.0.439	7	234	2	3	Verdana	1	80	0	0	0	WM Stimuli\	0.9	1225.11111111111	0.9	1436.22222222222	0.8	925.875	0.6	1014	0.9	1317.22222222222	1	753.7	0.9	826.111111111111	0.9	754.666666666667	13	422477	2	422465	27	40	422504	-999999	422480	0	8	TrialsPROC	TO_004_TOOL4_BA.png	1	2	28	SessionSelectionList														nonlure	3	Tools	2-Back	24	80	23	0	0	60	4	39	217667	1	14	86	215628	-1	216321	1	693	3	3	2039	53	217681	-54	0										3						28												
WM080112	118528_fnca	1	1	1	2068901916	1	75.030	75.031	2.0.10.147	2.0.10.242	2.0.10.242	1.0.0.439	7	234	2	3	Verdana	1	80	0	0	0	WM Stimuli\	0.9	1225.11111111111	0.9	1436.22222222222	0.8	925.875	0.6	1014	0.9	1317.22222222222	1	753.7	0.9	826.111111111111	0.9	754.666666666667	13	422477	2	422465	27	40	422504	-999999	422480	0	8	TrialsPROC	TO_002_TOOL2_BA.png	1	2	29	SessionSelectionList														target	2	Tools	2-Back	25	80	24	0	0	60	1	39	220226	1	13	59	218187	-1	218922	1	735	2	2	2039	52	220239	-53	0										4						29												
WM080112	118528_fnca	1	1	1	2068901916	1	75.030	75.031	2.0.10.147	2.0.10.242	2.0.10.242	1.0.0.439	7	234	2	3	Verdana	1	80	0	0	0	WM Stimuli\	0.9	1225.11111111111	0.9	1436.22222222222	0.8	925.875	0.6	1014	0.9	1317.22222222222	1	753.7	0.9	826.111111111111	0.9	754.666666666667	13	422477	2	422465	27	40	422504	-999999	422480	0	8	TrialsPROC	TO_001_TOOL1_BA.png	1	2	30	SessionSelectionList														lure	3	Tools	2-Back	26	80	25	0	0	60	1	39	222785	1	13	59	220746	-1	221554	1	808	3	3	2039	52	222798	-53	0										5						30												
WM080112	118528_fnca	1	1	1	2068901916	1	75.030	75.031	2.0.10.147	2.0.10.242	2.0.10.242	1.0.0.439	7	234	2	3	Verdana	1	80	0	0	0	WM Stimuli\	0.9	1225.11111111111	0.9	1436.22222222222	0.8	925.875	0.6	1014	0.9	1317.22222222222	1	753.7	0.9	826.111111111111	0.9	754.666666666667	13	422477	2	422465	27	40	422504	-999999	422480	0	8	TrialsPROC	TO_004_TOOL4_BA.png	1	2	31	SessionSelectionList														lure	3	Tools	2-Back	27	80	26	0	0	60	1	39	225344	1	13	59	223305	-1	224254	0	949	2	3	2039	52	225357	-53	0										6						31												
WM080112	118528_fnca	1	1	1	2068901916	1	75.030	75.031	2.0.10.147	2.0.10.242	2.0.10.242	1.0.0.439	7	234	2	3	Verdana	1	80	0	0	0	WM Stimuli\	0.9	1225.11111111111	0.9	1436.22222222222	0.8	925.875	0.6	1014	0.9	1317.22222222222	1	753.7	0.9	826.111111111111	0.9	754.666666666667	13	422477	2	422465	27	40	422504	-999999	422480	0	8	TrialsPROC	TO_006_TOOL6_BA.png	1	2	32	SessionSelectionList														nonlure	3	Tools	2-Back	28	80	27	0	0	60	1	39	227929	3	14	85	225890	-1	227104	1	1214	3	3	2039	53	227943	-54	0										7						32												
WM080112	118528_fnca	1	1	1	2068901916	1	75.030	75.031	2.0.10.147	2.0.10.242	2.0.10.242	1.0.0.439	7	234	2	3	Verdana	1	80	0	0	0	WM Stimuli\	0.9	1225.11111111111	0.9	1436.22222222222	0.8	925.875	0.6	1014	0.9	1317.22222222222	1	753.7	0.9	826.111111111111	0.9	754.666666666667	13	422477	2	422465	27	40	422504	-999999	422480	0	8	TrialsPROC	TO_005_TOOL5_BA.png	1	2	33	SessionSelectionList														nonlure	3	Tools	2-Back	29	80	28	0	0	60	2	39	230515	1	14	86	228476	-1	229332	1	856	3	3	2039	53	230529	-54	0										8						33												
WM080112	118528_fnca	1	1	1	2068901916	1	75.030	75.031	2.0.10.147	2.0.10.242	2.0.10.242	1.0.0.439	7	234	2	3	Verdana	1	80	0	0	0	WM Stimuli\	0.9	1225.11111111111	0.9	1436.22222222222	0.8	925.875	0.6	1014	0.9	1317.22222222222	1	753.7	0.9	826.111111111111	0.9	754.666666666667	13	422477	2	422465	27	40	422504	-999999	422480	0	8	TrialsPROC	TO_006_TOOL6_BA.png	1	2	34	SessionSelectionList														target	2	Tools	2-Back	30	80	29	0	0	60	1	39	233074	1	14	59	231035	-1	231673	1	638	2	2	2039	53	233088	-54	0										9						34												
WM080112	118528_fnca	1	1	1	2068901916	1	75.030	75.031	2.0.10.147	2.0.10.242	2.0.10.242	1.0.0.439	7	234	2	3	Verdana	1	80	0	0	0	WM Stimuli\	0.9	1225.11111111111	0.9	1436.22222222222	0.8	925.875	0.6	1014	0.9	1317.22222222222	1	753.7	0.9	826.111111111111	0.9	754.666666666667	13	422477	2	422465	27	40	422504	-999999	422480	0	8	TrialsPROC	TO_003_TOOL3_BA.png	1	2	35	SessionSelectionList														nonlure	3	Tools	2-Back	31	80	30	0	0	60	1	40	235660	1	13	85	233620	-1	234272	1	652	3	3	2040	53	235673	-54	0										10						35												
WM080112	118528_fnca	1	1	1	2068901916	1	75.030	75.031	2.0.10.147	2.0.10.242	2.0.10.242	1.0.0.439	7	234	2	3	Verdana	1	80	0	0	0	WM Stimuli\	0.9	1225.11111111111	0.9	1436.22222222222	0.8	925.875	0.6	1014	0.9	1317.22222222222	1	753.7	0.9	826.111111111111	0.9	754.666666666667	13	422477	2	422465	27	40	422504	-999999	422480	0	9	Cue0BackPROC	BP_007_BP20_BA.png	1	2	36	SessionSelectionList																																										33	236153	-34	0												36												
WM080112	118528_fnca	1	1	1	2068901916	1	75.030	75.031	2.0.10.147	2.0.10.242	2.0.10.242	1.0.0.439	7	234	2	3	Verdana	1	80	0	0	0	WM Stimuli\	0.9	1225.11111111111	0.9	1436.22222222222	0.8	925.875	0.6	1014	0.9	1317.22222222222	1	753.7	0.9	826.111111111111	0.9	754.666666666667	13	422477	2	422465	27	40	422504	-999999	422480	0	10	TrialsPROC	BP_007_BP20_BA.png	1	2	37	SessionSelectionList														target	2	Body	0-Back	32	80	31	0	0	64	1	39	240711	1	13	52	238672	-1	240351	1	1679	2	2	2039	52	240724	-53	0											1					37												
WM080112	118528_fnca	1	1	1	2068901916	1	75.030	75.031	2.0.10.147	2.0.10.242	2.0.10.242	1.0.0.439	7	234	2	3	Verdana	1	80	0	0	0	WM Stimuli\	0.9	1225.11111111111	0.9	1436.22222222222	0.8	925.875	0.6	1014	0.9	1317.22222222222	1	753.7	0.9	826.111111111111	0.9	754.666666666667	13	422477	2	422465	27	40	422504	-999999	422480	0	10	TrialsPROC	BP_011_BP4_BA.png	1	2	38	SessionSelectionList														nonlure	3	Body	0-Back	33	80	32	0	0	67	1	39	243310	1	13	99	241271	-1	242287	1	1016	3	3	2039	52	243323	-53	0											2					38												
WM080112	118528_fnca	1	1	1	2068901916	1	75.030	75.031	2.0.10.147	2.0.10.242	2.0.10.242	1.0.0.439	7	234	2	3	Verdana	1	80	0	0	0	WM Stimuli\	0.9	1225.11111111111	0.9	1436.22222222222	0.8	925.875	0.6	1014	0.9	1317.22222222222	1	753.7	0.9	826.111111111111	0.9	754.666666666667	13	422477	2	422465	27	40	422504	-999999	422480	0	10	TrialsPROC	BP_010_BP3_BA.png	1	2	39	SessionSelectionList														nonlure	3	Body	0-Back	34	80	33	0	0	62	1	39	245895	2	14	85	243856	-1	244989	0	1133	2	3	2039	53	245909	-54	0											3					39												
WM080112	118528_fnca	1	1	1	2068901916	1	75.030	75.031	2.0.10.147	2.0.10.242	2.0.10.242	1.0.0.439	7	234	2	3	Verdana	1	80	0	0	0	WM Stimuli\	0.9	1225.11111111111	0.9	1436.22222222222	0.8	925.875	0.6	1014	0.9	1317.22222222222	1	753.7	0.9	826.111111111111	0.9	754.666666666667	13	422477	2	422465	27	40	422504	-999999	422480	0	10	TrialsPROC	BP_008_BP21_BA.png	1	2	40	SessionSelectionList														nonlure	3	Body	0-Back	35	80	34	0	0	64	1	39	248481	1	14	86	246442	-1	248418	1	1976	3	3	2039	53	248495	-54	0											4					40												
WM080112	118528_fnca	1	1	1	2068901916	1	75.030	75.031	2.0.10.147	2.0.10.242	2.0.10.242	1.0.0.439	7	234	2	3	Verdana	1	80	0	0	0	WM Stimuli\	0.9	1225.11111111111	0.9	1436.22222222222	0.8	925.875	0.6	1014	0.9	1317.22222222222	1	753.7	0.9	826.111111111111	0.9	754.666666666667	13	422477	2	422465	27	40	422504	-999999	422480	0	10	TrialsPROC	BP_011_BP4_BA.png	1	2	41	SessionSelectionList														lure	3	Body	0-Back	36	80	35	0	0	67	2	39	251040	1	14	59	249001	-1	250193	1	1192	3	3	2039	53	251054	-54	0											5					41												
WM080112	118528_fnca	1	1	1	2068901916	1	75.030	75.031	2.0.10.147	2.0.10.242	2.0.10.242	1.0.0.439	7	234	2	3	Verdana	1	80	0	0	0	WM Stimuli\	0.9	1225.11111111111	0.9	1436.22222222222	0.8	925.875	0.6	1014	0.9	1317.22222222222	1	753.7	0.9	826.111111111111	0.9	754.666666666667	13	422477	2	422465	27	40	422504	-999999	422480	0	10	TrialsPROC	BP_009_BP22_BA.png	1	2	42	SessionSelectionList														nonlure	3	Body	0-Back	37	80	36	0	0	69	3	39	253599	1	14	59	251560	-1	252831	1	1271	3	3	2039	53	253613	-54	0											6					42												
WM080112	118528_fnca	1	1	1	2068901916	1	75.030	75.031	2.0.10.147	2.0.10.242	2.0.10.242	1.0.0.439	7	234	2	3	Verdana	1	80	0	0	0	WM Stimuli\	0.9	1225.11111111111	0.9	1436.22222222222	0.8	925.875	0.6	1014	0.9	1317.22222222222	1	753.7	0.9	826.111111111111	0.9	754.666666666667	13	422477	2	422465	27	40	422504	-999999	422480	0	10	TrialsPROC	BP_009_BP22_BA.png	1	2	43	SessionSelectionList														lure	3	Body	0-Back	38	80	37	0	0	71	4	39	256158	1	14	59	254119	-1	255908	1	1789	3	3	2039	53	256172	-54	0											7					43												
WM080112	118528_fnca	1	1	1	2068901916	1	75.030	75.031	2.0.10.147	2.0.10.242	2.0.10.242	1.0.0.439	7	234	2	3	Verdana	1	80	0	0	0	WM Stimuli\	0.9	1225.11111111111	0.9	1436.22222222222	0.8	925.875	0.6	1014	0.9	1317.22222222222	1	753.7	0.9	826.111111111111	0.9	754.666666666667	13	422477	2	422465	27	40	422504	-999999	422480	0	10	TrialsPROC	BP_008_BP21_BA.png	1	2	44	SessionSelectionList														lure	3	Body	0-Back	39	80	38	0	0	72	5	39	258717	1	13	59	256678	-1	258328	1	1650	3	3	2039	52	258730	-53	0											8					44												
WM080112	118528_fnca	1	1	1	2068901916	1	75.030	75.031	2.0.10.147	2.0.10.242	2.0.10.242	1.0.0.439	7	234	2	3	Verdana	1	80	0	0	0	WM Stimuli\	0.9	1225.11111111111	0.9	1436.22222222222	0.8	925.875	0.6	1014	0.9	1317.22222222222	1	753.7	0.9	826.111111111111	0.9	754.666666666667	13	422477	2	422465	27	40	422504	-999999	422480	0	10	TrialsPROC	BP_007_BP20_BA.png	1	2	45	SessionSelectionList														target	2	Body	0-Back	40	80	39	0	0	74	1	39	261276	1	13	59	259237	-1	260513	1	1276	2	2	2039	52	261289	-53	0											9					45												
WM080112	118528_fnca	1	1	1	2068901916	1	75.030	75.031	2.0.10.147	2.0.10.242	2.0.10.242	1.0.0.439	7	234	2	3	Verdana	1	80	0	0	0	WM Stimuli\	0.9	1225.11111111111	0.9	1436.22222222222	0.8	925.875	0.6	1014	0.9	1317.22222222222	1	753.7	0.9	826.111111111111	0.9	754.666666666667	13	422477	2	422465	27	40	422504	-999999	422480	0	10	TrialsPROC	BP_012_BP5_BA.png	1	2	46	SessionSelectionList														nonlure	3	Body	0-Back	41	80	40	0	0	75	1	39	263861	2	14	85	261822	-1	262899	1	1077	3	3	2039	53	263875	-54	0											10					46												
WM080112	118528_fnca	1	1	1	2068901916	1	75.030	75.031	2.0.10.147	2.0.10.242	2.0.10.242	1.0.0.439	7	234	2	3	Verdana	1	80	0	0	0	WM Stimuli\	0.9	1225.11111111111	0.9	1436.22222222222	0.8	925.875	0.6	1014	0.9	1317.22222222222	1	753.7	0.9	826.111111111111	0.9	754.666666666667	13	422477	2	422465	27	40	422504	-999999	422480	0	11	Fix15secPROC	""	1	2	47	SessionSelectionList																																															6	264328	-7	0							47												
WM080112	118528_fnca	1	1	1	2068901916	1	75.030	75.031	2.0.10.147	2.0.10.242	2.0.10.242	1.0.0.439	7	234	2	3	Verdana	1	80	0	0	0	WM Stimuli\	0.9	1225.11111111111	0.9	1436.22222222222	0.8	925.875	0.6	1014	0.9	1317.22222222222	1	753.7	0.9	826.111111111111	0.9	754.666666666667	13	422477	2	422465	27	40	422504	-999999	422480	0	12	Cue0BackPROC	PL_001_92012.png	1	2	48	SessionSelectionList																																										40	279362	-41	0												48												
WM080112	118528_fnca	1	1	1	2068901916	1	75.030	75.031	2.0.10.147	2.0.10.242	2.0.10.242	1.0.0.439	7	234	2	3	Verdana	1	80	0	0	0	WM Stimuli\	0.9	1225.11111111111	0.9	1436.22222222222	0.8	925.875	0.6	1014	0.9	1317.22222222222	1	753.7	0.9	826.111111111111	0.9	754.666666666667	13	422477	2	422465	27	40	422504	-999999	422480	0	13	TrialsPROC	PL_003_92016.png	1	2	49	SessionSelectionList														nonlure	3	Place	0-Back	42	80	41	0	0	76	2	40	283947	1	13	85	281907	-1	283210	1	1303	3	3	2040	53	283960	-54	0												1				49												
WM080112	118528_fnca	1	1	1	2068901916	1	75.030	75.031	2.0.10.147	2.0.10.242	2.0.10.242	1.0.0.439	7	234	2	3	Verdana	1	80	0	0	0	WM Stimuli\	0.9	1225.11111111111	0.9	1436.22222222222	0.8	925.875	0.6	1014	0.9	1317.22222222222	1	753.7	0.9	826.111111111111	0.9	754.666666666667	13	422477	2	422465	27	40	422504	-999999	422480	0	13	TrialsPROC	PL_003_92016.png	1	2	50	SessionSelectionList														lure	3	Place	0-Back	43	80	42	0	0	77	3	39	286519	1	14	73	284480	-1	285179	1	699	3	3	2039	53	286533	-54	0												2				50												
WM080112	118528_fnca	1	1	1	2068901916	1	75.030	75.031	2.0.10.147	2.0.10.242	2.0.10.242	1.0.0.439	7	234	2	3	Verdana	1	80	0	0	0	WM Stimuli\	0.9	1225.11111111111	0.9	1436.22222222222	0.8	925.875	0.6	1014	0.9	1317.22222222222	1	753.7	0.9	826.111111111111	0.9	754.666666666667	13	422477	2	422465	27	40	422504	-999999	422480	0	13	TrialsPROC	PL_006_92025.png	1	2	51	SessionSelectionList														nonlure	3	Place	0-Back	44	80	43	0	0	78	4	40	289105	1	13	85	287065	-1	287887	1	822	3	3	2040	53	289118	-54	0												3				51												
WM080112	118528_fnca	1	1	1	2068901916	1	75.030	75.031	2.0.10.147	2.0.10.242	2.0.10.242	1.0.0.439	7	234	2	3	Verdana	1	80	0	0	0	WM Stimuli\	0.9	1225.11111111111	0.9	1436.22222222222	0.8	925.875	0.6	1014	0.9	1317.22222222222	1	753.7	0.9	826.111111111111	0.9	754.666666666667	13	422477	2	422465	27	40	422504	-999999	422480	0	13	TrialsPROC	PL_001_92012.png	1	2	52	SessionSelectionList														target	2	Place	0-Back	45	80	44	0	0	79	1	39	291677	1	13	73	289638	-1	290735	1	1097	2	2	2039	52	291690	-53	0												4				52												
WM080112	118528_fnca	1	1	1	2068901916	1	75.030	75.031	2.0.10.147	2.0.10.242	2.0.10.242	1.0.0.439	7	234	2	3	Verdana	1	80	0	0	0	WM Stimuli\	0.9	1225.11111111111	0.9	1436.22222222222	0.8	925.875	0.6	1014	0.9	1317.22222222222	1	753.7	0.9	826.111111111111	0.9	754.666666666667	13	422477	2	422465	27	40	422504	-999999	422480	0	13	TrialsPROC	PL_004_92023.png	1	2	53	SessionSelectionList														nonlure	3	Place	0-Back	46	80	45	0	0	80	1	39	294262	2	14	85	292223	-1	292867	1	644	3	3	2039	53	294276	-54	0												5				53												
WM080112	118528_fnca	1	1	1	2068901916	1	75.030	75.031	2.0.10.147	2.0.10.242	2.0.10.242	1.0.0.439	7	234	2	3	Verdana	1	80	0	0	0	WM Stimuli\	0.9	1225.11111111111	0.9	1436.22222222222	0.8	925.875	0.6	1014	0.9	1317.22222222222	1	753.7	0.9	826.111111111111	0.9	754.666666666667	13	422477	2	422465	27	40	422504	-999999	422480	0	13	TrialsPROC	PL_005_92024.png	1	2	54	SessionSelectionList														nonlure	3	Place	0-Back	47	80	46	0	0	81	2	39	296848	2	14	86	294809	-1	295414	1	605	3	3	2039	53	296862	-54	0												6				54												
WM080112	118528_fnca	1	1	1	2068901916	1	75.030	75.031	2.0.10.147	2.0.10.242	2.0.10.242	1.0.0.439	7	234	2	3	Verdana	1	80	0	0	0	WM Stimuli\	0.9	1225.11111111111	0.9	1436.22222222222	0.8	925.875	0.6	1014	0.9	1317.22222222222	1	753.7	0.9	826.111111111111	0.9	754.666666666667	13	422477	2	422465	27	40	422504	-999999	422480	0	13	TrialsPROC	PL_001_92012.png	1	2	55	SessionSelectionList														target	2	Place	0-Back	48	80	47	0	0	81	1	39	299420	2	14	72	297381	-1	298008	1	627	2	2	2039	53	299434	-54	0												7				55												
WM080112	118528_fnca	1	1	1	2068901916	1	75.030	75.031	2.0.10.147	2.0.10.242	2.0.10.242	1.0.0.439	7	234	2	3	Verdana	1	80	0	0	0	WM Stimuli\	0.9	1225.11111111111	0.9	1436.22222222222	0.8	925.875	0.6	1014	0.9	1317.22222222222	1	753.7	0.9	826.111111111111	0.9	754.666666666667	13	422477	2	422465	27	40	422504	-999999	422480	0	13	TrialsPROC	PL_002_92014.png	1	2	56	SessionSelectionList														nonlure	3	Place	0-Back	49	80	48	0	0	82	1	39	302006	2	14	86	299967	-1	300541	1	574	3	3	2039	53	302020	-54	0												8				56												
WM080112	118528_fnca	1	1	1	2068901916	1	75.030	75.031	2.0.10.147	2.0.10.242	2.0.10.242	1.0.0.439	7	234	2	3	Verdana	1	80	0	0	0	WM Stimuli\	0.9	1225.11111111111	0.9	1436.22222222222	0.8	925.875	0.6	1014	0.9	1317.22222222222	1	753.7	0.9	826.111111111111	0.9	754.666666666667	13	422477	2	422465	27	40	422504	-999999	422480	0	13	TrialsPROC	PL_004_92023.png	1	2	57	SessionSelectionList														lure	3	Place	0-Back	50	80	49	0	0	83	2	39	304578	2	14	72	302539	-1	303129	1	590	3	3	2039	53	304592	-54	0												9				57												
WM080112	118528_fnca	1	1	1	2068901916	1	75.030	75.031	2.0.10.147	2.0.10.242	2.0.10.242	1.0.0.439	7	234	2	3	Verdana	1	80	0	0	0	WM Stimuli\	0.9	1225.11111111111	0.9	1436.22222222222	0.8	925.875	0.6	1014	0.9	1317.22222222222	1	753.7	0.9	826.111111111111	0.9	754.666666666667	13	422477	2	422465	27	40	422504	-999999	422480	0	13	TrialsPROC	PL_006_92025.png	1	2	58	SessionSelectionList														lure	3	Place	0-Back	51	80	50	0	0	83	3	40	307151	1	13	72	305111	-1	305687	1	576	3	3	2040	53	307164	-54	0												10				58												
WM080112	118528_fnca	1	1	1	2068901916	1	75.030	75.031	2.0.10.147	2.0.10.242	2.0.10.242	1.0.0.439	7	234	2	3	Verdana	1	80	0	0	0	WM Stimuli\	0.9	1225.11111111111	0.9	1436.22222222222	0.8	925.875	0.6	1014	0.9	1317.22222222222	1	753.7	0.9	826.111111111111	0.9	754.666666666667	13	422477	2	422465	27	40	422504	-999999	422480	0	14	Cue2BackPROC	""	1	2	59	SessionSelectionList									6	307617	-7	0																																													59												
WM080112	118528_fnca	1	1	1	2068901916	1	75.030	75.031	2.0.10.147	2.0.10.242	2.0.10.242	1.0.0.439	7	234	2	3	Verdana	1	80	0	0	0	WM Stimuli\	0.9	1225.11111111111	0.9	1436.22222222222	0.8	925.875	0.6	1014	0.9	1317.22222222222	1	753.7	0.9	826.111111111111	0.9	754.666666666667	13	422477	2	422465	27	40	422504	-999999	422480	0	15	TrialsPROC	FC_010_F5.png	1	2	60	SessionSelectionList														nonlure	3	Face	2-Back	52	80	50	0	1	83	3	39	312242	1	13	92	310203	-1	0	0	0	""	3	2039	52	312255	-53	0													1			60												
WM080112	118528_fnca	1	1	1	2068901916	1	75.030	75.031	2.0.10.147	2.0.10.242	2.0.10.242	1.0.0.439	7	234	2	3	Verdana	1	80	0	0	0	WM Stimuli\	0.9	1225.11111111111	0.9	1436.22222222222	0.8	925.875	0.6	1014	0.9	1317.22222222222	1	753.7	0.9	826.111111111111	0.9	754.666666666667	13	422477	2	422465	27	40	422504	-999999	422480	0	15	TrialsPROC	FC_012_F6.png	1	2	61	SessionSelectionList														nonlure	3	Face	2-Back	53	80	51	0	0	83	1	39	314827	2	14	85	312788	-1	313447	1	659	3	3	2039	53	314841	-54	0													2			61												
WM080112	118528_fnca	1	1	1	2068901916	1	75.030	75.031	2.0.10.147	2.0.10.242	2.0.10.242	1.0.0.439	7	234	2	3	Verdana	1	80	0	0	0	WM Stimuli\	0.9	1225.11111111111	0.9	1436.22222222222	0.8	925.875	0.6	1014	0.9	1317.22222222222	1	753.7	0.9	826.111111111111	0.9	754.666666666667	13	422477	2	422465	27	40	422504	-999999	422480	0	15	TrialsPROC	FC_010_F5.png	1	2	62	SessionSelectionList														target	2	Face	2-Back	54	80	52	0	0	83	1	39	317400	1	13	73	315361	-1	315955	1	594	2	2	2039	52	317413	-53	0													3			62												
WM080112	118528_fnca	1	1	1	2068901916	1	75.030	75.031	2.0.10.147	2.0.10.242	2.0.10.242	1.0.0.439	7	234	2	3	Verdana	1	80	0	0	0	WM Stimuli\	0.9	1225.11111111111	0.9	1436.22222222222	0.8	925.875	0.6	1014	0.9	1317.22222222222	1	753.7	0.9	826.111111111111	0.9	754.666666666667	13	422477	2	422465	27	40	422504	-999999	422480	0	15	TrialsPROC	FC_008_F4.png	1	2	63	SessionSelectionList														nonlure	3	Face	2-Back	55	80	53	0	0	83	1	40	319999	1	13	98	317959	-1	318558	1	599	3	3	2040	53	320012	-54	0													4			63												
WM080112	118528_fnca	1	1	1	2068901916	1	75.030	75.031	2.0.10.147	2.0.10.242	2.0.10.242	1.0.0.439	7	234	2	3	Verdana	1	80	0	0	0	WM Stimuli\	0.9	1225.11111111111	0.9	1436.22222222222	0.8	925.875	0.6	1014	0.9	1317.22222222222	1	753.7	0.9	826.111111111111	0.9	754.666666666667	13	422477	2	422465	27	40	422504	-999999	422480	0	15	TrialsPROC	FC_012_F6.png	1	2	64	SessionSelectionList														lure	3	Face	2-Back	56	80	54	0	0	83	1	39	322571	1	14	73	320532	-1	321990	0	1458	2	3	2039	53	322585	-54	0													5			64												
WM080112	118528_fnca	1	1	1	2068901916	1	75.030	75.031	2.0.10.147	2.0.10.242	2.0.10.242	1.0.0.439	7	234	2	3	Verdana	1	80	0	0	0	WM Stimuli\	0.9	1225.11111111111	0.9	1436.22222222222	0.8	925.875	0.6	1014	0.9	1317.22222222222	1	753.7	0.9	826.111111111111	0.9	754.666666666667	13	422477	2	422465	27	40	422504	-999999	422480	0	15	TrialsPROC	FC_008_F4.png	1	2	65	SessionSelectionList														target	2	Face	2-Back	57	80	55	0	0	83	2	39	325143	2	14	72	323104	-1	324514	1	1410	2	2	2039	53	325157	-54	0													6			65												
WM080112	118528_fnca	1	1	1	2068901916	1	75.030	75.031	2.0.10.147	2.0.10.242	2.0.10.242	1.0.0.439	7	234	2	3	Verdana	1	80	0	0	0	WM Stimuli\	0.9	1225.11111111111	0.9	1436.22222222222	0.8	925.875	0.6	1014	0.9	1317.22222222222	1	753.7	0.9	826.111111111111	0.9	754.666666666667	13	422477	2	422465	27	40	422504	-999999	422480	0	15	TrialsPROC	FC_007_M4.png	1	2	66	SessionSelectionList														nonlure	3	Face	2-Back	58	80	56	0	0	83	1	39	327742	2	14	99	325703	-1	326442	1	739	3	3	2039	53	327756	-54	0													7			66												
WM080112	118528_fnca	1	1	1	2068901916	1	75.030	75.031	2.0.10.147	2.0.10.242	2.0.10.242	1.0.0.439	7	234	2	3	Verdana	1	80	0	0	0	WM Stimuli\	0.9	1225.11111111111	0.9	1436.22222222222	0.8	925.875	0.6	1014	0.9	1317.22222222222	1	753.7	0.9	826.111111111111	0.9	754.666666666667	13	422477	2	422465	27	40	422504	-999999	422480	0	15	TrialsPROC	FC_007_M4.png	1	2	67	SessionSelectionList														lure	3	Face	2-Back	59	80	57	0	0	83	2	39	330314	2	14	72	328275	-1	330112	1	1837	3	3	2039	53	330328	-54	0													8			67												
WM080112	118528_fnca	1	1	1	2068901916	1	75.030	75.031	2.0.10.147	2.0.10.242	2.0.10.242	1.0.0.439	7	234	2	3	Verdana	1	80	0	0	0	WM Stimuli\	0.9	1225.11111111111	0.9	1436.22222222222	0.8	925.875	0.6	1014	0.9	1317.22222222222	1	753.7	0.9	826.111111111111	0.9	754.666666666667	13	422477	2	422465	27	40	422504	-999999	422480	0	15	TrialsPROC	FC_009_M5.png	1	2	68	SessionSelectionList														nonlure	3	Face	2-Back	60	80	58	0	0	83	3	39	332900	1	14	86	330861	-1	331767	1	906	3	3	2039	53	332914	-54	0													9			68												
WM080112	118528_fnca	1	1	1	2068901916	1	75.030	75.031	2.0.10.147	2.0.10.242	2.0.10.242	1.0.0.439	7	234	2	3	Verdana	1	80	0	0	0	WM Stimuli\	0.9	1225.11111111111	0.9	1436.22222222222	0.8	925.875	0.6	1014	0.9	1317.22222222222	1	753.7	0.9	826.111111111111	0.9	754.666666666667	13	422477	2	422465	27	40	422504	-999999	422480	0	15	TrialsPROC	FC_011_M6.png	1	2	69	SessionSelectionList														nonlure	3	Face	2-Back	61	80	59	0	0	83	4	39	335499	1	14	99	333460	-1	334123	1	663	3	3	2039	53	335513	-54	0													10			69												
WM080112	118528_fnca	1	1	1	2068901916	1	75.030	75.031	2.0.10.147	2.0.10.242	2.0.10.242	1.0.0.439	7	234	2	3	Verdana	1	80	0	0	0	WM Stimuli\	0.9	1225.11111111111	0.9	1436.22222222222	0.8	925.875	0.6	1014	0.9	1317.22222222222	1	753.7	0.9	826.111111111111	0.9	754.666666666667	13	422477	2	422465	27	40	422504	-999999	422480	0	16	Fix15secPROC	""	1	2	70	SessionSelectionList																																															6	335966	-7	0							70												
WM080112	118528_fnca	1	1	1	2068901916	1	75.030	75.031	2.0.10.147	2.0.10.242	2.0.10.242	1.0.0.439	7	234	2	3	Verdana	1	80	0	0	0	WM Stimuli\	0.9	1225.11111111111	0.9	1436.22222222222	0.8	925.875	0.6	1014	0.9	1317.22222222222	1	753.7	0.9	826.111111111111	0.9	754.666666666667	13	422477	2	422465	27	40	422504	-999999	422480	0	17	Cue0BackPROC	TO_007_TOOL7_BA.png	1	2	71	SessionSelectionList																																										39	350999	-40	0												71												
WM080112	118528_fnca	1	1	1	2068901916	1	75.030	75.031	2.0.10.147	2.0.10.242	2.0.10.242	1.0.0.439	7	234	2	3	Verdana	1	80	0	0	0	WM Stimuli\	0.9	1225.11111111111	0.9	1436.22222222222	0.8	925.875	0.6	1014	0.9	1317.22222222222	1	753.7	0.9	826.111111111111	0.9	754.666666666667	13	422477	2	422465	27	40	422504	-999999	422480	0	18	TrialsPROC	TO_010_TOOL10_BA.png	1	2	72	SessionSelectionList														nonlure	3	Tools	0-Back	62	80	60	0	0	84	5	39	355571	1	13	72	353532	-1	354686	1	1154	3	3	2039	52	355584	-53	0														1		72												
WM080112	118528_fnca	1	1	1	2068901916	1	75.030	75.031	2.0.10.147	2.0.10.242	2.0.10.242	1.0.0.439	7	234	2	3	Verdana	1	80	0	0	0	WM Stimuli\	0.9	1225.11111111111	0.9	1436.22222222222	0.8	925.875	0.6	1014	0.9	1317.22222222222	1	753.7	0.9	826.111111111111	0.9	754.666666666667	13	422477	2	422465	27	40	422504	-999999	422480	0	18	TrialsPROC	TO_009_TOOL9_BA.png	1	2	73	SessionSelectionList														nonlure	3	Tools	0-Back	63	80	61	0	0	84	6	39	358156	2	14	85	356117	-1	356726	1	609	3	3	2039	53	358170	-54	0														2		73												
WM080112	118528_fnca	1	1	1	2068901916	1	75.030	75.031	2.0.10.147	2.0.10.242	2.0.10.242	1.0.0.439	7	234	2	3	Verdana	1	80	0	0	0	WM Stimuli\	0.9	1225.11111111111	0.9	1436.22222222222	0.8	925.875	0.6	1014	0.9	1317.22222222222	1	753.7	0.9	826.111111111111	0.9	754.666666666667	13	422477	2	422465	27	40	422504	-999999	422480	0	18	TrialsPROC	TO_009_TOOL9_BA.png	1	2	74	SessionSelectionList														lure	3	Tools	0-Back	64	80	62	0	0	85	7	39	360715	2	14	59	358676	-1	359355	1	679	3	3	2039	53	360729	-54	0														3		74												
WM080112	118528_fnca	1	1	1	2068901916	1	75.030	75.031	2.0.10.147	2.0.10.242	2.0.10.242	1.0.0.439	7	234	2	3	Verdana	1	80	0	0	0	WM Stimuli\	0.9	1225.11111111111	0.9	1436.22222222222	0.8	925.875	0.6	1014	0.9	1317.22222222222	1	753.7	0.9	826.111111111111	0.9	754.666666666667	13	422477	2	422465	27	40	422504	-999999	422480	0	18	TrialsPROC	TO_008_TOOL8_BA.png	1	2	75	SessionSelectionList														nonlure	3	Tools	0-Back	65	80	63	0	0	85	8	39	363301	2	14	86	361262	-1	362187	1	925	3	3	2039	53	363315	-54	0														4		75												
WM080112	118528_fnca	1	1	1	2068901916	1	75.030	75.031	2.0.10.147	2.0.10.242	2.0.10.242	1.0.0.439	7	234	2	3	Verdana	1	80	0	0	0	WM Stimuli\	0.9	1225.11111111111	0.9	1436.22222222222	0.8	925.875	0.6	1014	0.9	1317.22222222222	1	753.7	0.9	826.111111111111	0.9	754.666666666667	13	422477	2	422465	27	40	422504	-999999	422480	0	18	TrialsPROC	TO_011_TOOL11_BA.png	1	2	76	SessionSelectionList														nonlure	3	Tools	0-Back	66	80	64	0	0	86	9	39	365913	2	14	112	363874	-1	364511	1	637	3	3	2039	53	365927	-54	0														5		76												
WM080112	118528_fnca	1	1	1	2068901916	1	75.030	75.031	2.0.10.147	2.0.10.242	2.0.10.242	1.0.0.439	7	234	2	3	Verdana	1	80	0	0	0	WM Stimuli\	0.9	1225.11111111111	0.9	1436.22222222222	0.8	925.875	0.6	1014	0.9	1317.22222222222	1	753.7	0.9	826.111111111111	0.9	754.666666666667	13	422477	2	422465	27	40	422504	-999999	422480	0	18	TrialsPROC	TO_012_TOOL12_BA.png	1	2	77	SessionSelectionList														nonlure	3	Tools	0-Back	67	80	65	0	0	86	10	39	368499	1	14	86	366460	-1	367042	1	582	3	3	2039	53	368513	-54	0														6		77												
WM080112	118528_fnca	1	1	1	2068901916	1	75.030	75.031	2.0.10.147	2.0.10.242	2.0.10.242	1.0.0.439	7	234	2	3	Verdana	1	80	0	0	0	WM Stimuli\	0.9	1225.11111111111	0.9	1436.22222222222	0.8	925.875	0.6	1014	0.9	1317.22222222222	1	753.7	0.9	826.111111111111	0.9	754.666666666667	13	422477	2	422465	27	40	422504	-999999	422480	0	18	TrialsPROC	TO_010_TOOL10_BA.png	1	2	78	SessionSelectionList														lure	3	Tools	0-Back	68	80	66	0	0	84	1	39	371058	1	14	59	369019	-1	369883	0	864	2	3	2039	53	371072	-54	0														7		78												
WM080112	118528_fnca	1	1	1	2068901916	1	75.030	75.031	2.0.10.147	2.0.10.242	2.0.10.242	1.0.0.439	7	234	2	3	Verdana	1	80	0	0	0	WM Stimuli\	0.9	1225.11111111111	0.9	1436.22222222222	0.8	925.875	0.6	1014	0.9	1317.22222222222	1	753.7	0.9	826.111111111111	0.9	754.666666666667	13	422477	2	422465	27	40	422504	-999999	422480	0	18	TrialsPROC	TO_007_TOOL7_BA.png	1	2	79	SessionSelectionList														target	2	Tools	0-Back	69	80	67	0	0	84	2	39	373617	1	14	59	371578	-1	372358	1	780	2	2	2039	53	373631	-54	0														8		79												
WM080112	118528_fnca	1	1	1	2068901916	1	75.030	75.031	2.0.10.147	2.0.10.242	2.0.10.242	1.0.0.439	7	234	2	3	Verdana	1	80	0	0	0	WM Stimuli\	0.9	1225.11111111111	0.9	1436.22222222222	0.8	925.875	0.6	1014	0.9	1317.22222222222	1	753.7	0.9	826.111111111111	0.9	754.666666666667	13	422477	2	422465	27	40	422504	-999999	422480	0	18	TrialsPROC	TO_008_TOOL8_BA.png	1	2	80	SessionSelectionList														lure	3	Tools	0-Back	70	80	68	0	0	85	1	39	376176	1	13	59	374137	-1	374919	1	782	3	3	2039	52	376189	-53	0														9		80												
WM080112	118528_fnca	1	1	1	2068901916	1	75.030	75.031	2.0.10.147	2.0.10.242	2.0.10.242	1.0.0.439	7	234	2	3	Verdana	1	80	0	0	0	WM Stimuli\	0.9	1225.11111111111	0.9	1436.22222222222	0.8	925.875	0.6	1014	0.9	1317.22222222222	1	753.7	0.9	826.111111111111	0.9	754.666666666667	13	422477	2	422465	27	40	422504	-999999	422480	0	18	TrialsPROC	TO_007_TOOL7_BA.png	1	2	81	SessionSelectionList														target	2	Tools	0-Back	71	80	69	0	0	85	1	39	378735	1	13	59	376696	-1	377340	1	644	2	2	2039	52	378748	-53	0														10		81												
WM080112	118528_fnca	1	1	1	2068901916	1	75.030	75.031	2.0.10.147	2.0.10.242	2.0.10.242	1.0.0.439	7	234	2	3	Verdana	1	80	0	0	0	WM Stimuli\	0.9	1225.11111111111	0.9	1436.22222222222	0.8	925.875	0.6	1014	0.9	1317.22222222222	1	753.7	0.9	826.111111111111	0.9	754.666666666667	13	422477	2	422465	27	40	422504	-999999	422480	0	19	Cue2BackPROC	""	1	2	82	SessionSelectionList									5	379201	-6	0																																													82												
WM080112	118528_fnca	1	1	1	2068901916	1	75.030	75.031	2.0.10.147	2.0.10.242	2.0.10.242	1.0.0.439	7	234	2	3	Verdana	1	80	0	0	0	WM Stimuli\	0.9	1225.11111111111	0.9	1436.22222222222	0.8	925.875	0.6	1014	0.9	1317.22222222222	1	753.7	0.9	826.111111111111	0.9	754.666666666667	13	422477	2	422465	27	40	422504	-999999	422480	0	20	TrialsPROC	PL_007_92026.png	1	2	83	SessionSelectionList														nonlure	3	Place	2-Back	72	80	70	0	0	85	1	39	383813	1	13	78	381774	-1	383442	1	1668	3	3	2039	52	383826	-53	0															1	83												
WM080112	118528_fnca	1	1	1	2068901916	1	75.030	75.031	2.0.10.147	2.0.10.242	2.0.10.242	1.0.0.439	7	234	2	3	Verdana	1	80	0	0	0	WM Stimuli\	0.9	1225.11111111111	0.9	1436.22222222222	0.8	925.875	0.6	1014	0.9	1317.22222222222	1	753.7	0.9	826.111111111111	0.9	754.666666666667	13	422477	2	422465	27	40	422504	-999999	422480	0	20	TrialsPROC	PL_007_92026.png	1	2	84	SessionSelectionList														lure	3	Place	2-Back	73	80	71	0	0	85	2	39	386385	1	14	72	384346	-1	386070	1	1724	3	3	2039	53	386399	-54	0															2	84												
WM080112	118528_fnca	1	1	1	2068901916	1	75.030	75.031	2.0.10.147	2.0.10.242	2.0.10.242	1.0.0.439	7	234	2	3	Verdana	1	80	0	0	0	WM Stimuli\	0.9	1225.11111111111	0.9	1436.22222222222	0.8	925.875	0.6	1014	0.9	1317.22222222222	1	753.7	0.9	826.111111111111	0.9	754.666666666667	13	422477	2	422465	27	40	422504	-999999	422480	0	20	TrialsPROC	PL_010_92038.png	1	2	85	SessionSelectionList														nonlure	3	Place	2-Back	74	80	72	0	0	85	3	40	388971	1	13	85	386931	-1	388528	1	1597	3	3	2040	53	388984	-54	0															3	85												
WM080112	118528_fnca	1	1	1	2068901916	1	75.030	75.031	2.0.10.147	2.0.10.242	2.0.10.242	1.0.0.439	7	234	2	3	Verdana	1	80	0	0	0	WM Stimuli\	0.9	1225.11111111111	0.9	1436.22222222222	0.8	925.875	0.6	1014	0.9	1317.22222222222	1	753.7	0.9	826.111111111111	0.9	754.666666666667	13	422477	2	422465	27	40	422504	-999999	422480	0	20	TrialsPROC	PL_009_92037.png	1	2	86	SessionSelectionList														nonlure	3	Place	2-Back	75	80	73	0	0	85	4	39	391543	1	14	73	389504	-1	390937	1	1433	3	3	2039	53	391557	-54	0															4	86												
WM080112	118528_fnca	1	1	1	2068901916	1	75.030	75.031	2.0.10.147	2.0.10.242	2.0.10.242	1.0.0.439	7	234	2	3	Verdana	1	80	0	0	0	WM Stimuli\	0.9	1225.11111111111	0.9	1436.22222222222	0.8	925.875	0.6	1014	0.9	1317.22222222222	1	753.7	0.9	826.111111111111	0.9	754.666666666667	13	422477	2	422465	27	40	422504	-999999	422480	0	20	TrialsPROC	PL_010_92038.png	1	2	87	SessionSelectionList														target	2	Place	2-Back	76	80	74	0	0	85	1	39	394115	2	14	72	392076	-1	393790	1	1714	2	2	2039	53	394129	-54	0															5	87												
WM080112	118528_fnca	1	1	1	2068901916	1	75.030	75.031	2.0.10.147	2.0.10.242	2.0.10.242	1.0.0.439	7	234	2	3	Verdana	1	80	0	0	0	WM Stimuli\	0.9	1225.11111111111	0.9	1436.22222222222	0.8	925.875	0.6	1014	0.9	1317.22222222222	1	753.7	0.9	826.111111111111	0.9	754.666666666667	13	422477	2	422465	27	40	422504	-999999	422480	0	20	TrialsPROC	PL_009_92037.png	1	2	88	SessionSelectionList														target	2	Place	2-Back	77	80	75	0	0	85	1	38	396674	2	14	60	394636	-1	395871	0	1235	3	2	2038	52	396688	-53	0															6	88												
WM080112	118528_fnca	1	1	1	2068901916	1	75.030	75.031	2.0.10.147	2.0.10.242	2.0.10.242	1.0.0.439	7	234	2	3	Verdana	1	80	0	0	0	WM Stimuli\	0.9	1225.11111111111	0.9	1436.22222222222	0.8	925.875	0.6	1014	0.9	1317.22222222222	1	753.7	0.9	826.111111111111	0.9	754.666666666667	13	422477	2	422465	27	40	422504	-999999	422480	0	20	TrialsPROC	PL_008_92033.png	1	2	89	SessionSelectionList														nonlure	3	Place	2-Back	78	80	76	0	0	85	2	39	399246	2	14	71	397207	-1	398069	1	862	3	3	2039	53	399260	-54	0															7	89												
WM080112	118528_fnca	1	1	1	2068901916	1	75.030	75.031	2.0.10.147	2.0.10.242	2.0.10.242	1.0.0.439	7	234	2	3	Verdana	1	80	0	0	0	WM Stimuli\	0.9	1225.11111111111	0.9	1436.22222222222	0.8	925.875	0.6	1014	0.9	1317.22222222222	1	753.7	0.9	826.111111111111	0.9	754.666666666667	13	422477	2	422465	27	40	422504	-999999	422480	0	20	TrialsPROC	PL_012_92047.png	1	2	90	SessionSelectionList														nonlure	3	Place	2-Back	79	80	77	0	0	85	3	39	401845	3	14	99	399806	-1	400577	1	771	3	3	2039	53	401859	-54	0															8	90												
WM080112	118528_fnca	1	1	1	2068901916	1	75.030	75.031	2.0.10.147	2.0.10.242	2.0.10.242	1.0.0.439	7	234	2	3	Verdana	1	80	0	0	0	WM Stimuli\	0.9	1225.11111111111	0.9	1436.22222222222	0.8	925.875	0.6	1014	0.9	1317.22222222222	1	753.7	0.9	826.111111111111	0.9	754.666666666667	13	422477	2	422465	27	40	422504	-999999	422480	0	20	TrialsPROC	PL_012_92047.png	1	2	91	SessionSelectionList														lure	3	Place	2-Back	80	80	78	0	0	85	4	39	404418	1	13	73	402379	-1	403581	1	1202	3	3	2039	52	404431	-53	0															9	91												
WM080112	118528_fnca	1	1	1	2068901916	1	75.030	75.031	2.0.10.147	2.0.10.242	2.0.10.242	1.0.0.439	7	234	2	3	Verdana	1	80	0	0	0	WM Stimuli\	0.9	1225.11111111111	0.9	1436.22222222222	0.8	925.875	0.6	1014	0.9	1317.22222222222	1	753.7	0.9	826.111111111111	0.9	754.666666666667	13	422477	2	422465	27	40	422504	-999999	422480	0	20	TrialsPROC	PL_011_92044.png	1	2	92	SessionSelectionList														nonlure	3	Place	2-Back	80	80	79	0	0	85	5	39	407003	2	14	85	404964	-1	405848	1	884	3	3	2039	53	407017	-54	0															10	92												
WM080112	118528_fnca	1	1	1	2068901916	1	75.030	75.031	2.0.10.147	2.0.10.242	2.0.10.242	1.0.0.439	7	234	2	3	Verdana	1	80	0	0	0	WM Stimuli\	0.9	1225.11111111111	0.9	1436.22222222222	0.8	925.875	0.6	1014	0.9	1317.22222222222	1	753.7	0.9	826.111111111111	0.9	754.666666666667	13	422477	2	422465	27	40	422504	-999999	422480	0	21	Fix15secPROC	""	1	2	93	SessionSelectionList																																															6	407470	-7	0							93												
