ExperimentName	HCPID	RunNumber	Subject	Session	RandomSeed	Group	Laptop.RefreshRate	ScannerD2.RefreshRate	StudioVersion	RuntimeVersion	RuntimeVersionExpected	ExperimentVersion	triggercode	Allowed	Target	Nontarget	FontStyle	RunTrialNumber[Session]	TrialsPerRun[Session]	TotalRespGreater200[Session]	ConsecRTLess200[Session]	ConsecNonResp[Session]	StimuliDir	ACC_2_Back_Body	Avg_RT_For_Correct_Trials_2_Back_Body	ACC_0_Back_Body	Avg_RT_For_Correct_Trials_0_Back_Body	ACC_2_Back_Face	Avg_RT_For_Correct_Trials_2_Back_Face	ACC_0_Back_Face	Avg_RT_For_Correct_Trials_0_Back_Face	ACC_2_Back_Place	Avg_RT_For_Correct_Trials_2_Back_Place	ACC_0_Back_Place	Avg_RT_For_Correct_Trials_0_Back_Place	ACC_2_Back_Tools	Avg_RT_For_Correct_Trials_2_Back_Tools	ACC_0_Back_Tools	Avg_RT_For_Correct_Trials_0_Back_Tools	ExpInstrucFeelFreeToRest.OnsetDelay	ExpInstrucFeelFreeToRest.OnsetTime	ExpInstrucFeelFreeToRest.DurationError	ExpInstrucFeelFreeToRest.StartTime	ExpInstrucFeelFreeToRest.OnsetToOnsetTime	FeelFreeToRest.OnsetDelay	FeelFreeToRest.OnsetTime	FeelFreeToRest.DurationError	FeelFreeToRest.StartTime	FeelFreeToRest.OnsetToOnsetTime	SessionSelectionList	Procedure[Block]	Stimulus[Block]	RunNumberFilterValue	SessionSelectionList.Cycle	SessionSelectionList.Sample	Running[Block]	IntroButtonMap.OnsetDelay	IntroButtonMap.OnsetTime	IntroButtonMap.DurationError	IntroButtonMap.OnsetToOnsetTime	GetReady.OnsetDelay	GetReady.OnsetTime	GetReady.DurationError	GetReady.OnsetToOnsetTime	Cue2Back.OnsetDelay	Cue2Back.OnsetTime	Cue2Back.DurationError	Cue2Back.OnsetToOnsetTime	Run1Block1	TargetType	CorrectResponse	StimType	BlockType	RunTrialNumber[Block]	TrialsPerRun[Block]	TotalRespGreater200[Block]	ConsecRTLess200[Block]	ConsecNonResp[Block]	ControlAcc	ConsecSameResp	ExperimenterWindow.OnsetDelay	ExperimenterWindow.OnsetTime	ExperimenterWindow.DurationError	ExperimenterWindow.OnsetToOnsetTime	Stim.OnsetDelay	Stim.OnsetTime	Stim.DurationError	Stim.RTTime	Stim.ACC	Stim.RT	Stim.RESP	Stim.CRESP	Stim.OnsetToOnsetTime	Fix.OnsetDelay	Fix.OnsetTime	Fix.DurationError	Fix.OnsetToOnsetTime	CueTarget.OnsetDelay	CueTarget.OnsetTime	CueTarget.DurationError	CueTarget.OnsetToOnsetTime	Run1Block2	Fix15sec.OnsetDelay	Fix15sec.OnsetTime	Fix15sec.DurationError	Fix15sec.OnsetToOnsetTime	Run1Block3	Run1Block4	Run1Block5	Run1Block6	Run1Block7	Run1Block8	Block	Procedure[Trial]	Stimulus[Trial]	ReadyList	Running[Trial]	ReadyList.Cycle	ReadyList.Sample	SyncSlide.OnsetDelay	SyncSlide.OnsetTime	SyncSlide.DurationError	SyncSlide.FinishTime	SyncSlide.OnsetToOnsetTime	Trial
WM080112	117122_fnca	1	1	1	-5536274	1	75.032	75.031	2.0.10.147	2.0.10.242	2.0.10.242	1.0.0.439	7	234	2	3	Verdana	1	80	0	0	0	WM Stimuli\	0.6	1551.83333333333	1	755.6	0.9	1198.55555555556	1	904.9	0.9	1269.44444444444	1	755.9	0.9	1395	1	637.4	12	374603	3	374592	27	39	374630	-999999	374606	0	1	TRSyncPROC	""	1	2	1	SessionSelectionList	118	21895	-999999	0	32	67676	-999999	0																																																	1	InitialTR	4	1	ReadyList	1	1	20	81177	-21	83156	0	1
WM080112	117122_fnca	1	1	1	-5536274	1	75.032	75.031	2.0.10.147	2.0.10.242	2.0.10.242	1.0.0.439	7	234	2	3	Verdana	1	80	0	0	0	WM Stimuli\	0.6	1551.83333333333	1	755.6	0.9	1198.55555555556	1	904.9	0.9	1269.44444444444	1	755.9	0.9	1395	1	637.4	12	374603	3	374592	27	39	374630	-999999	374606	0	1	TRSyncPROC	""	1	2	1	SessionSelectionList	118	21895	-999999	0	32	67676	-999999	0																																																	1	InitialTR	3	2	ReadyList	1	2	19	83176	-20	85156	0	2
WM080112	117122_fnca	1	1	1	-5536274	1	75.032	75.031	2.0.10.147	2.0.10.242	2.0.10.242	1.0.0.439	7	234	2	3	Verdana	1	80	0	0	0	WM Stimuli\	0.6	1551.83333333333	1	755.6	0.9	1198.55555555556	1	904.9	0.9	1269.44444444444	1	755.9	0.9	1395	1	637.4	12	374603	3	374592	27	39	374630	-999999	374606	0	1	TRSyncPROC	""	1	2	1	SessionSelectionList	118	21895	-999999	0	32	67676	-999999	0																																																	1	InitialTR	2	3	ReadyList	1	3	5	85162	-6	87156	0	3
WM080112	117122_fnca	1	1	1	-5536274	1	75.032	75.031	2.0.10.147	2.0.10.242	2.0.10.242	1.0.0.439	7	234	2	3	Verdana	1	80	0	0	0	WM Stimuli\	0.6	1551.83333333333	1	755.6	0.9	1198.55555555556	1	904.9	0.9	1269.44444444444	1	755.9	0.9	1395	1	637.4	12	374603	3	374592	27	39	374630	-999999	374606	0	1	TRSyncPROC	""	1	2	1	SessionSelectionList	118	21895	-999999	0	32	67676	-999999	0																																																	1	InitialTR	1	4	ReadyList	1	4	4	87161	-5	89156	0	4
WM080112	117122_fnca	1	1	1	-5536274	1	75.032	75.031	2.0.10.147	2.0.10.242	2.0.10.242	1.0.0.439	7	234	2	3	Verdana	1	80	0	0	0	WM Stimuli\	0.6	1551.83333333333	1	755.6	0.9	1198.55555555556	1	904.9	0.9	1269.44444444444	1	755.9	0.9	1395	1	637.4	12	374603	3	374592	27	39	374630	-999999	374606	0	2	Cue2BackPROC	""	1	2	2	SessionSelectionList									17	89174	-18	0																																													2												
WM080112	117122_fnca	1	1	1	-5536274	1	75.032	75.031	2.0.10.147	2.0.10.242	2.0.10.242	1.0.0.439	7	234	2	3	Verdana	1	80	0	0	0	WM Stimuli\	0.6	1551.83333333333	1	755.6	0.9	1198.55555555556	1	904.9	0.9	1269.44444444444	1	755.9	0.9	1395	1	637.4	12	374603	3	374592	27	39	374630	-999999	374606	0	3	TrialsPROC	BP_002_BP10_BA.png	1	2	3	SessionSelectionList													1	nonlure	3	Body	2-Back	2	80	1	0	0	0	1	52	93785	3	14	76	91733	-1	93710	1	1977	3	3	2052	66	93799	-67	0																3												
WM080112	117122_fnca	1	1	1	-5536274	1	75.032	75.031	2.0.10.147	2.0.10.242	2.0.10.242	1.0.0.439	7	234	2	3	Verdana	1	80	0	0	0	WM Stimuli\	0.6	1551.83333333333	1	755.6	0.9	1198.55555555556	1	904.9	0.9	1269.44444444444	1	755.9	0.9	1395	1	637.4	12	374603	3	374592	27	39	374630	-999999	374606	0	3	TrialsPROC	BP_001_BP1_BA.png	1	2	4	SessionSelectionList													2	nonlure	3	Body	2-Back	3	80	2	0	0	0	2	39	96344	3	14	72	94305	-1	94987	1	682	3	3	2039	53	96358	-54	0																4												
WM080112	117122_fnca	1	1	1	-5536274	1	75.032	75.031	2.0.10.147	2.0.10.242	2.0.10.242	1.0.0.439	7	234	2	3	Verdana	1	80	0	0	0	WM Stimuli\	0.6	1551.83333333333	1	755.6	0.9	1198.55555555556	1	904.9	0.9	1269.44444444444	1	755.9	0.9	1395	1	637.4	12	374603	3	374592	27	39	374630	-999999	374606	0	3	TrialsPROC	BP_006_BP2_BA.png	1	2	5	SessionSelectionList													3	nonlure	3	Body	2-Back	4	80	2	0	1	0	2	39	98903	3	14	59	96864	-1	0	0	0	""	3	2039	53	98917	-54	0																5												
WM080112	117122_fnca	1	1	1	-5536274	1	75.032	75.031	2.0.10.147	2.0.10.242	2.0.10.242	1.0.0.439	7	234	2	3	Verdana	1	80	0	0	0	WM Stimuli\	0.6	1551.83333333333	1	755.6	0.9	1198.55555555556	1	904.9	0.9	1269.44444444444	1	755.9	0.9	1395	1	637.4	12	374603	3	374592	27	39	374630	-999999	374606	0	3	TrialsPROC	BP_001_BP1_BA.png	1	2	6	SessionSelectionList													4	target	2	Body	2-Back	5	80	2	0	2	0	2	40	101476	2	13	72	99436	-1	0	0	0	""	2	2040	53	101489	-54	0																6												
WM080112	117122_fnca	1	1	1	-5536274	1	75.032	75.031	2.0.10.147	2.0.10.242	2.0.10.242	1.0.0.439	7	234	2	3	Verdana	1	80	0	0	0	WM Stimuli\	0.6	1551.83333333333	1	755.6	0.9	1198.55555555556	1	904.9	0.9	1269.44444444444	1	755.9	0.9	1395	1	637.4	12	374603	3	374592	27	39	374630	-999999	374606	0	3	TrialsPROC	BP_005_BP19_BA.png	1	2	7	SessionSelectionList													5	nonlure	3	Body	2-Back	6	80	3	0	0	0	1	39	104048	1	14	73	102009	-1	103972	1	1963	3	3	2039	53	104062	-54	0																7												
WM080112	117122_fnca	1	1	1	-5536274	1	75.032	75.031	2.0.10.147	2.0.10.242	2.0.10.242	1.0.0.439	7	234	2	3	Verdana	1	80	0	0	0	WM Stimuli\	0.6	1551.83333333333	1	755.6	0.9	1198.55555555556	1	904.9	0.9	1269.44444444444	1	755.9	0.9	1395	1	637.4	12	374603	3	374592	27	39	374630	-999999	374606	0	3	TrialsPROC	BP_003_BP16_BA.png	1	2	8	SessionSelectionList													6	nonlure	3	Body	2-Back	7	80	4	0	0	0	2	39	106607	2	13	59	104568	-1	105695	1	1127	3	3	2039	52	106620	-53	0																8												
WM080112	117122_fnca	1	1	1	-5536274	1	75.032	75.031	2.0.10.147	2.0.10.242	2.0.10.242	1.0.0.439	7	234	2	3	Verdana	1	80	0	0	0	WM Stimuli\	0.6	1551.83333333333	1	755.6	0.9	1198.55555555556	1	904.9	0.9	1269.44444444444	1	755.9	0.9	1395	1	637.4	12	374603	3	374592	27	39	374630	-999999	374606	0	3	TrialsPROC	BP_006_BP2_BA.png	1	2	9	SessionSelectionList													7	lure	3	Body	2-Back	8	80	4	0	1	0	2	39	109166	2	13	59	107127	-1	0	0	0	""	3	2039	52	109179	-53	0																9												
WM080112	117122_fnca	1	1	1	-5536274	1	75.032	75.031	2.0.10.147	2.0.10.242	2.0.10.242	1.0.0.439	7	234	2	3	Verdana	1	80	0	0	0	WM Stimuli\	0.6	1551.83333333333	1	755.6	0.9	1198.55555555556	1	904.9	0.9	1269.44444444444	1	755.9	0.9	1395	1	637.4	12	374603	3	374592	27	39	374630	-999999	374606	0	3	TrialsPROC	BP_004_BP18_BA.png	1	2	10	SessionSelectionList													8	nonlure	3	Body	2-Back	9	80	5	0	0	0	1	39	111725	1	13	59	109686	-1	111317	1	1631	3	3	2039	52	111738	-53	0																10												
WM080112	117122_fnca	1	1	1	-5536274	1	75.032	75.031	2.0.10.147	2.0.10.242	2.0.10.242	1.0.0.439	7	234	2	3	Verdana	1	80	0	0	0	WM Stimuli\	0.6	1551.83333333333	1	755.6	0.9	1198.55555555556	1	904.9	0.9	1269.44444444444	1	755.9	0.9	1395	1	637.4	12	374603	3	374592	27	39	374630	-999999	374606	0	3	TrialsPROC	BP_005_BP19_BA.png	1	2	11	SessionSelectionList													9	lure	3	Body	2-Back	10	80	6	0	0	0	1	39	114284	2	13	59	112245	-1	113639	0	1394	2	3	2039	52	114297	-53	0																11												
WM080112	117122_fnca	1	1	1	-5536274	1	75.032	75.031	2.0.10.147	2.0.10.242	2.0.10.242	1.0.0.439	7	234	2	3	Verdana	1	80	0	0	0	WM Stimuli\	0.6	1551.83333333333	1	755.6	0.9	1198.55555555556	1	904.9	0.9	1269.44444444444	1	755.9	0.9	1395	1	637.4	12	374603	3	374592	27	39	374630	-999999	374606	0	3	TrialsPROC	BP_004_BP18_BA.png	1	2	12	SessionSelectionList													10	target	2	Body	2-Back	11	80	7	0	0	0	2	40	116843	2	13	58	114803	-1	116734	1	1931	2	2	2040	53	116856	-54	0																12												
WM080112	117122_fnca	1	1	1	-5536274	1	75.032	75.031	2.0.10.147	2.0.10.242	2.0.10.242	1.0.0.439	7	234	2	3	Verdana	1	80	0	0	0	WM Stimuli\	0.6	1551.83333333333	1	755.6	0.9	1198.55555555556	1	904.9	0.9	1269.44444444444	1	755.9	0.9	1395	1	637.4	12	374603	3	374592	27	39	374630	-999999	374606	0	4	Cue0BackPROC	FC_001_M1.png	1	2	13	SessionSelectionList																																										19	117322	-20	0												13												
WM080112	117122_fnca	1	1	1	-5536274	1	75.032	75.031	2.0.10.147	2.0.10.242	2.0.10.242	1.0.0.439	7	234	2	3	Verdana	1	80	0	0	0	WM Stimuli\	0.6	1551.83333333333	1	755.6	0.9	1198.55555555556	1	904.9	0.9	1269.44444444444	1	755.9	0.9	1395	1	637.4	12	374603	3	374592	27	39	374630	-999999	374606	0	5	TrialsPROC	FC_005_M3.png	1	2	14	SessionSelectionList														nonlure	3	Face	0-Back	12	80	8	0	0	100	1	39	121907	2	14	65	119868	-1	120757	1	889	3	3	2039	53	121921	-54	0					1											14												
WM080112	117122_fnca	1	1	1	-5536274	1	75.032	75.031	2.0.10.147	2.0.10.242	2.0.10.242	1.0.0.439	7	234	2	3	Verdana	1	80	0	0	0	WM Stimuli\	0.6	1551.83333333333	1	755.6	0.9	1198.55555555556	1	904.9	0.9	1269.44444444444	1	755.9	0.9	1395	1	637.4	12	374603	3	374592	27	39	374630	-999999	374606	0	5	TrialsPROC	FC_001_M1.png	1	2	15	SessionSelectionList														target	2	Face	0-Back	13	80	9	0	0	100	1	39	124479	2	14	72	122440	-1	123581	1	1141	2	2	2039	53	124493	-54	0					2											15												
WM080112	117122_fnca	1	1	1	-5536274	1	75.032	75.031	2.0.10.147	2.0.10.242	2.0.10.242	1.0.0.439	7	234	2	3	Verdana	1	80	0	0	0	WM Stimuli\	0.6	1551.83333333333	1	755.6	0.9	1198.55555555556	1	904.9	0.9	1269.44444444444	1	755.9	0.9	1395	1	637.4	12	374603	3	374592	27	39	374630	-999999	374606	0	5	TrialsPROC	FC_003_M2.png	1	2	16	SessionSelectionList														nonlure	3	Face	0-Back	14	80	10	0	0	100	1	39	127052	2	13	73	125013	-1	126943	1	1930	3	3	2039	52	127065	-53	0					3											16												
WM080112	117122_fnca	1	1	1	-5536274	1	75.032	75.031	2.0.10.147	2.0.10.242	2.0.10.242	1.0.0.439	7	234	2	3	Verdana	1	80	0	0	0	WM Stimuli\	0.6	1551.83333333333	1	755.6	0.9	1198.55555555556	1	904.9	0.9	1269.44444444444	1	755.9	0.9	1395	1	637.4	12	374603	3	374592	27	39	374630	-999999	374606	0	5	TrialsPROC	FC_004_F2.png	1	2	17	SessionSelectionList														nonlure	3	Face	0-Back	15	80	11	0	0	100	2	39	129624	2	14	72	127585	-1	128388	1	803	3	3	2039	53	129638	-54	0					4											17												
WM080112	117122_fnca	1	1	1	-5536274	1	75.032	75.031	2.0.10.147	2.0.10.242	2.0.10.242	1.0.0.439	7	234	2	3	Verdana	1	80	0	0	0	WM Stimuli\	0.6	1551.83333333333	1	755.6	0.9	1198.55555555556	1	904.9	0.9	1269.44444444444	1	755.9	0.9	1395	1	637.4	12	374603	3	374592	27	39	374630	-999999	374606	0	5	TrialsPROC	FC_004_F2.png	1	2	18	SessionSelectionList														lure	3	Face	0-Back	16	80	12	0	0	100	3	39	132196	3	14	72	130157	-1	130696	1	539	3	3	2039	53	132210	-54	0					5											18												
WM080112	117122_fnca	1	1	1	-5536274	1	75.032	75.031	2.0.10.147	2.0.10.242	2.0.10.242	1.0.0.439	7	234	2	3	Verdana	1	80	0	0	0	WM Stimuli\	0.6	1551.83333333333	1	755.6	0.9	1198.55555555556	1	904.9	0.9	1269.44444444444	1	755.9	0.9	1395	1	637.4	12	374603	3	374592	27	39	374630	-999999	374606	0	5	TrialsPROC	FC_001_M1.png	1	2	19	SessionSelectionList														target	2	Face	0-Back	17	80	13	0	0	100	1	40	134769	2	13	72	132729	-1	133332	1	603	2	2	2040	53	134782	-54	0					6											19												
WM080112	117122_fnca	1	1	1	-5536274	1	75.032	75.031	2.0.10.147	2.0.10.242	2.0.10.242	1.0.0.439	7	234	2	3	Verdana	1	80	0	0	0	WM Stimuli\	0.6	1551.83333333333	1	755.6	0.9	1198.55555555556	1	904.9	0.9	1269.44444444444	1	755.9	0.9	1395	1	637.4	12	374603	3	374592	27	39	374630	-999999	374606	0	5	TrialsPROC	FC_006_F3.png	1	2	20	SessionSelectionList														nonlure	3	Face	0-Back	18	80	14	0	0	100	1	39	137341	2	13	73	135302	-1	136020	1	718	3	3	2039	52	137354	-53	0					7											20												
WM080112	117122_fnca	1	1	1	-5536274	1	75.032	75.031	2.0.10.147	2.0.10.242	2.0.10.242	1.0.0.439	7	234	2	3	Verdana	1	80	0	0	0	WM Stimuli\	0.6	1551.83333333333	1	755.6	0.9	1198.55555555556	1	904.9	0.9	1269.44444444444	1	755.9	0.9	1395	1	637.4	12	374603	3	374592	27	39	374630	-999999	374606	0	5	TrialsPROC	FC_006_F3.png	1	2	21	SessionSelectionList														lure	3	Face	0-Back	19	80	15	0	0	100	2	39	139913	3	14	72	137874	-1	138438	1	564	3	3	2039	53	139927	-54	0					8											21												
WM080112	117122_fnca	1	1	1	-5536274	1	75.032	75.031	2.0.10.147	2.0.10.242	2.0.10.242	1.0.0.439	7	234	2	3	Verdana	1	80	0	0	0	WM Stimuli\	0.6	1551.83333333333	1	755.6	0.9	1198.55555555556	1	904.9	0.9	1269.44444444444	1	755.9	0.9	1395	1	637.4	12	374603	3	374592	27	39	374630	-999999	374606	0	5	TrialsPROC	FC_003_M2.png	1	2	22	SessionSelectionList														lure	3	Face	0-Back	20	80	16	0	0	100	3	39	142485	3	14	72	140446	-1	141544	1	1098	3	3	2039	53	142499	-54	0					9											22												
WM080112	117122_fnca	1	1	1	-5536274	1	75.032	75.031	2.0.10.147	2.0.10.242	2.0.10.242	1.0.0.439	7	234	2	3	Verdana	1	80	0	0	0	WM Stimuli\	0.6	1551.83333333333	1	755.6	0.9	1198.55555555556	1	904.9	0.9	1269.44444444444	1	755.9	0.9	1395	1	637.4	12	374603	3	374592	27	39	374630	-999999	374606	0	5	TrialsPROC	FC_002_F1.png	1	2	23	SessionSelectionList														nonlure	3	Face	0-Back	21	80	17	0	0	100	4	40	145058	2	13	72	143018	-1	143782	1	764	3	3	2040	53	145071	-54	0					10											23												
WM080112	117122_fnca	1	1	1	-5536274	1	75.032	75.031	2.0.10.147	2.0.10.242	2.0.10.242	1.0.0.439	7	234	2	3	Verdana	1	80	0	0	0	WM Stimuli\	0.6	1551.83333333333	1	755.6	0.9	1198.55555555556	1	904.9	0.9	1269.44444444444	1	755.9	0.9	1395	1	637.4	12	374603	3	374592	27	39	374630	-999999	374606	0	6	Fix15secPROC	""	1	2	24	SessionSelectionList																																															6	145524	-7	0							24												
WM080112	117122_fnca	1	1	1	-5536274	1	75.032	75.031	2.0.10.147	2.0.10.242	2.0.10.242	1.0.0.439	7	234	2	3	Verdana	1	80	0	0	0	WM Stimuli\	0.6	1551.83333333333	1	755.6	0.9	1198.55555555556	1	904.9	0.9	1269.44444444444	1	755.9	0.9	1395	1	637.4	12	374603	3	374592	27	39	374630	-999999	374606	0	7	Cue2BackPROC	""	1	2	25	SessionSelectionList									13	160531	-14	0																																													25												
WM080112	117122_fnca	1	1	1	-5536274	1	75.032	75.031	2.0.10.147	2.0.10.242	2.0.10.242	1.0.0.439	7	234	2	3	Verdana	1	80	0	0	0	WM Stimuli\	0.6	1551.83333333333	1	755.6	0.9	1198.55555555556	1	904.9	0.9	1269.44444444444	1	755.9	0.9	1395	1	637.4	12	374603	3	374592	27	39	374630	-999999	374606	0	8	TrialsPROC	TO_001_TOOL1_BA.png	1	2	26	SessionSelectionList														nonlure	3	Tools	2-Back	22	80	18	0	0	100	5	39	165116	3	14	59	163077	-1	164892	1	1815	3	3	2039	53	165130	-54	0										1						26												
WM080112	117122_fnca	1	1	1	-5536274	1	75.032	75.031	2.0.10.147	2.0.10.242	2.0.10.242	1.0.0.439	7	234	2	3	Verdana	1	80	0	0	0	WM Stimuli\	0.6	1551.83333333333	1	755.6	0.9	1198.55555555556	1	904.9	0.9	1269.44444444444	1	755.9	0.9	1395	1	637.4	12	374603	3	374592	27	39	374630	-999999	374606	0	8	TrialsPROC	TO_002_TOOL2_BA.png	1	2	27	SessionSelectionList														nonlure	3	Tools	2-Back	23	80	19	0	0	100	6	39	167675	3	14	59	165636	-1	167343	1	1707	3	3	2039	53	167689	-54	0										2						27												
WM080112	117122_fnca	1	1	1	-5536274	1	75.032	75.031	2.0.10.147	2.0.10.242	2.0.10.242	1.0.0.439	7	234	2	3	Verdana	1	80	0	0	0	WM Stimuli\	0.6	1551.83333333333	1	755.6	0.9	1198.55555555556	1	904.9	0.9	1269.44444444444	1	755.9	0.9	1395	1	637.4	12	374603	3	374592	27	39	374630	-999999	374606	0	8	TrialsPROC	TO_004_TOOL4_BA.png	1	2	28	SessionSelectionList														nonlure	3	Tools	2-Back	24	80	20	0	0	100	7	39	170234	2	14	59	168195	-1	169450	1	1255	3	3	2039	53	170248	-54	0										3						28												
WM080112	117122_fnca	1	1	1	-5536274	1	75.032	75.031	2.0.10.147	2.0.10.242	2.0.10.242	1.0.0.439	7	234	2	3	Verdana	1	80	0	0	0	WM Stimuli\	0.6	1551.83333333333	1	755.6	0.9	1198.55555555556	1	904.9	0.9	1269.44444444444	1	755.9	0.9	1395	1	637.4	12	374603	3	374592	27	39	374630	-999999	374606	0	8	TrialsPROC	TO_002_TOOL2_BA.png	1	2	29	SessionSelectionList														target	2	Tools	2-Back	25	80	21	0	0	100	1	39	172793	1	14	59	170754	-1	172626	1	1872	2	2	2039	53	172807	-54	0										4						29												
WM080112	117122_fnca	1	1	1	-5536274	1	75.032	75.031	2.0.10.147	2.0.10.242	2.0.10.242	1.0.0.439	7	234	2	3	Verdana	1	80	0	0	0	WM Stimuli\	0.6	1551.83333333333	1	755.6	0.9	1198.55555555556	1	904.9	0.9	1269.44444444444	1	755.9	0.9	1395	1	637.4	12	374603	3	374592	27	39	374630	-999999	374606	0	8	TrialsPROC	TO_001_TOOL1_BA.png	1	2	30	SessionSelectionList														lure	3	Tools	2-Back	26	80	22	0	0	100	1	39	175352	2	14	59	173313	-1	174437	1	1124	3	3	2039	53	175366	-54	0										5						30												
WM080112	117122_fnca	1	1	1	-5536274	1	75.032	75.031	2.0.10.147	2.0.10.242	2.0.10.242	1.0.0.439	7	234	2	3	Verdana	1	80	0	0	0	WM Stimuli\	0.6	1551.83333333333	1	755.6	0.9	1198.55555555556	1	904.9	0.9	1269.44444444444	1	755.9	0.9	1395	1	637.4	12	374603	3	374592	27	39	374630	-999999	374606	0	8	TrialsPROC	TO_004_TOOL4_BA.png	1	2	31	SessionSelectionList														lure	3	Tools	2-Back	27	80	23	0	0	100	1	39	177911	2	13	59	175872	-1	177235	0	1363	2	3	2039	52	177924	-53	0										6						31												
WM080112	117122_fnca	1	1	1	-5536274	1	75.032	75.031	2.0.10.147	2.0.10.242	2.0.10.242	1.0.0.439	7	234	2	3	Verdana	1	80	0	0	0	WM Stimuli\	0.6	1551.83333333333	1	755.6	0.9	1198.55555555556	1	904.9	0.9	1269.44444444444	1	755.9	0.9	1395	1	637.4	12	374603	3	374592	27	39	374630	-999999	374606	0	8	TrialsPROC	TO_006_TOOL6_BA.png	1	2	32	SessionSelectionList														nonlure	3	Tools	2-Back	28	80	24	0	0	100	1	39	180470	1	13	59	178431	-1	179719	1	1288	3	3	2039	52	180483	-53	0										7						32												
WM080112	117122_fnca	1	1	1	-5536274	1	75.032	75.031	2.0.10.147	2.0.10.242	2.0.10.242	1.0.0.439	7	234	2	3	Verdana	1	80	0	0	0	WM Stimuli\	0.6	1551.83333333333	1	755.6	0.9	1198.55555555556	1	904.9	0.9	1269.44444444444	1	755.9	0.9	1395	1	637.4	12	374603	3	374592	27	39	374630	-999999	374606	0	8	TrialsPROC	TO_005_TOOL5_BA.png	1	2	33	SessionSelectionList														nonlure	3	Tools	2-Back	29	80	25	0	0	100	2	39	183029	1	13	59	180990	-1	182078	1	1088	3	3	2039	52	183042	-53	0										8						33												
WM080112	117122_fnca	1	1	1	-5536274	1	75.032	75.031	2.0.10.147	2.0.10.242	2.0.10.242	1.0.0.439	7	234	2	3	Verdana	1	80	0	0	0	WM Stimuli\	0.6	1551.83333333333	1	755.6	0.9	1198.55555555556	1	904.9	0.9	1269.44444444444	1	755.9	0.9	1395	1	637.4	12	374603	3	374592	27	39	374630	-999999	374606	0	8	TrialsPROC	TO_006_TOOL6_BA.png	1	2	34	SessionSelectionList														target	2	Tools	2-Back	30	80	26	0	0	100	1	40	185588	1	13	58	183548	-1	184587	1	1039	2	2	2040	53	185601	-54	0										9						34												
WM080112	117122_fnca	1	1	1	-5536274	1	75.032	75.031	2.0.10.147	2.0.10.242	2.0.10.242	1.0.0.439	7	234	2	3	Verdana	1	80	0	0	0	WM Stimuli\	0.6	1551.83333333333	1	755.6	0.9	1198.55555555556	1	904.9	0.9	1269.44444444444	1	755.9	0.9	1395	1	637.4	12	374603	3	374592	27	39	374630	-999999	374606	0	8	TrialsPROC	TO_003_TOOL3_BA.png	1	2	35	SessionSelectionList														nonlure	3	Tools	2-Back	31	80	27	0	0	100	1	40	188147	2	13	59	186107	-1	187474	1	1367	3	3	2040	53	188160	-54	0										10						35												
WM080112	117122_fnca	1	1	1	-5536274	1	75.032	75.031	2.0.10.147	2.0.10.242	2.0.10.242	1.0.0.439	7	234	2	3	Verdana	1	80	0	0	0	WM Stimuli\	0.6	1551.83333333333	1	755.6	0.9	1198.55555555556	1	904.9	0.9	1269.44444444444	1	755.9	0.9	1395	1	637.4	12	374603	3	374592	27	39	374630	-999999	374606	0	9	Cue0BackPROC	BP_007_BP20_BA.png	1	2	36	SessionSelectionList																																										19	188626	-20	0												36												
WM080112	117122_fnca	1	1	1	-5536274	1	75.032	75.031	2.0.10.147	2.0.10.242	2.0.10.242	1.0.0.439	7	234	2	3	Verdana	1	80	0	0	0	WM Stimuli\	0.6	1551.83333333333	1	755.6	0.9	1198.55555555556	1	904.9	0.9	1269.44444444444	1	755.9	0.9	1395	1	637.4	12	374603	3	374592	27	39	374630	-999999	374606	0	10	TrialsPROC	BP_007_BP20_BA.png	1	2	37	SessionSelectionList														target	2	Body	0-Back	32	80	28	0	0	100	1	39	193198	1	14	52	191159	-1	192121	1	962	2	2	2039	53	193212	-54	0											1					37												
WM080112	117122_fnca	1	1	1	-5536274	1	75.032	75.031	2.0.10.147	2.0.10.242	2.0.10.242	1.0.0.439	7	234	2	3	Verdana	1	80	0	0	0	WM Stimuli\	0.6	1551.83333333333	1	755.6	0.9	1198.55555555556	1	904.9	0.9	1269.44444444444	1	755.9	0.9	1395	1	637.4	12	374603	3	374592	27	39	374630	-999999	374606	0	10	TrialsPROC	BP_011_BP4_BA.png	1	2	38	SessionSelectionList														nonlure	3	Body	0-Back	33	80	29	0	0	100	1	39	195770	2	14	72	193731	-1	194359	1	628	3	3	2039	53	195784	-54	0											2					38												
WM080112	117122_fnca	1	1	1	-5536274	1	75.032	75.031	2.0.10.147	2.0.10.242	2.0.10.242	1.0.0.439	7	234	2	3	Verdana	1	80	0	0	0	WM Stimuli\	0.6	1551.83333333333	1	755.6	0.9	1198.55555555556	1	904.9	0.9	1269.44444444444	1	755.9	0.9	1395	1	637.4	12	374603	3	374592	27	39	374630	-999999	374606	0	10	TrialsPROC	BP_010_BP3_BA.png	1	2	39	SessionSelectionList														nonlure	3	Body	0-Back	34	80	30	0	0	100	2	39	198342	3	14	72	196303	-1	196890	1	587	3	3	2039	53	198356	-54	0											3					39												
WM080112	117122_fnca	1	1	1	-5536274	1	75.032	75.031	2.0.10.147	2.0.10.242	2.0.10.242	1.0.0.439	7	234	2	3	Verdana	1	80	0	0	0	WM Stimuli\	0.6	1551.83333333333	1	755.6	0.9	1198.55555555556	1	904.9	0.9	1269.44444444444	1	755.9	0.9	1395	1	637.4	12	374603	3	374592	27	39	374630	-999999	374606	0	10	TrialsPROC	BP_008_BP21_BA.png	1	2	40	SessionSelectionList														nonlure	3	Body	0-Back	35	80	31	0	0	100	3	39	200901	3	14	59	198862	-1	199480	1	618	3	3	2039	53	200915	-54	0											4					40												
WM080112	117122_fnca	1	1	1	-5536274	1	75.032	75.031	2.0.10.147	2.0.10.242	2.0.10.242	1.0.0.439	7	234	2	3	Verdana	1	80	0	0	0	WM Stimuli\	0.6	1551.83333333333	1	755.6	0.9	1198.55555555556	1	904.9	0.9	1269.44444444444	1	755.9	0.9	1395	1	637.4	12	374603	3	374592	27	39	374630	-999999	374606	0	10	TrialsPROC	BP_011_BP4_BA.png	1	2	41	SessionSelectionList														lure	3	Body	0-Back	36	80	32	0	0	100	4	40	203474	1	13	72	201434	-1	202172	1	738	3	3	2040	53	203487	-54	0											5					41												
WM080112	117122_fnca	1	1	1	-5536274	1	75.032	75.031	2.0.10.147	2.0.10.242	2.0.10.242	1.0.0.439	7	234	2	3	Verdana	1	80	0	0	0	WM Stimuli\	0.6	1551.83333333333	1	755.6	0.9	1198.55555555556	1	904.9	0.9	1269.44444444444	1	755.9	0.9	1395	1	637.4	12	374603	3	374592	27	39	374630	-999999	374606	0	10	TrialsPROC	BP_009_BP22_BA.png	1	2	42	SessionSelectionList														nonlure	3	Body	0-Back	37	80	33	0	0	100	5	40	206033	2	13	59	203993	-1	205304	1	1311	3	3	2040	53	206046	-54	0											6					42												
WM080112	117122_fnca	1	1	1	-5536274	1	75.032	75.031	2.0.10.147	2.0.10.242	2.0.10.242	1.0.0.439	7	234	2	3	Verdana	1	80	0	0	0	WM Stimuli\	0.6	1551.83333333333	1	755.6	0.9	1198.55555555556	1	904.9	0.9	1269.44444444444	1	755.9	0.9	1395	1	637.4	12	374603	3	374592	27	39	374630	-999999	374606	0	10	TrialsPROC	BP_009_BP22_BA.png	1	2	43	SessionSelectionList														lure	3	Body	0-Back	38	80	34	0	0	100	6	40	208592	1	13	59	206552	-1	207181	1	629	3	3	2040	53	208605	-54	0											7					43												
WM080112	117122_fnca	1	1	1	-5536274	1	75.032	75.031	2.0.10.147	2.0.10.242	2.0.10.242	1.0.0.439	7	234	2	3	Verdana	1	80	0	0	0	WM Stimuli\	0.6	1551.83333333333	1	755.6	0.9	1198.55555555556	1	904.9	0.9	1269.44444444444	1	755.9	0.9	1395	1	637.4	12	374603	3	374592	27	39	374630	-999999	374606	0	10	TrialsPROC	BP_008_BP21_BA.png	1	2	44	SessionSelectionList														lure	3	Body	0-Back	39	80	35	0	0	100	7	39	211150	3	14	59	209111	-1	209658	1	547	3	3	2039	53	211164	-54	0											8					44												
WM080112	117122_fnca	1	1	1	-5536274	1	75.032	75.031	2.0.10.147	2.0.10.242	2.0.10.242	1.0.0.439	7	234	2	3	Verdana	1	80	0	0	0	WM Stimuli\	0.6	1551.83333333333	1	755.6	0.9	1198.55555555556	1	904.9	0.9	1269.44444444444	1	755.9	0.9	1395	1	637.4	12	374603	3	374592	27	39	374630	-999999	374606	0	10	TrialsPROC	BP_007_BP20_BA.png	1	2	45	SessionSelectionList														target	2	Body	0-Back	40	80	36	0	0	100	1	39	213709	3	14	59	211670	-1	212468	1	798	2	2	2039	53	213723	-54	0											9					45												
WM080112	117122_fnca	1	1	1	-5536274	1	75.032	75.031	2.0.10.147	2.0.10.242	2.0.10.242	1.0.0.439	7	234	2	3	Verdana	1	80	0	0	0	WM Stimuli\	0.6	1551.83333333333	1	755.6	0.9	1198.55555555556	1	904.9	0.9	1269.44444444444	1	755.9	0.9	1395	1	637.4	12	374603	3	374592	27	39	374630	-999999	374606	0	10	TrialsPROC	BP_012_BP5_BA.png	1	2	46	SessionSelectionList														nonlure	3	Body	0-Back	41	80	37	0	0	100	1	39	216282	2	13	73	214243	-1	214981	1	738	3	3	2039	52	216295	-53	0											10					46												
WM080112	117122_fnca	1	1	1	-5536274	1	75.032	75.031	2.0.10.147	2.0.10.242	2.0.10.242	1.0.0.439	7	234	2	3	Verdana	1	80	0	0	0	WM Stimuli\	0.6	1551.83333333333	1	755.6	0.9	1198.55555555556	1	904.9	0.9	1269.44444444444	1	755.9	0.9	1395	1	637.4	12	374603	3	374592	27	39	374630	-999999	374606	0	11	Fix15secPROC	""	1	2	47	SessionSelectionList																																															6	216749	-7	0							47												
WM080112	117122_fnca	1	1	1	-5536274	1	75.032	75.031	2.0.10.147	2.0.10.242	2.0.10.242	1.0.0.439	7	234	2	3	Verdana	1	80	0	0	0	WM Stimuli\	0.6	1551.83333333333	1	755.6	0.9	1198.55555555556	1	904.9	0.9	1269.44444444444	1	755.9	0.9	1395	1	637.4	12	374603	3	374592	27	39	374630	-999999	374606	0	12	Cue0BackPROC	PL_001_92012.png	1	2	48	SessionSelectionList																																										12	231755	-13	0												48												
WM080112	117122_fnca	1	1	1	-5536274	1	75.032	75.031	2.0.10.147	2.0.10.242	2.0.10.242	1.0.0.439	7	234	2	3	Verdana	1	80	0	0	0	WM Stimuli\	0.6	1551.83333333333	1	755.6	0.9	1198.55555555556	1	904.9	0.9	1269.44444444444	1	755.9	0.9	1395	1	637.4	12	374603	3	374592	27	39	374630	-999999	374606	0	13	TrialsPROC	PL_003_92016.png	1	2	49	SessionSelectionList														nonlure	3	Place	0-Back	42	80	38	0	0	100	2	39	236353	3	14	71	234314	-1	235135	1	821	3	3	2039	53	236367	-54	0												1				49												
WM080112	117122_fnca	1	1	1	-5536274	1	75.032	75.031	2.0.10.147	2.0.10.242	2.0.10.242	1.0.0.439	7	234	2	3	Verdana	1	80	0	0	0	WM Stimuli\	0.6	1551.83333333333	1	755.6	0.9	1198.55555555556	1	904.9	0.9	1269.44444444444	1	755.9	0.9	1395	1	637.4	12	374603	3	374592	27	39	374630	-999999	374606	0	13	TrialsPROC	PL_003_92016.png	1	2	50	SessionSelectionList														lure	3	Place	0-Back	43	80	39	0	0	100	3	39	238926	2	13	73	236887	-1	237788	1	901	3	3	2039	52	238939	-53	0												2				50												
WM080112	117122_fnca	1	1	1	-5536274	1	75.032	75.031	2.0.10.147	2.0.10.242	2.0.10.242	1.0.0.439	7	234	2	3	Verdana	1	80	0	0	0	WM Stimuli\	0.6	1551.83333333333	1	755.6	0.9	1198.55555555556	1	904.9	0.9	1269.44444444444	1	755.9	0.9	1395	1	637.4	12	374603	3	374592	27	39	374630	-999999	374606	0	13	TrialsPROC	PL_006_92025.png	1	2	51	SessionSelectionList														nonlure	3	Place	0-Back	44	80	40	0	0	100	4	39	241498	2	14	72	239459	-1	240097	1	638	3	3	2039	53	241512	-54	0												3				51												
WM080112	117122_fnca	1	1	1	-5536274	1	75.032	75.031	2.0.10.147	2.0.10.242	2.0.10.242	1.0.0.439	7	234	2	3	Verdana	1	80	0	0	0	WM Stimuli\	0.6	1551.83333333333	1	755.6	0.9	1198.55555555556	1	904.9	0.9	1269.44444444444	1	755.9	0.9	1395	1	637.4	12	374603	3	374592	27	39	374630	-999999	374606	0	13	TrialsPROC	PL_001_92012.png	1	2	52	SessionSelectionList														target	2	Place	0-Back	45	80	41	0	0	100	1	39	244070	2	14	72	242031	-1	242822	1	791	2	2	2039	53	244084	-54	0												4				52												
WM080112	117122_fnca	1	1	1	-5536274	1	75.032	75.031	2.0.10.147	2.0.10.242	2.0.10.242	1.0.0.439	7	234	2	3	Verdana	1	80	0	0	0	WM Stimuli\	0.6	1551.83333333333	1	755.6	0.9	1198.55555555556	1	904.9	0.9	1269.44444444444	1	755.9	0.9	1395	1	637.4	12	374603	3	374592	27	39	374630	-999999	374606	0	13	TrialsPROC	PL_004_92023.png	1	2	53	SessionSelectionList														nonlure	3	Place	0-Back	46	80	42	0	0	100	1	40	246643	2	13	72	244603	-1	245215	1	612	3	3	2040	53	246656	-54	0												5				53												
WM080112	117122_fnca	1	1	1	-5536274	1	75.032	75.031	2.0.10.147	2.0.10.242	2.0.10.242	1.0.0.439	7	234	2	3	Verdana	1	80	0	0	0	WM Stimuli\	0.6	1551.83333333333	1	755.6	0.9	1198.55555555556	1	904.9	0.9	1269.44444444444	1	755.9	0.9	1395	1	637.4	12	374603	3	374592	27	39	374630	-999999	374606	0	13	TrialsPROC	PL_005_92024.png	1	2	54	SessionSelectionList														nonlure	3	Place	0-Back	47	80	43	0	0	100	2	39	249215	2	14	73	247176	-1	247937	1	761	3	3	2039	53	249229	-54	0												6				54												
WM080112	117122_fnca	1	1	1	-5536274	1	75.032	75.031	2.0.10.147	2.0.10.242	2.0.10.242	1.0.0.439	7	234	2	3	Verdana	1	80	0	0	0	WM Stimuli\	0.6	1551.83333333333	1	755.6	0.9	1198.55555555556	1	904.9	0.9	1269.44444444444	1	755.9	0.9	1395	1	637.4	12	374603	3	374592	27	39	374630	-999999	374606	0	13	TrialsPROC	PL_001_92012.png	1	2	55	SessionSelectionList														target	2	Place	0-Back	48	80	44	0	0	100	1	39	251774	2	13	59	249735	-1	250373	1	638	2	2	2039	52	251787	-53	0												7				55												
WM080112	117122_fnca	1	1	1	-5536274	1	75.032	75.031	2.0.10.147	2.0.10.242	2.0.10.242	1.0.0.439	7	234	2	3	Verdana	1	80	0	0	0	WM Stimuli\	0.6	1551.83333333333	1	755.6	0.9	1198.55555555556	1	904.9	0.9	1269.44444444444	1	755.9	0.9	1395	1	637.4	12	374603	3	374592	27	39	374630	-999999	374606	0	13	TrialsPROC	PL_002_92014.png	1	2	56	SessionSelectionList														nonlure	3	Place	0-Back	49	80	45	0	0	100	1	39	254346	3	14	72	252307	-1	253290	1	983	3	3	2039	53	254360	-54	0												8				56												
WM080112	117122_fnca	1	1	1	-5536274	1	75.032	75.031	2.0.10.147	2.0.10.242	2.0.10.242	1.0.0.439	7	234	2	3	Verdana	1	80	0	0	0	WM Stimuli\	0.6	1551.83333333333	1	755.6	0.9	1198.55555555556	1	904.9	0.9	1269.44444444444	1	755.9	0.9	1395	1	637.4	12	374603	3	374592	27	39	374630	-999999	374606	0	13	TrialsPROC	PL_004_92023.png	1	2	57	SessionSelectionList														lure	3	Place	0-Back	50	80	46	0	0	100	2	39	256905	3	14	59	254866	-1	255506	1	640	3	3	2039	53	256919	-54	0												9				57												
WM080112	117122_fnca	1	1	1	-5536274	1	75.032	75.031	2.0.10.147	2.0.10.242	2.0.10.242	1.0.0.439	7	234	2	3	Verdana	1	80	0	0	0	WM Stimuli\	0.6	1551.83333333333	1	755.6	0.9	1198.55555555556	1	904.9	0.9	1269.44444444444	1	755.9	0.9	1395	1	637.4	12	374603	3	374592	27	39	374630	-999999	374606	0	13	TrialsPROC	PL_006_92025.png	1	2	58	SessionSelectionList														lure	3	Place	0-Back	51	80	47	0	0	100	3	39	259477	3	14	72	257438	-1	258212	1	774	3	3	2039	53	259491	-54	0												10				58												
WM080112	117122_fnca	1	1	1	-5536274	1	75.032	75.031	2.0.10.147	2.0.10.242	2.0.10.242	1.0.0.439	7	234	2	3	Verdana	1	80	0	0	0	WM Stimuli\	0.6	1551.83333333333	1	755.6	0.9	1198.55555555556	1	904.9	0.9	1269.44444444444	1	755.9	0.9	1395	1	637.4	12	374603	3	374592	27	39	374630	-999999	374606	0	14	Cue2BackPROC	""	1	2	59	SessionSelectionList									6	259944	-7	0																																													59												
WM080112	117122_fnca	1	1	1	-5536274	1	75.032	75.031	2.0.10.147	2.0.10.242	2.0.10.242	1.0.0.439	7	234	2	3	Verdana	1	80	0	0	0	WM Stimuli\	0.6	1551.83333333333	1	755.6	0.9	1198.55555555556	1	904.9	0.9	1269.44444444444	1	755.9	0.9	1395	1	637.4	12	374603	3	374592	27	39	374630	-999999	374606	0	15	TrialsPROC	FC_010_F5.png	1	2	60	SessionSelectionList														nonlure	3	Face	2-Back	52	80	48	0	0	100	4	39	264542	2	14	65	262503	-1	264221	1	1718	3	3	2039	53	264556	-54	0													1			60												
WM080112	117122_fnca	1	1	1	-5536274	1	75.032	75.031	2.0.10.147	2.0.10.242	2.0.10.242	1.0.0.439	7	234	2	3	Verdana	1	80	0	0	0	WM Stimuli\	0.6	1551.83333333333	1	755.6	0.9	1198.55555555556	1	904.9	0.9	1269.44444444444	1	755.9	0.9	1395	1	637.4	12	374603	3	374592	27	39	374630	-999999	374606	0	15	TrialsPROC	FC_012_F6.png	1	2	61	SessionSelectionList														nonlure	3	Face	2-Back	53	80	49	0	0	100	5	39	267114	3	14	72	265075	-1	265850	1	775	3	3	2039	53	267128	-54	0													2			61												
WM080112	117122_fnca	1	1	1	-5536274	1	75.032	75.031	2.0.10.147	2.0.10.242	2.0.10.242	1.0.0.439	7	234	2	3	Verdana	1	80	0	0	0	WM Stimuli\	0.6	1551.83333333333	1	755.6	0.9	1198.55555555556	1	904.9	0.9	1269.44444444444	1	755.9	0.9	1395	1	637.4	12	374603	3	374592	27	39	374630	-999999	374606	0	15	TrialsPROC	FC_010_F5.png	1	2	62	SessionSelectionList														target	2	Face	2-Back	54	80	50	0	0	100	1	39	269686	2	14	72	267647	-1	268820	1	1173	2	2	2039	53	269700	-54	0													3			62												
WM080112	117122_fnca	1	1	1	-5536274	1	75.032	75.031	2.0.10.147	2.0.10.242	2.0.10.242	1.0.0.439	7	234	2	3	Verdana	1	80	0	0	0	WM Stimuli\	0.6	1551.83333333333	1	755.6	0.9	1198.55555555556	1	904.9	0.9	1269.44444444444	1	755.9	0.9	1395	1	637.4	12	374603	3	374592	27	39	374630	-999999	374606	0	15	TrialsPROC	FC_008_F4.png	1	2	63	SessionSelectionList														nonlure	3	Face	2-Back	55	80	51	0	0	100	1	39	272259	2	13	73	270220	-1	271562	1	1342	3	3	2039	52	272272	-53	0													4			63												
WM080112	117122_fnca	1	1	1	-5536274	1	75.032	75.031	2.0.10.147	2.0.10.242	2.0.10.242	1.0.0.439	7	234	2	3	Verdana	1	80	0	0	0	WM Stimuli\	0.6	1551.83333333333	1	755.6	0.9	1198.55555555556	1	904.9	0.9	1269.44444444444	1	755.9	0.9	1395	1	637.4	12	374603	3	374592	27	39	374630	-999999	374606	0	15	TrialsPROC	FC_012_F6.png	1	2	64	SessionSelectionList														lure	3	Face	2-Back	56	80	51	0	1	100	1	39	274831	1	14	72	272792	-1	0	0	0	""	3	2039	53	274845	-54	0													5			64												
WM080112	117122_fnca	1	1	1	-5536274	1	75.032	75.031	2.0.10.147	2.0.10.242	2.0.10.242	1.0.0.439	7	234	2	3	Verdana	1	80	0	0	0	WM Stimuli\	0.6	1551.83333333333	1	755.6	0.9	1198.55555555556	1	904.9	0.9	1269.44444444444	1	755.9	0.9	1395	1	637.4	12	374603	3	374592	27	39	374630	-999999	374606	0	15	TrialsPROC	FC_008_F4.png	1	2	65	SessionSelectionList														target	2	Face	2-Back	57	80	52	0	0	100	1	39	277403	2	14	72	275364	-1	276414	1	1050	2	2	2039	53	277417	-54	0													6			65												
WM080112	117122_fnca	1	1	1	-5536274	1	75.032	75.031	2.0.10.147	2.0.10.242	2.0.10.242	1.0.0.439	7	234	2	3	Verdana	1	80	0	0	0	WM Stimuli\	0.6	1551.83333333333	1	755.6	0.9	1198.55555555556	1	904.9	0.9	1269.44444444444	1	755.9	0.9	1395	1	637.4	12	374603	3	374592	27	39	374630	-999999	374606	0	15	TrialsPROC	FC_007_M4.png	1	2	66	SessionSelectionList														nonlure	3	Face	2-Back	58	80	53	0	0	100	1	40	279976	1	13	72	277936	-1	279262	1	1326	3	3	2040	53	279989	-54	0													7			66												
WM080112	117122_fnca	1	1	1	-5536274	1	75.032	75.031	2.0.10.147	2.0.10.242	2.0.10.242	1.0.0.439	7	234	2	3	Verdana	1	80	0	0	0	WM Stimuli\	0.6	1551.83333333333	1	755.6	0.9	1198.55555555556	1	904.9	0.9	1269.44444444444	1	755.9	0.9	1395	1	637.4	12	374603	3	374592	27	39	374630	-999999	374606	0	15	TrialsPROC	FC_007_M4.png	1	2	67	SessionSelectionList														lure	3	Face	2-Back	59	80	54	0	0	100	2	39	282548	2	14	73	280509	-1	281804	1	1295	3	3	2039	53	282562	-54	0													8			67												
WM080112	117122_fnca	1	1	1	-5536274	1	75.032	75.031	2.0.10.147	2.0.10.242	2.0.10.242	1.0.0.439	7	234	2	3	Verdana	1	80	0	0	0	WM Stimuli\	0.6	1551.83333333333	1	755.6	0.9	1198.55555555556	1	904.9	0.9	1269.44444444444	1	755.9	0.9	1395	1	637.4	12	374603	3	374592	27	39	374630	-999999	374606	0	15	TrialsPROC	FC_009_M5.png	1	2	68	SessionSelectionList														nonlure	3	Face	2-Back	60	80	55	0	0	100	3	39	285120	3	14	72	283081	-1	284178	1	1097	3	3	2039	53	285134	-54	0													9			68												
WM080112	117122_fnca	1	1	1	-5536274	1	75.032	75.031	2.0.10.147	2.0.10.242	2.0.10.242	1.0.0.439	7	234	2	3	Verdana	1	80	0	0	0	WM Stimuli\	0.6	1551.83333333333	1	755.6	0.9	1198.55555555556	1	904.9	0.9	1269.44444444444	1	755.9	0.9	1395	1	637.4	12	374603	3	374592	27	39	374630	-999999	374606	0	15	TrialsPROC	FC_011_M6.png	1	2	69	SessionSelectionList														nonlure	3	Face	2-Back	61	80	56	0	0	100	4	40	287706	2	13	85	285666	-1	286677	1	1011	3	3	2040	53	287719	-54	0													10			69												
WM080112	117122_fnca	1	1	1	-5536274	1	75.032	75.031	2.0.10.147	2.0.10.242	2.0.10.242	1.0.0.439	7	234	2	3	Verdana	1	80	0	0	0	WM Stimuli\	0.6	1551.83333333333	1	755.6	0.9	1198.55555555556	1	904.9	0.9	1269.44444444444	1	755.9	0.9	1395	1	637.4	12	374603	3	374592	27	39	374630	-999999	374606	0	16	Fix15secPROC	""	1	2	70	SessionSelectionList																																															7	288173	-8	0							70												
WM080112	117122_fnca	1	1	1	-5536274	1	75.032	75.031	2.0.10.147	2.0.10.242	2.0.10.242	1.0.0.439	7	234	2	3	Verdana	1	80	0	0	0	WM Stimuli\	0.6	1551.83333333333	1	755.6	0.9	1198.55555555556	1	904.9	0.9	1269.44444444444	1	755.9	0.9	1395	1	637.4	12	374603	3	374592	27	39	374630	-999999	374606	0	17	Cue0BackPROC	TO_007_TOOL7_BA.png	1	2	71	SessionSelectionList																																										40	303206	-41	0												71												
WM080112	117122_fnca	1	1	1	-5536274	1	75.032	75.031	2.0.10.147	2.0.10.242	2.0.10.242	1.0.0.439	7	234	2	3	Verdana	1	80	0	0	0	WM Stimuli\	0.6	1551.83333333333	1	755.6	0.9	1198.55555555556	1	904.9	0.9	1269.44444444444	1	755.9	0.9	1395	1	637.4	12	374603	3	374592	27	39	374630	-999999	374606	0	18	TrialsPROC	TO_010_TOOL10_BA.png	1	2	72	SessionSelectionList														nonlure	3	Tools	0-Back	62	80	57	0	0	100	5	39	307777	2	14	72	305738	-1	306557	1	819	3	3	2039	53	307791	-54	0														1		72												
WM080112	117122_fnca	1	1	1	-5536274	1	75.032	75.031	2.0.10.147	2.0.10.242	2.0.10.242	1.0.0.439	7	234	2	3	Verdana	1	80	0	0	0	WM Stimuli\	0.6	1551.83333333333	1	755.6	0.9	1198.55555555556	1	904.9	0.9	1269.44444444444	1	755.9	0.9	1395	1	637.4	12	374603	3	374592	27	39	374630	-999999	374606	0	18	TrialsPROC	TO_009_TOOL9_BA.png	1	2	73	SessionSelectionList														nonlure	3	Tools	0-Back	63	80	58	0	0	100	6	39	310363	3	14	86	308324	-1	308888	1	564	3	3	2039	53	310377	-54	0														2		73												
WM080112	117122_fnca	1	1	1	-5536274	1	75.032	75.031	2.0.10.147	2.0.10.242	2.0.10.242	1.0.0.439	7	234	2	3	Verdana	1	80	0	0	0	WM Stimuli\	0.6	1551.83333333333	1	755.6	0.9	1198.55555555556	1	904.9	0.9	1269.44444444444	1	755.9	0.9	1395	1	637.4	12	374603	3	374592	27	39	374630	-999999	374606	0	18	TrialsPROC	TO_009_TOOL9_BA.png	1	2	74	SessionSelectionList														lure	3	Tools	0-Back	64	80	59	0	0	100	7	39	312922	2	14	59	310883	-1	311339	1	456	3	3	2039	53	312936	-54	0														3		74												
WM080112	117122_fnca	1	1	1	-5536274	1	75.032	75.031	2.0.10.147	2.0.10.242	2.0.10.242	1.0.0.439	7	234	2	3	Verdana	1	80	0	0	0	WM Stimuli\	0.6	1551.83333333333	1	755.6	0.9	1198.55555555556	1	904.9	0.9	1269.44444444444	1	755.9	0.9	1395	1	637.4	12	374603	3	374592	27	39	374630	-999999	374606	0	18	TrialsPROC	TO_008_TOOL8_BA.png	1	2	75	SessionSelectionList														nonlure	3	Tools	0-Back	65	80	60	0	0	100	8	40	315508	2	13	85	313468	-1	313996	1	528	3	3	2040	53	315521	-54	0														4		75												
WM080112	117122_fnca	1	1	1	-5536274	1	75.032	75.031	2.0.10.147	2.0.10.242	2.0.10.242	1.0.0.439	7	234	2	3	Verdana	1	80	0	0	0	WM Stimuli\	0.6	1551.83333333333	1	755.6	0.9	1198.55555555556	1	904.9	0.9	1269.44444444444	1	755.9	0.9	1395	1	637.4	12	374603	3	374592	27	39	374630	-999999	374606	0	18	TrialsPROC	TO_011_TOOL11_BA.png	1	2	76	SessionSelectionList														nonlure	3	Tools	0-Back	66	80	61	0	0	100	9	39	318093	2	14	86	316054	-1	316634	1	580	3	3	2039	53	318107	-54	0														5		76												
WM080112	117122_fnca	1	1	1	-5536274	1	75.032	75.031	2.0.10.147	2.0.10.242	2.0.10.242	1.0.0.439	7	234	2	3	Verdana	1	80	0	0	0	WM Stimuli\	0.6	1551.83333333333	1	755.6	0.9	1198.55555555556	1	904.9	0.9	1269.44444444444	1	755.9	0.9	1395	1	637.4	12	374603	3	374592	27	39	374630	-999999	374606	0	18	TrialsPROC	TO_012_TOOL12_BA.png	1	2	77	SessionSelectionList														nonlure	3	Tools	0-Back	67	80	62	0	0	100	10	39	320679	1	13	86	318640	-1	319092	1	452	3	3	2039	52	320692	-53	0														6		77												
WM080112	117122_fnca	1	1	1	-5536274	1	75.032	75.031	2.0.10.147	2.0.10.242	2.0.10.242	1.0.0.439	7	234	2	3	Verdana	1	80	0	0	0	WM Stimuli\	0.6	1551.83333333333	1	755.6	0.9	1198.55555555556	1	904.9	0.9	1269.44444444444	1	755.9	0.9	1395	1	637.4	12	374603	3	374592	27	39	374630	-999999	374606	0	18	TrialsPROC	TO_010_TOOL10_BA.png	1	2	78	SessionSelectionList														lure	3	Tools	0-Back	68	80	63	0	0	100	11	39	323238	2	13	59	321199	-1	322391	1	1192	3	3	2039	52	323251	-53	0														7		78												
WM080112	117122_fnca	1	1	1	-5536274	1	75.032	75.031	2.0.10.147	2.0.10.242	2.0.10.242	1.0.0.439	7	234	2	3	Verdana	1	80	0	0	0	WM Stimuli\	0.6	1551.83333333333	1	755.6	0.9	1198.55555555556	1	904.9	0.9	1269.44444444444	1	755.9	0.9	1395	1	637.4	12	374603	3	374592	27	39	374630	-999999	374606	0	18	TrialsPROC	TO_007_TOOL7_BA.png	1	2	79	SessionSelectionList														target	2	Tools	0-Back	69	80	64	0	0	100	1	39	325797	1	13	59	323758	-1	324436	1	678	2	2	2039	52	325810	-53	0														8		79												
WM080112	117122_fnca	1	1	1	-5536274	1	75.032	75.031	2.0.10.147	2.0.10.242	2.0.10.242	1.0.0.439	7	234	2	3	Verdana	1	80	0	0	0	WM Stimuli\	0.6	1551.83333333333	1	755.6	0.9	1198.55555555556	1	904.9	0.9	1269.44444444444	1	755.9	0.9	1395	1	637.4	12	374603	3	374592	27	39	374630	-999999	374606	0	18	TrialsPROC	TO_008_TOOL8_BA.png	1	2	80	SessionSelectionList														lure	3	Tools	0-Back	70	80	65	0	0	100	1	40	328356	1	13	58	326316	-1	326798	1	482	3	3	2040	53	328369	-54	0														9		80												
WM080112	117122_fnca	1	1	1	-5536274	1	75.032	75.031	2.0.10.147	2.0.10.242	2.0.10.242	1.0.0.439	7	234	2	3	Verdana	1	80	0	0	0	WM Stimuli\	0.6	1551.83333333333	1	755.6	0.9	1198.55555555556	1	904.9	0.9	1269.44444444444	1	755.9	0.9	1395	1	637.4	12	374603	3	374592	27	39	374630	-999999	374606	0	18	TrialsPROC	TO_007_TOOL7_BA.png	1	2	81	SessionSelectionList														target	2	Tools	0-Back	71	80	66	0	0	100	1	40	330915	1	13	59	328875	-1	329498	1	623	2	2	2040	53	330928	-54	0														10		81												
WM080112	117122_fnca	1	1	1	-5536274	1	75.032	75.031	2.0.10.147	2.0.10.242	2.0.10.242	1.0.0.439	7	234	2	3	Verdana	1	80	0	0	0	WM Stimuli\	0.6	1551.83333333333	1	755.6	0.9	1198.55555555556	1	904.9	0.9	1269.44444444444	1	755.9	0.9	1395	1	637.4	12	374603	3	374592	27	39	374630	-999999	374606	0	19	Cue2BackPROC	""	1	2	82	SessionSelectionList									6	331381	-7	0																																													82												
WM080112	117122_fnca	1	1	1	-5536274	1	75.032	75.031	2.0.10.147	2.0.10.242	2.0.10.242	1.0.0.439	7	234	2	3	Verdana	1	80	0	0	0	WM Stimuli\	0.6	1551.83333333333	1	755.6	0.9	1198.55555555556	1	904.9	0.9	1269.44444444444	1	755.9	0.9	1395	1	637.4	12	374603	3	374592	27	39	374630	-999999	374606	0	20	TrialsPROC	PL_007_92026.png	1	2	83	SessionSelectionList														nonlure	3	Place	2-Back	72	80	66	0	1	100	1	39	335992	3	14	78	333953	-1	0	0	0	""	3	2039	53	336006	-54	0															1	83												
WM080112	117122_fnca	1	1	1	-5536274	1	75.032	75.031	2.0.10.147	2.0.10.242	2.0.10.242	1.0.0.439	7	234	2	3	Verdana	1	80	0	0	0	WM Stimuli\	0.6	1551.83333333333	1	755.6	0.9	1198.55555555556	1	904.9	0.9	1269.44444444444	1	755.9	0.9	1395	1	637.4	12	374603	3	374592	27	39	374630	-999999	374606	0	20	TrialsPROC	PL_007_92026.png	1	2	84	SessionSelectionList														lure	3	Place	2-Back	73	80	67	0	0	100	1	39	338565	2	13	73	336526	-1	337730	1	1204	3	3	2039	52	338578	-53	0															2	84												
WM080112	117122_fnca	1	1	1	-5536274	1	75.032	75.031	2.0.10.147	2.0.10.242	2.0.10.242	1.0.0.439	7	234	2	3	Verdana	1	80	0	0	0	WM Stimuli\	0.6	1551.83333333333	1	755.6	0.9	1198.55555555556	1	904.9	0.9	1269.44444444444	1	755.9	0.9	1395	1	637.4	12	374603	3	374592	27	39	374630	-999999	374606	0	20	TrialsPROC	PL_010_92038.png	1	2	85	SessionSelectionList														nonlure	3	Place	2-Back	74	80	68	0	0	100	2	39	341137	3	14	72	339098	-1	340367	1	1269	3	3	2039	53	341151	-54	0															3	85												
WM080112	117122_fnca	1	1	1	-5536274	1	75.032	75.031	2.0.10.147	2.0.10.242	2.0.10.242	1.0.0.439	7	234	2	3	Verdana	1	80	0	0	0	WM Stimuli\	0.6	1551.83333333333	1	755.6	0.9	1198.55555555556	1	904.9	0.9	1269.44444444444	1	755.9	0.9	1395	1	637.4	12	374603	3	374592	27	39	374630	-999999	374606	0	20	TrialsPROC	PL_009_92037.png	1	2	86	SessionSelectionList														nonlure	3	Place	2-Back	75	80	69	0	0	100	3	39	343709	3	14	72	341670	-1	343147	1	1477	3	3	2039	53	343723	-54	0															4	86												
WM080112	117122_fnca	1	1	1	-5536274	1	75.032	75.031	2.0.10.147	2.0.10.242	2.0.10.242	1.0.0.439	7	234	2	3	Verdana	1	80	0	0	0	WM Stimuli\	0.6	1551.83333333333	1	755.6	0.9	1198.55555555556	1	904.9	0.9	1269.44444444444	1	755.9	0.9	1395	1	637.4	12	374603	3	374592	27	39	374630	-999999	374606	0	20	TrialsPROC	PL_010_92038.png	1	2	87	SessionSelectionList														target	2	Place	2-Back	76	80	70	0	0	100	1	40	346282	2	13	72	344242	-1	345697	1	1455	2	2	2040	53	346295	-54	0															5	87												
WM080112	117122_fnca	1	1	1	-5536274	1	75.032	75.031	2.0.10.147	2.0.10.242	2.0.10.242	1.0.0.439	7	234	2	3	Verdana	1	80	0	0	0	WM Stimuli\	0.6	1551.83333333333	1	755.6	0.9	1198.55555555556	1	904.9	0.9	1269.44444444444	1	755.9	0.9	1395	1	637.4	12	374603	3	374592	27	39	374630	-999999	374606	0	20	TrialsPROC	PL_009_92037.png	1	2	88	SessionSelectionList														target	2	Place	2-Back	77	80	71	0	0	100	2	39	348854	2	14	73	346815	-1	348187	1	1372	2	2	2039	53	348868	-54	0															6	88												
WM080112	117122_fnca	1	1	1	-5536274	1	75.032	75.031	2.0.10.147	2.0.10.242	2.0.10.242	1.0.0.439	7	234	2	3	Verdana	1	80	0	0	0	WM Stimuli\	0.6	1551.83333333333	1	755.6	0.9	1198.55555555556	1	904.9	0.9	1269.44444444444	1	755.9	0.9	1395	1	637.4	12	374603	3	374592	27	39	374630	-999999	374606	0	20	TrialsPROC	PL_008_92033.png	1	2	89	SessionSelectionList														nonlure	3	Place	2-Back	78	80	72	0	0	100	1	39	351426	3	14	72	349387	-1	350757	1	1370	3	3	2039	53	351440	-54	0															7	89												
WM080112	117122_fnca	1	1	1	-5536274	1	75.032	75.031	2.0.10.147	2.0.10.242	2.0.10.242	1.0.0.439	7	234	2	3	Verdana	1	80	0	0	0	WM Stimuli\	0.6	1551.83333333333	1	755.6	0.9	1198.55555555556	1	904.9	0.9	1269.44444444444	1	755.9	0.9	1395	1	637.4	12	374603	3	374592	27	39	374630	-999999	374606	0	20	TrialsPROC	PL_012_92047.png	1	2	90	SessionSelectionList														nonlure	3	Place	2-Back	79	80	73	0	0	100	2	39	353998	2	14	72	351959	-1	352878	1	919	3	3	2039	53	354012	-54	0															8	90												
WM080112	117122_fnca	1	1	1	-5536274	1	75.032	75.031	2.0.10.147	2.0.10.242	2.0.10.242	1.0.0.439	7	234	2	3	Verdana	1	80	0	0	0	WM Stimuli\	0.6	1551.83333333333	1	755.6	0.9	1198.55555555556	1	904.9	0.9	1269.44444444444	1	755.9	0.9	1395	1	637.4	12	374603	3	374592	27	39	374630	-999999	374606	0	20	TrialsPROC	PL_012_92047.png	1	2	91	SessionSelectionList														lure	3	Place	2-Back	80	80	74	0	0	100	3	39	356557	3	14	59	354518	-1	355676	1	1158	3	3	2039	53	356571	-54	0															9	91												
WM080112	117122_fnca	1	1	1	-5536274	1	75.032	75.031	2.0.10.147	2.0.10.242	2.0.10.242	1.0.0.439	7	234	2	3	Verdana	1	80	0	0	0	WM Stimuli\	0.6	1551.83333333333	1	755.6	0.9	1198.55555555556	1	904.9	0.9	1269.44444444444	1	755.9	0.9	1395	1	637.4	12	374603	3	374592	27	39	374630	-999999	374606	0	20	TrialsPROC	PL_011_92044.png	1	2	92	SessionSelectionList														nonlure	3	Place	2-Back	80	80	75	0	0	100	4	39	359130	2	13	73	357091	-1	358292	1	1201	3	3	2039	52	359143	-53	0															10	92												
WM080112	117122_fnca	1	1	1	-5536274	1	75.032	75.031	2.0.10.147	2.0.10.242	2.0.10.242	1.0.0.439	7	234	2	3	Verdana	1	80	0	0	0	WM Stimuli\	0.6	1551.83333333333	1	755.6	0.9	1198.55555555556	1	904.9	0.9	1269.44444444444	1	755.9	0.9	1395	1	637.4	12	374603	3	374592	27	39	374630	-999999	374606	0	21	Fix15secPROC	""	1	2	93	SessionSelectionList																																															5	359596	-6	0							93												
