ExperimentName	HCPID	RunNumber	Subject	Session	RandomSeed	Group	Laptop.RefreshRate	ScannerD2.RefreshRate	StudioVersion	RuntimeVersion	RuntimeVersionExpected	ExperimentVersion	triggercode	Allowed	Target	Nontarget	FontStyle	RunTrialNumber[Session]	TrialsPerRun[Session]	TotalRespGreater200[Session]	ConsecRTLess200[Session]	ConsecNonResp[Session]	StimuliDir	ACC_2_Back_Body	Avg_RT_For_Correct_Trials_2_Back_Body	ACC_0_Back_Body	Avg_RT_For_Correct_Trials_0_Back_Body	ACC_2_Back_Face	Avg_RT_For_Correct_Trials_2_Back_Face	ACC_0_Back_Face	Avg_RT_For_Correct_Trials_0_Back_Face	ACC_2_Back_Place	Avg_RT_For_Correct_Trials_2_Back_Place	ACC_0_Back_Place	Avg_RT_For_Correct_Trials_0_Back_Place	ACC_2_Back_Tools	Avg_RT_For_Correct_Trials_2_Back_Tools	ACC_0_Back_Tools	Avg_RT_For_Correct_Trials_0_Back_Tools	ExpInstrucFeelFreeToRest.OnsetDelay	ExpInstrucFeelFreeToRest.OnsetTime	ExpInstrucFeelFreeToRest.DurationError	ExpInstrucFeelFreeToRest.StartTime	ExpInstrucFeelFreeToRest.OnsetToOnsetTime	FeelFreeToRest.OnsetDelay	FeelFreeToRest.OnsetTime	FeelFreeToRest.DurationError	FeelFreeToRest.StartTime	FeelFreeToRest.OnsetToOnsetTime	SessionSelectionList	Procedure[Block]	Stimulus[Block]	RunNumberFilterValue	SessionSelectionList.Cycle	SessionSelectionList.Sample	Running[Block]	IntroButtonMap.OnsetDelay	IntroButtonMap.OnsetTime	IntroButtonMap.DurationError	IntroButtonMap.OnsetToOnsetTime	GetReady.OnsetDelay	GetReady.OnsetTime	GetReady.DurationError	GetReady.OnsetToOnsetTime	Cue2Back.OnsetDelay	Cue2Back.OnsetTime	Cue2Back.DurationError	Cue2Back.OnsetToOnsetTime	Run1Block1	TargetType	CorrectResponse	StimType	BlockType	RunTrialNumber[Block]	TrialsPerRun[Block]	TotalRespGreater200[Block]	ConsecRTLess200[Block]	ConsecNonResp[Block]	ControlAcc	ConsecSameResp	ExperimenterWindow.OnsetDelay	ExperimenterWindow.OnsetTime	ExperimenterWindow.DurationError	ExperimenterWindow.OnsetToOnsetTime	Stim.OnsetDelay	Stim.OnsetTime	Stim.DurationError	Stim.RTTime	Stim.ACC	Stim.RT	Stim.RESP	Stim.CRESP	Stim.OnsetToOnsetTime	Fix.OnsetDelay	Fix.OnsetTime	Fix.DurationError	Fix.OnsetToOnsetTime	CueTarget.OnsetDelay	CueTarget.OnsetTime	CueTarget.DurationError	CueTarget.OnsetToOnsetTime	Run1Block2	Fix15sec.OnsetDelay	Fix15sec.OnsetTime	Fix15sec.DurationError	Fix15sec.OnsetToOnsetTime	Run1Block3	Run1Block4	Run1Block5	Run1Block6	Run1Block7	Run1Block8	Block	Procedure[Trial]	Stimulus[Trial]	ReadyList	Running[Trial]	ReadyList.Cycle	ReadyList.Sample	SyncSlide.OnsetDelay	SyncSlide.OnsetTime	SyncSlide.DurationError	SyncSlide.FinishTime	SyncSlide.OnsetToOnsetTime	Trial
WM080112	146432_fnca	1	1	1	975554319	1	75.031	75.031	2.0.10.147	2.0.10.242	2.0.10.242	1.0.0.439	7	234	2	3	Verdana	1	80	0	0	0	WM Stimuli\	0.7	1579.42857142857	0.8	1212.375	0.7	1113.57142857143	1	1091.5	0.9	1171.88888888889	1	814.8	0.7	1385.71428571429	1	565.4	13	607129	2	607117	27	40	607156	-999999	607132	0	1	TRSyncPROC	""	1	2	1	SessionSelectionList	104	19571	-999999	0	30	300615	-999999	0																																																	1	InitialTR	4	1	ReadyList	1	1	12	313689	-13	315676	0	1
WM080112	146432_fnca	1	1	1	975554319	1	75.031	75.031	2.0.10.147	2.0.10.242	2.0.10.242	1.0.0.439	7	234	2	3	Verdana	1	80	0	0	0	WM Stimuli\	0.7	1579.42857142857	0.8	1212.375	0.7	1113.57142857143	1	1091.5	0.9	1171.88888888889	1	814.8	0.7	1385.71428571429	1	565.4	13	607129	2	607117	27	40	607156	-999999	607132	0	1	TRSyncPROC	""	1	2	1	SessionSelectionList	104	19571	-999999	0	30	300615	-999999	0																																																	1	InitialTR	3	2	ReadyList	1	2	12	315689	-13	317676	0	2
WM080112	146432_fnca	1	1	1	975554319	1	75.031	75.031	2.0.10.147	2.0.10.242	2.0.10.242	1.0.0.439	7	234	2	3	Verdana	1	80	0	0	0	WM Stimuli\	0.7	1579.42857142857	0.8	1212.375	0.7	1113.57142857143	1	1091.5	0.9	1171.88888888889	1	814.8	0.7	1385.71428571429	1	565.4	13	607129	2	607117	27	40	607156	-999999	607132	0	1	TRSyncPROC	""	1	2	1	SessionSelectionList	104	19571	-999999	0	30	300615	-999999	0																																																	1	InitialTR	2	3	ReadyList	1	3	11	317688	-12	319676	0	3
WM080112	146432_fnca	1	1	1	975554319	1	75.031	75.031	2.0.10.147	2.0.10.242	2.0.10.242	1.0.0.439	7	234	2	3	Verdana	1	80	0	0	0	WM Stimuli\	0.7	1579.42857142857	0.8	1212.375	0.7	1113.57142857143	1	1091.5	0.9	1171.88888888889	1	814.8	0.7	1385.71428571429	1	565.4	13	607129	2	607117	27	40	607156	-999999	607132	0	1	TRSyncPROC	""	1	2	1	SessionSelectionList	104	19571	-999999	0	30	300615	-999999	0																																																	1	InitialTR	1	4	ReadyList	1	4	10	319687	-11	321676	0	4
WM080112	146432_fnca	1	1	1	975554319	1	75.031	75.031	2.0.10.147	2.0.10.242	2.0.10.242	1.0.0.439	7	234	2	3	Verdana	1	80	0	0	0	WM Stimuli\	0.7	1579.42857142857	0.8	1212.375	0.7	1113.57142857143	1	1091.5	0.9	1171.88888888889	1	814.8	0.7	1385.71428571429	1	565.4	13	607129	2	607117	27	40	607156	-999999	607132	0	2	Cue2BackPROC	""	1	2	2	SessionSelectionList									9	321686	-10	0																																													2												
WM080112	146432_fnca	1	1	1	975554319	1	75.031	75.031	2.0.10.147	2.0.10.242	2.0.10.242	1.0.0.439	7	234	2	3	Verdana	1	80	0	0	0	WM Stimuli\	0.7	1579.42857142857	0.8	1212.375	0.7	1113.57142857143	1	1091.5	0.9	1171.88888888889	1	814.8	0.7	1385.71428571429	1	565.4	13	607129	2	607117	27	40	607156	-999999	607132	0	3	TrialsPROC	BP_002_BP10_BA.png	1	2	3	SessionSelectionList													1	nonlure	3	Body	2-Back	2	80	1	0	0	0	1	53	326311	3	14	81	324258	-1	326242	1	1984	3	3	2053	67	326325	-68	0																3												
WM080112	146432_fnca	1	1	1	975554319	1	75.031	75.031	2.0.10.147	2.0.10.242	2.0.10.242	1.0.0.439	7	234	2	3	Verdana	1	80	0	0	0	WM Stimuli\	0.7	1579.42857142857	0.8	1212.375	0.7	1113.57142857143	1	1091.5	0.9	1171.88888888889	1	814.8	0.7	1385.71428571429	1	565.4	13	607129	2	607117	27	40	607156	-999999	607132	0	3	TrialsPROC	BP_001_BP1_BA.png	1	2	4	SessionSelectionList													2	nonlure	3	Body	2-Back	3	80	2	0	0	0	2	39	328870	2	14	73	326831	-1	328445	1	1614	3	3	2039	53	328884	-54	0																4												
WM080112	146432_fnca	1	1	1	975554319	1	75.031	75.031	2.0.10.147	2.0.10.242	2.0.10.242	1.0.0.439	7	234	2	3	Verdana	1	80	0	0	0	WM Stimuli\	0.7	1579.42857142857	0.8	1212.375	0.7	1113.57142857143	1	1091.5	0.9	1171.88888888889	1	814.8	0.7	1385.71428571429	1	565.4	13	607129	2	607117	27	40	607156	-999999	607132	0	3	TrialsPROC	BP_006_BP2_BA.png	1	2	5	SessionSelectionList													3	nonlure	3	Body	2-Back	4	80	3	0	0	0	3	39	331429	1	13	59	329390	-1	331359	1	1969	3	3	2039	52	331442	-53	0																5												
WM080112	146432_fnca	1	1	1	975554319	1	75.031	75.031	2.0.10.147	2.0.10.242	2.0.10.242	1.0.0.439	7	234	2	3	Verdana	1	80	0	0	0	WM Stimuli\	0.7	1579.42857142857	0.8	1212.375	0.7	1113.57142857143	1	1091.5	0.9	1171.88888888889	1	814.8	0.7	1385.71428571429	1	565.4	13	607129	2	607117	27	40	607156	-999999	607132	0	3	TrialsPROC	BP_001_BP1_BA.png	1	2	6	SessionSelectionList													4	target	2	Body	2-Back	5	80	4	0	0	0	1	39	334001	2	14	72	331962	-1	333699	1	1737	2	2	2039	53	334015	-54	0																6												
WM080112	146432_fnca	1	1	1	975554319	1	75.031	75.031	2.0.10.147	2.0.10.242	2.0.10.242	1.0.0.439	7	234	2	3	Verdana	1	80	0	0	0	WM Stimuli\	0.7	1579.42857142857	0.8	1212.375	0.7	1113.57142857143	1	1091.5	0.9	1171.88888888889	1	814.8	0.7	1385.71428571429	1	565.4	13	607129	2	607117	27	40	607156	-999999	607132	0	3	TrialsPROC	BP_005_BP19_BA.png	1	2	7	SessionSelectionList													5	nonlure	3	Body	2-Back	6	80	5	0	0	0	1	39	336573	2	14	72	334534	-1	336321	1	1787	3	3	2039	53	336587	-54	0																7												
WM080112	146432_fnca	1	1	1	975554319	1	75.031	75.031	2.0.10.147	2.0.10.242	2.0.10.242	1.0.0.439	7	234	2	3	Verdana	1	80	0	0	0	WM Stimuli\	0.7	1579.42857142857	0.8	1212.375	0.7	1113.57142857143	1	1091.5	0.9	1171.88888888889	1	814.8	0.7	1385.71428571429	1	565.4	13	607129	2	607117	27	40	607156	-999999	607132	0	3	TrialsPROC	BP_003_BP16_BA.png	1	2	8	SessionSelectionList													6	nonlure	3	Body	2-Back	7	80	6	0	0	0	2	39	339132	2	14	59	337093	-1	338270	1	1177	3	3	2039	53	339146	-54	0																8												
WM080112	146432_fnca	1	1	1	975554319	1	75.031	75.031	2.0.10.147	2.0.10.242	2.0.10.242	1.0.0.439	7	234	2	3	Verdana	1	80	0	0	0	WM Stimuli\	0.7	1579.42857142857	0.8	1212.375	0.7	1113.57142857143	1	1091.5	0.9	1171.88888888889	1	814.8	0.7	1385.71428571429	1	565.4	13	607129	2	607117	27	40	607156	-999999	607132	0	3	TrialsPROC	BP_006_BP2_BA.png	1	2	9	SessionSelectionList													7	lure	3	Body	2-Back	8	80	7	0	0	0	1	39	341691	2	14	59	339652	-1	340887	0	1235	2	3	2039	53	341705	-54	0																9												
WM080112	146432_fnca	1	1	1	975554319	1	75.031	75.031	2.0.10.147	2.0.10.242	2.0.10.242	1.0.0.439	7	234	2	3	Verdana	1	80	0	0	0	WM Stimuli\	0.7	1579.42857142857	0.8	1212.375	0.7	1113.57142857143	1	1091.5	0.9	1171.88888888889	1	814.8	0.7	1385.71428571429	1	565.4	13	607129	2	607117	27	40	607156	-999999	607132	0	3	TrialsPROC	BP_004_BP18_BA.png	1	2	10	SessionSelectionList													8	nonlure	3	Body	2-Back	9	80	8	0	0	0	1	39	344250	2	14	59	342211	-1	342999	1	788	3	3	2039	53	344264	-54	0																10												
WM080112	146432_fnca	1	1	1	975554319	1	75.031	75.031	2.0.10.147	2.0.10.242	2.0.10.242	1.0.0.439	7	234	2	3	Verdana	1	80	0	0	0	WM Stimuli\	0.7	1579.42857142857	0.8	1212.375	0.7	1113.57142857143	1	1091.5	0.9	1171.88888888889	1	814.8	0.7	1385.71428571429	1	565.4	13	607129	2	607117	27	40	607156	-999999	607132	0	3	TrialsPROC	BP_005_BP19_BA.png	1	2	11	SessionSelectionList													9	lure	3	Body	2-Back	10	80	9	0	0	0	1	39	346809	2	14	59	344770	-1	345853	0	1083	2	3	2039	53	346823	-54	0																11												
WM080112	146432_fnca	1	1	1	975554319	1	75.031	75.031	2.0.10.147	2.0.10.242	2.0.10.242	1.0.0.439	7	234	2	3	Verdana	1	80	0	0	0	WM Stimuli\	0.7	1579.42857142857	0.8	1212.375	0.7	1113.57142857143	1	1091.5	0.9	1171.88888888889	1	814.8	0.7	1385.71428571429	1	565.4	13	607129	2	607117	27	40	607156	-999999	607132	0	3	TrialsPROC	BP_004_BP18_BA.png	1	2	12	SessionSelectionList													10	target	2	Body	2-Back	11	80	10	0	0	0	1	39	349368	2	14	59	347329	-1	348251	0	922	3	2	2039	53	349382	-54	0																12												
WM080112	146432_fnca	1	1	1	975554319	1	75.031	75.031	2.0.10.147	2.0.10.242	2.0.10.242	1.0.0.439	7	234	2	3	Verdana	1	80	0	0	0	WM Stimuli\	0.7	1579.42857142857	0.8	1212.375	0.7	1113.57142857143	1	1091.5	0.9	1171.88888888889	1	814.8	0.7	1385.71428571429	1	565.4	13	607129	2	607117	27	40	607156	-999999	607132	0	4	Cue0BackPROC	FC_001_M1.png	1	2	13	SessionSelectionList																																										19	349848	-20	0												13												
WM080112	146432_fnca	1	1	1	975554319	1	75.031	75.031	2.0.10.147	2.0.10.242	2.0.10.242	1.0.0.439	7	234	2	3	Verdana	1	80	0	0	0	WM Stimuli\	0.7	1579.42857142857	0.8	1212.375	0.7	1113.57142857143	1	1091.5	0.9	1171.88888888889	1	814.8	0.7	1385.71428571429	1	565.4	13	607129	2	607117	27	40	607156	-999999	607132	0	5	TrialsPROC	FC_005_M3.png	1	2	14	SessionSelectionList														nonlure	3	Face	0-Back	12	80	11	0	0	100	2	39	354433	1	13	65	352394	-1	353972	1	1578	3	3	2039	52	354446	-53	0					1											14												
WM080112	146432_fnca	1	1	1	975554319	1	75.031	75.031	2.0.10.147	2.0.10.242	2.0.10.242	1.0.0.439	7	234	2	3	Verdana	1	80	0	0	0	WM Stimuli\	0.7	1579.42857142857	0.8	1212.375	0.7	1113.57142857143	1	1091.5	0.9	1171.88888888889	1	814.8	0.7	1385.71428571429	1	565.4	13	607129	2	607117	27	40	607156	-999999	607132	0	5	TrialsPROC	FC_001_M1.png	1	2	15	SessionSelectionList														target	2	Face	0-Back	13	80	12	0	0	100	1	39	357005	1	14	72	354966	-1	356379	1	1413	2	2	2039	53	357019	-54	0					2											15												
WM080112	146432_fnca	1	1	1	975554319	1	75.031	75.031	2.0.10.147	2.0.10.242	2.0.10.242	1.0.0.439	7	234	2	3	Verdana	1	80	0	0	0	WM Stimuli\	0.7	1579.42857142857	0.8	1212.375	0.7	1113.57142857143	1	1091.5	0.9	1171.88888888889	1	814.8	0.7	1385.71428571429	1	565.4	13	607129	2	607117	27	40	607156	-999999	607132	0	5	TrialsPROC	FC_003_M2.png	1	2	16	SessionSelectionList														nonlure	3	Face	0-Back	14	80	13	0	0	100	1	39	359577	2	14	72	357538	-1	358766	1	1228	3	3	2039	53	359591	-54	0					3											16												
WM080112	146432_fnca	1	1	1	975554319	1	75.031	75.031	2.0.10.147	2.0.10.242	2.0.10.242	1.0.0.439	7	234	2	3	Verdana	1	80	0	0	0	WM Stimuli\	0.7	1579.42857142857	0.8	1212.375	0.7	1113.57142857143	1	1091.5	0.9	1171.88888888889	1	814.8	0.7	1385.71428571429	1	565.4	13	607129	2	607117	27	40	607156	-999999	607132	0	5	TrialsPROC	FC_004_F2.png	1	2	17	SessionSelectionList														nonlure	3	Face	0-Back	15	80	14	0	0	100	2	40	362150	1	13	72	360110	-1	361260	1	1150	3	3	2040	53	362163	-54	0					4											17												
WM080112	146432_fnca	1	1	1	975554319	1	75.031	75.031	2.0.10.147	2.0.10.242	2.0.10.242	1.0.0.439	7	234	2	3	Verdana	1	80	0	0	0	WM Stimuli\	0.7	1579.42857142857	0.8	1212.375	0.7	1113.57142857143	1	1091.5	0.9	1171.88888888889	1	814.8	0.7	1385.71428571429	1	565.4	13	607129	2	607117	27	40	607156	-999999	607132	0	5	TrialsPROC	FC_004_F2.png	1	2	18	SessionSelectionList														lure	3	Face	0-Back	16	80	15	0	0	100	3	39	364722	1	13	73	362683	-1	364233	1	1550	3	3	2039	52	364735	-53	0					5											18												
WM080112	146432_fnca	1	1	1	975554319	1	75.031	75.031	2.0.10.147	2.0.10.242	2.0.10.242	1.0.0.439	7	234	2	3	Verdana	1	80	0	0	0	WM Stimuli\	0.7	1579.42857142857	0.8	1212.375	0.7	1113.57142857143	1	1091.5	0.9	1171.88888888889	1	814.8	0.7	1385.71428571429	1	565.4	13	607129	2	607117	27	40	607156	-999999	607132	0	5	TrialsPROC	FC_001_M1.png	1	2	19	SessionSelectionList														target	2	Face	0-Back	17	80	16	0	0	100	1	39	367294	1	14	72	365255	-1	365893	1	638	2	2	2039	53	367308	-54	0					6											19												
WM080112	146432_fnca	1	1	1	975554319	1	75.031	75.031	2.0.10.147	2.0.10.242	2.0.10.242	1.0.0.439	7	234	2	3	Verdana	1	80	0	0	0	WM Stimuli\	0.7	1579.42857142857	0.8	1212.375	0.7	1113.57142857143	1	1091.5	0.9	1171.88888888889	1	814.8	0.7	1385.71428571429	1	565.4	13	607129	2	607117	27	40	607156	-999999	607132	0	5	TrialsPROC	FC_006_F3.png	1	2	20	SessionSelectionList														nonlure	3	Face	0-Back	18	80	17	0	0	100	1	39	369866	2	14	72	367827	-1	368393	1	566	3	3	2039	53	369880	-54	0					7											20												
WM080112	146432_fnca	1	1	1	975554319	1	75.031	75.031	2.0.10.147	2.0.10.242	2.0.10.242	1.0.0.439	7	234	2	3	Verdana	1	80	0	0	0	WM Stimuli\	0.7	1579.42857142857	0.8	1212.375	0.7	1113.57142857143	1	1091.5	0.9	1171.88888888889	1	814.8	0.7	1385.71428571429	1	565.4	13	607129	2	607117	27	40	607156	-999999	607132	0	5	TrialsPROC	FC_006_F3.png	1	2	21	SessionSelectionList														lure	3	Face	0-Back	19	80	18	0	0	100	2	40	372439	1	13	72	370399	-1	371315	1	916	3	3	2040	53	372452	-54	0					8											21												
WM080112	146432_fnca	1	1	1	975554319	1	75.031	75.031	2.0.10.147	2.0.10.242	2.0.10.242	1.0.0.439	7	234	2	3	Verdana	1	80	0	0	0	WM Stimuli\	0.7	1579.42857142857	0.8	1212.375	0.7	1113.57142857143	1	1091.5	0.9	1171.88888888889	1	814.8	0.7	1385.71428571429	1	565.4	13	607129	2	607117	27	40	607156	-999999	607132	0	5	TrialsPROC	FC_003_M2.png	1	2	22	SessionSelectionList														lure	3	Face	0-Back	20	80	19	0	0	100	3	39	375011	1	14	73	372972	-1	374071	1	1099	3	3	2039	53	375025	-54	0					9											22												
WM080112	146432_fnca	1	1	1	975554319	1	75.031	75.031	2.0.10.147	2.0.10.242	2.0.10.242	1.0.0.439	7	234	2	3	Verdana	1	80	0	0	0	WM Stimuli\	0.7	1579.42857142857	0.8	1212.375	0.7	1113.57142857143	1	1091.5	0.9	1171.88888888889	1	814.8	0.7	1385.71428571429	1	565.4	13	607129	2	607117	27	40	607156	-999999	607132	0	5	TrialsPROC	FC_002_F1.png	1	2	23	SessionSelectionList														nonlure	3	Face	0-Back	21	80	20	0	0	100	4	39	377583	2	14	72	375544	-1	376321	1	777	3	3	2039	53	377597	-54	0					10											23												
WM080112	146432_fnca	1	1	1	975554319	1	75.031	75.031	2.0.10.147	2.0.10.242	2.0.10.242	1.0.0.439	7	234	2	3	Verdana	1	80	0	0	0	WM Stimuli\	0.7	1579.42857142857	0.8	1212.375	0.7	1113.57142857143	1	1091.5	0.9	1171.88888888889	1	814.8	0.7	1385.71428571429	1	565.4	13	607129	2	607117	27	40	607156	-999999	607132	0	6	Fix15secPROC	""	1	2	24	SessionSelectionList																																															6	378050	-7	0							24												
WM080112	146432_fnca	1	1	1	975554319	1	75.031	75.031	2.0.10.147	2.0.10.242	2.0.10.242	1.0.0.439	7	234	2	3	Verdana	1	80	0	0	0	WM Stimuli\	0.7	1579.42857142857	0.8	1212.375	0.7	1113.57142857143	1	1091.5	0.9	1171.88888888889	1	814.8	0.7	1385.71428571429	1	565.4	13	607129	2	607117	27	40	607156	-999999	607132	0	7	Cue2BackPROC	""	1	2	25	SessionSelectionList									13	393057	-14	0																																													25												
WM080112	146432_fnca	1	1	1	975554319	1	75.031	75.031	2.0.10.147	2.0.10.242	2.0.10.242	1.0.0.439	7	234	2	3	Verdana	1	80	0	0	0	WM Stimuli\	0.7	1579.42857142857	0.8	1212.375	0.7	1113.57142857143	1	1091.5	0.9	1171.88888888889	1	814.8	0.7	1385.71428571429	1	565.4	13	607129	2	607117	27	40	607156	-999999	607132	0	8	TrialsPROC	TO_001_TOOL1_BA.png	1	2	26	SessionSelectionList														nonlure	3	Tools	2-Back	22	80	21	0	0	100	5	40	397642	1	13	58	395602	-1	397176	1	1574	3	3	2040	53	397655	-54	0										1						26												
WM080112	146432_fnca	1	1	1	975554319	1	75.031	75.031	2.0.10.147	2.0.10.242	2.0.10.242	1.0.0.439	7	234	2	3	Verdana	1	80	0	0	0	WM Stimuli\	0.7	1579.42857142857	0.8	1212.375	0.7	1113.57142857143	1	1091.5	0.9	1171.88888888889	1	814.8	0.7	1385.71428571429	1	565.4	13	607129	2	607117	27	40	607156	-999999	607132	0	8	TrialsPROC	TO_002_TOOL2_BA.png	1	2	27	SessionSelectionList														nonlure	3	Tools	2-Back	23	80	22	0	0	100	6	40	400201	2	13	59	398161	-1	399254	1	1093	3	3	2040	53	400214	-54	0										2						27												
WM080112	146432_fnca	1	1	1	975554319	1	75.031	75.031	2.0.10.147	2.0.10.242	2.0.10.242	1.0.0.439	7	234	2	3	Verdana	1	80	0	0	0	WM Stimuli\	0.7	1579.42857142857	0.8	1212.375	0.7	1113.57142857143	1	1091.5	0.9	1171.88888888889	1	814.8	0.7	1385.71428571429	1	565.4	13	607129	2	607117	27	40	607156	-999999	607132	0	8	TrialsPROC	TO_004_TOOL4_BA.png	1	2	28	SessionSelectionList														nonlure	3	Tools	2-Back	24	80	23	0	0	100	7	38	402759	2	14	60	400721	-1	402171	1	1450	3	3	2038	52	402773	-53	0										3						28												
WM080112	146432_fnca	1	1	1	975554319	1	75.031	75.031	2.0.10.147	2.0.10.242	2.0.10.242	1.0.0.439	7	234	2	3	Verdana	1	80	0	0	0	WM Stimuli\	0.7	1579.42857142857	0.8	1212.375	0.7	1113.57142857143	1	1091.5	0.9	1171.88888888889	1	814.8	0.7	1385.71428571429	1	565.4	13	607129	2	607117	27	40	607156	-999999	607132	0	8	TrialsPROC	TO_002_TOOL2_BA.png	1	2	29	SessionSelectionList														target	2	Tools	2-Back	25	80	24	0	0	100	1	39	405318	2	14	58	403279	-1	405153	1	1874	2	2	2039	53	405332	-54	0										4						29												
WM080112	146432_fnca	1	1	1	975554319	1	75.031	75.031	2.0.10.147	2.0.10.242	2.0.10.242	1.0.0.439	7	234	2	3	Verdana	1	80	0	0	0	WM Stimuli\	0.7	1579.42857142857	0.8	1212.375	0.7	1113.57142857143	1	1091.5	0.9	1171.88888888889	1	814.8	0.7	1385.71428571429	1	565.4	13	607129	2	607117	27	40	607156	-999999	607132	0	8	TrialsPROC	TO_001_TOOL1_BA.png	1	2	30	SessionSelectionList														lure	3	Tools	2-Back	26	80	24	0	1	100	1	39	407877	2	14	59	405838	-1	0	0	0	""	3	2039	53	407891	-54	0										5						30												
WM080112	146432_fnca	1	1	1	975554319	1	75.031	75.031	2.0.10.147	2.0.10.242	2.0.10.242	1.0.0.439	7	234	2	3	Verdana	1	80	0	0	0	WM Stimuli\	0.7	1579.42857142857	0.8	1212.375	0.7	1113.57142857143	1	1091.5	0.9	1171.88888888889	1	814.8	0.7	1385.71428571429	1	565.4	13	607129	2	607117	27	40	607156	-999999	607132	0	8	TrialsPROC	TO_004_TOOL4_BA.png	1	2	31	SessionSelectionList														lure	3	Tools	2-Back	27	80	25	0	0	100	1	39	410436	2	14	59	408397	-1	409378	0	981	2	3	2039	53	410450	-54	0										6						31												
WM080112	146432_fnca	1	1	1	975554319	1	75.031	75.031	2.0.10.147	2.0.10.242	2.0.10.242	1.0.0.439	7	234	2	3	Verdana	1	80	0	0	0	WM Stimuli\	0.7	1579.42857142857	0.8	1212.375	0.7	1113.57142857143	1	1091.5	0.9	1171.88888888889	1	814.8	0.7	1385.71428571429	1	565.4	13	607129	2	607117	27	40	607156	-999999	607132	0	8	TrialsPROC	TO_006_TOOL6_BA.png	1	2	32	SessionSelectionList														nonlure	3	Tools	2-Back	28	80	25	0	1	100	1	39	412995	2	14	59	410956	-1	0	0	0	""	3	2039	53	413009	-54	0										7						32												
WM080112	146432_fnca	1	1	1	975554319	1	75.031	75.031	2.0.10.147	2.0.10.242	2.0.10.242	1.0.0.439	7	234	2	3	Verdana	1	80	0	0	0	WM Stimuli\	0.7	1579.42857142857	0.8	1212.375	0.7	1113.57142857143	1	1091.5	0.9	1171.88888888889	1	814.8	0.7	1385.71428571429	1	565.4	13	607129	2	607117	27	40	607156	-999999	607132	0	8	TrialsPROC	TO_005_TOOL5_BA.png	1	2	33	SessionSelectionList														nonlure	3	Tools	2-Back	29	80	26	0	0	100	1	39	415554	2	14	59	413515	-1	414740	1	1225	3	3	2039	53	415568	-54	0										8						33												
WM080112	146432_fnca	1	1	1	975554319	1	75.031	75.031	2.0.10.147	2.0.10.242	2.0.10.242	1.0.0.439	7	234	2	3	Verdana	1	80	0	0	0	WM Stimuli\	0.7	1579.42857142857	0.8	1212.375	0.7	1113.57142857143	1	1091.5	0.9	1171.88888888889	1	814.8	0.7	1385.71428571429	1	565.4	13	607129	2	607117	27	40	607156	-999999	607132	0	8	TrialsPROC	TO_006_TOOL6_BA.png	1	2	34	SessionSelectionList														target	2	Tools	2-Back	30	80	27	0	0	100	1	39	418113	2	14	59	416074	-1	417678	1	1604	2	2	2039	53	418127	-54	0										9						34												
WM080112	146432_fnca	1	1	1	975554319	1	75.031	75.031	2.0.10.147	2.0.10.242	2.0.10.242	1.0.0.439	7	234	2	3	Verdana	1	80	0	0	0	WM Stimuli\	0.7	1579.42857142857	0.8	1212.375	0.7	1113.57142857143	1	1091.5	0.9	1171.88888888889	1	814.8	0.7	1385.71428571429	1	565.4	13	607129	2	607117	27	40	607156	-999999	607132	0	8	TrialsPROC	TO_003_TOOL3_BA.png	1	2	35	SessionSelectionList														nonlure	3	Tools	2-Back	31	80	28	0	0	100	1	39	420672	2	14	59	418633	-1	419513	1	880	3	3	2039	53	420686	-54	0										10						35												
WM080112	146432_fnca	1	1	1	975554319	1	75.031	75.031	2.0.10.147	2.0.10.242	2.0.10.242	1.0.0.439	7	234	2	3	Verdana	1	80	0	0	0	WM Stimuli\	0.7	1579.42857142857	0.8	1212.375	0.7	1113.57142857143	1	1091.5	0.9	1171.88888888889	1	814.8	0.7	1385.71428571429	1	565.4	13	607129	2	607117	27	40	607156	-999999	607132	0	9	Cue0BackPROC	BP_007_BP20_BA.png	1	2	36	SessionSelectionList																																										19	421152	-20	0												36												
WM080112	146432_fnca	1	1	1	975554319	1	75.031	75.031	2.0.10.147	2.0.10.242	2.0.10.242	1.0.0.439	7	234	2	3	Verdana	1	80	0	0	0	WM Stimuli\	0.7	1579.42857142857	0.8	1212.375	0.7	1113.57142857143	1	1091.5	0.9	1171.88888888889	1	814.8	0.7	1385.71428571429	1	565.4	13	607129	2	607117	27	40	607156	-999999	607132	0	10	TrialsPROC	BP_007_BP20_BA.png	1	2	37	SessionSelectionList														target	2	Body	0-Back	32	80	29	0	0	91	2	39	425723	2	14	51	423684	-1	424710	0	1026	3	2	2039	53	425737	-54	0											1					37												
WM080112	146432_fnca	1	1	1	975554319	1	75.031	75.031	2.0.10.147	2.0.10.242	2.0.10.242	1.0.0.439	7	234	2	3	Verdana	1	80	0	0	0	WM Stimuli\	0.7	1579.42857142857	0.8	1212.375	0.7	1113.57142857143	1	1091.5	0.9	1171.88888888889	1	814.8	0.7	1385.71428571429	1	565.4	13	607129	2	607117	27	40	607156	-999999	607132	0	10	TrialsPROC	BP_011_BP4_BA.png	1	2	38	SessionSelectionList														nonlure	3	Body	0-Back	33	80	30	0	0	92	3	39	428296	1	13	73	426257	-1	427714	1	1457	3	3	2039	52	428309	-53	0											2					38												
WM080112	146432_fnca	1	1	1	975554319	1	75.031	75.031	2.0.10.147	2.0.10.242	2.0.10.242	1.0.0.439	7	234	2	3	Verdana	1	80	0	0	0	WM Stimuli\	0.7	1579.42857142857	0.8	1212.375	0.7	1113.57142857143	1	1091.5	0.9	1171.88888888889	1	814.8	0.7	1385.71428571429	1	565.4	13	607129	2	607117	27	40	607156	-999999	607132	0	10	TrialsPROC	BP_010_BP3_BA.png	1	2	39	SessionSelectionList														nonlure	3	Body	0-Back	34	80	31	0	0	92	4	39	430855	1	13	59	428816	-1	430186	1	1370	3	3	2039	52	430868	-53	0											3					39												
WM080112	146432_fnca	1	1	1	975554319	1	75.031	75.031	2.0.10.147	2.0.10.242	2.0.10.242	1.0.0.439	7	234	2	3	Verdana	1	80	0	0	0	WM Stimuli\	0.7	1579.42857142857	0.8	1212.375	0.7	1113.57142857143	1	1091.5	0.9	1171.88888888889	1	814.8	0.7	1385.71428571429	1	565.4	13	607129	2	607117	27	40	607156	-999999	607132	0	10	TrialsPROC	BP_008_BP21_BA.png	1	2	40	SessionSelectionList														nonlure	3	Body	0-Back	35	80	32	0	0	93	5	40	433414	1	13	58	431374	-1	432312	1	938	3	3	2040	53	433427	-54	0											4					40												
WM080112	146432_fnca	1	1	1	975554319	1	75.031	75.031	2.0.10.147	2.0.10.242	2.0.10.242	1.0.0.439	7	234	2	3	Verdana	1	80	0	0	0	WM Stimuli\	0.7	1579.42857142857	0.8	1212.375	0.7	1113.57142857143	1	1091.5	0.9	1171.88888888889	1	814.8	0.7	1385.71428571429	1	565.4	13	607129	2	607117	27	40	607156	-999999	607132	0	10	TrialsPROC	BP_011_BP4_BA.png	1	2	41	SessionSelectionList														lure	3	Body	0-Back	36	80	33	0	0	93	6	39	435973	1	13	60	433934	-1	435272	1	1338	3	3	2039	52	435986	-53	0											5					41												
WM080112	146432_fnca	1	1	1	975554319	1	75.031	75.031	2.0.10.147	2.0.10.242	2.0.10.242	1.0.0.439	7	234	2	3	Verdana	1	80	0	0	0	WM Stimuli\	0.7	1579.42857142857	0.8	1212.375	0.7	1113.57142857143	1	1091.5	0.9	1171.88888888889	1	814.8	0.7	1385.71428571429	1	565.4	13	607129	2	607117	27	40	607156	-999999	607132	0	10	TrialsPROC	BP_009_BP22_BA.png	1	2	42	SessionSelectionList														nonlure	3	Body	0-Back	37	80	34	0	0	94	7	39	438531	2	14	58	436492	-1	437796	1	1304	3	3	2039	53	438545	-54	0											6					42												
WM080112	146432_fnca	1	1	1	975554319	1	75.031	75.031	2.0.10.147	2.0.10.242	2.0.10.242	1.0.0.439	7	234	2	3	Verdana	1	80	0	0	0	WM Stimuli\	0.7	1579.42857142857	0.8	1212.375	0.7	1113.57142857143	1	1091.5	0.9	1171.88888888889	1	814.8	0.7	1385.71428571429	1	565.4	13	607129	2	607117	27	40	607156	-999999	607132	0	10	TrialsPROC	BP_009_BP22_BA.png	1	2	43	SessionSelectionList														lure	3	Body	0-Back	38	80	35	0	0	94	8	39	441090	2	14	59	439051	-1	440111	1	1060	3	3	2039	53	441104	-54	0											7					43												
WM080112	146432_fnca	1	1	1	975554319	1	75.031	75.031	2.0.10.147	2.0.10.242	2.0.10.242	1.0.0.439	7	234	2	3	Verdana	1	80	0	0	0	WM Stimuli\	0.7	1579.42857142857	0.8	1212.375	0.7	1113.57142857143	1	1091.5	0.9	1171.88888888889	1	814.8	0.7	1385.71428571429	1	565.4	13	607129	2	607117	27	40	607156	-999999	607132	0	10	TrialsPROC	BP_008_BP21_BA.png	1	2	44	SessionSelectionList														lure	3	Body	0-Back	39	80	36	0	0	94	9	39	443649	2	14	59	441610	-1	442510	1	900	3	3	2039	53	443663	-54	0											8					44												
WM080112	146432_fnca	1	1	1	975554319	1	75.031	75.031	2.0.10.147	2.0.10.242	2.0.10.242	1.0.0.439	7	234	2	3	Verdana	1	80	0	0	0	WM Stimuli\	0.7	1579.42857142857	0.8	1212.375	0.7	1113.57142857143	1	1091.5	0.9	1171.88888888889	1	814.8	0.7	1385.71428571429	1	565.4	13	607129	2	607117	27	40	607156	-999999	607132	0	10	TrialsPROC	BP_007_BP20_BA.png	1	2	45	SessionSelectionList														target	2	Body	0-Back	40	80	37	0	0	89	10	39	446208	2	14	59	444169	-1	445624	0	1455	3	2	2039	53	446222	-54	0											9					45												
WM080112	146432_fnca	1	1	1	975554319	1	75.031	75.031	2.0.10.147	2.0.10.242	2.0.10.242	1.0.0.439	7	234	2	3	Verdana	1	80	0	0	0	WM Stimuli\	0.7	1579.42857142857	0.8	1212.375	0.7	1113.57142857143	1	1091.5	0.9	1171.88888888889	1	814.8	0.7	1385.71428571429	1	565.4	13	607129	2	607117	27	40	607156	-999999	607132	0	10	TrialsPROC	BP_012_BP5_BA.png	1	2	46	SessionSelectionList														nonlure	3	Body	0-Back	41	80	38	0	0	90	11	38	448767	2	14	60	446729	-1	448061	1	1332	3	3	2038	52	448781	-53	0											10					46												
WM080112	146432_fnca	1	1	1	975554319	1	75.031	75.031	2.0.10.147	2.0.10.242	2.0.10.242	1.0.0.439	7	234	2	3	Verdana	1	80	0	0	0	WM Stimuli\	0.7	1579.42857142857	0.8	1212.375	0.7	1113.57142857143	1	1091.5	0.9	1171.88888888889	1	814.8	0.7	1385.71428571429	1	565.4	13	607129	2	607117	27	40	607156	-999999	607132	0	11	Fix15secPROC	""	1	2	47	SessionSelectionList																																															5	449234	-6	0							47												
WM080112	146432_fnca	1	1	1	975554319	1	75.031	75.031	2.0.10.147	2.0.10.242	2.0.10.242	1.0.0.439	7	234	2	3	Verdana	1	80	0	0	0	WM Stimuli\	0.7	1579.42857142857	0.8	1212.375	0.7	1113.57142857143	1	1091.5	0.9	1171.88888888889	1	814.8	0.7	1385.71428571429	1	565.4	13	607129	2	607117	27	40	607156	-999999	607132	0	12	Cue0BackPROC	PL_001_92012.png	1	2	48	SessionSelectionList																																										12	464241	-13	0												48												
WM080112	146432_fnca	1	1	1	975554319	1	75.031	75.031	2.0.10.147	2.0.10.242	2.0.10.242	1.0.0.439	7	234	2	3	Verdana	1	80	0	0	0	WM Stimuli\	0.7	1579.42857142857	0.8	1212.375	0.7	1113.57142857143	1	1091.5	0.9	1171.88888888889	1	814.8	0.7	1385.71428571429	1	565.4	13	607129	2	607117	27	40	607156	-999999	607132	0	13	TrialsPROC	PL_003_92016.png	1	2	49	SessionSelectionList														nonlure	3	Place	0-Back	42	80	39	0	0	90	12	39	468839	1	14	71	466800	-1	467890	1	1090	3	3	2039	53	468853	-54	0												1				49												
WM080112	146432_fnca	1	1	1	975554319	1	75.031	75.031	2.0.10.147	2.0.10.242	2.0.10.242	1.0.0.439	7	234	2	3	Verdana	1	80	0	0	0	WM Stimuli\	0.7	1579.42857142857	0.8	1212.375	0.7	1113.57142857143	1	1091.5	0.9	1171.88888888889	1	814.8	0.7	1385.71428571429	1	565.4	13	607129	2	607117	27	40	607156	-999999	607132	0	13	TrialsPROC	PL_003_92016.png	1	2	50	SessionSelectionList														lure	3	Place	0-Back	43	80	40	0	0	91	13	39	471411	2	14	72	469372	-1	470244	1	872	3	3	2039	53	471425	-54	0												2				50												
WM080112	146432_fnca	1	1	1	975554319	1	75.031	75.031	2.0.10.147	2.0.10.242	2.0.10.242	1.0.0.439	7	234	2	3	Verdana	1	80	0	0	0	WM Stimuli\	0.7	1579.42857142857	0.8	1212.375	0.7	1113.57142857143	1	1091.5	0.9	1171.88888888889	1	814.8	0.7	1385.71428571429	1	565.4	13	607129	2	607117	27	40	607156	-999999	607132	0	13	TrialsPROC	PL_006_92025.png	1	2	51	SessionSelectionList														nonlure	3	Place	0-Back	44	80	41	0	0	91	14	39	473970	2	14	59	471931	-1	472795	1	864	3	3	2039	53	473984	-54	0												3				51												
WM080112	146432_fnca	1	1	1	975554319	1	75.031	75.031	2.0.10.147	2.0.10.242	2.0.10.242	1.0.0.439	7	234	2	3	Verdana	1	80	0	0	0	WM Stimuli\	0.7	1579.42857142857	0.8	1212.375	0.7	1113.57142857143	1	1091.5	0.9	1171.88888888889	1	814.8	0.7	1385.71428571429	1	565.4	13	607129	2	607117	27	40	607156	-999999	607132	0	13	TrialsPROC	PL_001_92012.png	1	2	52	SessionSelectionList														target	2	Place	0-Back	45	80	42	0	0	92	1	39	476529	2	14	59	474490	-1	475181	1	691	2	2	2039	53	476543	-54	0												4				52												
WM080112	146432_fnca	1	1	1	975554319	1	75.031	75.031	2.0.10.147	2.0.10.242	2.0.10.242	1.0.0.439	7	234	2	3	Verdana	1	80	0	0	0	WM Stimuli\	0.7	1579.42857142857	0.8	1212.375	0.7	1113.57142857143	1	1091.5	0.9	1171.88888888889	1	814.8	0.7	1385.71428571429	1	565.4	13	607129	2	607117	27	40	607156	-999999	607132	0	13	TrialsPROC	PL_004_92023.png	1	2	53	SessionSelectionList														nonlure	3	Place	0-Back	46	80	43	0	0	92	1	39	479101	2	14	72	477062	-1	477752	1	690	3	3	2039	53	479115	-54	0												5				53												
WM080112	146432_fnca	1	1	1	975554319	1	75.031	75.031	2.0.10.147	2.0.10.242	2.0.10.242	1.0.0.439	7	234	2	3	Verdana	1	80	0	0	0	WM Stimuli\	0.7	1579.42857142857	0.8	1212.375	0.7	1113.57142857143	1	1091.5	0.9	1171.88888888889	1	814.8	0.7	1385.71428571429	1	565.4	13	607129	2	607117	27	40	607156	-999999	607132	0	13	TrialsPROC	PL_005_92024.png	1	2	54	SessionSelectionList														nonlure	3	Place	0-Back	47	80	44	0	0	92	2	39	481674	2	13	73	479635	-1	480945	1	1310	3	3	2039	52	481687	-53	0												6				54												
WM080112	146432_fnca	1	1	1	975554319	1	75.031	75.031	2.0.10.147	2.0.10.242	2.0.10.242	1.0.0.439	7	234	2	3	Verdana	1	80	0	0	0	WM Stimuli\	0.7	1579.42857142857	0.8	1212.375	0.7	1113.57142857143	1	1091.5	0.9	1171.88888888889	1	814.8	0.7	1385.71428571429	1	565.4	13	607129	2	607117	27	40	607156	-999999	607132	0	13	TrialsPROC	PL_001_92012.png	1	2	55	SessionSelectionList														target	2	Place	0-Back	48	80	45	0	0	93	1	39	484246	1	14	72	482207	-1	482926	1	719	2	2	2039	53	484260	-54	0												7				55												
WM080112	146432_fnca	1	1	1	975554319	1	75.031	75.031	2.0.10.147	2.0.10.242	2.0.10.242	1.0.0.439	7	234	2	3	Verdana	1	80	0	0	0	WM Stimuli\	0.7	1579.42857142857	0.8	1212.375	0.7	1113.57142857143	1	1091.5	0.9	1171.88888888889	1	814.8	0.7	1385.71428571429	1	565.4	13	607129	2	607117	27	40	607156	-999999	607132	0	13	TrialsPROC	PL_002_92014.png	1	2	56	SessionSelectionList														nonlure	3	Place	0-Back	49	80	46	0	0	93	1	39	486818	2	14	72	484779	-1	485495	1	716	3	3	2039	53	486832	-54	0												8				56												
WM080112	146432_fnca	1	1	1	975554319	1	75.031	75.031	2.0.10.147	2.0.10.242	2.0.10.242	1.0.0.439	7	234	2	3	Verdana	1	80	0	0	0	WM Stimuli\	0.7	1579.42857142857	0.8	1212.375	0.7	1113.57142857143	1	1091.5	0.9	1171.88888888889	1	814.8	0.7	1385.71428571429	1	565.4	13	607129	2	607117	27	40	607156	-999999	607132	0	13	TrialsPROC	PL_004_92023.png	1	2	57	SessionSelectionList														lure	3	Place	0-Back	50	80	47	0	0	93	2	39	489377	2	14	59	487338	-1	487868	1	530	3	3	2039	53	489391	-54	0												9				57												
WM080112	146432_fnca	1	1	1	975554319	1	75.031	75.031	2.0.10.147	2.0.10.242	2.0.10.242	1.0.0.439	7	234	2	3	Verdana	1	80	0	0	0	WM Stimuli\	0.7	1579.42857142857	0.8	1212.375	0.7	1113.57142857143	1	1091.5	0.9	1171.88888888889	1	814.8	0.7	1385.71428571429	1	565.4	13	607129	2	607117	27	40	607156	-999999	607132	0	13	TrialsPROC	PL_006_92025.png	1	2	58	SessionSelectionList														lure	3	Place	0-Back	51	80	48	0	0	93	3	40	491950	1	13	72	489910	-1	490576	1	666	3	3	2040	53	491963	-54	0												10				58												
WM080112	146432_fnca	1	1	1	975554319	1	75.031	75.031	2.0.10.147	2.0.10.242	2.0.10.242	1.0.0.439	7	234	2	3	Verdana	1	80	0	0	0	WM Stimuli\	0.7	1579.42857142857	0.8	1212.375	0.7	1113.57142857143	1	1091.5	0.9	1171.88888888889	1	814.8	0.7	1385.71428571429	1	565.4	13	607129	2	607117	27	40	607156	-999999	607132	0	14	Cue2BackPROC	""	1	2	59	SessionSelectionList									6	492416	-7	0																																													59												
WM080112	146432_fnca	1	1	1	975554319	1	75.031	75.031	2.0.10.147	2.0.10.242	2.0.10.242	1.0.0.439	7	234	2	3	Verdana	1	80	0	0	0	WM Stimuli\	0.7	1579.42857142857	0.8	1212.375	0.7	1113.57142857143	1	1091.5	0.9	1171.88888888889	1	814.8	0.7	1385.71428571429	1	565.4	13	607129	2	607117	27	40	607156	-999999	607132	0	15	TrialsPROC	FC_010_F5.png	1	2	60	SessionSelectionList														nonlure	3	Face	2-Back	52	80	48	0	1	93	3	39	497014	1	14	65	494975	-1	0	0	0	""	3	2039	53	497028	-54	0													1			60												
WM080112	146432_fnca	1	1	1	975554319	1	75.031	75.031	2.0.10.147	2.0.10.242	2.0.10.242	1.0.0.439	7	234	2	3	Verdana	1	80	0	0	0	WM Stimuli\	0.7	1579.42857142857	0.8	1212.375	0.7	1113.57142857143	1	1091.5	0.9	1171.88888888889	1	814.8	0.7	1385.71428571429	1	565.4	13	607129	2	607117	27	40	607156	-999999	607132	0	15	TrialsPROC	FC_012_F6.png	1	2	61	SessionSelectionList														nonlure	3	Face	2-Back	53	80	48	0	2	93	3	39	499586	2	14	72	497547	-1	0	0	0	""	3	2039	53	499600	-54	0													2			61												
WM080112	146432_fnca	1	1	1	975554319	1	75.031	75.031	2.0.10.147	2.0.10.242	2.0.10.242	1.0.0.439	7	234	2	3	Verdana	1	80	0	0	0	WM Stimuli\	0.7	1579.42857142857	0.8	1212.375	0.7	1113.57142857143	1	1091.5	0.9	1171.88888888889	1	814.8	0.7	1385.71428571429	1	565.4	13	607129	2	607117	27	40	607156	-999999	607132	0	15	TrialsPROC	FC_010_F5.png	1	2	62	SessionSelectionList														target	2	Face	2-Back	54	80	49	0	0	93	1	40	502159	1	13	72	500119	-1	500987	1	868	2	2	2040	53	502172	-54	0													3			62												
WM080112	146432_fnca	1	1	1	975554319	1	75.031	75.031	2.0.10.147	2.0.10.242	2.0.10.242	1.0.0.439	7	234	2	3	Verdana	1	80	0	0	0	WM Stimuli\	0.7	1579.42857142857	0.8	1212.375	0.7	1113.57142857143	1	1091.5	0.9	1171.88888888889	1	814.8	0.7	1385.71428571429	1	565.4	13	607129	2	607117	27	40	607156	-999999	607132	0	15	TrialsPROC	FC_008_F4.png	1	2	63	SessionSelectionList														nonlure	3	Face	2-Back	55	80	50	0	0	93	1	39	504731	1	14	73	502692	-1	504019	1	1327	3	3	2039	53	504745	-54	0													4			63												
WM080112	146432_fnca	1	1	1	975554319	1	75.031	75.031	2.0.10.147	2.0.10.242	2.0.10.242	1.0.0.439	7	234	2	3	Verdana	1	80	0	0	0	WM Stimuli\	0.7	1579.42857142857	0.8	1212.375	0.7	1113.57142857143	1	1091.5	0.9	1171.88888888889	1	814.8	0.7	1385.71428571429	1	565.4	13	607129	2	607117	27	40	607156	-999999	607132	0	15	TrialsPROC	FC_012_F6.png	1	2	64	SessionSelectionList														lure	3	Face	2-Back	56	80	51	0	0	93	2	39	507303	2	14	72	505264	-1	506531	1	1267	3	3	2039	53	507317	-54	0													5			64												
WM080112	146432_fnca	1	1	1	975554319	1	75.031	75.031	2.0.10.147	2.0.10.242	2.0.10.242	1.0.0.439	7	234	2	3	Verdana	1	80	0	0	0	WM Stimuli\	0.7	1579.42857142857	0.8	1212.375	0.7	1113.57142857143	1	1091.5	0.9	1171.88888888889	1	814.8	0.7	1385.71428571429	1	565.4	13	607129	2	607117	27	40	607156	-999999	607132	0	15	TrialsPROC	FC_008_F4.png	1	2	65	SessionSelectionList														target	2	Face	2-Back	57	80	52	0	0	93	1	39	509875	2	14	72	507836	-1	508808	1	972	2	2	2039	53	509889	-54	0													6			65												
WM080112	146432_fnca	1	1	1	975554319	1	75.031	75.031	2.0.10.147	2.0.10.242	2.0.10.242	1.0.0.439	7	234	2	3	Verdana	1	80	0	0	0	WM Stimuli\	0.7	1579.42857142857	0.8	1212.375	0.7	1113.57142857143	1	1091.5	0.9	1171.88888888889	1	814.8	0.7	1385.71428571429	1	565.4	13	607129	2	607117	27	40	607156	-999999	607132	0	15	TrialsPROC	FC_007_M4.png	1	2	66	SessionSelectionList														nonlure	3	Face	2-Back	58	80	53	0	0	93	1	39	512461	1	14	86	510422	-1	511354	1	932	3	3	2039	53	512475	-54	0													7			66												
WM080112	146432_fnca	1	1	1	975554319	1	75.031	75.031	2.0.10.147	2.0.10.242	2.0.10.242	1.0.0.439	7	234	2	3	Verdana	1	80	0	0	0	WM Stimuli\	0.7	1579.42857142857	0.8	1212.375	0.7	1113.57142857143	1	1091.5	0.9	1171.88888888889	1	814.8	0.7	1385.71428571429	1	565.4	13	607129	2	607117	27	40	607156	-999999	607132	0	15	TrialsPROC	FC_007_M4.png	1	2	67	SessionSelectionList														lure	3	Face	2-Back	59	80	53	0	1	93	1	39	515033	2	14	72	512994	-1	0	0	0	""	3	2039	53	515047	-54	0													8			67												
WM080112	146432_fnca	1	1	1	975554319	1	75.031	75.031	2.0.10.147	2.0.10.242	2.0.10.242	1.0.0.439	7	234	2	3	Verdana	1	80	0	0	0	WM Stimuli\	0.7	1579.42857142857	0.8	1212.375	0.7	1113.57142857143	1	1091.5	0.9	1171.88888888889	1	814.8	0.7	1385.71428571429	1	565.4	13	607129	2	607117	27	40	607156	-999999	607132	0	15	TrialsPROC	FC_009_M5.png	1	2	68	SessionSelectionList														nonlure	3	Face	2-Back	60	80	54	0	0	93	1	39	517632	2	14	99	515593	-1	516762	1	1169	3	3	2039	53	517646	-54	0													9			68												
WM080112	146432_fnca	1	1	1	975554319	1	75.031	75.031	2.0.10.147	2.0.10.242	2.0.10.242	1.0.0.439	7	234	2	3	Verdana	1	80	0	0	0	WM Stimuli\	0.7	1579.42857142857	0.8	1212.375	0.7	1113.57142857143	1	1091.5	0.9	1171.88888888889	1	814.8	0.7	1385.71428571429	1	565.4	13	607129	2	607117	27	40	607156	-999999	607132	0	15	TrialsPROC	FC_011_M6.png	1	2	69	SessionSelectionList														nonlure	3	Face	2-Back	61	80	55	0	0	93	2	40	520205	1	13	72	518165	-1	519425	1	1260	3	3	2040	53	520218	-54	0													10			69												
WM080112	146432_fnca	1	1	1	975554319	1	75.031	75.031	2.0.10.147	2.0.10.242	2.0.10.242	1.0.0.439	7	234	2	3	Verdana	1	80	0	0	0	WM Stimuli\	0.7	1579.42857142857	0.8	1212.375	0.7	1113.57142857143	1	1091.5	0.9	1171.88888888889	1	814.8	0.7	1385.71428571429	1	565.4	13	607129	2	607117	27	40	607156	-999999	607132	0	16	Fix15secPROC	""	1	2	70	SessionSelectionList																																															6	520671	-7	0							70												
WM080112	146432_fnca	1	1	1	975554319	1	75.031	75.031	2.0.10.147	2.0.10.242	2.0.10.242	1.0.0.439	7	234	2	3	Verdana	1	80	0	0	0	WM Stimuli\	0.7	1579.42857142857	0.8	1212.375	0.7	1113.57142857143	1	1091.5	0.9	1171.88888888889	1	814.8	0.7	1385.71428571429	1	565.4	13	607129	2	607117	27	40	607156	-999999	607132	0	17	Cue0BackPROC	TO_007_TOOL7_BA.png	1	2	71	SessionSelectionList																																										40	535705	-41	0												71												
WM080112	146432_fnca	1	1	1	975554319	1	75.031	75.031	2.0.10.147	2.0.10.242	2.0.10.242	1.0.0.439	7	234	2	3	Verdana	1	80	0	0	0	WM Stimuli\	0.7	1579.42857142857	0.8	1212.375	0.7	1113.57142857143	1	1091.5	0.9	1171.88888888889	1	814.8	0.7	1385.71428571429	1	565.4	13	607129	2	607117	27	40	607156	-999999	607132	0	18	TrialsPROC	TO_010_TOOL10_BA.png	1	2	72	SessionSelectionList														nonlure	3	Tools	0-Back	62	80	56	0	0	94	3	40	540290	1	13	85	538250	-1	538733	1	483	3	3	2040	53	540303	-54	0														1		72												
WM080112	146432_fnca	1	1	1	975554319	1	75.031	75.031	2.0.10.147	2.0.10.242	2.0.10.242	1.0.0.439	7	234	2	3	Verdana	1	80	0	0	0	WM Stimuli\	0.7	1579.42857142857	0.8	1212.375	0.7	1113.57142857143	1	1091.5	0.9	1171.88888888889	1	814.8	0.7	1385.71428571429	1	565.4	13	607129	2	607117	27	40	607156	-999999	607132	0	18	TrialsPROC	TO_009_TOOL9_BA.png	1	2	73	SessionSelectionList														nonlure	3	Tools	0-Back	63	80	57	0	0	94	4	39	542862	1	14	73	540823	-1	541404	1	581	3	3	2039	53	542876	-54	0														2		73												
WM080112	146432_fnca	1	1	1	975554319	1	75.031	75.031	2.0.10.147	2.0.10.242	2.0.10.242	1.0.0.439	7	234	2	3	Verdana	1	80	0	0	0	WM Stimuli\	0.7	1579.42857142857	0.8	1212.375	0.7	1113.57142857143	1	1091.5	0.9	1171.88888888889	1	814.8	0.7	1385.71428571429	1	565.4	13	607129	2	607117	27	40	607156	-999999	607132	0	18	TrialsPROC	TO_009_TOOL9_BA.png	1	2	74	SessionSelectionList														lure	3	Tools	0-Back	64	80	58	0	0	94	5	39	545421	1	14	59	543382	-1	543952	1	570	3	3	2039	53	545435	-54	0														3		74												
WM080112	146432_fnca	1	1	1	975554319	1	75.031	75.031	2.0.10.147	2.0.10.242	2.0.10.242	1.0.0.439	7	234	2	3	Verdana	1	80	0	0	0	WM Stimuli\	0.7	1579.42857142857	0.8	1212.375	0.7	1113.57142857143	1	1091.5	0.9	1171.88888888889	1	814.8	0.7	1385.71428571429	1	565.4	13	607129	2	607117	27	40	607156	-999999	607132	0	18	TrialsPROC	TO_008_TOOL8_BA.png	1	2	75	SessionSelectionList														nonlure	3	Tools	0-Back	65	80	59	0	0	94	6	39	548006	2	14	85	545967	-1	546694	1	727	3	3	2039	53	548020	-54	0														4		75												
WM080112	146432_fnca	1	1	1	975554319	1	75.031	75.031	2.0.10.147	2.0.10.242	2.0.10.242	1.0.0.439	7	234	2	3	Verdana	1	80	0	0	0	WM Stimuli\	0.7	1579.42857142857	0.8	1212.375	0.7	1113.57142857143	1	1091.5	0.9	1171.88888888889	1	814.8	0.7	1385.71428571429	1	565.4	13	607129	2	607117	27	40	607156	-999999	607132	0	18	TrialsPROC	TO_011_TOOL11_BA.png	1	2	76	SessionSelectionList														nonlure	3	Tools	0-Back	66	80	60	0	0	94	7	39	550592	2	14	86	548553	-1	548924	1	371	3	3	2039	53	550606	-54	0														5		76												
WM080112	146432_fnca	1	1	1	975554319	1	75.031	75.031	2.0.10.147	2.0.10.242	2.0.10.242	1.0.0.439	7	234	2	3	Verdana	1	80	0	0	0	WM Stimuli\	0.7	1579.42857142857	0.8	1212.375	0.7	1113.57142857143	1	1091.5	0.9	1171.88888888889	1	814.8	0.7	1385.71428571429	1	565.4	13	607129	2	607117	27	40	607156	-999999	607132	0	18	TrialsPROC	TO_012_TOOL12_BA.png	1	2	77	SessionSelectionList														nonlure	3	Tools	0-Back	67	80	61	0	0	94	8	39	553178	1	13	86	551139	-1	551523	1	384	3	3	2039	52	553191	-53	0														6		77												
WM080112	146432_fnca	1	1	1	975554319	1	75.031	75.031	2.0.10.147	2.0.10.242	2.0.10.242	1.0.0.439	7	234	2	3	Verdana	1	80	0	0	0	WM Stimuli\	0.7	1579.42857142857	0.8	1212.375	0.7	1113.57142857143	1	1091.5	0.9	1171.88888888889	1	814.8	0.7	1385.71428571429	1	565.4	13	607129	2	607117	27	40	607156	-999999	607132	0	18	TrialsPROC	TO_010_TOOL10_BA.png	1	2	78	SessionSelectionList														lure	3	Tools	0-Back	68	80	62	0	0	95	9	40	555737	1	13	58	553697	-1	554385	1	688	3	3	2040	53	555750	-54	0														7		78												
WM080112	146432_fnca	1	1	1	975554319	1	75.031	75.031	2.0.10.147	2.0.10.242	2.0.10.242	1.0.0.439	7	234	2	3	Verdana	1	80	0	0	0	WM Stimuli\	0.7	1579.42857142857	0.8	1212.375	0.7	1113.57142857143	1	1091.5	0.9	1171.88888888889	1	814.8	0.7	1385.71428571429	1	565.4	13	607129	2	607117	27	40	607156	-999999	607132	0	18	TrialsPROC	TO_007_TOOL7_BA.png	1	2	79	SessionSelectionList														target	2	Tools	0-Back	69	80	63	0	0	95	1	40	558296	1	13	59	556256	-1	556922	1	666	2	2	2040	53	558309	-54	0														8		79												
WM080112	146432_fnca	1	1	1	975554319	1	75.031	75.031	2.0.10.147	2.0.10.242	2.0.10.242	1.0.0.439	7	234	2	3	Verdana	1	80	0	0	0	WM Stimuli\	0.7	1579.42857142857	0.8	1212.375	0.7	1113.57142857143	1	1091.5	0.9	1171.88888888889	1	814.8	0.7	1385.71428571429	1	565.4	13	607129	2	607117	27	40	607156	-999999	607132	0	18	TrialsPROC	TO_008_TOOL8_BA.png	1	2	80	SessionSelectionList														lure	3	Tools	0-Back	70	80	64	0	0	95	1	40	560855	1	13	59	558815	-1	559422	1	607	3	3	2040	53	560868	-54	0														9		80												
WM080112	146432_fnca	1	1	1	975554319	1	75.031	75.031	2.0.10.147	2.0.10.242	2.0.10.242	1.0.0.439	7	234	2	3	Verdana	1	80	0	0	0	WM Stimuli\	0.7	1579.42857142857	0.8	1212.375	0.7	1113.57142857143	1	1091.5	0.9	1171.88888888889	1	814.8	0.7	1385.71428571429	1	565.4	13	607129	2	607117	27	40	607156	-999999	607132	0	18	TrialsPROC	TO_007_TOOL7_BA.png	1	2	81	SessionSelectionList														target	2	Tools	0-Back	71	80	65	0	0	95	1	40	563414	1	13	59	561374	-1	561951	1	577	2	2	2040	53	563427	-54	0														10		81												
WM080112	146432_fnca	1	1	1	975554319	1	75.031	75.031	2.0.10.147	2.0.10.242	2.0.10.242	1.0.0.439	7	234	2	3	Verdana	1	80	0	0	0	WM Stimuli\	0.7	1579.42857142857	0.8	1212.375	0.7	1113.57142857143	1	1091.5	0.9	1171.88888888889	1	814.8	0.7	1385.71428571429	1	565.4	13	607129	2	607117	27	40	607156	-999999	607132	0	19	Cue2BackPROC	""	1	2	82	SessionSelectionList									6	563880	-7	0																																													82												
WM080112	146432_fnca	1	1	1	975554319	1	75.031	75.031	2.0.10.147	2.0.10.242	2.0.10.242	1.0.0.439	7	234	2	3	Verdana	1	80	0	0	0	WM Stimuli\	0.7	1579.42857142857	0.8	1212.375	0.7	1113.57142857143	1	1091.5	0.9	1171.88888888889	1	814.8	0.7	1385.71428571429	1	565.4	13	607129	2	607117	27	40	607156	-999999	607132	0	20	TrialsPROC	PL_007_92026.png	1	2	83	SessionSelectionList														nonlure	3	Place	2-Back	72	80	66	0	0	95	1	39	568491	2	14	78	566452	-1	567903	1	1451	3	3	2039	53	568505	-54	0															1	83												
WM080112	146432_fnca	1	1	1	975554319	1	75.031	75.031	2.0.10.147	2.0.10.242	2.0.10.242	1.0.0.439	7	234	2	3	Verdana	1	80	0	0	0	WM Stimuli\	0.7	1579.42857142857	0.8	1212.375	0.7	1113.57142857143	1	1091.5	0.9	1171.88888888889	1	814.8	0.7	1385.71428571429	1	565.4	13	607129	2	607117	27	40	607156	-999999	607132	0	20	TrialsPROC	PL_007_92026.png	1	2	84	SessionSelectionList														lure	3	Place	2-Back	73	80	67	0	0	95	2	39	571064	1	13	73	569025	-1	570571	1	1546	3	3	2039	52	571077	-53	0															2	84												
WM080112	146432_fnca	1	1	1	975554319	1	75.031	75.031	2.0.10.147	2.0.10.242	2.0.10.242	1.0.0.439	7	234	2	3	Verdana	1	80	0	0	0	WM Stimuli\	0.7	1579.42857142857	0.8	1212.375	0.7	1113.57142857143	1	1091.5	0.9	1171.88888888889	1	814.8	0.7	1385.71428571429	1	565.4	13	607129	2	607117	27	40	607156	-999999	607132	0	20	TrialsPROC	PL_010_92038.png	1	2	85	SessionSelectionList														nonlure	3	Place	2-Back	74	80	68	0	0	95	3	39	573636	1	14	72	571597	-1	572849	1	1252	3	3	2039	53	573650	-54	0															3	85												
WM080112	146432_fnca	1	1	1	975554319	1	75.031	75.031	2.0.10.147	2.0.10.242	2.0.10.242	1.0.0.439	7	234	2	3	Verdana	1	80	0	0	0	WM Stimuli\	0.7	1579.42857142857	0.8	1212.375	0.7	1113.57142857143	1	1091.5	0.9	1171.88888888889	1	814.8	0.7	1385.71428571429	1	565.4	13	607129	2	607117	27	40	607156	-999999	607132	0	20	TrialsPROC	PL_009_92037.png	1	2	86	SessionSelectionList														nonlure	3	Place	2-Back	75	80	69	0	0	95	4	39	576208	2	14	72	574169	-1	575167	1	998	3	3	2039	53	576222	-54	0															4	86												
WM080112	146432_fnca	1	1	1	975554319	1	75.031	75.031	2.0.10.147	2.0.10.242	2.0.10.242	1.0.0.439	7	234	2	3	Verdana	1	80	0	0	0	WM Stimuli\	0.7	1579.42857142857	0.8	1212.375	0.7	1113.57142857143	1	1091.5	0.9	1171.88888888889	1	814.8	0.7	1385.71428571429	1	565.4	13	607129	2	607117	27	40	607156	-999999	607132	0	20	TrialsPROC	PL_010_92038.png	1	2	87	SessionSelectionList														target	2	Place	2-Back	76	80	70	0	0	95	1	40	578781	1	13	72	576741	-1	577508	1	767	2	2	2040	53	578794	-54	0															5	87												
WM080112	146432_fnca	1	1	1	975554319	1	75.031	75.031	2.0.10.147	2.0.10.242	2.0.10.242	1.0.0.439	7	234	2	3	Verdana	1	80	0	0	0	WM Stimuli\	0.7	1579.42857142857	0.8	1212.375	0.7	1113.57142857143	1	1091.5	0.9	1171.88888888889	1	814.8	0.7	1385.71428571429	1	565.4	13	607129	2	607117	27	40	607156	-999999	607132	0	20	TrialsPROC	PL_009_92037.png	1	2	88	SessionSelectionList														target	2	Place	2-Back	77	80	71	0	0	95	1	39	581339	2	14	59	579300	-1	580128	0	828	3	2	2039	53	581353	-54	0															6	88												
WM080112	146432_fnca	1	1	1	975554319	1	75.031	75.031	2.0.10.147	2.0.10.242	2.0.10.242	1.0.0.439	7	234	2	3	Verdana	1	80	0	0	0	WM Stimuli\	0.7	1579.42857142857	0.8	1212.375	0.7	1113.57142857143	1	1091.5	0.9	1171.88888888889	1	814.8	0.7	1385.71428571429	1	565.4	13	607129	2	607117	27	40	607156	-999999	607132	0	20	TrialsPROC	PL_008_92033.png	1	2	89	SessionSelectionList														nonlure	3	Place	2-Back	78	80	72	0	0	95	2	39	583925	2	14	86	581886	-1	582677	1	791	3	3	2039	53	583939	-54	0															7	89												
WM080112	146432_fnca	1	1	1	975554319	1	75.031	75.031	2.0.10.147	2.0.10.242	2.0.10.242	1.0.0.439	7	234	2	3	Verdana	1	80	0	0	0	WM Stimuli\	0.7	1579.42857142857	0.8	1212.375	0.7	1113.57142857143	1	1091.5	0.9	1171.88888888889	1	814.8	0.7	1385.71428571429	1	565.4	13	607129	2	607117	27	40	607156	-999999	607132	0	20	TrialsPROC	PL_012_92047.png	1	2	90	SessionSelectionList														nonlure	3	Place	2-Back	79	80	73	0	0	95	3	39	586497	2	14	72	584458	-1	585444	1	986	3	3	2039	53	586511	-54	0															8	90												
WM080112	146432_fnca	1	1	1	975554319	1	75.031	75.031	2.0.10.147	2.0.10.242	2.0.10.242	1.0.0.439	7	234	2	3	Verdana	1	80	0	0	0	WM Stimuli\	0.7	1579.42857142857	0.8	1212.375	0.7	1113.57142857143	1	1091.5	0.9	1171.88888888889	1	814.8	0.7	1385.71428571429	1	565.4	13	607129	2	607117	27	40	607156	-999999	607132	0	20	TrialsPROC	PL_012_92047.png	1	2	91	SessionSelectionList														lure	3	Place	2-Back	80	80	74	0	0	95	4	40	589070	1	13	72	587030	-1	588578	1	1548	3	3	2040	53	589083	-54	0															9	91												
WM080112	146432_fnca	1	1	1	975554319	1	75.031	75.031	2.0.10.147	2.0.10.242	2.0.10.242	1.0.0.439	7	234	2	3	Verdana	1	80	0	0	0	WM Stimuli\	0.7	1579.42857142857	0.8	1212.375	0.7	1113.57142857143	1	1091.5	0.9	1171.88888888889	1	814.8	0.7	1385.71428571429	1	565.4	13	607129	2	607117	27	40	607156	-999999	607132	0	20	TrialsPROC	PL_011_92044.png	1	2	92	SessionSelectionList														nonlure	3	Place	2-Back	80	80	75	0	0	95	5	39	591655	2	14	86	589616	-1	590824	1	1208	3	3	2039	53	591669	-54	0															10	92												
WM080112	146432_fnca	1	1	1	975554319	1	75.031	75.031	2.0.10.147	2.0.10.242	2.0.10.242	1.0.0.439	7	234	2	3	Verdana	1	80	0	0	0	WM Stimuli\	0.7	1579.42857142857	0.8	1212.375	0.7	1113.57142857143	1	1091.5	0.9	1171.88888888889	1	814.8	0.7	1385.71428571429	1	565.4	13	607129	2	607117	27	40	607156	-999999	607132	0	21	Fix15secPROC	""	1	2	93	SessionSelectionList																																															6	592122	-7	0							93												
