ExperimentName	HCPID	RunNumber	Subject	Session	RandomSeed	Group	Laptop.RefreshRate	ScannerD2.RefreshRate	StudioVersion	RuntimeVersion	RuntimeVersionExpected	ExperimentVersion	triggercode	Allowed	Target	Nontarget	FontStyle	RunTrialNumber[Session]	TrialsPerRun[Session]	TotalRespGreater200[Session]	ConsecRTLess200[Session]	ConsecNonResp[Session]	StimuliDir	ACC_2_Back_Body	Avg_RT_For_Correct_Trials_2_Back_Body	ACC_0_Back_Body	Avg_RT_For_Correct_Trials_0_Back_Body	ACC_2_Back_Face	Avg_RT_For_Correct_Trials_2_Back_Face	ACC_0_Back_Face	Avg_RT_For_Correct_Trials_0_Back_Face	ACC_2_Back_Place	Avg_RT_For_Correct_Trials_2_Back_Place	ACC_0_Back_Place	Avg_RT_For_Correct_Trials_0_Back_Place	ACC_2_Back_Tools	Avg_RT_For_Correct_Trials_2_Back_Tools	ACC_0_Back_Tools	Avg_RT_For_Correct_Trials_0_Back_Tools	ExpInstrucFeelFreeToRest.OnsetDelay	ExpInstrucFeelFreeToRest.OnsetTime	ExpInstrucFeelFreeToRest.DurationError	ExpInstrucFeelFreeToRest.StartTime	ExpInstrucFeelFreeToRest.OnsetToOnsetTime	FeelFreeToRest.OnsetDelay	FeelFreeToRest.OnsetTime	FeelFreeToRest.DurationError	FeelFreeToRest.StartTime	FeelFreeToRest.OnsetToOnsetTime	SessionSelectionList	Procedure[Block]	Stimulus[Block]	RunNumberFilterValue	SessionSelectionList.Cycle	SessionSelectionList.Sample	Running[Block]	IntroButtonMap.OnsetDelay	IntroButtonMap.OnsetTime	IntroButtonMap.DurationError	IntroButtonMap.OnsetToOnsetTime	GetReady.OnsetDelay	GetReady.OnsetTime	GetReady.DurationError	GetReady.OnsetToOnsetTime	Cue2Back.OnsetDelay	Cue2Back.OnsetTime	Cue2Back.DurationError	Cue2Back.OnsetToOnsetTime	Run1Block1	TargetType	CorrectResponse	StimType	BlockType	RunTrialNumber[Block]	TrialsPerRun[Block]	TotalRespGreater200[Block]	ConsecRTLess200[Block]	ConsecNonResp[Block]	ControlAcc	ConsecSameResp	ExperimenterWindow.OnsetDelay	ExperimenterWindow.OnsetTime	ExperimenterWindow.DurationError	ExperimenterWindow.OnsetToOnsetTime	Stim.OnsetDelay	Stim.OnsetTime	Stim.DurationError	Stim.RTTime	Stim.ACC	Stim.RT	Stim.RESP	Stim.CRESP	Stim.OnsetToOnsetTime	Fix.OnsetDelay	Fix.OnsetTime	Fix.DurationError	Fix.OnsetToOnsetTime	CueTarget.OnsetDelay	CueTarget.OnsetTime	CueTarget.DurationError	CueTarget.OnsetToOnsetTime	Run1Block2	Fix15sec.OnsetDelay	Fix15sec.OnsetTime	Fix15sec.DurationError	Fix15sec.OnsetToOnsetTime	Run1Block3	Run1Block4	Run1Block5	Run1Block6	Run1Block7	Run1Block8	Block	Procedure[Trial]	Stimulus[Trial]	ReadyList	Running[Trial]	ReadyList.Cycle	ReadyList.Sample	SyncSlide.OnsetDelay	SyncSlide.OnsetTime	SyncSlide.DurationError	SyncSlide.FinishTime	SyncSlide.OnsetToOnsetTime	Trial
WM080112	111716_fnca	2	1	1	133445900	1	75.035	75.031	2.0.10.147	2.0.10.242	2.0.10.242	1.0.0.439	7	234	2	3	Verdana	1	80	0	0	0	WM Stimuli\	0.9	1213.11111111111	1	604.7	1	1056.2	1	769.2	1	1123.2	1	784.7	0.6	807.333333333333	0.9	717.777777777778	12	317367	3	317356	14	26	317381	-999999	317370	0	22	TRSyncPROC	""	2	2	1	SessionSelectionList	98	4842	-999999	0	22	10027	-999999	0																																																	1	InitialTR	4	1	ReadyList	1	1	11	24100	-12	26088	0	1
WM080112	111716_fnca	2	1	1	133445900	1	75.035	75.031	2.0.10.147	2.0.10.242	2.0.10.242	1.0.0.439	7	234	2	3	Verdana	1	80	0	0	0	WM Stimuli\	0.9	1213.11111111111	1	604.7	1	1056.2	1	769.2	1	1123.2	1	784.7	0.6	807.333333333333	0.9	717.777777777778	12	317367	3	317356	14	26	317381	-999999	317370	0	22	TRSyncPROC	""	2	2	1	SessionSelectionList	98	4842	-999999	0	22	10027	-999999	0																																																	1	InitialTR	3	2	ReadyList	1	2	11	26100	-12	28088	0	2
WM080112	111716_fnca	2	1	1	133445900	1	75.035	75.031	2.0.10.147	2.0.10.242	2.0.10.242	1.0.0.439	7	234	2	3	Verdana	1	80	0	0	0	WM Stimuli\	0.9	1213.11111111111	1	604.7	1	1056.2	1	769.2	1	1123.2	1	784.7	0.6	807.333333333333	0.9	717.777777777778	12	317367	3	317356	14	26	317381	-999999	317370	0	22	TRSyncPROC	""	2	2	1	SessionSelectionList	98	4842	-999999	0	22	10027	-999999	0																																																	1	InitialTR	2	3	ReadyList	1	3	10	28099	-11	30088	0	3
WM080112	111716_fnca	2	1	1	133445900	1	75.035	75.031	2.0.10.147	2.0.10.242	2.0.10.242	1.0.0.439	7	234	2	3	Verdana	1	80	0	0	0	WM Stimuli\	0.9	1213.11111111111	1	604.7	1	1056.2	1	769.2	1	1123.2	1	784.7	0.6	807.333333333333	0.9	717.777777777778	12	317367	3	317356	14	26	317381	-999999	317370	0	22	TRSyncPROC	""	2	2	1	SessionSelectionList	98	4842	-999999	0	22	10027	-999999	0																																																	1	InitialTR	1	4	ReadyList	1	4	9	30098	-10	32088	0	4
WM080112	111716_fnca	2	1	1	133445900	1	75.035	75.031	2.0.10.147	2.0.10.242	2.0.10.242	1.0.0.439	7	234	2	3	Verdana	1	80	0	0	0	WM Stimuli\	0.9	1213.11111111111	1	604.7	1	1056.2	1	769.2	1	1123.2	1	784.7	0.6	807.333333333333	0.9	717.777777777778	12	317367	3	317356	14	26	317381	-999999	317370	0	23	Cue2BackPROC	""	2	2	2	SessionSelectionList									8	32097	-9	0																																													2												
WM080112	111716_fnca	2	1	1	133445900	1	75.035	75.031	2.0.10.147	2.0.10.242	2.0.10.242	1.0.0.439	7	234	2	3	Verdana	1	80	0	0	0	WM Stimuli\	0.9	1213.11111111111	1	604.7	1	1056.2	1	769.2	1	1123.2	1	784.7	0.6	807.333333333333	0.9	717.777777777778	12	317367	3	317356	14	26	317381	-999999	317370	0	24	TrialsPROC	TO_014_TOOL14_BA.png	2	2	3	SessionSelectionList														nonlure	3	Tools	2-Back	2	80	1	0	0	0	1	52	36722	3	14	81	34670	-1	35217	1	547	3	3	2052	66	36736	-67	0																3												
WM080112	111716_fnca	2	1	1	133445900	1	75.035	75.031	2.0.10.147	2.0.10.242	2.0.10.242	1.0.0.439	7	234	2	3	Verdana	1	80	0	0	0	WM Stimuli\	0.9	1213.11111111111	1	604.7	1	1056.2	1	769.2	1	1123.2	1	784.7	0.6	807.333333333333	0.9	717.777777777778	12	317367	3	317356	14	26	317381	-999999	317370	0	24	TrialsPROC	TO_013_TOOL13_BA.png	2	2	4	SessionSelectionList														nonlure	3	Tools	2-Back	3	80	2	0	0	0	2	40	39268	2	13	58	37228	-1	37754	1	526	3	3	2040	53	39281	-54	0																4												
WM080112	111716_fnca	2	1	1	133445900	1	75.035	75.031	2.0.10.147	2.0.10.242	2.0.10.242	1.0.0.439	7	234	2	3	Verdana	1	80	0	0	0	WM Stimuli\	0.9	1213.11111111111	1	604.7	1	1056.2	1	769.2	1	1123.2	1	784.7	0.6	807.333333333333	0.9	717.777777777778	12	317367	3	317356	14	26	317381	-999999	317370	0	24	TrialsPROC	TO_016_TOOL16_BA.png	2	2	5	SessionSelectionList														nonlure	3	Tools	2-Back	4	80	3	0	0	0	3	40	41827	1	13	59	39787	-1	40479	1	692	3	3	2040	53	41840	-54	0																5												
WM080112	111716_fnca	2	1	1	133445900	1	75.035	75.031	2.0.10.147	2.0.10.242	2.0.10.242	1.0.0.439	7	234	2	3	Verdana	1	80	0	0	0	WM Stimuli\	0.9	1213.11111111111	1	604.7	1	1056.2	1	769.2	1	1123.2	1	784.7	0.6	807.333333333333	0.9	717.777777777778	12	317367	3	317356	14	26	317381	-999999	317370	0	24	TrialsPROC	TO_014_TOOL14_BA.png	2	2	6	SessionSelectionList														lure	3	Tools	2-Back	5	80	4	0	0	0	1	39	44399	1	14	73	42360	-1	43620	0	1260	2	3	2039	53	44413	-54	0																6												
WM080112	111716_fnca	2	1	1	133445900	1	75.035	75.031	2.0.10.147	2.0.10.242	2.0.10.242	1.0.0.439	7	234	2	3	Verdana	1	80	0	0	0	WM Stimuli\	0.9	1213.11111111111	1	604.7	1	1056.2	1	769.2	1	1123.2	1	784.7	0.6	807.333333333333	0.9	717.777777777778	12	317367	3	317356	14	26	317381	-999999	317370	0	24	TrialsPROC	TO_016_TOOL16_BA.png	2	2	7	SessionSelectionList														target	2	Tools	2-Back	6	80	4	0	1	0	1	39	46958	1	14	59	44919	-1	0	0	0	""	2	2039	53	46972	-54	0																7												
WM080112	111716_fnca	2	1	1	133445900	1	75.035	75.031	2.0.10.147	2.0.10.242	2.0.10.242	1.0.0.439	7	234	2	3	Verdana	1	80	0	0	0	WM Stimuli\	0.9	1213.11111111111	1	604.7	1	1056.2	1	769.2	1	1123.2	1	784.7	0.6	807.333333333333	0.9	717.777777777778	12	317367	3	317356	14	26	317381	-999999	317370	0	24	TrialsPROC	TO_018_TOOL18_BA.png	2	2	8	SessionSelectionList														nonlure	3	Tools	2-Back	7	80	5	0	0	0	1	39	49517	1	14	59	47478	-1	48147	1	669	3	3	2039	53	49531	-54	0																8												
WM080112	111716_fnca	2	1	1	133445900	1	75.035	75.031	2.0.10.147	2.0.10.242	2.0.10.242	1.0.0.439	7	234	2	3	Verdana	1	80	0	0	0	WM Stimuli\	0.9	1213.11111111111	1	604.7	1	1056.2	1	769.2	1	1123.2	1	784.7	0.6	807.333333333333	0.9	717.777777777778	12	317367	3	317356	14	26	317381	-999999	317370	0	24	TrialsPROC	TO_017_TOOL17_BA.png	2	2	9	SessionSelectionList														nonlure	3	Tools	2-Back	8	80	6	0	0	0	2	39	52076	1	13	59	50037	-1	50945	1	908	3	3	2039	52	52089	-53	0																9												
WM080112	111716_fnca	2	1	1	133445900	1	75.035	75.031	2.0.10.147	2.0.10.242	2.0.10.242	1.0.0.439	7	234	2	3	Verdana	1	80	0	0	0	WM Stimuli\	0.9	1213.11111111111	1	604.7	1	1056.2	1	769.2	1	1123.2	1	784.7	0.6	807.333333333333	0.9	717.777777777778	12	317367	3	317356	14	26	317381	-999999	317370	0	24	TrialsPROC	TO_018_TOOL18_BA.png	2	2	10	SessionSelectionList														target	2	Tools	2-Back	9	80	7	0	0	0	3	39	54635	1	13	59	52596	-1	53924	0	1328	3	2	2039	52	54648	-53	0																10												
WM080112	111716_fnca	2	1	1	133445900	1	75.035	75.031	2.0.10.147	2.0.10.242	2.0.10.242	1.0.0.439	7	234	2	3	Verdana	1	80	0	0	0	WM Stimuli\	0.9	1213.11111111111	1	604.7	1	1056.2	1	769.2	1	1123.2	1	784.7	0.6	807.333333333333	0.9	717.777777777778	12	317367	3	317356	14	26	317381	-999999	317370	0	24	TrialsPROC	TO_015_TOOL15_BA.png	2	2	11	SessionSelectionList														nonlure	3	Tools	2-Back	10	80	8	0	0	0	4	40	57194	1	13	58	55154	-1	56656	1	1502	3	3	2040	53	57207	-54	0																11												
WM080112	111716_fnca	2	1	1	133445900	1	75.035	75.031	2.0.10.147	2.0.10.242	2.0.10.242	1.0.0.439	7	234	2	3	Verdana	1	80	0	0	0	WM Stimuli\	0.9	1213.11111111111	1	604.7	1	1056.2	1	769.2	1	1123.2	1	784.7	0.6	807.333333333333	0.9	717.777777777778	12	317367	3	317356	14	26	317381	-999999	317370	0	24	TrialsPROC	TO_017_TOOL17_BA.png	2	2	12	SessionSelectionList														lure	3	Tools	2-Back	11	80	9	0	0	0	1	40	59753	1	13	59	57713	-1	58954	0	1241	2	3	2040	53	59766	-54	0																12												
WM080112	111716_fnca	2	1	1	133445900	1	75.035	75.031	2.0.10.147	2.0.10.242	2.0.10.242	1.0.0.439	7	234	2	3	Verdana	1	80	0	0	0	WM Stimuli\	0.9	1213.11111111111	1	604.7	1	1056.2	1	769.2	1	1123.2	1	784.7	0.6	807.333333333333	0.9	717.777777777778	12	317367	3	317356	14	26	317381	-999999	317370	0	25	Cue0BackPROC	BP_013_BP7_BA.png	2	2	13	SessionSelectionList																																										19	60232	-20	0												13												
WM080112	111716_fnca	2	1	1	133445900	1	75.035	75.031	2.0.10.147	2.0.10.242	2.0.10.242	1.0.0.439	7	234	2	3	Verdana	1	80	0	0	0	WM Stimuli\	0.9	1213.11111111111	1	604.7	1	1056.2	1	769.2	1	1123.2	1	784.7	0.6	807.333333333333	0.9	717.777777777778	12	317367	3	317356	14	26	317381	-999999	317370	0	26	TrialsPROC	BP_015_H10-T_BA.png	2	2	14	SessionSelectionList														nonlure	3	Body	0-Back	12	80	10	0	0	100	1	39	64817	2	14	65	62778	-1	63711	1	933	3	3	2039	53	64831	-54	0																14												
WM080112	111716_fnca	2	1	1	133445900	1	75.035	75.031	2.0.10.147	2.0.10.242	2.0.10.242	1.0.0.439	7	234	2	3	Verdana	1	80	0	0	0	WM Stimuli\	0.9	1213.11111111111	1	604.7	1	1056.2	1	769.2	1	1123.2	1	784.7	0.6	807.333333333333	0.9	717.777777777778	12	317367	3	317356	14	26	317381	-999999	317370	0	26	TrialsPROC	BP_018_H13-T_BA.png	2	2	15	SessionSelectionList														nonlure	3	Body	0-Back	13	80	11	0	0	100	2	39	67376	2	14	59	65337	-1	66102	1	765	3	3	2039	53	67390	-54	0																15												
WM080112	111716_fnca	2	1	1	133445900	1	75.035	75.031	2.0.10.147	2.0.10.242	2.0.10.242	1.0.0.439	7	234	2	3	Verdana	1	80	0	0	0	WM Stimuli\	0.9	1213.11111111111	1	604.7	1	1056.2	1	769.2	1	1123.2	1	784.7	0.6	807.333333333333	0.9	717.777777777778	12	317367	3	317356	14	26	317381	-999999	317370	0	26	TrialsPROC	BP_014_BP9_BA.png	2	2	16	SessionSelectionList														nonlure	3	Body	0-Back	14	80	12	0	0	100	3	39	69935	2	14	59	67896	-1	68555	1	659	3	3	2039	53	69949	-54	0																16												
WM080112	111716_fnca	2	1	1	133445900	1	75.035	75.031	2.0.10.147	2.0.10.242	2.0.10.242	1.0.0.439	7	234	2	3	Verdana	1	80	0	0	0	WM Stimuli\	0.9	1213.11111111111	1	604.7	1	1056.2	1	769.2	1	1123.2	1	784.7	0.6	807.333333333333	0.9	717.777777777778	12	317367	3	317356	14	26	317381	-999999	317370	0	26	TrialsPROC	BP_018_H13-T_BA.png	2	2	17	SessionSelectionList														lure	3	Body	0-Back	15	80	13	0	0	100	4	39	72494	1	14	59	70455	-1	71007	1	552	3	3	2039	53	72508	-54	0																17												
WM080112	111716_fnca	2	1	1	133445900	1	75.035	75.031	2.0.10.147	2.0.10.242	2.0.10.242	1.0.0.439	7	234	2	3	Verdana	1	80	0	0	0	WM Stimuli\	0.9	1213.11111111111	1	604.7	1	1056.2	1	769.2	1	1123.2	1	784.7	0.6	807.333333333333	0.9	717.777777777778	12	317367	3	317356	14	26	317381	-999999	317370	0	26	TrialsPROC	BP_013_BP7_BA.png	2	2	18	SessionSelectionList														target	2	Body	0-Back	16	80	14	0	0	100	1	39	75053	1	14	59	73014	-1	73514	1	500	2	2	2039	53	75067	-54	0																18												
WM080112	111716_fnca	2	1	1	133445900	1	75.035	75.031	2.0.10.147	2.0.10.242	2.0.10.242	1.0.0.439	7	234	2	3	Verdana	1	80	0	0	0	WM Stimuli\	0.9	1213.11111111111	1	604.7	1	1056.2	1	769.2	1	1123.2	1	784.7	0.6	807.333333333333	0.9	717.777777777778	12	317367	3	317356	14	26	317381	-999999	317370	0	26	TrialsPROC	BP_015_H10-T_BA.png	2	2	19	SessionSelectionList														lure	3	Body	0-Back	17	80	15	0	0	100	1	39	77612	2	14	59	75573	-1	76048	1	475	3	3	2039	53	77626	-54	0																19												
WM080112	111716_fnca	2	1	1	133445900	1	75.035	75.031	2.0.10.147	2.0.10.242	2.0.10.242	1.0.0.439	7	234	2	3	Verdana	1	80	0	0	0	WM Stimuli\	0.9	1213.11111111111	1	604.7	1	1056.2	1	769.2	1	1123.2	1	784.7	0.6	807.333333333333	0.9	717.777777777778	12	317367	3	317356	14	26	317381	-999999	317370	0	26	TrialsPROC	BP_016_H11-T_BA.png	2	2	20	SessionSelectionList														nonlure	3	Body	0-Back	18	80	16	0	0	100	2	39	80171	1	14	59	78132	-1	78577	1	445	3	3	2039	53	80185	-54	0																20												
WM080112	111716_fnca	2	1	1	133445900	1	75.035	75.031	2.0.10.147	2.0.10.242	2.0.10.242	1.0.0.439	7	234	2	3	Verdana	1	80	0	0	0	WM Stimuli\	0.9	1213.11111111111	1	604.7	1	1056.2	1	769.2	1	1123.2	1	784.7	0.6	807.333333333333	0.9	717.777777777778	12	317367	3	317356	14	26	317381	-999999	317370	0	26	TrialsPROC	BP_013_BP7_BA.png	2	2	21	SessionSelectionList														target	2	Body	0-Back	19	80	17	0	0	100	1	39	82730	1	14	59	80691	-1	81232	1	541	2	2	2039	53	82744	-54	0																21												
WM080112	111716_fnca	2	1	1	133445900	1	75.035	75.031	2.0.10.147	2.0.10.242	2.0.10.242	1.0.0.439	7	234	2	3	Verdana	1	80	0	0	0	WM Stimuli\	0.9	1213.11111111111	1	604.7	1	1056.2	1	769.2	1	1123.2	1	784.7	0.6	807.333333333333	0.9	717.777777777778	12	317367	3	317356	14	26	317381	-999999	317370	0	26	TrialsPROC	BP_017_H12-T_BA.png	2	2	22	SessionSelectionList														nonlure	3	Body	0-Back	20	80	18	0	0	100	1	39	85289	1	14	59	83250	-1	83748	1	498	3	3	2039	53	85303	-54	0																22												
WM080112	111716_fnca	2	1	1	133445900	1	75.035	75.031	2.0.10.147	2.0.10.242	2.0.10.242	1.0.0.439	7	234	2	3	Verdana	1	80	0	0	0	WM Stimuli\	0.9	1213.11111111111	1	604.7	1	1056.2	1	769.2	1	1123.2	1	784.7	0.6	807.333333333333	0.9	717.777777777778	12	317367	3	317356	14	26	317381	-999999	317370	0	26	TrialsPROC	BP_014_BP9_BA.png	2	2	23	SessionSelectionList														lure	3	Body	0-Back	21	80	19	0	0	100	2	39	87848	1	14	59	85809	-1	86488	1	679	3	3	2039	53	87862	-54	0																23												
WM080112	111716_fnca	2	1	1	133445900	1	75.035	75.031	2.0.10.147	2.0.10.242	2.0.10.242	1.0.0.439	7	234	2	3	Verdana	1	80	0	0	0	WM Stimuli\	0.9	1213.11111111111	1	604.7	1	1056.2	1	769.2	1	1123.2	1	784.7	0.6	807.333333333333	0.9	717.777777777778	12	317367	3	317356	14	26	317381	-999999	317370	0	27	Fix15secPROC	""	2	2	24	SessionSelectionList																																															6	88315	-7	0							24												
WM080112	111716_fnca	2	1	1	133445900	1	75.035	75.031	2.0.10.147	2.0.10.242	2.0.10.242	1.0.0.439	7	234	2	3	Verdana	1	80	0	0	0	WM Stimuli\	0.9	1213.11111111111	1	604.7	1	1056.2	1	769.2	1	1123.2	1	784.7	0.6	807.333333333333	0.9	717.777777777778	12	317367	3	317356	14	26	317381	-999999	317370	0	28	Cue2BackPROC	""	2	2	25	SessionSelectionList									12	103321	-13	0																																													25												
WM080112	111716_fnca	2	1	1	133445900	1	75.035	75.031	2.0.10.147	2.0.10.242	2.0.10.242	1.0.0.439	7	234	2	3	Verdana	1	80	0	0	0	WM Stimuli\	0.9	1213.11111111111	1	604.7	1	1056.2	1	769.2	1	1123.2	1	784.7	0.6	807.333333333333	0.9	717.777777777778	12	317367	3	317356	14	26	317381	-999999	317370	0	29	TrialsPROC	FC_015_M8.png	2	2	26	SessionSelectionList														nonlure	3	Face	2-Back	22	80	20	0	0	100	3	40	107920	1	13	71	105880	-1	107261	1	1381	3	3	2040	53	107933	-54	0																26												
WM080112	111716_fnca	2	1	1	133445900	1	75.035	75.031	2.0.10.147	2.0.10.242	2.0.10.242	1.0.0.439	7	234	2	3	Verdana	1	80	0	0	0	WM Stimuli\	0.9	1213.11111111111	1	604.7	1	1056.2	1	769.2	1	1123.2	1	784.7	0.6	807.333333333333	0.9	717.777777777778	12	317367	3	317356	14	26	317381	-999999	317370	0	29	TrialsPROC	FC_018_F9.png	2	2	27	SessionSelectionList														nonlure	3	Face	2-Back	23	80	21	0	0	100	4	39	110492	1	14	73	108453	-1	109067	1	614	3	3	2039	53	110506	-54	0																27												
WM080112	111716_fnca	2	1	1	133445900	1	75.035	75.031	2.0.10.147	2.0.10.242	2.0.10.242	1.0.0.439	7	234	2	3	Verdana	1	80	0	0	0	WM Stimuli\	0.9	1213.11111111111	1	604.7	1	1056.2	1	769.2	1	1123.2	1	784.7	0.6	807.333333333333	0.9	717.777777777778	12	317367	3	317356	14	26	317381	-999999	317370	0	29	TrialsPROC	FC_018_F9.png	2	2	28	SessionSelectionList														lure	3	Face	2-Back	24	80	22	0	0	100	5	39	113064	2	14	72	111025	-1	111969	1	944	3	3	2039	53	113078	-54	0																28												
WM080112	111716_fnca	2	1	1	133445900	1	75.035	75.031	2.0.10.147	2.0.10.242	2.0.10.242	1.0.0.439	7	234	2	3	Verdana	1	80	0	0	0	WM Stimuli\	0.9	1213.11111111111	1	604.7	1	1056.2	1	769.2	1	1123.2	1	784.7	0.6	807.333333333333	0.9	717.777777777778	12	317367	3	317356	14	26	317381	-999999	317370	0	29	TrialsPROC	FC_017_M9.png	2	2	29	SessionSelectionList														nonlure	3	Face	2-Back	25	80	23	0	0	100	6	39	115636	2	14	72	113597	-1	114719	1	1122	3	3	2039	53	115650	-54	0																29												
WM080112	111716_fnca	2	1	1	133445900	1	75.035	75.031	2.0.10.147	2.0.10.242	2.0.10.242	1.0.0.439	7	234	2	3	Verdana	1	80	0	0	0	WM Stimuli\	0.9	1213.11111111111	1	604.7	1	1056.2	1	769.2	1	1123.2	1	784.7	0.6	807.333333333333	0.9	717.777777777778	12	317367	3	317356	14	26	317381	-999999	317370	0	29	TrialsPROC	FC_017_M9.png	2	2	30	SessionSelectionList														lure	3	Face	2-Back	26	80	24	0	0	100	7	39	118209	1	13	73	116170	-1	117573	1	1403	3	3	2039	52	118222	-53	0																30												
WM080112	111716_fnca	2	1	1	133445900	1	75.035	75.031	2.0.10.147	2.0.10.242	2.0.10.242	1.0.0.439	7	234	2	3	Verdana	1	80	0	0	0	WM Stimuli\	0.9	1213.11111111111	1	604.7	1	1056.2	1	769.2	1	1123.2	1	784.7	0.6	807.333333333333	0.9	717.777777777778	12	317367	3	317356	14	26	317381	-999999	317370	0	29	TrialsPROC	FC_016_F8.png	2	2	31	SessionSelectionList														nonlure	3	Face	2-Back	27	80	25	0	0	100	8	39	120781	1	14	72	118742	-1	119625	1	883	3	3	2039	53	120795	-54	0																31												
WM080112	111716_fnca	2	1	1	133445900	1	75.035	75.031	2.0.10.147	2.0.10.242	2.0.10.242	1.0.0.439	7	234	2	3	Verdana	1	80	0	0	0	WM Stimuli\	0.9	1213.11111111111	1	604.7	1	1056.2	1	769.2	1	1123.2	1	784.7	0.6	807.333333333333	0.9	717.777777777778	12	317367	3	317356	14	26	317381	-999999	317370	0	29	TrialsPROC	FC_013_M7.png	2	2	32	SessionSelectionList														nonlure	3	Face	2-Back	28	80	26	0	0	100	9	39	123353	2	14	72	121314	-1	122191	1	877	3	3	2039	53	123367	-54	0																32												
WM080112	111716_fnca	2	1	1	133445900	1	75.035	75.031	2.0.10.147	2.0.10.242	2.0.10.242	1.0.0.439	7	234	2	3	Verdana	1	80	0	0	0	WM Stimuli\	0.9	1213.11111111111	1	604.7	1	1056.2	1	769.2	1	1123.2	1	784.7	0.6	807.333333333333	0.9	717.777777777778	12	317367	3	317356	14	26	317381	-999999	317370	0	29	TrialsPROC	FC_014_F7.png	2	2	33	SessionSelectionList														nonlure	3	Face	2-Back	29	80	27	0	0	100	10	40	125926	1	13	72	123886	-1	124658	1	772	3	3	2040	53	125939	-54	0																33												
WM080112	111716_fnca	2	1	1	133445900	1	75.035	75.031	2.0.10.147	2.0.10.242	2.0.10.242	1.0.0.439	7	234	2	3	Verdana	1	80	0	0	0	WM Stimuli\	0.9	1213.11111111111	1	604.7	1	1056.2	1	769.2	1	1123.2	1	784.7	0.6	807.333333333333	0.9	717.777777777778	12	317367	3	317356	14	26	317381	-999999	317370	0	29	TrialsPROC	FC_013_M7.png	2	2	34	SessionSelectionList														target	2	Face	2-Back	30	80	28	0	0	100	1	39	128498	1	14	73	126459	-1	127477	1	1018	2	2	2039	53	128512	-54	0																34												
WM080112	111716_fnca	2	1	1	133445900	1	75.035	75.031	2.0.10.147	2.0.10.242	2.0.10.242	1.0.0.439	7	234	2	3	Verdana	1	80	0	0	0	WM Stimuli\	0.9	1213.11111111111	1	604.7	1	1056.2	1	769.2	1	1123.2	1	784.7	0.6	807.333333333333	0.9	717.777777777778	12	317367	3	317356	14	26	317381	-999999	317370	0	29	TrialsPROC	FC_014_F7.png	2	2	35	SessionSelectionList														target	2	Face	2-Back	31	80	29	0	0	100	2	39	131070	2	14	72	129031	-1	130579	1	1548	2	2	2039	53	131084	-54	0																35												
WM080112	111716_fnca	2	1	1	133445900	1	75.035	75.031	2.0.10.147	2.0.10.242	2.0.10.242	1.0.0.439	7	234	2	3	Verdana	1	80	0	0	0	WM Stimuli\	0.9	1213.11111111111	1	604.7	1	1056.2	1	769.2	1	1123.2	1	784.7	0.6	807.333333333333	0.9	717.777777777778	12	317367	3	317356	14	26	317381	-999999	317370	0	30	Cue0BackPROC	TO_019_TOOL19_BA.png	2	2	36	SessionSelectionList																																										19	131550	-20	0												36												
WM080112	111716_fnca	2	1	1	133445900	1	75.035	75.031	2.0.10.147	2.0.10.242	2.0.10.242	1.0.0.439	7	234	2	3	Verdana	1	80	0	0	0	WM Stimuli\	0.9	1213.11111111111	1	604.7	1	1056.2	1	769.2	1	1123.2	1	784.7	0.6	807.333333333333	0.9	717.777777777778	12	317367	3	317356	14	26	317381	-999999	317370	0	31	TrialsPROC	TO_019_TOOL19_BA.png	2	2	37	SessionSelectionList														target	2	Tools	0-Back	32	80	29	0	1	91	2	39	136121	2	14	51	134082	-1	0	0	0	""	2	2039	53	136135	-54	0																37												
WM080112	111716_fnca	2	1	1	133445900	1	75.035	75.031	2.0.10.147	2.0.10.242	2.0.10.242	1.0.0.439	7	234	2	3	Verdana	1	80	0	0	0	WM Stimuli\	0.9	1213.11111111111	1	604.7	1	1056.2	1	769.2	1	1123.2	1	784.7	0.6	807.333333333333	0.9	717.777777777778	12	317367	3	317356	14	26	317381	-999999	317370	0	31	TrialsPROC	TO_024_TOOL24_BA.png	2	2	38	SessionSelectionList														nonlure	3	Tools	0-Back	33	80	30	0	0	92	1	39	138680	2	14	59	136641	-1	137660	1	1019	3	3	2039	53	138694	-54	0																38												
WM080112	111716_fnca	2	1	1	133445900	1	75.035	75.031	2.0.10.147	2.0.10.242	2.0.10.242	1.0.0.439	7	234	2	3	Verdana	1	80	0	0	0	WM Stimuli\	0.9	1213.11111111111	1	604.7	1	1056.2	1	769.2	1	1123.2	1	784.7	0.6	807.333333333333	0.9	717.777777777778	12	317367	3	317356	14	26	317381	-999999	317370	0	31	TrialsPROC	TO_019_TOOL19_BA.png	2	2	39	SessionSelectionList														target	2	Tools	0-Back	34	80	31	0	0	92	1	39	141239	2	14	59	139200	-1	139979	1	779	2	2	2039	53	141253	-54	0																39												
WM080112	111716_fnca	2	1	1	133445900	1	75.035	75.031	2.0.10.147	2.0.10.242	2.0.10.242	1.0.0.439	7	234	2	3	Verdana	1	80	0	0	0	WM Stimuli\	0.9	1213.11111111111	1	604.7	1	1056.2	1	769.2	1	1123.2	1	784.7	0.6	807.333333333333	0.9	717.777777777778	12	317367	3	317356	14	26	317381	-999999	317370	0	31	TrialsPROC	TO_023_TOOL23_BA.png	2	2	40	SessionSelectionList														nonlure	3	Tools	0-Back	35	80	32	0	0	93	1	39	143798	2	14	59	141759	-1	142326	1	567	3	3	2039	53	143812	-54	0																40												
WM080112	111716_fnca	2	1	1	133445900	1	75.035	75.031	2.0.10.147	2.0.10.242	2.0.10.242	1.0.0.439	7	234	2	3	Verdana	1	80	0	0	0	WM Stimuli\	0.9	1213.11111111111	1	604.7	1	1056.2	1	769.2	1	1123.2	1	784.7	0.6	807.333333333333	0.9	717.777777777778	12	317367	3	317356	14	26	317381	-999999	317370	0	31	TrialsPROC	TO_020_TOOL20_BA.png	2	2	41	SessionSelectionList														nonlure	3	Tools	0-Back	36	80	33	0	0	93	2	39	146357	2	14	59	144318	-1	145234	1	916	3	3	2039	53	146371	-54	0																41												
WM080112	111716_fnca	2	1	1	133445900	1	75.035	75.031	2.0.10.147	2.0.10.242	2.0.10.242	1.0.0.439	7	234	2	3	Verdana	1	80	0	0	0	WM Stimuli\	0.9	1213.11111111111	1	604.7	1	1056.2	1	769.2	1	1123.2	1	784.7	0.6	807.333333333333	0.9	717.777777777778	12	317367	3	317356	14	26	317381	-999999	317370	0	31	TrialsPROC	TO_020_TOOL20_BA.png	2	2	42	SessionSelectionList														lure	3	Tools	0-Back	37	80	34	0	0	94	3	39	148916	2	14	59	146877	-1	147491	1	614	3	3	2039	53	148930	-54	0																42												
WM080112	111716_fnca	2	1	1	133445900	1	75.035	75.031	2.0.10.147	2.0.10.242	2.0.10.242	1.0.0.439	7	234	2	3	Verdana	1	80	0	0	0	WM Stimuli\	0.9	1213.11111111111	1	604.7	1	1056.2	1	769.2	1	1123.2	1	784.7	0.6	807.333333333333	0.9	717.777777777778	12	317367	3	317356	14	26	317381	-999999	317370	0	31	TrialsPROC	TO_022_TOOL22_BA.png	2	2	43	SessionSelectionList														nonlure	3	Tools	0-Back	38	80	35	0	0	94	4	39	151475	2	14	59	149436	-1	150362	1	926	3	3	2039	53	151489	-54	0																43												
WM080112	111716_fnca	2	1	1	133445900	1	75.035	75.031	2.0.10.147	2.0.10.242	2.0.10.242	1.0.0.439	7	234	2	3	Verdana	1	80	0	0	0	WM Stimuli\	0.9	1213.11111111111	1	604.7	1	1056.2	1	769.2	1	1123.2	1	784.7	0.6	807.333333333333	0.9	717.777777777778	12	317367	3	317356	14	26	317381	-999999	317370	0	31	TrialsPROC	TO_022_TOOL22_BA.png	2	2	44	SessionSelectionList														lure	3	Tools	0-Back	39	80	36	0	0	94	5	39	154034	2	14	59	151995	-1	152516	1	521	3	3	2039	53	154048	-54	0																44												
WM080112	111716_fnca	2	1	1	133445900	1	75.035	75.031	2.0.10.147	2.0.10.242	2.0.10.242	1.0.0.439	7	234	2	3	Verdana	1	80	0	0	0	WM Stimuli\	0.9	1213.11111111111	1	604.7	1	1056.2	1	769.2	1	1123.2	1	784.7	0.6	807.333333333333	0.9	717.777777777778	12	317367	3	317356	14	26	317381	-999999	317370	0	31	TrialsPROC	TO_021_TOOL21_BA.png	2	2	45	SessionSelectionList														nonlure	3	Tools	0-Back	40	80	37	0	0	95	6	39	156593	1	14	59	154554	-1	155116	1	562	3	3	2039	53	156607	-54	0																45												
WM080112	111716_fnca	2	1	1	133445900	1	75.035	75.031	2.0.10.147	2.0.10.242	2.0.10.242	1.0.0.439	7	234	2	3	Verdana	1	80	0	0	0	WM Stimuli\	0.9	1213.11111111111	1	604.7	1	1056.2	1	769.2	1	1123.2	1	784.7	0.6	807.333333333333	0.9	717.777777777778	12	317367	3	317356	14	26	317381	-999999	317370	0	31	TrialsPROC	TO_021_TOOL21_BA.png	2	2	46	SessionSelectionList														lure	3	Tools	0-Back	41	80	38	0	0	95	7	39	159152	1	14	59	157113	-1	157669	1	556	3	3	2039	53	159166	-54	0																46												
WM080112	111716_fnca	2	1	1	133445900	1	75.035	75.031	2.0.10.147	2.0.10.242	2.0.10.242	1.0.0.439	7	234	2	3	Verdana	1	80	0	0	0	WM Stimuli\	0.9	1213.11111111111	1	604.7	1	1056.2	1	769.2	1	1123.2	1	784.7	0.6	807.333333333333	0.9	717.777777777778	12	317367	3	317356	14	26	317381	-999999	317370	0	32	Fix15secPROC	""	2	2	47	SessionSelectionList																																															6	159619	-7	0							47												
WM080112	111716_fnca	2	1	1	133445900	1	75.035	75.031	2.0.10.147	2.0.10.242	2.0.10.242	1.0.0.439	7	234	2	3	Verdana	1	80	0	0	0	WM Stimuli\	0.9	1213.11111111111	1	604.7	1	1056.2	1	769.2	1	1123.2	1	784.7	0.6	807.333333333333	0.9	717.777777777778	12	317367	3	317356	14	26	317381	-999999	317370	0	33	Cue2BackPROC	""	2	2	48	SessionSelectionList									13	174626	-14	0																																													48												
WM080112	111716_fnca	2	1	1	133445900	1	75.035	75.031	2.0.10.147	2.0.10.242	2.0.10.242	1.0.0.439	7	234	2	3	Verdana	1	80	0	0	0	WM Stimuli\	0.9	1213.11111111111	1	604.7	1	1056.2	1	769.2	1	1123.2	1	784.7	0.6	807.333333333333	0.9	717.777777777778	12	317367	3	317356	14	26	317381	-999999	317370	0	34	TrialsPROC	BP_020_H17-T_BA.png	2	2	49	SessionSelectionList														nonlure	3	Body	2-Back	42	80	39	0	0	95	8	38	179210	2	14	59	177172	-1	178350	1	1178	3	3	2038	52	179224	-53	0																49												
WM080112	111716_fnca	2	1	1	133445900	1	75.035	75.031	2.0.10.147	2.0.10.242	2.0.10.242	1.0.0.439	7	234	2	3	Verdana	1	80	0	0	0	WM Stimuli\	0.9	1213.11111111111	1	604.7	1	1056.2	1	769.2	1	1123.2	1	784.7	0.6	807.333333333333	0.9	717.777777777778	12	317367	3	317356	14	26	317381	-999999	317370	0	34	TrialsPROC	BP_019_H14-T_BA.png	2	2	50	SessionSelectionList														nonlure	3	Body	2-Back	43	80	40	0	0	95	9	38	181769	2	14	59	179731	-1	180296	1	565	3	3	2038	52	181783	-53	0																50												
WM080112	111716_fnca	2	1	1	133445900	1	75.035	75.031	2.0.10.147	2.0.10.242	2.0.10.242	1.0.0.439	7	234	2	3	Verdana	1	80	0	0	0	WM Stimuli\	0.9	1213.11111111111	1	604.7	1	1056.2	1	769.2	1	1123.2	1	784.7	0.6	807.333333333333	0.9	717.777777777778	12	317367	3	317356	14	26	317381	-999999	317370	0	34	TrialsPROC	BP_020_H17-T_BA.png	2	2	51	SessionSelectionList														target	2	Body	2-Back	44	80	41	0	0	95	1	38	184328	2	14	59	182290	-1	183596	1	1306	2	2	2038	52	184342	-53	0																51												
WM080112	111716_fnca	2	1	1	133445900	1	75.035	75.031	2.0.10.147	2.0.10.242	2.0.10.242	1.0.0.439	7	234	2	3	Verdana	1	80	0	0	0	WM Stimuli\	0.9	1213.11111111111	1	604.7	1	1056.2	1	769.2	1	1123.2	1	784.7	0.6	807.333333333333	0.9	717.777777777778	12	317367	3	317356	14	26	317381	-999999	317370	0	34	TrialsPROC	BP_019_H14-T_BA.png	2	2	52	SessionSelectionList														target	2	Body	2-Back	45	80	42	0	0	95	2	38	186887	2	14	59	184849	-1	186644	1	1795	2	2	2038	52	186901	-53	0																52												
WM080112	111716_fnca	2	1	1	133445900	1	75.035	75.031	2.0.10.147	2.0.10.242	2.0.10.242	1.0.0.439	7	234	2	3	Verdana	1	80	0	0	0	WM Stimuli\	0.9	1213.11111111111	1	604.7	1	1056.2	1	769.2	1	1123.2	1	784.7	0.6	807.333333333333	0.9	717.777777777778	12	317367	3	317356	14	26	317381	-999999	317370	0	34	TrialsPROC	BP_024_H3-T_BA.png	2	2	53	SessionSelectionList														nonlure	3	Body	2-Back	46	80	42	0	1	95	2	39	189446	2	14	58	187407	-1	0	0	0	""	3	2039	53	189460	-54	0																53												
WM080112	111716_fnca	2	1	1	133445900	1	75.035	75.031	2.0.10.147	2.0.10.242	2.0.10.242	1.0.0.439	7	234	2	3	Verdana	1	80	0	0	0	WM Stimuli\	0.9	1213.11111111111	1	604.7	1	1056.2	1	769.2	1	1123.2	1	784.7	0.6	807.333333333333	0.9	717.777777777778	12	317367	3	317356	14	26	317381	-999999	317370	0	34	TrialsPROC	BP_024_H3-T_BA.png	2	2	54	SessionSelectionList														lure	3	Body	2-Back	47	80	43	0	0	95	1	39	192005	2	14	59	189966	-1	191226	1	1260	3	3	2039	53	192019	-54	0																54												
WM080112	111716_fnca	2	1	1	133445900	1	75.035	75.031	2.0.10.147	2.0.10.242	2.0.10.242	1.0.0.439	7	234	2	3	Verdana	1	80	0	0	0	WM Stimuli\	0.9	1213.11111111111	1	604.7	1	1056.2	1	769.2	1	1123.2	1	784.7	0.6	807.333333333333	0.9	717.777777777778	12	317367	3	317356	14	26	317381	-999999	317370	0	34	TrialsPROC	BP_025_H5-T_BA.png	2	2	55	SessionSelectionList														nonlure	3	Body	2-Back	48	80	44	0	0	95	2	39	194564	2	14	59	192525	-1	194208	1	1683	3	3	2039	53	194578	-54	0																55												
WM080112	111716_fnca	2	1	1	133445900	1	75.035	75.031	2.0.10.147	2.0.10.242	2.0.10.242	1.0.0.439	7	234	2	3	Verdana	1	80	0	0	0	WM Stimuli\	0.9	1213.11111111111	1	604.7	1	1056.2	1	769.2	1	1123.2	1	784.7	0.6	807.333333333333	0.9	717.777777777778	12	317367	3	317356	14	26	317381	-999999	317370	0	34	TrialsPROC	BP_023_H25-T_BA.png	2	2	56	SessionSelectionList														nonlure	3	Body	2-Back	49	80	45	0	0	95	3	39	197123	2	14	59	195084	-1	196215	1	1131	3	3	2039	53	197137	-54	0																56												
WM080112	111716_fnca	2	1	1	133445900	1	75.035	75.031	2.0.10.147	2.0.10.242	2.0.10.242	1.0.0.439	7	234	2	3	Verdana	1	80	0	0	0	WM Stimuli\	0.9	1213.11111111111	1	604.7	1	1056.2	1	769.2	1	1123.2	1	784.7	0.6	807.333333333333	0.9	717.777777777778	12	317367	3	317356	14	26	317381	-999999	317370	0	34	TrialsPROC	BP_022_H24-T_BA.png	2	2	57	SessionSelectionList														nonlure	3	Body	2-Back	50	80	46	0	0	95	4	39	199682	2	14	59	197643	-1	198649	1	1006	3	3	2039	53	199696	-54	0																57												
WM080112	111716_fnca	2	1	1	133445900	1	75.035	75.031	2.0.10.147	2.0.10.242	2.0.10.242	1.0.0.439	7	234	2	3	Verdana	1	80	0	0	0	WM Stimuli\	0.9	1213.11111111111	1	604.7	1	1056.2	1	769.2	1	1123.2	1	784.7	0.6	807.333333333333	0.9	717.777777777778	12	317367	3	317356	14	26	317381	-999999	317370	0	34	TrialsPROC	BP_022_H24-T_BA.png	2	2	58	SessionSelectionList														lure	3	Body	2-Back	51	80	47	0	0	95	5	39	202241	1	14	59	200202	-1	201196	1	994	3	3	2039	53	202255	-54	0																58												
WM080112	111716_fnca	2	1	1	133445900	1	75.035	75.031	2.0.10.147	2.0.10.242	2.0.10.242	1.0.0.439	7	234	2	3	Verdana	1	80	0	0	0	WM Stimuli\	0.9	1213.11111111111	1	604.7	1	1056.2	1	769.2	1	1123.2	1	784.7	0.6	807.333333333333	0.9	717.777777777778	12	317367	3	317356	14	26	317381	-999999	317370	0	35	Cue2BackPROC	""	2	2	59	SessionSelectionList									6	202708	-7	0																																													59												
WM080112	111716_fnca	2	1	1	133445900	1	75.035	75.031	2.0.10.147	2.0.10.242	2.0.10.242	1.0.0.439	7	234	2	3	Verdana	1	80	0	0	0	WM Stimuli\	0.9	1213.11111111111	1	604.7	1	1056.2	1	769.2	1	1123.2	1	784.7	0.6	807.333333333333	0.9	717.777777777778	12	317367	3	317356	14	26	317381	-999999	317370	0	36	TrialsPROC	PL_019_SCENE_05.png	2	2	60	SessionSelectionList														nonlure	3	Place	2-Back	52	80	48	0	0	95	6	40	207306	1	13	64	205266	-1	206992	1	1726	3	3	2040	53	207319	-54	0																60												
WM080112	111716_fnca	2	1	1	133445900	1	75.035	75.031	2.0.10.147	2.0.10.242	2.0.10.242	1.0.0.439	7	234	2	3	Verdana	1	80	0	0	0	WM Stimuli\	0.9	1213.11111111111	1	604.7	1	1056.2	1	769.2	1	1123.2	1	784.7	0.6	807.333333333333	0.9	717.777777777778	12	317367	3	317356	14	26	317381	-999999	317370	0	36	TrialsPROC	PL_017_SCENE_03.png	2	2	61	SessionSelectionList														nonlure	3	Place	2-Back	53	80	49	0	0	95	7	39	209878	1	14	73	207839	-1	208821	1	982	3	3	2039	53	209892	-54	0																61												
WM080112	111716_fnca	2	1	1	133445900	1	75.035	75.031	2.0.10.147	2.0.10.242	2.0.10.242	1.0.0.439	7	234	2	3	Verdana	1	80	0	0	0	WM Stimuli\	0.9	1213.11111111111	1	604.7	1	1056.2	1	769.2	1	1123.2	1	784.7	0.6	807.333333333333	0.9	717.777777777778	12	317367	3	317356	14	26	317381	-999999	317370	0	36	TrialsPROC	PL_017_SCENE_03.png	2	2	62	SessionSelectionList														lure	3	Place	2-Back	54	80	50	0	0	95	8	39	212450	2	14	72	210411	-1	211408	1	997	3	3	2039	53	212464	-54	0																62												
WM080112	111716_fnca	2	1	1	133445900	1	75.035	75.031	2.0.10.147	2.0.10.242	2.0.10.242	1.0.0.439	7	234	2	3	Verdana	1	80	0	0	0	WM Stimuli\	0.9	1213.11111111111	1	604.7	1	1056.2	1	769.2	1	1123.2	1	784.7	0.6	807.333333333333	0.9	717.777777777778	12	317367	3	317356	14	26	317381	-999999	317370	0	36	TrialsPROC	PL_016_SCENE_02.png	2	2	63	SessionSelectionList														nonlure	3	Place	2-Back	55	80	51	0	0	95	9	39	215022	2	14	72	212983	-1	213770	1	787	3	3	2039	53	215036	-54	0																63												
WM080112	111716_fnca	2	1	1	133445900	1	75.035	75.031	2.0.10.147	2.0.10.242	2.0.10.242	1.0.0.439	7	234	2	3	Verdana	1	80	0	0	0	WM Stimuli\	0.9	1213.11111111111	1	604.7	1	1056.2	1	769.2	1	1123.2	1	784.7	0.6	807.333333333333	0.9	717.777777777778	12	317367	3	317356	14	26	317381	-999999	317370	0	36	TrialsPROC	PL_015_SCENE_01.png	2	2	64	SessionSelectionList														nonlure	3	Place	2-Back	56	80	52	0	0	95	10	39	217595	1	14	73	215556	-1	216292	1	736	3	3	2039	53	217609	-54	0																64												
WM080112	111716_fnca	2	1	1	133445900	1	75.035	75.031	2.0.10.147	2.0.10.242	2.0.10.242	1.0.0.439	7	234	2	3	Verdana	1	80	0	0	0	WM Stimuli\	0.9	1213.11111111111	1	604.7	1	1056.2	1	769.2	1	1123.2	1	784.7	0.6	807.333333333333	0.9	717.777777777778	12	317367	3	317356	14	26	317381	-999999	317370	0	36	TrialsPROC	PL_016_SCENE_02.png	2	2	65	SessionSelectionList														target	2	Place	2-Back	57	80	53	0	0	95	1	39	220167	1	14	72	218128	-1	219278	1	1150	2	2	2039	53	220181	-54	0																65												
WM080112	111716_fnca	2	1	1	133445900	1	75.035	75.031	2.0.10.147	2.0.10.242	2.0.10.242	1.0.0.439	7	234	2	3	Verdana	1	80	0	0	0	WM Stimuli\	0.9	1213.11111111111	1	604.7	1	1056.2	1	769.2	1	1123.2	1	784.7	0.6	807.333333333333	0.9	717.777777777778	12	317367	3	317356	14	26	317381	-999999	317370	0	36	TrialsPROC	PL_015_SCENE_01.png	2	2	66	SessionSelectionList														target	2	Place	2-Back	58	80	54	0	0	95	2	39	222739	2	14	72	220700	-1	222162	1	1462	2	2	2039	53	222753	-54	0																66												
WM080112	111716_fnca	2	1	1	133445900	1	75.035	75.031	2.0.10.147	2.0.10.242	2.0.10.242	1.0.0.439	7	234	2	3	Verdana	1	80	0	0	0	WM Stimuli\	0.9	1213.11111111111	1	604.7	1	1056.2	1	769.2	1	1123.2	1	784.7	0.6	807.333333333333	0.9	717.777777777778	12	317367	3	317356	14	26	317381	-999999	317370	0	36	TrialsPROC	PL_020_SCENE_06.png	2	2	67	SessionSelectionList														nonlure	3	Place	2-Back	59	80	55	0	0	95	1	40	225312	1	13	72	223272	-1	224183	1	911	3	3	2040	53	225325	-54	0																67												
WM080112	111716_fnca	2	1	1	133445900	1	75.035	75.031	2.0.10.147	2.0.10.242	2.0.10.242	1.0.0.439	7	234	2	3	Verdana	1	80	0	0	0	WM Stimuli\	0.9	1213.11111111111	1	604.7	1	1056.2	1	769.2	1	1123.2	1	784.7	0.6	807.333333333333	0.9	717.777777777778	12	317367	3	317356	14	26	317381	-999999	317370	0	36	TrialsPROC	PL_020_SCENE_06.png	2	2	68	SessionSelectionList														lure	3	Place	2-Back	60	80	56	0	0	95	2	39	227884	2	14	73	225845	-1	227112	1	1267	3	3	2039	53	227898	-54	0																68												
WM080112	111716_fnca	2	1	1	133445900	1	75.035	75.031	2.0.10.147	2.0.10.242	2.0.10.242	1.0.0.439	7	234	2	3	Verdana	1	80	0	0	0	WM Stimuli\	0.9	1213.11111111111	1	604.7	1	1056.2	1	769.2	1	1123.2	1	784.7	0.6	807.333333333333	0.9	717.777777777778	12	317367	3	317356	14	26	317381	-999999	317370	0	36	TrialsPROC	PL_018_SCENE_04.png	2	2	69	SessionSelectionList														nonlure	3	Place	2-Back	61	80	57	0	0	95	3	39	230456	2	14	72	228417	-1	229631	1	1214	3	3	2039	53	230470	-54	0																69												
WM080112	111716_fnca	2	1	1	133445900	1	75.035	75.031	2.0.10.147	2.0.10.242	2.0.10.242	1.0.0.439	7	234	2	3	Verdana	1	80	0	0	0	WM Stimuli\	0.9	1213.11111111111	1	604.7	1	1056.2	1	769.2	1	1123.2	1	784.7	0.6	807.333333333333	0.9	717.777777777778	12	317367	3	317356	14	26	317381	-999999	317370	0	37	Fix15secPROC	""	2	2	70	SessionSelectionList																																															6	230923	-7	0							70												
WM080112	111716_fnca	2	1	1	133445900	1	75.035	75.031	2.0.10.147	2.0.10.242	2.0.10.242	1.0.0.439	7	234	2	3	Verdana	1	80	0	0	0	WM Stimuli\	0.9	1213.11111111111	1	604.7	1	1056.2	1	769.2	1	1123.2	1	784.7	0.6	807.333333333333	0.9	717.777777777778	12	317367	3	317356	14	26	317381	-999999	317370	0	38	Cue0BackPROC	FC_020_F10.png	2	2	71	SessionSelectionList																																										26	245943	-27	0												71												
WM080112	111716_fnca	2	1	1	133445900	1	75.035	75.031	2.0.10.147	2.0.10.242	2.0.10.242	1.0.0.439	7	234	2	3	Verdana	1	80	0	0	0	WM Stimuli\	0.9	1213.11111111111	1	604.7	1	1056.2	1	769.2	1	1123.2	1	784.7	0.6	807.333333333333	0.9	717.777777777778	12	317367	3	317356	14	26	317381	-999999	317370	0	39	TrialsPROC	FC_024_F12.png	2	2	72	SessionSelectionList														nonlure	3	Face	0-Back	62	80	58	0	0	95	4	39	250528	1	14	72	248489	-1	249358	1	869	3	3	2039	53	250542	-54	0																72												
WM080112	111716_fnca	2	1	1	133445900	1	75.035	75.031	2.0.10.147	2.0.10.242	2.0.10.242	1.0.0.439	7	234	2	3	Verdana	1	80	0	0	0	WM Stimuli\	0.9	1213.11111111111	1	604.7	1	1056.2	1	769.2	1	1123.2	1	784.7	0.6	807.333333333333	0.9	717.777777777778	12	317367	3	317356	14	26	317381	-999999	317370	0	39	TrialsPROC	FC_023_M12.png	2	2	73	SessionSelectionList														nonlure	3	Face	0-Back	63	80	59	0	0	95	5	39	253100	2	14	72	251061	-1	251705	1	644	3	3	2039	53	253114	-54	0																73												
WM080112	111716_fnca	2	1	1	133445900	1	75.035	75.031	2.0.10.147	2.0.10.242	2.0.10.242	1.0.0.439	7	234	2	3	Verdana	1	80	0	0	0	WM Stimuli\	0.9	1213.11111111111	1	604.7	1	1056.2	1	769.2	1	1123.2	1	784.7	0.6	807.333333333333	0.9	717.777777777778	12	317367	3	317356	14	26	317381	-999999	317370	0	39	TrialsPROC	FC_020_F10.png	2	2	74	SessionSelectionList														target	2	Face	0-Back	64	80	60	0	0	96	1	40	255673	1	13	72	253633	-1	254456	1	823	2	2	2040	53	255686	-54	0																74												
WM080112	111716_fnca	2	1	1	133445900	1	75.035	75.031	2.0.10.147	2.0.10.242	2.0.10.242	1.0.0.439	7	234	2	3	Verdana	1	80	0	0	0	WM Stimuli\	0.9	1213.11111111111	1	604.7	1	1056.2	1	769.2	1	1123.2	1	784.7	0.6	807.333333333333	0.9	717.777777777778	12	317367	3	317356	14	26	317381	-999999	317370	0	39	TrialsPROC	FC_024_F12.png	2	2	75	SessionSelectionList														lure	3	Face	0-Back	65	80	61	0	0	96	1	39	258245	1	14	73	256206	-1	256859	1	653	3	3	2039	53	258259	-54	0																75												
WM080112	111716_fnca	2	1	1	133445900	1	75.035	75.031	2.0.10.147	2.0.10.242	2.0.10.242	1.0.0.439	7	234	2	3	Verdana	1	80	0	0	0	WM Stimuli\	0.9	1213.11111111111	1	604.7	1	1056.2	1	769.2	1	1123.2	1	784.7	0.6	807.333333333333	0.9	717.777777777778	12	317367	3	317356	14	26	317381	-999999	317370	0	39	TrialsPROC	FC_020_F10.png	2	2	76	SessionSelectionList														target	2	Face	0-Back	66	80	62	0	0	96	1	39	260817	2	14	72	258778	-1	259567	1	789	2	2	2039	53	260831	-54	0																76												
WM080112	111716_fnca	2	1	1	133445900	1	75.035	75.031	2.0.10.147	2.0.10.242	2.0.10.242	1.0.0.439	7	234	2	3	Verdana	1	80	0	0	0	WM Stimuli\	0.9	1213.11111111111	1	604.7	1	1056.2	1	769.2	1	1123.2	1	784.7	0.6	807.333333333333	0.9	717.777777777778	12	317367	3	317356	14	26	317381	-999999	317370	0	39	TrialsPROC	FC_022_F11.png	2	2	77	SessionSelectionList														nonlure	3	Face	0-Back	67	80	63	0	0	96	1	39	263389	2	14	72	261350	-1	261905	1	555	3	3	2039	53	263403	-54	0																77												
WM080112	111716_fnca	2	1	1	133445900	1	75.035	75.031	2.0.10.147	2.0.10.242	2.0.10.242	1.0.0.439	7	234	2	3	Verdana	1	80	0	0	0	WM Stimuli\	0.9	1213.11111111111	1	604.7	1	1056.2	1	769.2	1	1123.2	1	784.7	0.6	807.333333333333	0.9	717.777777777778	12	317367	3	317356	14	26	317381	-999999	317370	0	39	TrialsPROC	FC_023_M12.png	2	2	78	SessionSelectionList														lure	3	Face	0-Back	68	80	64	0	0	96	2	39	265962	1	13	73	263923	-1	265147	1	1224	3	3	2039	52	265975	-53	0																78												
WM080112	111716_fnca	2	1	1	133445900	1	75.035	75.031	2.0.10.147	2.0.10.242	2.0.10.242	1.0.0.439	7	234	2	3	Verdana	1	80	0	0	0	WM Stimuli\	0.9	1213.11111111111	1	604.7	1	1056.2	1	769.2	1	1123.2	1	784.7	0.6	807.333333333333	0.9	717.777777777778	12	317367	3	317356	14	26	317381	-999999	317370	0	39	TrialsPROC	FC_021_M11.png	2	2	79	SessionSelectionList														nonlure	3	Face	0-Back	69	80	65	0	0	96	3	39	268534	1	14	72	266495	-1	267170	1	675	3	3	2039	53	268548	-54	0																79												
WM080112	111716_fnca	2	1	1	133445900	1	75.035	75.031	2.0.10.147	2.0.10.242	2.0.10.242	1.0.0.439	7	234	2	3	Verdana	1	80	0	0	0	WM Stimuli\	0.9	1213.11111111111	1	604.7	1	1056.2	1	769.2	1	1123.2	1	784.7	0.6	807.333333333333	0.9	717.777777777778	12	317367	3	317356	14	26	317381	-999999	317370	0	39	TrialsPROC	FC_021_M11.png	2	2	80	SessionSelectionList														lure	3	Face	0-Back	70	80	66	0	0	97	4	39	271106	2	14	72	269067	-1	269609	1	542	3	3	2039	53	271120	-54	0																80												
WM080112	111716_fnca	2	1	1	133445900	1	75.035	75.031	2.0.10.147	2.0.10.242	2.0.10.242	1.0.0.439	7	234	2	3	Verdana	1	80	0	0	0	WM Stimuli\	0.9	1213.11111111111	1	604.7	1	1056.2	1	769.2	1	1123.2	1	784.7	0.6	807.333333333333	0.9	717.777777777778	12	317367	3	317356	14	26	317381	-999999	317370	0	39	TrialsPROC	FC_019_M10.png	2	2	81	SessionSelectionList														nonlure	3	Face	0-Back	71	80	67	0	0	97	5	40	273679	1	13	72	271639	-1	272557	1	918	3	3	2040	53	273692	-54	0																81												
WM080112	111716_fnca	2	1	1	133445900	1	75.035	75.031	2.0.10.147	2.0.10.242	2.0.10.242	1.0.0.439	7	234	2	3	Verdana	1	80	0	0	0	WM Stimuli\	0.9	1213.11111111111	1	604.7	1	1056.2	1	769.2	1	1123.2	1	784.7	0.6	807.333333333333	0.9	717.777777777778	12	317367	3	317356	14	26	317381	-999999	317370	0	40	Cue0BackPROC	PL_021_SCENE_07.png	2	2	82	SessionSelectionList																																										19	274158	-20	0												82												
WM080112	111716_fnca	2	1	1	133445900	1	75.035	75.031	2.0.10.147	2.0.10.242	2.0.10.242	1.0.0.439	7	234	2	3	Verdana	1	80	0	0	0	WM Stimuli\	0.9	1213.11111111111	1	604.7	1	1056.2	1	769.2	1	1123.2	1	784.7	0.6	807.333333333333	0.9	717.777777777778	12	317367	3	317356	14	26	317381	-999999	317370	0	41	TrialsPROC	PL_025_SCENE_18.png	2	2	83	SessionSelectionList														nonlure	3	Place	0-Back	72	80	68	0	0	97	6	39	278743	1	14	65	276704	-1	278110	1	1406	3	3	2039	53	278757	-54	0																83												
WM080112	111716_fnca	2	1	1	133445900	1	75.035	75.031	2.0.10.147	2.0.10.242	2.0.10.242	1.0.0.439	7	234	2	3	Verdana	1	80	0	0	0	WM Stimuli\	0.9	1213.11111111111	1	604.7	1	1056.2	1	769.2	1	1123.2	1	784.7	0.6	807.333333333333	0.9	717.777777777778	12	317367	3	317356	14	26	317381	-999999	317370	0	41	TrialsPROC	PL_026_SCENE_24.png	2	2	84	SessionSelectionList														nonlure	3	Place	0-Back	73	80	69	0	0	97	7	39	281315	2	14	72	279276	-1	279982	1	706	3	3	2039	53	281329	-54	0																84												
WM080112	111716_fnca	2	1	1	133445900	1	75.035	75.031	2.0.10.147	2.0.10.242	2.0.10.242	1.0.0.439	7	234	2	3	Verdana	1	80	0	0	0	WM Stimuli\	0.9	1213.11111111111	1	604.7	1	1056.2	1	769.2	1	1123.2	1	784.7	0.6	807.333333333333	0.9	717.777777777778	12	317367	3	317356	14	26	317381	-999999	317370	0	41	TrialsPROC	PL_025_SCENE_18.png	2	2	85	SessionSelectionList														lure	3	Place	0-Back	74	80	70	0	0	97	8	39	283888	1	13	73	281849	-1	282622	1	773	3	3	2039	52	283901	-53	0																85												
WM080112	111716_fnca	2	1	1	133445900	1	75.035	75.031	2.0.10.147	2.0.10.242	2.0.10.242	1.0.0.439	7	234	2	3	Verdana	1	80	0	0	0	WM Stimuli\	0.9	1213.11111111111	1	604.7	1	1056.2	1	769.2	1	1123.2	1	784.7	0.6	807.333333333333	0.9	717.777777777778	12	317367	3	317356	14	26	317381	-999999	317370	0	41	TrialsPROC	PL_022_SCENE_08.png	2	2	86	SessionSelectionList														nonlure	3	Place	0-Back	75	80	71	0	0	97	9	39	286460	1	14	72	284421	-1	285066	1	645	3	3	2039	53	286474	-54	0																86												
WM080112	111716_fnca	2	1	1	133445900	1	75.035	75.031	2.0.10.147	2.0.10.242	2.0.10.242	1.0.0.439	7	234	2	3	Verdana	1	80	0	0	0	WM Stimuli\	0.9	1213.11111111111	1	604.7	1	1056.2	1	769.2	1	1123.2	1	784.7	0.6	807.333333333333	0.9	717.777777777778	12	317367	3	317356	14	26	317381	-999999	317370	0	41	TrialsPROC	PL_026_SCENE_24.png	2	2	87	SessionSelectionList														lure	3	Place	0-Back	76	80	72	0	0	97	10	39	289032	2	14	72	286993	-1	287596	1	603	3	3	2039	53	289046	-54	0																87												
WM080112	111716_fnca	2	1	1	133445900	1	75.035	75.031	2.0.10.147	2.0.10.242	2.0.10.242	1.0.0.439	7	234	2	3	Verdana	1	80	0	0	0	WM Stimuli\	0.9	1213.11111111111	1	604.7	1	1056.2	1	769.2	1	1123.2	1	784.7	0.6	807.333333333333	0.9	717.777777777778	12	317367	3	317356	14	26	317381	-999999	317370	0	41	TrialsPROC	PL_021_SCENE_07.png	2	2	88	SessionSelectionList														target	2	Place	0-Back	77	80	73	0	0	97	1	40	291605	1	13	72	289565	-1	290095	1	530	2	2	2040	53	291618	-54	0																88												
WM080112	111716_fnca	2	1	1	133445900	1	75.035	75.031	2.0.10.147	2.0.10.242	2.0.10.242	1.0.0.439	7	234	2	3	Verdana	1	80	0	0	0	WM Stimuli\	0.9	1213.11111111111	1	604.7	1	1056.2	1	769.2	1	1123.2	1	784.7	0.6	807.333333333333	0.9	717.777777777778	12	317367	3	317356	14	26	317381	-999999	317370	0	41	TrialsPROC	PL_021_SCENE_07.png	2	2	89	SessionSelectionList														target	2	Place	0-Back	78	80	74	0	0	97	2	39	294177	1	14	73	292138	-1	292866	1	728	2	2	2039	53	294191	-54	0																89												
WM080112	111716_fnca	2	1	1	133445900	1	75.035	75.031	2.0.10.147	2.0.10.242	2.0.10.242	1.0.0.439	7	234	2	3	Verdana	1	80	0	0	0	WM Stimuli\	0.9	1213.11111111111	1	604.7	1	1056.2	1	769.2	1	1123.2	1	784.7	0.6	807.333333333333	0.9	717.777777777778	12	317367	3	317356	14	26	317381	-999999	317370	0	41	TrialsPROC	PL_023_SCENE_09.png	2	2	90	SessionSelectionList														nonlure	3	Place	0-Back	79	80	75	0	0	97	1	39	296749	1	14	72	294710	-1	295351	1	641	3	3	2039	53	296763	-54	0																90												
WM080112	111716_fnca	2	1	1	133445900	1	75.035	75.031	2.0.10.147	2.0.10.242	2.0.10.242	1.0.0.439	7	234	2	3	Verdana	1	80	0	0	0	WM Stimuli\	0.9	1213.11111111111	1	604.7	1	1056.2	1	769.2	1	1123.2	1	784.7	0.6	807.333333333333	0.9	717.777777777778	12	317367	3	317356	14	26	317381	-999999	317370	0	41	TrialsPROC	PL_024_SCENE_10.png	2	2	91	SessionSelectionList														nonlure	3	Place	0-Back	80	80	76	0	0	97	2	39	299321	2	14	72	297282	-1	298476	1	1194	3	3	2039	53	299335	-54	0																91												
WM080112	111716_fnca	2	1	1	133445900	1	75.035	75.031	2.0.10.147	2.0.10.242	2.0.10.242	1.0.0.439	7	234	2	3	Verdana	1	80	0	0	0	WM Stimuli\	0.9	1213.11111111111	1	604.7	1	1056.2	1	769.2	1	1123.2	1	784.7	0.6	807.333333333333	0.9	717.777777777778	12	317367	3	317356	14	26	317381	-999999	317370	0	41	TrialsPROC	PL_022_SCENE_08.png	2	2	92	SessionSelectionList														lure	3	Place	0-Back	80	80	77	0	0	98	3	39	301894	1	13	73	299855	-1	300476	1	621	3	3	2039	52	301907	-53	0																92												
WM080112	111716_fnca	2	1	1	133445900	1	75.035	75.031	2.0.10.147	2.0.10.242	2.0.10.242	1.0.0.439	7	234	2	3	Verdana	1	80	0	0	0	WM Stimuli\	0.9	1213.11111111111	1	604.7	1	1056.2	1	769.2	1	1123.2	1	784.7	0.6	807.333333333333	0.9	717.777777777778	12	317367	3	317356	14	26	317381	-999999	317370	0	42	Fix15secPROC	""	2	2	93	SessionSelectionList																																															6	302361	-7	0							93												
