ExperimentName	HCPID	RunNumber	Subject	Session	RandomSeed	Group	Laptop.RefreshRate	ScannerD2.RefreshRate	StudioVersion	RuntimeVersion	RuntimeVersionExpected	ExperimentVersion	triggercode	Allowed	Target	Nontarget	FontStyle	RunTrialNumber[Session]	TrialsPerRun[Session]	TotalRespGreater200[Session]	ConsecRTLess200[Session]	ConsecNonResp[Session]	StimuliDir	ACC_2_Back_Body	Avg_RT_For_Correct_Trials_2_Back_Body	ACC_0_Back_Body	Avg_RT_For_Correct_Trials_0_Back_Body	ACC_2_Back_Face	Avg_RT_For_Correct_Trials_2_Back_Face	ACC_0_Back_Face	Avg_RT_For_Correct_Trials_0_Back_Face	ACC_2_Back_Place	Avg_RT_For_Correct_Trials_2_Back_Place	ACC_0_Back_Place	Avg_RT_For_Correct_Trials_0_Back_Place	ACC_2_Back_Tools	Avg_RT_For_Correct_Trials_2_Back_Tools	ACC_0_Back_Tools	Avg_RT_For_Correct_Trials_0_Back_Tools	ExpInstrucFeelFreeToRest.OnsetDelay	ExpInstrucFeelFreeToRest.OnsetTime	ExpInstrucFeelFreeToRest.DurationError	ExpInstrucFeelFreeToRest.StartTime	ExpInstrucFeelFreeToRest.OnsetToOnsetTime	FeelFreeToRest.OnsetDelay	FeelFreeToRest.OnsetTime	FeelFreeToRest.DurationError	FeelFreeToRest.StartTime	FeelFreeToRest.OnsetToOnsetTime	SessionSelectionList	Procedure[Block]	Stimulus[Block]	RunNumberFilterValue	SessionSelectionList.Cycle	SessionSelectionList.Sample	Running[Block]	IntroButtonMap.OnsetDelay	IntroButtonMap.OnsetTime	IntroButtonMap.DurationError	IntroButtonMap.OnsetToOnsetTime	GetReady.OnsetDelay	GetReady.OnsetTime	GetReady.DurationError	GetReady.OnsetToOnsetTime	Cue2Back.OnsetDelay	Cue2Back.OnsetTime	Cue2Back.DurationError	Cue2Back.OnsetToOnsetTime	Run1Block1	TargetType	CorrectResponse	StimType	BlockType	RunTrialNumber[Block]	TrialsPerRun[Block]	TotalRespGreater200[Block]	ConsecRTLess200[Block]	ConsecNonResp[Block]	ControlAcc	ConsecSameResp	ExperimenterWindow.OnsetDelay	ExperimenterWindow.OnsetTime	ExperimenterWindow.DurationError	ExperimenterWindow.OnsetToOnsetTime	Stim.OnsetDelay	Stim.OnsetTime	Stim.DurationError	Stim.RTTime	Stim.ACC	Stim.RT	Stim.RESP	Stim.CRESP	Stim.OnsetToOnsetTime	Fix.OnsetDelay	Fix.OnsetTime	Fix.DurationError	Fix.OnsetToOnsetTime	CueTarget.OnsetDelay	CueTarget.OnsetTime	CueTarget.DurationError	CueTarget.OnsetToOnsetTime	Run1Block2	Fix15sec.OnsetDelay	Fix15sec.OnsetTime	Fix15sec.DurationError	Fix15sec.OnsetToOnsetTime	Run1Block3	Run1Block4	Run1Block5	Run1Block6	Run1Block7	Run1Block8	Block	Procedure[Trial]	Stimulus[Trial]	ReadyList	Running[Trial]	ReadyList.Cycle	ReadyList.Sample	SyncSlide.OnsetDelay	SyncSlide.OnsetTime	SyncSlide.DurationError	SyncSlide.FinishTime	SyncSlide.OnsetToOnsetTime	Trial
WM080112	149741_fnca	2	1	1	-1489452672	1	75.032	75.032	2.0.10.147	2.0.10.242	2.0.10.242	1.0.0.439	7	234	2	3	Verdana	1	80	0	0	0	WM Stimuli\	0.9	1055.77777777778	1	762.7	1	1279.5	0.9	645.444444444444	0.9	1077.11111111111	1	577.9	1	1159.5	1	718.3	13	318604	2	318592	27	40	318631	-999999	318607	0	22	TRSyncPROC	""	2	2	1	SessionSelectionList	117	5375	-999999	0	37	9480	-999999	0																																																	1	InitialTR	4	1	ReadyList	1	1	13	25273	-14	27259	0	1
WM080112	149741_fnca	2	1	1	-1489452672	1	75.032	75.032	2.0.10.147	2.0.10.242	2.0.10.242	1.0.0.439	7	234	2	3	Verdana	1	80	0	0	0	WM Stimuli\	0.9	1055.77777777778	1	762.7	1	1279.5	0.9	645.444444444444	0.9	1077.11111111111	1	577.9	1	1159.5	1	718.3	13	318604	2	318592	27	40	318631	-999999	318607	0	22	TRSyncPROC	""	2	2	1	SessionSelectionList	117	5375	-999999	0	37	9480	-999999	0																																																	1	InitialTR	3	2	ReadyList	1	2	13	27273	-14	29259	0	2
WM080112	149741_fnca	2	1	1	-1489452672	1	75.032	75.032	2.0.10.147	2.0.10.242	2.0.10.242	1.0.0.439	7	234	2	3	Verdana	1	80	0	0	0	WM Stimuli\	0.9	1055.77777777778	1	762.7	1	1279.5	0.9	645.444444444444	0.9	1077.11111111111	1	577.9	1	1159.5	1	718.3	13	318604	2	318592	27	40	318631	-999999	318607	0	22	TRSyncPROC	""	2	2	1	SessionSelectionList	117	5375	-999999	0	37	9480	-999999	0																																																	1	InitialTR	2	3	ReadyList	1	3	12	29272	-13	31259	0	3
WM080112	149741_fnca	2	1	1	-1489452672	1	75.032	75.032	2.0.10.147	2.0.10.242	2.0.10.242	1.0.0.439	7	234	2	3	Verdana	1	80	0	0	0	WM Stimuli\	0.9	1055.77777777778	1	762.7	1	1279.5	0.9	645.444444444444	0.9	1077.11111111111	1	577.9	1	1159.5	1	718.3	13	318604	2	318592	27	40	318631	-999999	318607	0	22	TRSyncPROC	""	2	2	1	SessionSelectionList	117	5375	-999999	0	37	9480	-999999	0																																																	1	InitialTR	1	4	ReadyList	1	4	11	31271	-12	33259	0	4
WM080112	149741_fnca	2	1	1	-1489452672	1	75.032	75.032	2.0.10.147	2.0.10.242	2.0.10.242	1.0.0.439	7	234	2	3	Verdana	1	80	0	0	0	WM Stimuli\	0.9	1055.77777777778	1	762.7	1	1279.5	0.9	645.444444444444	0.9	1077.11111111111	1	577.9	1	1159.5	1	718.3	13	318604	2	318592	27	40	318631	-999999	318607	0	23	Cue2BackPROC	""	2	2	2	SessionSelectionList									10	33270	-11	0																																													2												
WM080112	149741_fnca	2	1	1	-1489452672	1	75.032	75.032	2.0.10.147	2.0.10.242	2.0.10.242	1.0.0.439	7	234	2	3	Verdana	1	80	0	0	0	WM Stimuli\	0.9	1055.77777777778	1	762.7	1	1279.5	0.9	645.444444444444	0.9	1077.11111111111	1	577.9	1	1159.5	1	718.3	13	318604	2	318592	27	40	318631	-999999	318607	0	24	TrialsPROC	TO_014_TOOL14_BA.png	2	2	3	SessionSelectionList														nonlure	3	Tools	2-Back	2	80	1	0	0	0	1	53	37895	3	13	82	35842	-1	37309	1	1467	3	3	2053	66	37908	-67	0																3												
WM080112	149741_fnca	2	1	1	-1489452672	1	75.032	75.032	2.0.10.147	2.0.10.242	2.0.10.242	1.0.0.439	7	234	2	3	Verdana	1	80	0	0	0	WM Stimuli\	0.9	1055.77777777778	1	762.7	1	1279.5	0.9	645.444444444444	0.9	1077.11111111111	1	577.9	1	1159.5	1	718.3	13	318604	2	318592	27	40	318631	-999999	318607	0	24	TrialsPROC	TO_013_TOOL13_BA.png	2	2	4	SessionSelectionList														nonlure	3	Tools	2-Back	3	80	2	0	0	0	2	39	40440	3	14	59	38401	-1	39622	1	1221	3	3	2039	53	40454	-54	0																4												
WM080112	149741_fnca	2	1	1	-1489452672	1	75.032	75.032	2.0.10.147	2.0.10.242	2.0.10.242	1.0.0.439	7	234	2	3	Verdana	1	80	0	0	0	WM Stimuli\	0.9	1055.77777777778	1	762.7	1	1279.5	0.9	645.444444444444	0.9	1077.11111111111	1	577.9	1	1159.5	1	718.3	13	318604	2	318592	27	40	318631	-999999	318607	0	24	TrialsPROC	TO_016_TOOL16_BA.png	2	2	5	SessionSelectionList														nonlure	3	Tools	2-Back	4	80	3	0	0	0	3	39	42999	2	14	59	40960	-1	42927	1	1967	3	3	2039	53	43013	-54	0																5												
WM080112	149741_fnca	2	1	1	-1489452672	1	75.032	75.032	2.0.10.147	2.0.10.242	2.0.10.242	1.0.0.439	7	234	2	3	Verdana	1	80	0	0	0	WM Stimuli\	0.9	1055.77777777778	1	762.7	1	1279.5	0.9	645.444444444444	0.9	1077.11111111111	1	577.9	1	1159.5	1	718.3	13	318604	2	318592	27	40	318631	-999999	318607	0	24	TrialsPROC	TO_014_TOOL14_BA.png	2	2	6	SessionSelectionList														lure	3	Tools	2-Back	5	80	4	0	0	0	4	40	45572	1	13	72	43532	-1	45059	1	1527	3	3	2040	53	45585	-54	0																6												
WM080112	149741_fnca	2	1	1	-1489452672	1	75.032	75.032	2.0.10.147	2.0.10.242	2.0.10.242	1.0.0.439	7	234	2	3	Verdana	1	80	0	0	0	WM Stimuli\	0.9	1055.77777777778	1	762.7	1	1279.5	0.9	645.444444444444	0.9	1077.11111111111	1	577.9	1	1159.5	1	718.3	13	318604	2	318592	27	40	318631	-999999	318607	0	24	TrialsPROC	TO_016_TOOL16_BA.png	2	2	7	SessionSelectionList														target	2	Tools	2-Back	6	80	5	0	0	0	1	39	48144	1	13	73	46105	-1	47626	1	1521	2	2	2039	52	48157	-53	0																7												
WM080112	149741_fnca	2	1	1	-1489452672	1	75.032	75.032	2.0.10.147	2.0.10.242	2.0.10.242	1.0.0.439	7	234	2	3	Verdana	1	80	0	0	0	WM Stimuli\	0.9	1055.77777777778	1	762.7	1	1279.5	0.9	645.444444444444	0.9	1077.11111111111	1	577.9	1	1159.5	1	718.3	13	318604	2	318592	27	40	318631	-999999	318607	0	24	TrialsPROC	TO_018_TOOL18_BA.png	2	2	8	SessionSelectionList														nonlure	3	Tools	2-Back	7	80	6	0	0	0	1	39	50703	1	13	59	48664	-1	49410	1	746	3	3	2039	52	50716	-53	0																8												
WM080112	149741_fnca	2	1	1	-1489452672	1	75.032	75.032	2.0.10.147	2.0.10.242	2.0.10.242	1.0.0.439	7	234	2	3	Verdana	1	80	0	0	0	WM Stimuli\	0.9	1055.77777777778	1	762.7	1	1279.5	0.9	645.444444444444	0.9	1077.11111111111	1	577.9	1	1159.5	1	718.3	13	318604	2	318592	27	40	318631	-999999	318607	0	24	TrialsPROC	TO_017_TOOL17_BA.png	2	2	9	SessionSelectionList														nonlure	3	Tools	2-Back	8	80	7	0	0	0	2	39	53262	1	13	59	51223	-1	51921	1	698	3	3	2039	52	53275	-53	0																9												
WM080112	149741_fnca	2	1	1	-1489452672	1	75.032	75.032	2.0.10.147	2.0.10.242	2.0.10.242	1.0.0.439	7	234	2	3	Verdana	1	80	0	0	0	WM Stimuli\	0.9	1055.77777777778	1	762.7	1	1279.5	0.9	645.444444444444	0.9	1077.11111111111	1	577.9	1	1159.5	1	718.3	13	318604	2	318592	27	40	318631	-999999	318607	0	24	TrialsPROC	TO_018_TOOL18_BA.png	2	2	10	SessionSelectionList														target	2	Tools	2-Back	9	80	8	0	0	0	1	40	55821	1	13	58	53781	-1	54427	1	646	2	2	2040	53	55834	-54	0																10												
WM080112	149741_fnca	2	1	1	-1489452672	1	75.032	75.032	2.0.10.147	2.0.10.242	2.0.10.242	1.0.0.439	7	234	2	3	Verdana	1	80	0	0	0	WM Stimuli\	0.9	1055.77777777778	1	762.7	1	1279.5	0.9	645.444444444444	0.9	1077.11111111111	1	577.9	1	1159.5	1	718.3	13	318604	2	318592	27	40	318631	-999999	318607	0	24	TrialsPROC	TO_015_TOOL15_BA.png	2	2	11	SessionSelectionList														nonlure	3	Tools	2-Back	10	80	9	0	0	0	1	40	58380	2	13	59	56340	-1	57061	1	721	3	3	2040	53	58393	-54	0																11												
WM080112	149741_fnca	2	1	1	-1489452672	1	75.032	75.032	2.0.10.147	2.0.10.242	2.0.10.242	1.0.0.439	7	234	2	3	Verdana	1	80	0	0	0	WM Stimuli\	0.9	1055.77777777778	1	762.7	1	1279.5	0.9	645.444444444444	0.9	1077.11111111111	1	577.9	1	1159.5	1	718.3	13	318604	2	318592	27	40	318631	-999999	318607	0	24	TrialsPROC	TO_017_TOOL17_BA.png	2	2	12	SessionSelectionList														lure	3	Tools	2-Back	11	80	10	0	0	0	2	39	60938	2	14	59	58899	-1	59980	1	1081	3	3	2039	53	60952	-54	0																12												
WM080112	149741_fnca	2	1	1	-1489452672	1	75.032	75.032	2.0.10.147	2.0.10.242	2.0.10.242	1.0.0.439	7	234	2	3	Verdana	1	80	0	0	0	WM Stimuli\	0.9	1055.77777777778	1	762.7	1	1279.5	0.9	645.444444444444	0.9	1077.11111111111	1	577.9	1	1159.5	1	718.3	13	318604	2	318592	27	40	318631	-999999	318607	0	25	Cue0BackPROC	BP_013_BP7_BA.png	2	2	13	SessionSelectionList																																										19	61418	-20	0												13												
WM080112	149741_fnca	2	1	1	-1489452672	1	75.032	75.032	2.0.10.147	2.0.10.242	2.0.10.242	1.0.0.439	7	234	2	3	Verdana	1	80	0	0	0	WM Stimuli\	0.9	1055.77777777778	1	762.7	1	1279.5	0.9	645.444444444444	0.9	1077.11111111111	1	577.9	1	1159.5	1	718.3	13	318604	2	318592	27	40	318631	-999999	318607	0	26	TrialsPROC	BP_015_H10-T_BA.png	2	2	14	SessionSelectionList														nonlure	3	Body	0-Back	12	80	11	0	0	100	3	39	65990	2	13	52	63951	-1	64925	1	974	3	3	2039	52	66003	-53	0																14												
WM080112	149741_fnca	2	1	1	-1489452672	1	75.032	75.032	2.0.10.147	2.0.10.242	2.0.10.242	1.0.0.439	7	234	2	3	Verdana	1	80	0	0	0	WM Stimuli\	0.9	1055.77777777778	1	762.7	1	1279.5	0.9	645.444444444444	0.9	1077.11111111111	1	577.9	1	1159.5	1	718.3	13	318604	2	318592	27	40	318631	-999999	318607	0	26	TrialsPROC	BP_018_H13-T_BA.png	2	2	15	SessionSelectionList														nonlure	3	Body	0-Back	13	80	12	0	0	100	4	39	68549	1	13	59	66510	-1	67344	1	834	3	3	2039	52	68562	-53	0																15												
WM080112	149741_fnca	2	1	1	-1489452672	1	75.032	75.032	2.0.10.147	2.0.10.242	2.0.10.242	1.0.0.439	7	234	2	3	Verdana	1	80	0	0	0	WM Stimuli\	0.9	1055.77777777778	1	762.7	1	1279.5	0.9	645.444444444444	0.9	1077.11111111111	1	577.9	1	1159.5	1	718.3	13	318604	2	318592	27	40	318631	-999999	318607	0	26	TrialsPROC	BP_014_BP9_BA.png	2	2	16	SessionSelectionList														nonlure	3	Body	0-Back	14	80	13	0	0	100	5	40	71108	1	13	58	69068	-1	70228	1	1160	3	3	2040	53	71121	-54	0																16												
WM080112	149741_fnca	2	1	1	-1489452672	1	75.032	75.032	2.0.10.147	2.0.10.242	2.0.10.242	1.0.0.439	7	234	2	3	Verdana	1	80	0	0	0	WM Stimuli\	0.9	1055.77777777778	1	762.7	1	1279.5	0.9	645.444444444444	0.9	1077.11111111111	1	577.9	1	1159.5	1	718.3	13	318604	2	318592	27	40	318631	-999999	318607	0	26	TrialsPROC	BP_018_H13-T_BA.png	2	2	17	SessionSelectionList														lure	3	Body	0-Back	15	80	14	0	0	100	6	38	73666	3	14	60	71628	-1	72731	1	1103	3	3	2038	52	73680	-53	0																17												
WM080112	149741_fnca	2	1	1	-1489452672	1	75.032	75.032	2.0.10.147	2.0.10.242	2.0.10.242	1.0.0.439	7	234	2	3	Verdana	1	80	0	0	0	WM Stimuli\	0.9	1055.77777777778	1	762.7	1	1279.5	0.9	645.444444444444	0.9	1077.11111111111	1	577.9	1	1159.5	1	718.3	13	318604	2	318592	27	40	318631	-999999	318607	0	26	TrialsPROC	BP_013_BP7_BA.png	2	2	18	SessionSelectionList														target	2	Body	0-Back	16	80	15	0	0	100	1	39	76239	2	13	72	74200	-1	75089	1	889	2	2	2039	52	76252	-53	0																18												
WM080112	149741_fnca	2	1	1	-1489452672	1	75.032	75.032	2.0.10.147	2.0.10.242	2.0.10.242	1.0.0.439	7	234	2	3	Verdana	1	80	0	0	0	WM Stimuli\	0.9	1055.77777777778	1	762.7	1	1279.5	0.9	645.444444444444	0.9	1077.11111111111	1	577.9	1	1159.5	1	718.3	13	318604	2	318592	27	40	318631	-999999	318607	0	26	TrialsPROC	BP_015_H10-T_BA.png	2	2	19	SessionSelectionList														lure	3	Body	0-Back	17	80	16	0	0	100	1	39	78798	1	13	59	76759	-1	77241	1	482	3	3	2039	52	78811	-53	0																19												
WM080112	149741_fnca	2	1	1	-1489452672	1	75.032	75.032	2.0.10.147	2.0.10.242	2.0.10.242	1.0.0.439	7	234	2	3	Verdana	1	80	0	0	0	WM Stimuli\	0.9	1055.77777777778	1	762.7	1	1279.5	0.9	645.444444444444	0.9	1077.11111111111	1	577.9	1	1159.5	1	718.3	13	318604	2	318592	27	40	318631	-999999	318607	0	26	TrialsPROC	BP_016_H11-T_BA.png	2	2	20	SessionSelectionList														nonlure	3	Body	0-Back	18	80	17	0	0	100	2	39	81370	1	14	72	79331	-1	79789	1	458	3	3	2039	53	81384	-54	0																20												
WM080112	149741_fnca	2	1	1	-1489452672	1	75.032	75.032	2.0.10.147	2.0.10.242	2.0.10.242	1.0.0.439	7	234	2	3	Verdana	1	80	0	0	0	WM Stimuli\	0.9	1055.77777777778	1	762.7	1	1279.5	0.9	645.444444444444	0.9	1077.11111111111	1	577.9	1	1159.5	1	718.3	13	318604	2	318592	27	40	318631	-999999	318607	0	26	TrialsPROC	BP_013_BP7_BA.png	2	2	21	SessionSelectionList														target	2	Body	0-Back	19	80	18	0	0	100	1	39	83942	2	14	72	81903	-1	82630	1	727	2	2	2039	53	83956	-54	0																21												
WM080112	149741_fnca	2	1	1	-1489452672	1	75.032	75.032	2.0.10.147	2.0.10.242	2.0.10.242	1.0.0.439	7	234	2	3	Verdana	1	80	0	0	0	WM Stimuli\	0.9	1055.77777777778	1	762.7	1	1279.5	0.9	645.444444444444	0.9	1077.11111111111	1	577.9	1	1159.5	1	718.3	13	318604	2	318592	27	40	318631	-999999	318607	0	26	TrialsPROC	BP_017_H12-T_BA.png	2	2	22	SessionSelectionList														nonlure	3	Body	0-Back	20	80	19	0	0	100	1	39	86501	2	14	59	84462	-1	85060	1	598	3	3	2039	53	86515	-54	0																22												
WM080112	149741_fnca	2	1	1	-1489452672	1	75.032	75.032	2.0.10.147	2.0.10.242	2.0.10.242	1.0.0.439	7	234	2	3	Verdana	1	80	0	0	0	WM Stimuli\	0.9	1055.77777777778	1	762.7	1	1279.5	0.9	645.444444444444	0.9	1077.11111111111	1	577.9	1	1159.5	1	718.3	13	318604	2	318592	27	40	318631	-999999	318607	0	26	TrialsPROC	BP_014_BP9_BA.png	2	2	23	SessionSelectionList														lure	3	Body	0-Back	21	80	20	0	0	100	2	39	89060	1	14	59	87021	-1	87423	1	402	3	3	2039	53	89074	-54	0																23												
WM080112	149741_fnca	2	1	1	-1489452672	1	75.032	75.032	2.0.10.147	2.0.10.242	2.0.10.242	1.0.0.439	7	234	2	3	Verdana	1	80	0	0	0	WM Stimuli\	0.9	1055.77777777778	1	762.7	1	1279.5	0.9	645.444444444444	0.9	1077.11111111111	1	577.9	1	1159.5	1	718.3	13	318604	2	318592	27	40	318631	-999999	318607	0	27	Fix15secPROC	""	2	2	24	SessionSelectionList																																															6	89527	-7	0							24												
WM080112	149741_fnca	2	1	1	-1489452672	1	75.032	75.032	2.0.10.147	2.0.10.242	2.0.10.242	1.0.0.439	7	234	2	3	Verdana	1	80	0	0	0	WM Stimuli\	0.9	1055.77777777778	1	762.7	1	1279.5	0.9	645.444444444444	0.9	1077.11111111111	1	577.9	1	1159.5	1	718.3	13	318604	2	318592	27	40	318631	-999999	318607	0	28	Cue2BackPROC	""	2	2	25	SessionSelectionList									13	104534	-14	0																																													25												
WM080112	149741_fnca	2	1	1	-1489452672	1	75.032	75.032	2.0.10.147	2.0.10.242	2.0.10.242	1.0.0.439	7	234	2	3	Verdana	1	80	0	0	0	WM Stimuli\	0.9	1055.77777777778	1	762.7	1	1279.5	0.9	645.444444444444	0.9	1077.11111111111	1	577.9	1	1159.5	1	718.3	13	318604	2	318592	27	40	318631	-999999	318607	0	29	TrialsPROC	FC_015_M8.png	2	2	26	SessionSelectionList														nonlure	3	Face	2-Back	22	80	21	0	0	100	3	40	109132	2	13	71	107092	-1	108519	1	1427	3	3	2040	53	109145	-54	0																26												
WM080112	149741_fnca	2	1	1	-1489452672	1	75.032	75.032	2.0.10.147	2.0.10.242	2.0.10.242	1.0.0.439	7	234	2	3	Verdana	1	80	0	0	0	WM Stimuli\	0.9	1055.77777777778	1	762.7	1	1279.5	0.9	645.444444444444	0.9	1077.11111111111	1	577.9	1	1159.5	1	718.3	13	318604	2	318592	27	40	318631	-999999	318607	0	29	TrialsPROC	FC_018_F9.png	2	2	27	SessionSelectionList														nonlure	3	Face	2-Back	23	80	22	0	0	100	4	39	111704	1	14	73	109665	-1	110851	1	1186	3	3	2039	53	111718	-54	0																27												
WM080112	149741_fnca	2	1	1	-1489452672	1	75.032	75.032	2.0.10.147	2.0.10.242	2.0.10.242	1.0.0.439	7	234	2	3	Verdana	1	80	0	0	0	WM Stimuli\	0.9	1055.77777777778	1	762.7	1	1279.5	0.9	645.444444444444	0.9	1077.11111111111	1	577.9	1	1159.5	1	718.3	13	318604	2	318592	27	40	318631	-999999	318607	0	29	TrialsPROC	FC_018_F9.png	2	2	28	SessionSelectionList														lure	3	Face	2-Back	24	80	23	0	0	100	5	39	114276	3	14	72	112237	-1	113458	1	1221	3	3	2039	53	114290	-54	0																28												
WM080112	149741_fnca	2	1	1	-1489452672	1	75.032	75.032	2.0.10.147	2.0.10.242	2.0.10.242	1.0.0.439	7	234	2	3	Verdana	1	80	0	0	0	WM Stimuli\	0.9	1055.77777777778	1	762.7	1	1279.5	0.9	645.444444444444	0.9	1077.11111111111	1	577.9	1	1159.5	1	718.3	13	318604	2	318592	27	40	318631	-999999	318607	0	29	TrialsPROC	FC_017_M9.png	2	2	29	SessionSelectionList														nonlure	3	Face	2-Back	25	80	24	0	0	100	6	39	116848	2	14	72	114809	-1	115830	1	1021	3	3	2039	53	116862	-54	0																29												
WM080112	149741_fnca	2	1	1	-1489452672	1	75.032	75.032	2.0.10.147	2.0.10.242	2.0.10.242	1.0.0.439	7	234	2	3	Verdana	1	80	0	0	0	WM Stimuli\	0.9	1055.77777777778	1	762.7	1	1279.5	0.9	645.444444444444	0.9	1077.11111111111	1	577.9	1	1159.5	1	718.3	13	318604	2	318592	27	40	318631	-999999	318607	0	29	TrialsPROC	FC_017_M9.png	2	2	30	SessionSelectionList														lure	3	Face	2-Back	26	80	25	0	0	100	7	39	119421	2	13	73	117382	-1	119065	1	1683	3	3	2039	52	119434	-53	0																30												
WM080112	149741_fnca	2	1	1	-1489452672	1	75.032	75.032	2.0.10.147	2.0.10.242	2.0.10.242	1.0.0.439	7	234	2	3	Verdana	1	80	0	0	0	WM Stimuli\	0.9	1055.77777777778	1	762.7	1	1279.5	0.9	645.444444444444	0.9	1077.11111111111	1	577.9	1	1159.5	1	718.3	13	318604	2	318592	27	40	318631	-999999	318607	0	29	TrialsPROC	FC_016_F8.png	2	2	31	SessionSelectionList														nonlure	3	Face	2-Back	27	80	26	0	0	100	8	39	121993	1	14	72	119954	-1	121347	1	1393	3	3	2039	53	122007	-54	0																31												
WM080112	149741_fnca	2	1	1	-1489452672	1	75.032	75.032	2.0.10.147	2.0.10.242	2.0.10.242	1.0.0.439	7	234	2	3	Verdana	1	80	0	0	0	WM Stimuli\	0.9	1055.77777777778	1	762.7	1	1279.5	0.9	645.444444444444	0.9	1077.11111111111	1	577.9	1	1159.5	1	718.3	13	318604	2	318592	27	40	318631	-999999	318607	0	29	TrialsPROC	FC_013_M7.png	2	2	32	SessionSelectionList														nonlure	3	Face	2-Back	28	80	27	0	0	100	9	39	124565	2	14	72	122526	-1	123531	1	1005	3	3	2039	53	124579	-54	0																32												
WM080112	149741_fnca	2	1	1	-1489452672	1	75.032	75.032	2.0.10.147	2.0.10.242	2.0.10.242	1.0.0.439	7	234	2	3	Verdana	1	80	0	0	0	WM Stimuli\	0.9	1055.77777777778	1	762.7	1	1279.5	0.9	645.444444444444	0.9	1077.11111111111	1	577.9	1	1159.5	1	718.3	13	318604	2	318592	27	40	318631	-999999	318607	0	29	TrialsPROC	FC_014_F7.png	2	2	33	SessionSelectionList														nonlure	3	Face	2-Back	29	80	28	0	0	100	10	39	127137	3	14	72	125098	-1	125897	1	799	3	3	2039	53	127151	-54	0																33												
WM080112	149741_fnca	2	1	1	-1489452672	1	75.032	75.032	2.0.10.147	2.0.10.242	2.0.10.242	1.0.0.439	7	234	2	3	Verdana	1	80	0	0	0	WM Stimuli\	0.9	1055.77777777778	1	762.7	1	1279.5	0.9	645.444444444444	0.9	1077.11111111111	1	577.9	1	1159.5	1	718.3	13	318604	2	318592	27	40	318631	-999999	318607	0	29	TrialsPROC	FC_013_M7.png	2	2	34	SessionSelectionList														target	2	Face	2-Back	30	80	29	0	0	100	1	39	129710	1	13	73	127671	-1	129060	1	1389	2	2	2039	52	129723	-53	0																34												
WM080112	149741_fnca	2	1	1	-1489452672	1	75.032	75.032	2.0.10.147	2.0.10.242	2.0.10.242	1.0.0.439	7	234	2	3	Verdana	1	80	0	0	0	WM Stimuli\	0.9	1055.77777777778	1	762.7	1	1279.5	0.9	645.444444444444	0.9	1077.11111111111	1	577.9	1	1159.5	1	718.3	13	318604	2	318592	27	40	318631	-999999	318607	0	29	TrialsPROC	FC_014_F7.png	2	2	35	SessionSelectionList														target	2	Face	2-Back	31	80	30	0	0	100	2	39	132282	2	14	72	130243	-1	131914	1	1671	2	2	2039	53	132296	-54	0																35												
WM080112	149741_fnca	2	1	1	-1489452672	1	75.032	75.032	2.0.10.147	2.0.10.242	2.0.10.242	1.0.0.439	7	234	2	3	Verdana	1	80	0	0	0	WM Stimuli\	0.9	1055.77777777778	1	762.7	1	1279.5	0.9	645.444444444444	0.9	1077.11111111111	1	577.9	1	1159.5	1	718.3	13	318604	2	318592	27	40	318631	-999999	318607	0	30	Cue0BackPROC	TO_019_TOOL19_BA.png	2	2	36	SessionSelectionList																																										19	132762	-20	0												36												
WM080112	149741_fnca	2	1	1	-1489452672	1	75.032	75.032	2.0.10.147	2.0.10.242	2.0.10.242	1.0.0.439	7	234	2	3	Verdana	1	80	0	0	0	WM Stimuli\	0.9	1055.77777777778	1	762.7	1	1279.5	0.9	645.444444444444	0.9	1077.11111111111	1	577.9	1	1159.5	1	718.3	13	318604	2	318592	27	40	318631	-999999	318607	0	31	TrialsPROC	TO_019_TOOL19_BA.png	2	2	37	SessionSelectionList														target	2	Tools	0-Back	32	80	31	0	0	100	3	39	137333	3	14	51	135294	-1	136906	1	1612	2	2	2039	53	137347	-54	0																37												
WM080112	149741_fnca	2	1	1	-1489452672	1	75.032	75.032	2.0.10.147	2.0.10.242	2.0.10.242	1.0.0.439	7	234	2	3	Verdana	1	80	0	0	0	WM Stimuli\	0.9	1055.77777777778	1	762.7	1	1279.5	0.9	645.444444444444	0.9	1077.11111111111	1	577.9	1	1159.5	1	718.3	13	318604	2	318592	27	40	318631	-999999	318607	0	31	TrialsPROC	TO_024_TOOL24_BA.png	2	2	38	SessionSelectionList														nonlure	3	Tools	0-Back	33	80	32	0	0	100	1	39	139892	3	14	59	137853	-1	138468	1	615	3	3	2039	53	139906	-54	0																38												
WM080112	149741_fnca	2	1	1	-1489452672	1	75.032	75.032	2.0.10.147	2.0.10.242	2.0.10.242	1.0.0.439	7	234	2	3	Verdana	1	80	0	0	0	WM Stimuli\	0.9	1055.77777777778	1	762.7	1	1279.5	0.9	645.444444444444	0.9	1077.11111111111	1	577.9	1	1159.5	1	718.3	13	318604	2	318592	27	40	318631	-999999	318607	0	31	TrialsPROC	TO_019_TOOL19_BA.png	2	2	39	SessionSelectionList														target	2	Tools	0-Back	34	80	33	0	0	100	1	39	142451	2	14	59	140412	-1	141256	1	844	2	2	2039	53	142465	-54	0																39												
WM080112	149741_fnca	2	1	1	-1489452672	1	75.032	75.032	2.0.10.147	2.0.10.242	2.0.10.242	1.0.0.439	7	234	2	3	Verdana	1	80	0	0	0	WM Stimuli\	0.9	1055.77777777778	1	762.7	1	1279.5	0.9	645.444444444444	0.9	1077.11111111111	1	577.9	1	1159.5	1	718.3	13	318604	2	318592	27	40	318631	-999999	318607	0	31	TrialsPROC	TO_023_TOOL23_BA.png	2	2	40	SessionSelectionList														nonlure	3	Tools	0-Back	35	80	34	0	0	100	1	39	145010	2	14	59	142971	-1	143587	1	616	3	3	2039	53	145024	-54	0																40												
WM080112	149741_fnca	2	1	1	-1489452672	1	75.032	75.032	2.0.10.147	2.0.10.242	2.0.10.242	1.0.0.439	7	234	2	3	Verdana	1	80	0	0	0	WM Stimuli\	0.9	1055.77777777778	1	762.7	1	1279.5	0.9	645.444444444444	0.9	1077.11111111111	1	577.9	1	1159.5	1	718.3	13	318604	2	318592	27	40	318631	-999999	318607	0	31	TrialsPROC	TO_020_TOOL20_BA.png	2	2	41	SessionSelectionList														nonlure	3	Tools	0-Back	36	80	35	0	0	100	2	39	147569	1	14	59	145530	-1	146005	1	475	3	3	2039	53	147583	-54	0																41												
WM080112	149741_fnca	2	1	1	-1489452672	1	75.032	75.032	2.0.10.147	2.0.10.242	2.0.10.242	1.0.0.439	7	234	2	3	Verdana	1	80	0	0	0	WM Stimuli\	0.9	1055.77777777778	1	762.7	1	1279.5	0.9	645.444444444444	0.9	1077.11111111111	1	577.9	1	1159.5	1	718.3	13	318604	2	318592	27	40	318631	-999999	318607	0	31	TrialsPROC	TO_020_TOOL20_BA.png	2	2	42	SessionSelectionList														lure	3	Tools	0-Back	37	80	36	0	0	100	3	39	150128	2	13	59	148089	-1	148704	1	615	3	3	2039	52	150141	-53	0																42												
WM080112	149741_fnca	2	1	1	-1489452672	1	75.032	75.032	2.0.10.147	2.0.10.242	2.0.10.242	1.0.0.439	7	234	2	3	Verdana	1	80	0	0	0	WM Stimuli\	0.9	1055.77777777778	1	762.7	1	1279.5	0.9	645.444444444444	0.9	1077.11111111111	1	577.9	1	1159.5	1	718.3	13	318604	2	318592	27	40	318631	-999999	318607	0	31	TrialsPROC	TO_022_TOOL22_BA.png	2	2	43	SessionSelectionList														nonlure	3	Tools	0-Back	38	80	37	0	0	100	4	39	152687	1	13	59	150648	-1	151417	1	769	3	3	2039	52	152700	-53	0																43												
WM080112	149741_fnca	2	1	1	-1489452672	1	75.032	75.032	2.0.10.147	2.0.10.242	2.0.10.242	1.0.0.439	7	234	2	3	Verdana	1	80	0	0	0	WM Stimuli\	0.9	1055.77777777778	1	762.7	1	1279.5	0.9	645.444444444444	0.9	1077.11111111111	1	577.9	1	1159.5	1	718.3	13	318604	2	318592	27	40	318631	-999999	318607	0	31	TrialsPROC	TO_022_TOOL22_BA.png	2	2	44	SessionSelectionList														lure	3	Tools	0-Back	39	80	38	0	0	100	5	39	155246	2	13	59	153207	-1	153700	1	493	3	3	2039	52	155259	-53	0																44												
WM080112	149741_fnca	2	1	1	-1489452672	1	75.032	75.032	2.0.10.147	2.0.10.242	2.0.10.242	1.0.0.439	7	234	2	3	Verdana	1	80	0	0	0	WM Stimuli\	0.9	1055.77777777778	1	762.7	1	1279.5	0.9	645.444444444444	0.9	1077.11111111111	1	577.9	1	1159.5	1	718.3	13	318604	2	318592	27	40	318631	-999999	318607	0	31	TrialsPROC	TO_021_TOOL21_BA.png	2	2	45	SessionSelectionList														nonlure	3	Tools	0-Back	40	80	39	0	0	100	6	40	157805	1	13	58	155765	-1	156483	1	718	3	3	2040	53	157818	-54	0																45												
WM080112	149741_fnca	2	1	1	-1489452672	1	75.032	75.032	2.0.10.147	2.0.10.242	2.0.10.242	1.0.0.439	7	234	2	3	Verdana	1	80	0	0	0	WM Stimuli\	0.9	1055.77777777778	1	762.7	1	1279.5	0.9	645.444444444444	0.9	1077.11111111111	1	577.9	1	1159.5	1	718.3	13	318604	2	318592	27	40	318631	-999999	318607	0	31	TrialsPROC	TO_021_TOOL21_BA.png	2	2	46	SessionSelectionList														lure	3	Tools	0-Back	41	80	40	0	0	100	7	39	160363	2	14	59	158324	-1	158750	1	426	3	3	2039	53	160377	-54	0																46												
WM080112	149741_fnca	2	1	1	-1489452672	1	75.032	75.032	2.0.10.147	2.0.10.242	2.0.10.242	1.0.0.439	7	234	2	3	Verdana	1	80	0	0	0	WM Stimuli\	0.9	1055.77777777778	1	762.7	1	1279.5	0.9	645.444444444444	0.9	1077.11111111111	1	577.9	1	1159.5	1	718.3	13	318604	2	318592	27	40	318631	-999999	318607	0	32	Fix15secPROC	""	2	2	47	SessionSelectionList																																															6	160830	-7	0							47												
WM080112	149741_fnca	2	1	1	-1489452672	1	75.032	75.032	2.0.10.147	2.0.10.242	2.0.10.242	1.0.0.439	7	234	2	3	Verdana	1	80	0	0	0	WM Stimuli\	0.9	1055.77777777778	1	762.7	1	1279.5	0.9	645.444444444444	0.9	1077.11111111111	1	577.9	1	1159.5	1	718.3	13	318604	2	318592	27	40	318631	-999999	318607	0	33	Cue2BackPROC	""	2	2	48	SessionSelectionList									13	175837	-14	0																																													48												
WM080112	149741_fnca	2	1	1	-1489452672	1	75.032	75.032	2.0.10.147	2.0.10.242	2.0.10.242	1.0.0.439	7	234	2	3	Verdana	1	80	0	0	0	WM Stimuli\	0.9	1055.77777777778	1	762.7	1	1279.5	0.9	645.444444444444	0.9	1077.11111111111	1	577.9	1	1159.5	1	718.3	13	318604	2	318592	27	40	318631	-999999	318607	0	34	TrialsPROC	BP_020_H17-T_BA.png	2	2	49	SessionSelectionList														nonlure	3	Body	2-Back	42	80	41	0	0	100	8	39	180422	1	13	59	178383	-1	180065	1	1682	3	3	2039	52	180435	-53	0																49												
WM080112	149741_fnca	2	1	1	-1489452672	1	75.032	75.032	2.0.10.147	2.0.10.242	2.0.10.242	1.0.0.439	7	234	2	3	Verdana	1	80	0	0	0	WM Stimuli\	0.9	1055.77777777778	1	762.7	1	1279.5	0.9	645.444444444444	0.9	1077.11111111111	1	577.9	1	1159.5	1	718.3	13	318604	2	318592	27	40	318631	-999999	318607	0	34	TrialsPROC	BP_019_H14-T_BA.png	2	2	50	SessionSelectionList														nonlure	3	Body	2-Back	43	80	42	0	0	100	9	39	182981	1	13	59	180942	-1	181876	1	934	3	3	2039	52	182994	-53	0																50												
WM080112	149741_fnca	2	1	1	-1489452672	1	75.032	75.032	2.0.10.147	2.0.10.242	2.0.10.242	1.0.0.439	7	234	2	3	Verdana	1	80	0	0	0	WM Stimuli\	0.9	1055.77777777778	1	762.7	1	1279.5	0.9	645.444444444444	0.9	1077.11111111111	1	577.9	1	1159.5	1	718.3	13	318604	2	318592	27	40	318631	-999999	318607	0	34	TrialsPROC	BP_020_H17-T_BA.png	2	2	51	SessionSelectionList														target	2	Body	2-Back	44	80	43	0	0	100	1	39	185540	1	13	59	183501	-1	184242	1	741	2	2	2039	52	185553	-53	0																51												
WM080112	149741_fnca	2	1	1	-1489452672	1	75.032	75.032	2.0.10.147	2.0.10.242	2.0.10.242	1.0.0.439	7	234	2	3	Verdana	1	80	0	0	0	WM Stimuli\	0.9	1055.77777777778	1	762.7	1	1279.5	0.9	645.444444444444	0.9	1077.11111111111	1	577.9	1	1159.5	1	718.3	13	318604	2	318592	27	40	318631	-999999	318607	0	34	TrialsPROC	BP_019_H14-T_BA.png	2	2	52	SessionSelectionList														target	2	Body	2-Back	45	80	44	0	0	100	2	39	188112	1	14	72	186073	-1	186610	1	537	2	2	2039	53	188126	-54	0																52												
WM080112	149741_fnca	2	1	1	-1489452672	1	75.032	75.032	2.0.10.147	2.0.10.242	2.0.10.242	1.0.0.439	7	234	2	3	Verdana	1	80	0	0	0	WM Stimuli\	0.9	1055.77777777778	1	762.7	1	1279.5	0.9	645.444444444444	0.9	1077.11111111111	1	577.9	1	1159.5	1	718.3	13	318604	2	318592	27	40	318631	-999999	318607	0	34	TrialsPROC	BP_024_H3-T_BA.png	2	2	53	SessionSelectionList														nonlure	3	Body	2-Back	46	80	45	0	0	100	1	39	190671	1	13	59	188632	-1	189648	1	1016	3	3	2039	52	190684	-53	0																53												
WM080112	149741_fnca	2	1	1	-1489452672	1	75.032	75.032	2.0.10.147	2.0.10.242	2.0.10.242	1.0.0.439	7	234	2	3	Verdana	1	80	0	0	0	WM Stimuli\	0.9	1055.77777777778	1	762.7	1	1279.5	0.9	645.444444444444	0.9	1077.11111111111	1	577.9	1	1159.5	1	718.3	13	318604	2	318592	27	40	318631	-999999	318607	0	34	TrialsPROC	BP_024_H3-T_BA.png	2	2	54	SessionSelectionList														lure	3	Body	2-Back	47	80	46	0	0	100	1	39	193230	2	13	59	191191	-1	192010	0	819	2	3	2039	52	193243	-53	0																54												
WM080112	149741_fnca	2	1	1	-1489452672	1	75.032	75.032	2.0.10.147	2.0.10.242	2.0.10.242	1.0.0.439	7	234	2	3	Verdana	1	80	0	0	0	WM Stimuli\	0.9	1055.77777777778	1	762.7	1	1279.5	0.9	645.444444444444	0.9	1077.11111111111	1	577.9	1	1159.5	1	718.3	13	318604	2	318592	27	40	318631	-999999	318607	0	34	TrialsPROC	BP_025_H5-T_BA.png	2	2	55	SessionSelectionList														nonlure	3	Body	2-Back	48	80	47	0	0	100	1	39	195789	2	13	59	193750	-1	194926	1	1176	3	3	2039	52	195802	-53	0																55												
WM080112	149741_fnca	2	1	1	-1489452672	1	75.032	75.032	2.0.10.147	2.0.10.242	2.0.10.242	1.0.0.439	7	234	2	3	Verdana	1	80	0	0	0	WM Stimuli\	0.9	1055.77777777778	1	762.7	1	1279.5	0.9	645.444444444444	0.9	1077.11111111111	1	577.9	1	1159.5	1	718.3	13	318604	2	318592	27	40	318631	-999999	318607	0	34	TrialsPROC	BP_023_H25-T_BA.png	2	2	56	SessionSelectionList														nonlure	3	Body	2-Back	49	80	48	0	0	100	2	39	198361	2	14	72	196322	-1	197148	1	826	3	3	2039	53	198375	-54	0																56												
WM080112	149741_fnca	2	1	1	-1489452672	1	75.032	75.032	2.0.10.147	2.0.10.242	2.0.10.242	1.0.0.439	7	234	2	3	Verdana	1	80	0	0	0	WM Stimuli\	0.9	1055.77777777778	1	762.7	1	1279.5	0.9	645.444444444444	0.9	1077.11111111111	1	577.9	1	1159.5	1	718.3	13	318604	2	318592	27	40	318631	-999999	318607	0	34	TrialsPROC	BP_022_H24-T_BA.png	2	2	57	SessionSelectionList														nonlure	3	Body	2-Back	50	80	49	0	0	100	3	39	200920	1	14	59	198881	-1	199787	1	906	3	3	2039	53	200934	-54	0																57												
WM080112	149741_fnca	2	1	1	-1489452672	1	75.032	75.032	2.0.10.147	2.0.10.242	2.0.10.242	1.0.0.439	7	234	2	3	Verdana	1	80	0	0	0	WM Stimuli\	0.9	1055.77777777778	1	762.7	1	1279.5	0.9	645.444444444444	0.9	1077.11111111111	1	577.9	1	1159.5	1	718.3	13	318604	2	318592	27	40	318631	-999999	318607	0	34	TrialsPROC	BP_022_H24-T_BA.png	2	2	58	SessionSelectionList														lure	3	Body	2-Back	51	80	50	0	0	100	4	39	203479	2	13	59	201440	-1	203124	1	1684	3	3	2039	52	203492	-53	0																58												
WM080112	149741_fnca	2	1	1	-1489452672	1	75.032	75.032	2.0.10.147	2.0.10.242	2.0.10.242	1.0.0.439	7	234	2	3	Verdana	1	80	0	0	0	WM Stimuli\	0.9	1055.77777777778	1	762.7	1	1279.5	0.9	645.444444444444	0.9	1077.11111111111	1	577.9	1	1159.5	1	718.3	13	318604	2	318592	27	40	318631	-999999	318607	0	35	Cue2BackPROC	""	2	2	59	SessionSelectionList									5	203945	-6	0																																													59												
WM080112	149741_fnca	2	1	1	-1489452672	1	75.032	75.032	2.0.10.147	2.0.10.242	2.0.10.242	1.0.0.439	7	234	2	3	Verdana	1	80	0	0	0	WM Stimuli\	0.9	1055.77777777778	1	762.7	1	1279.5	0.9	645.444444444444	0.9	1077.11111111111	1	577.9	1	1159.5	1	718.3	13	318604	2	318592	27	40	318631	-999999	318607	0	36	TrialsPROC	PL_019_SCENE_05.png	2	2	60	SessionSelectionList														nonlure	3	Place	2-Back	52	80	50	0	1	100	4	39	208543	3	14	64	206504	-1	0	0	0	""	3	2039	53	208557	-54	0																60												
WM080112	149741_fnca	2	1	1	-1489452672	1	75.032	75.032	2.0.10.147	2.0.10.242	2.0.10.242	1.0.0.439	7	234	2	3	Verdana	1	80	0	0	0	WM Stimuli\	0.9	1055.77777777778	1	762.7	1	1279.5	0.9	645.444444444444	0.9	1077.11111111111	1	577.9	1	1159.5	1	718.3	13	318604	2	318592	27	40	318631	-999999	318607	0	36	TrialsPROC	PL_017_SCENE_03.png	2	2	61	SessionSelectionList														nonlure	3	Place	2-Back	53	80	51	0	0	100	1	40	211116	2	13	72	209076	-1	209989	1	913	3	3	2040	53	211129	-54	0																61												
WM080112	149741_fnca	2	1	1	-1489452672	1	75.032	75.032	2.0.10.147	2.0.10.242	2.0.10.242	1.0.0.439	7	234	2	3	Verdana	1	80	0	0	0	WM Stimuli\	0.9	1055.77777777778	1	762.7	1	1279.5	0.9	645.444444444444	0.9	1077.11111111111	1	577.9	1	1159.5	1	718.3	13	318604	2	318592	27	40	318631	-999999	318607	0	36	TrialsPROC	PL_017_SCENE_03.png	2	2	62	SessionSelectionList														lure	3	Place	2-Back	54	80	52	0	0	100	2	39	213688	1	13	73	211649	-1	212640	1	991	3	3	2039	52	213701	-53	0																62												
WM080112	149741_fnca	2	1	1	-1489452672	1	75.032	75.032	2.0.10.147	2.0.10.242	2.0.10.242	1.0.0.439	7	234	2	3	Verdana	1	80	0	0	0	WM Stimuli\	0.9	1055.77777777778	1	762.7	1	1279.5	0.9	645.444444444444	0.9	1077.11111111111	1	577.9	1	1159.5	1	718.3	13	318604	2	318592	27	40	318631	-999999	318607	0	36	TrialsPROC	PL_016_SCENE_02.png	2	2	63	SessionSelectionList														nonlure	3	Place	2-Back	55	80	53	0	0	100	3	39	216260	3	14	72	214221	-1	215350	1	1129	3	3	2039	53	216274	-54	0																63												
WM080112	149741_fnca	2	1	1	-1489452672	1	75.032	75.032	2.0.10.147	2.0.10.242	2.0.10.242	1.0.0.439	7	234	2	3	Verdana	1	80	0	0	0	WM Stimuli\	0.9	1055.77777777778	1	762.7	1	1279.5	0.9	645.444444444444	0.9	1077.11111111111	1	577.9	1	1159.5	1	718.3	13	318604	2	318592	27	40	318631	-999999	318607	0	36	TrialsPROC	PL_015_SCENE_01.png	2	2	64	SessionSelectionList														nonlure	3	Place	2-Back	56	80	54	0	0	100	4	39	218832	2	14	72	216793	-1	217833	1	1040	3	3	2039	53	218846	-54	0																64												
WM080112	149741_fnca	2	1	1	-1489452672	1	75.032	75.032	2.0.10.147	2.0.10.242	2.0.10.242	1.0.0.439	7	234	2	3	Verdana	1	80	0	0	0	WM Stimuli\	0.9	1055.77777777778	1	762.7	1	1279.5	0.9	645.444444444444	0.9	1077.11111111111	1	577.9	1	1159.5	1	718.3	13	318604	2	318592	27	40	318631	-999999	318607	0	36	TrialsPROC	PL_016_SCENE_02.png	2	2	65	SessionSelectionList														target	2	Place	2-Back	57	80	55	0	0	100	1	40	221405	2	13	72	219365	-1	220979	1	1614	2	2	2040	53	221418	-54	0																65												
WM080112	149741_fnca	2	1	1	-1489452672	1	75.032	75.032	2.0.10.147	2.0.10.242	2.0.10.242	1.0.0.439	7	234	2	3	Verdana	1	80	0	0	0	WM Stimuli\	0.9	1055.77777777778	1	762.7	1	1279.5	0.9	645.444444444444	0.9	1077.11111111111	1	577.9	1	1159.5	1	718.3	13	318604	2	318592	27	40	318631	-999999	318607	0	36	TrialsPROC	PL_015_SCENE_01.png	2	2	66	SessionSelectionList														target	2	Place	2-Back	58	80	56	0	0	100	2	39	223977	1	14	73	221938	-1	223125	1	1187	2	2	2039	53	223991	-54	0																66												
WM080112	149741_fnca	2	1	1	-1489452672	1	75.032	75.032	2.0.10.147	2.0.10.242	2.0.10.242	1.0.0.439	7	234	2	3	Verdana	1	80	0	0	0	WM Stimuli\	0.9	1055.77777777778	1	762.7	1	1279.5	0.9	645.444444444444	0.9	1077.11111111111	1	577.9	1	1159.5	1	718.3	13	318604	2	318592	27	40	318631	-999999	318607	0	36	TrialsPROC	PL_020_SCENE_06.png	2	2	67	SessionSelectionList														nonlure	3	Place	2-Back	59	80	57	0	0	100	1	39	226549	2	14	72	224510	-1	225663	1	1153	3	3	2039	53	226563	-54	0																67												
WM080112	149741_fnca	2	1	1	-1489452672	1	75.032	75.032	2.0.10.147	2.0.10.242	2.0.10.242	1.0.0.439	7	234	2	3	Verdana	1	80	0	0	0	WM Stimuli\	0.9	1055.77777777778	1	762.7	1	1279.5	0.9	645.444444444444	0.9	1077.11111111111	1	577.9	1	1159.5	1	718.3	13	318604	2	318592	27	40	318631	-999999	318607	0	36	TrialsPROC	PL_020_SCENE_06.png	2	2	68	SessionSelectionList														lure	3	Place	2-Back	60	80	58	0	0	100	2	39	229121	2	14	72	227082	-1	227829	1	747	3	3	2039	53	229135	-54	0																68												
WM080112	149741_fnca	2	1	1	-1489452672	1	75.032	75.032	2.0.10.147	2.0.10.242	2.0.10.242	1.0.0.439	7	234	2	3	Verdana	1	80	0	0	0	WM Stimuli\	0.9	1055.77777777778	1	762.7	1	1279.5	0.9	645.444444444444	0.9	1077.11111111111	1	577.9	1	1159.5	1	718.3	13	318604	2	318592	27	40	318631	-999999	318607	0	36	TrialsPROC	PL_018_SCENE_04.png	2	2	69	SessionSelectionList														nonlure	3	Place	2-Back	61	80	59	0	0	100	3	39	231694	2	13	73	229655	-1	230575	1	920	3	3	2039	52	231707	-53	0																69												
WM080112	149741_fnca	2	1	1	-1489452672	1	75.032	75.032	2.0.10.147	2.0.10.242	2.0.10.242	1.0.0.439	7	234	2	3	Verdana	1	80	0	0	0	WM Stimuli\	0.9	1055.77777777778	1	762.7	1	1279.5	0.9	645.444444444444	0.9	1077.11111111111	1	577.9	1	1159.5	1	718.3	13	318604	2	318592	27	40	318631	-999999	318607	0	37	Fix15secPROC	""	2	2	70	SessionSelectionList																																															5	232160	-6	0							70												
WM080112	149741_fnca	2	1	1	-1489452672	1	75.032	75.032	2.0.10.147	2.0.10.242	2.0.10.242	1.0.0.439	7	234	2	3	Verdana	1	80	0	0	0	WM Stimuli\	0.9	1055.77777777778	1	762.7	1	1279.5	0.9	645.444444444444	0.9	1077.11111111111	1	577.9	1	1159.5	1	718.3	13	318604	2	318592	27	40	318631	-999999	318607	0	38	Cue0BackPROC	FC_020_F10.png	2	2	71	SessionSelectionList																																										25	247180	-26	0												71												
WM080112	149741_fnca	2	1	1	-1489452672	1	75.032	75.032	2.0.10.147	2.0.10.242	2.0.10.242	1.0.0.439	7	234	2	3	Verdana	1	80	0	0	0	WM Stimuli\	0.9	1055.77777777778	1	762.7	1	1279.5	0.9	645.444444444444	0.9	1077.11111111111	1	577.9	1	1159.5	1	718.3	13	318604	2	318592	27	40	318631	-999999	318607	0	39	TrialsPROC	FC_024_F12.png	2	2	72	SessionSelectionList														nonlure	3	Face	0-Back	62	80	60	0	0	100	4	39	251765	2	14	71	249726	-1	250438	1	712	3	3	2039	53	251779	-54	0																72												
WM080112	149741_fnca	2	1	1	-1489452672	1	75.032	75.032	2.0.10.147	2.0.10.242	2.0.10.242	1.0.0.439	7	234	2	3	Verdana	1	80	0	0	0	WM Stimuli\	0.9	1055.77777777778	1	762.7	1	1279.5	0.9	645.444444444444	0.9	1077.11111111111	1	577.9	1	1159.5	1	718.3	13	318604	2	318592	27	40	318631	-999999	318607	0	39	TrialsPROC	FC_023_M12.png	2	2	73	SessionSelectionList														nonlure	3	Face	0-Back	63	80	61	0	0	100	5	39	254337	3	14	72	252298	-1	252817	1	519	3	3	2039	53	254351	-54	0																73												
WM080112	149741_fnca	2	1	1	-1489452672	1	75.032	75.032	2.0.10.147	2.0.10.242	2.0.10.242	1.0.0.439	7	234	2	3	Verdana	1	80	0	0	0	WM Stimuli\	0.9	1055.77777777778	1	762.7	1	1279.5	0.9	645.444444444444	0.9	1077.11111111111	1	577.9	1	1159.5	1	718.3	13	318604	2	318592	27	40	318631	-999999	318607	0	39	TrialsPROC	FC_020_F10.png	2	2	74	SessionSelectionList														target	2	Face	0-Back	64	80	62	0	0	96	6	39	256910	1	13	73	254871	-1	255305	0	434	3	2	2039	52	256923	-53	0																74												
WM080112	149741_fnca	2	1	1	-1489452672	1	75.032	75.032	2.0.10.147	2.0.10.242	2.0.10.242	1.0.0.439	7	234	2	3	Verdana	1	80	0	0	0	WM Stimuli\	0.9	1055.77777777778	1	762.7	1	1279.5	0.9	645.444444444444	0.9	1077.11111111111	1	577.9	1	1159.5	1	718.3	13	318604	2	318592	27	40	318631	-999999	318607	0	39	TrialsPROC	FC_024_F12.png	2	2	75	SessionSelectionList														lure	3	Face	0-Back	65	80	63	0	0	96	7	39	259482	1	14	72	257443	-1	258250	1	807	3	3	2039	53	259496	-54	0																75												
WM080112	149741_fnca	2	1	1	-1489452672	1	75.032	75.032	2.0.10.147	2.0.10.242	2.0.10.242	1.0.0.439	7	234	2	3	Verdana	1	80	0	0	0	WM Stimuli\	0.9	1055.77777777778	1	762.7	1	1279.5	0.9	645.444444444444	0.9	1077.11111111111	1	577.9	1	1159.5	1	718.3	13	318604	2	318592	27	40	318631	-999999	318607	0	39	TrialsPROC	FC_020_F10.png	2	2	76	SessionSelectionList														target	2	Face	0-Back	66	80	64	0	0	96	1	39	262054	3	14	72	260015	-1	260710	1	695	2	2	2039	53	262068	-54	0																76												
WM080112	149741_fnca	2	1	1	-1489452672	1	75.032	75.032	2.0.10.147	2.0.10.242	2.0.10.242	1.0.0.439	7	234	2	3	Verdana	1	80	0	0	0	WM Stimuli\	0.9	1055.77777777778	1	762.7	1	1279.5	0.9	645.444444444444	0.9	1077.11111111111	1	577.9	1	1159.5	1	718.3	13	318604	2	318592	27	40	318631	-999999	318607	0	39	TrialsPROC	FC_022_F11.png	2	2	77	SessionSelectionList														nonlure	3	Face	0-Back	67	80	65	0	0	96	1	40	264627	1	13	72	262587	-1	263098	1	511	3	3	2040	53	264640	-54	0																77												
WM080112	149741_fnca	2	1	1	-1489452672	1	75.032	75.032	2.0.10.147	2.0.10.242	2.0.10.242	1.0.0.439	7	234	2	3	Verdana	1	80	0	0	0	WM Stimuli\	0.9	1055.77777777778	1	762.7	1	1279.5	0.9	645.444444444444	0.9	1077.11111111111	1	577.9	1	1159.5	1	718.3	13	318604	2	318592	27	40	318631	-999999	318607	0	39	TrialsPROC	FC_023_M12.png	2	2	78	SessionSelectionList														lure	3	Face	0-Back	68	80	66	0	0	96	2	39	267199	2	13	73	265160	-1	265815	1	655	3	3	2039	52	267212	-53	0																78												
WM080112	149741_fnca	2	1	1	-1489452672	1	75.032	75.032	2.0.10.147	2.0.10.242	2.0.10.242	1.0.0.439	7	234	2	3	Verdana	1	80	0	0	0	WM Stimuli\	0.9	1055.77777777778	1	762.7	1	1279.5	0.9	645.444444444444	0.9	1077.11111111111	1	577.9	1	1159.5	1	718.3	13	318604	2	318592	27	40	318631	-999999	318607	0	39	TrialsPROC	FC_021_M11.png	2	2	79	SessionSelectionList														nonlure	3	Face	0-Back	69	80	67	0	0	96	3	39	269771	1	14	72	267732	-1	268696	1	964	3	3	2039	53	269785	-54	0																79												
WM080112	149741_fnca	2	1	1	-1489452672	1	75.032	75.032	2.0.10.147	2.0.10.242	2.0.10.242	1.0.0.439	7	234	2	3	Verdana	1	80	0	0	0	WM Stimuli\	0.9	1055.77777777778	1	762.7	1	1279.5	0.9	645.444444444444	0.9	1077.11111111111	1	577.9	1	1159.5	1	718.3	13	318604	2	318592	27	40	318631	-999999	318607	0	39	TrialsPROC	FC_021_M11.png	2	2	80	SessionSelectionList														lure	3	Face	0-Back	70	80	68	0	0	97	4	39	272343	3	14	72	270304	-1	270777	1	473	3	3	2039	53	272357	-54	0																80												
WM080112	149741_fnca	2	1	1	-1489452672	1	75.032	75.032	2.0.10.147	2.0.10.242	2.0.10.242	1.0.0.439	7	234	2	3	Verdana	1	80	0	0	0	WM Stimuli\	0.9	1055.77777777778	1	762.7	1	1279.5	0.9	645.444444444444	0.9	1077.11111111111	1	577.9	1	1159.5	1	718.3	13	318604	2	318592	27	40	318631	-999999	318607	0	39	TrialsPROC	FC_019_M10.png	2	2	81	SessionSelectionList														nonlure	3	Face	0-Back	71	80	69	0	0	97	5	40	274916	1	13	72	272876	-1	273349	1	473	3	3	2040	53	274929	-54	0																81												
WM080112	149741_fnca	2	1	1	-1489452672	1	75.032	75.032	2.0.10.147	2.0.10.242	2.0.10.242	1.0.0.439	7	234	2	3	Verdana	1	80	0	0	0	WM Stimuli\	0.9	1055.77777777778	1	762.7	1	1279.5	0.9	645.444444444444	0.9	1077.11111111111	1	577.9	1	1159.5	1	718.3	13	318604	2	318592	27	40	318631	-999999	318607	0	40	Cue0BackPROC	PL_021_SCENE_07.png	2	2	82	SessionSelectionList																																										19	275395	-20	0												82												
WM080112	149741_fnca	2	1	1	-1489452672	1	75.032	75.032	2.0.10.147	2.0.10.242	2.0.10.242	1.0.0.439	7	234	2	3	Verdana	1	80	0	0	0	WM Stimuli\	0.9	1055.77777777778	1	762.7	1	1279.5	0.9	645.444444444444	0.9	1077.11111111111	1	577.9	1	1159.5	1	718.3	13	318604	2	318592	27	40	318631	-999999	318607	0	41	TrialsPROC	PL_025_SCENE_18.png	2	2	83	SessionSelectionList														nonlure	3	Place	0-Back	72	80	70	0	0	97	6	39	279980	1	14	65	277941	-1	278807	1	866	3	3	2039	53	279994	-54	0																83												
WM080112	149741_fnca	2	1	1	-1489452672	1	75.032	75.032	2.0.10.147	2.0.10.242	2.0.10.242	1.0.0.439	7	234	2	3	Verdana	1	80	0	0	0	WM Stimuli\	0.9	1055.77777777778	1	762.7	1	1279.5	0.9	645.444444444444	0.9	1077.11111111111	1	577.9	1	1159.5	1	718.3	13	318604	2	318592	27	40	318631	-999999	318607	0	41	TrialsPROC	PL_026_SCENE_24.png	2	2	84	SessionSelectionList														nonlure	3	Place	0-Back	73	80	71	0	0	97	7	39	282552	2	14	72	280513	-1	281066	1	553	3	3	2039	53	282566	-54	0																84												
WM080112	149741_fnca	2	1	1	-1489452672	1	75.032	75.032	2.0.10.147	2.0.10.242	2.0.10.242	1.0.0.439	7	234	2	3	Verdana	1	80	0	0	0	WM Stimuli\	0.9	1055.77777777778	1	762.7	1	1279.5	0.9	645.444444444444	0.9	1077.11111111111	1	577.9	1	1159.5	1	718.3	13	318604	2	318592	27	40	318631	-999999	318607	0	41	TrialsPROC	PL_025_SCENE_18.png	2	2	85	SessionSelectionList														lure	3	Place	0-Back	74	80	72	0	0	97	8	40	285125	1	13	72	283085	-1	283619	1	534	3	3	2040	53	285138	-54	0																85												
WM080112	149741_fnca	2	1	1	-1489452672	1	75.032	75.032	2.0.10.147	2.0.10.242	2.0.10.242	1.0.0.439	7	234	2	3	Verdana	1	80	0	0	0	WM Stimuli\	0.9	1055.77777777778	1	762.7	1	1279.5	0.9	645.444444444444	0.9	1077.11111111111	1	577.9	1	1159.5	1	718.3	13	318604	2	318592	27	40	318631	-999999	318607	0	41	TrialsPROC	PL_022_SCENE_08.png	2	2	86	SessionSelectionList														nonlure	3	Place	0-Back	75	80	73	0	0	97	9	39	287697	1	13	73	285658	-1	286348	1	690	3	3	2039	52	287710	-53	0																86												
WM080112	149741_fnca	2	1	1	-1489452672	1	75.032	75.032	2.0.10.147	2.0.10.242	2.0.10.242	1.0.0.439	7	234	2	3	Verdana	1	80	0	0	0	WM Stimuli\	0.9	1055.77777777778	1	762.7	1	1279.5	0.9	645.444444444444	0.9	1077.11111111111	1	577.9	1	1159.5	1	718.3	13	318604	2	318592	27	40	318631	-999999	318607	0	41	TrialsPROC	PL_026_SCENE_24.png	2	2	87	SessionSelectionList														lure	3	Place	0-Back	76	80	74	0	0	97	10	39	290269	2	14	72	288230	-1	288743	1	513	3	3	2039	53	290283	-54	0																87												
WM080112	149741_fnca	2	1	1	-1489452672	1	75.032	75.032	2.0.10.147	2.0.10.242	2.0.10.242	1.0.0.439	7	234	2	3	Verdana	1	80	0	0	0	WM Stimuli\	0.9	1055.77777777778	1	762.7	1	1279.5	0.9	645.444444444444	0.9	1077.11111111111	1	577.9	1	1159.5	1	718.3	13	318604	2	318592	27	40	318631	-999999	318607	0	41	TrialsPROC	PL_021_SCENE_07.png	2	2	88	SessionSelectionList														target	2	Place	0-Back	77	80	75	0	0	97	1	39	292841	2	14	72	290802	-1	291244	1	442	2	2	2039	53	292855	-54	0																88												
WM080112	149741_fnca	2	1	1	-1489452672	1	75.032	75.032	2.0.10.147	2.0.10.242	2.0.10.242	1.0.0.439	7	234	2	3	Verdana	1	80	0	0	0	WM Stimuli\	0.9	1055.77777777778	1	762.7	1	1279.5	0.9	645.444444444444	0.9	1077.11111111111	1	577.9	1	1159.5	1	718.3	13	318604	2	318592	27	40	318631	-999999	318607	0	41	TrialsPROC	PL_021_SCENE_07.png	2	2	89	SessionSelectionList														target	2	Place	0-Back	78	80	76	0	0	97	2	40	295414	2	13	72	293374	-1	294078	1	704	2	2	2040	53	295427	-54	0																89												
WM080112	149741_fnca	2	1	1	-1489452672	1	75.032	75.032	2.0.10.147	2.0.10.242	2.0.10.242	1.0.0.439	7	234	2	3	Verdana	1	80	0	0	0	WM Stimuli\	0.9	1055.77777777778	1	762.7	1	1279.5	0.9	645.444444444444	0.9	1077.11111111111	1	577.9	1	1159.5	1	718.3	13	318604	2	318592	27	40	318631	-999999	318607	0	41	TrialsPROC	PL_023_SCENE_09.png	2	2	90	SessionSelectionList														nonlure	3	Place	0-Back	79	80	77	0	0	97	1	39	297986	1	14	73	295947	-1	296386	1	439	3	3	2039	53	298000	-54	0																90												
WM080112	149741_fnca	2	1	1	-1489452672	1	75.032	75.032	2.0.10.147	2.0.10.242	2.0.10.242	1.0.0.439	7	234	2	3	Verdana	1	80	0	0	0	WM Stimuli\	0.9	1055.77777777778	1	762.7	1	1279.5	0.9	645.444444444444	0.9	1077.11111111111	1	577.9	1	1159.5	1	718.3	13	318604	2	318592	27	40	318631	-999999	318607	0	41	TrialsPROC	PL_024_SCENE_10.png	2	2	91	SessionSelectionList														nonlure	3	Place	0-Back	80	80	78	0	0	97	2	39	300558	3	14	72	298519	-1	299094	1	575	3	3	2039	53	300572	-54	0																91												
WM080112	149741_fnca	2	1	1	-1489452672	1	75.032	75.032	2.0.10.147	2.0.10.242	2.0.10.242	1.0.0.439	7	234	2	3	Verdana	1	80	0	0	0	WM Stimuli\	0.9	1055.77777777778	1	762.7	1	1279.5	0.9	645.444444444444	0.9	1077.11111111111	1	577.9	1	1159.5	1	718.3	13	318604	2	318592	27	40	318631	-999999	318607	0	41	TrialsPROC	PL_022_SCENE_08.png	2	2	92	SessionSelectionList														lure	3	Place	0-Back	80	80	79	0	0	98	3	39	303130	2	14	72	301091	-1	301554	1	463	3	3	2039	53	303144	-54	0																92												
WM080112	149741_fnca	2	1	1	-1489452672	1	75.032	75.032	2.0.10.147	2.0.10.242	2.0.10.242	1.0.0.439	7	234	2	3	Verdana	1	80	0	0	0	WM Stimuli\	0.9	1055.77777777778	1	762.7	1	1279.5	0.9	645.444444444444	0.9	1077.11111111111	1	577.9	1	1159.5	1	718.3	13	318604	2	318592	27	40	318631	-999999	318607	0	42	Fix15secPROC	""	2	2	93	SessionSelectionList																																															6	303597	-7	0							93												
