ExperimentName	HCPID	RunNumber	Subject	Session	RandomSeed	Group	Laptop.RefreshRate	ScannerD2.RefreshRate	StudioVersion	RuntimeVersion	RuntimeVersionExpected	ExperimentVersion	triggercode	Allowed	Target	Nontarget	FontStyle	RunTrialNumber[Session]	TrialsPerRun[Session]	TotalRespGreater200[Session]	ConsecRTLess200[Session]	ConsecNonResp[Session]	StimuliDir	ACC_2_Back_Body	Avg_RT_For_Correct_Trials_2_Back_Body	ACC_0_Back_Body	Avg_RT_For_Correct_Trials_0_Back_Body	ACC_2_Back_Face	Avg_RT_For_Correct_Trials_2_Back_Face	ACC_0_Back_Face	Avg_RT_For_Correct_Trials_0_Back_Face	ACC_2_Back_Place	Avg_RT_For_Correct_Trials_2_Back_Place	ACC_0_Back_Place	Avg_RT_For_Correct_Trials_0_Back_Place	ACC_2_Back_Tools	Avg_RT_For_Correct_Trials_2_Back_Tools	ACC_0_Back_Tools	Avg_RT_For_Correct_Trials_0_Back_Tools	ExpInstrucFeelFreeToRest.OnsetDelay	ExpInstrucFeelFreeToRest.OnsetTime	ExpInstrucFeelFreeToRest.DurationError	ExpInstrucFeelFreeToRest.StartTime	ExpInstrucFeelFreeToRest.OnsetToOnsetTime	FeelFreeToRest.OnsetDelay	FeelFreeToRest.OnsetTime	FeelFreeToRest.DurationError	FeelFreeToRest.StartTime	FeelFreeToRest.OnsetToOnsetTime	SessionSelectionList	Procedure[Block]	Stimulus[Block]	RunNumberFilterValue	SessionSelectionList.Cycle	SessionSelectionList.Sample	Running[Block]	IntroButtonMap.OnsetDelay	IntroButtonMap.OnsetTime	IntroButtonMap.DurationError	IntroButtonMap.OnsetToOnsetTime	GetReady.OnsetDelay	GetReady.OnsetTime	GetReady.DurationError	GetReady.OnsetToOnsetTime	Cue2Back.OnsetDelay	Cue2Back.OnsetTime	Cue2Back.DurationError	Cue2Back.OnsetToOnsetTime	Run1Block1	TargetType	CorrectResponse	StimType	BlockType	RunTrialNumber[Block]	TrialsPerRun[Block]	TotalRespGreater200[Block]	ConsecRTLess200[Block]	ConsecNonResp[Block]	ControlAcc	ConsecSameResp	ExperimenterWindow.OnsetDelay	ExperimenterWindow.OnsetTime	ExperimenterWindow.DurationError	ExperimenterWindow.OnsetToOnsetTime	Stim.OnsetDelay	Stim.OnsetTime	Stim.DurationError	Stim.RTTime	Stim.ACC	Stim.RT	Stim.RESP	Stim.CRESP	Stim.OnsetToOnsetTime	Fix.OnsetDelay	Fix.OnsetTime	Fix.DurationError	Fix.OnsetToOnsetTime	CueTarget.OnsetDelay	CueTarget.OnsetTime	CueTarget.DurationError	CueTarget.OnsetToOnsetTime	Run1Block2	Fix15sec.OnsetDelay	Fix15sec.OnsetTime	Fix15sec.DurationError	Fix15sec.OnsetToOnsetTime	Run1Block3	Run1Block4	Run1Block5	Run1Block6	Run1Block7	Run1Block8	Block	Procedure[Trial]	Stimulus[Trial]	ReadyList	Running[Trial]	ReadyList.Cycle	ReadyList.Sample	SyncSlide.OnsetDelay	SyncSlide.OnsetTime	SyncSlide.DurationError	SyncSlide.FinishTime	SyncSlide.OnsetToOnsetTime	Trial
WM080112	116524_fnca	1	1	1	1544900387	1	75.030	75.030	2.0.10.147	2.0.10.242	2.0.10.242	1.0.0.439	7	234	2	3	Verdana	1	80	0	0	0	WM Stimuli\	0.5	1217.8	0.8	1267.375	0.7	1238.71428571429	0.5	958.4	0.4	1266.75	0.6	1143.33333333333	0.7	943.857142857143	0.6	879	13	399803	2	399791	26	39	399829	-999999	399806	0	1	TRSyncPROC	""	1	2	1	SessionSelectionList	99	18597	-999999	0	35	91821	-999999	0																																																	1	InitialTR	4	1	ReadyList	1	1	17	106561	-18	108543	0	1
WM080112	116524_fnca	1	1	1	1544900387	1	75.030	75.030	2.0.10.147	2.0.10.242	2.0.10.242	1.0.0.439	7	234	2	3	Verdana	1	80	0	0	0	WM Stimuli\	0.5	1217.8	0.8	1267.375	0.7	1238.71428571429	0.5	958.4	0.4	1266.75	0.6	1143.33333333333	0.7	943.857142857143	0.6	879	13	399803	2	399791	26	39	399829	-999999	399806	0	1	TRSyncPROC	""	1	2	1	SessionSelectionList	99	18597	-999999	0	35	91821	-999999	0																																																	1	InitialTR	3	2	ReadyList	1	2	17	108561	-18	110543	0	2
WM080112	116524_fnca	1	1	1	1544900387	1	75.030	75.030	2.0.10.147	2.0.10.242	2.0.10.242	1.0.0.439	7	234	2	3	Verdana	1	80	0	0	0	WM Stimuli\	0.5	1217.8	0.8	1267.375	0.7	1238.71428571429	0.5	958.4	0.4	1266.75	0.6	1143.33333333333	0.7	943.857142857143	0.6	879	13	399803	2	399791	26	39	399829	-999999	399806	0	1	TRSyncPROC	""	1	2	1	SessionSelectionList	99	18597	-999999	0	35	91821	-999999	0																																																	1	InitialTR	2	3	ReadyList	1	3	16	110560	-17	112543	0	3
WM080112	116524_fnca	1	1	1	1544900387	1	75.030	75.030	2.0.10.147	2.0.10.242	2.0.10.242	1.0.0.439	7	234	2	3	Verdana	1	80	0	0	0	WM Stimuli\	0.5	1217.8	0.8	1267.375	0.7	1238.71428571429	0.5	958.4	0.4	1266.75	0.6	1143.33333333333	0.7	943.857142857143	0.6	879	13	399803	2	399791	26	39	399829	-999999	399806	0	1	TRSyncPROC	""	1	2	1	SessionSelectionList	99	18597	-999999	0	35	91821	-999999	0																																																	1	InitialTR	1	4	ReadyList	1	4	15	112559	-16	114543	0	4
WM080112	116524_fnca	1	1	1	1544900387	1	75.030	75.030	2.0.10.147	2.0.10.242	2.0.10.242	1.0.0.439	7	234	2	3	Verdana	1	80	0	0	0	WM Stimuli\	0.5	1217.8	0.8	1267.375	0.7	1238.71428571429	0.5	958.4	0.4	1266.75	0.6	1143.33333333333	0.7	943.857142857143	0.6	879	13	399803	2	399791	26	39	399829	-999999	399806	0	2	Cue2BackPROC	""	1	2	2	SessionSelectionList									14	114558	-15	0																																													2												
WM080112	116524_fnca	1	1	1	1544900387	1	75.030	75.030	2.0.10.147	2.0.10.242	2.0.10.242	1.0.0.439	7	234	2	3	Verdana	1	80	0	0	0	WM Stimuli\	0.5	1217.8	0.8	1267.375	0.7	1238.71428571429	0.5	958.4	0.4	1266.75	0.6	1143.33333333333	0.7	943.857142857143	0.6	879	13	399803	2	399791	26	39	399829	-999999	399806	0	3	TrialsPROC	BP_002_BP10_BA.png	1	2	3	SessionSelectionList													1	nonlure	3	Body	2-Back	2	80	1	0	0	0	1	53	119170	3	13	73	117117	-1	118296	1	1179	3	3	2053	66	119183	-67	0																3												
WM080112	116524_fnca	1	1	1	1544900387	1	75.030	75.030	2.0.10.147	2.0.10.242	2.0.10.242	1.0.0.439	7	234	2	3	Verdana	1	80	0	0	0	WM Stimuli\	0.5	1217.8	0.8	1267.375	0.7	1238.71428571429	0.5	958.4	0.4	1266.75	0.6	1143.33333333333	0.7	943.857142857143	0.6	879	13	399803	2	399791	26	39	399829	-999999	399806	0	3	TrialsPROC	BP_001_BP1_BA.png	1	2	4	SessionSelectionList													2	nonlure	3	Body	2-Back	3	80	2	0	0	0	2	40	121729	2	13	72	119689	-1	120642	1	953	3	3	2040	53	121742	-54	0																4												
WM080112	116524_fnca	1	1	1	1544900387	1	75.030	75.030	2.0.10.147	2.0.10.242	2.0.10.242	1.0.0.439	7	234	2	3	Verdana	1	80	0	0	0	WM Stimuli\	0.5	1217.8	0.8	1267.375	0.7	1238.71428571429	0.5	958.4	0.4	1266.75	0.6	1143.33333333333	0.7	943.857142857143	0.6	879	13	399803	2	399791	26	39	399829	-999999	399806	0	3	TrialsPROC	BP_006_BP2_BA.png	1	2	5	SessionSelectionList													3	nonlure	3	Body	2-Back	4	80	3	0	0	0	1	39	124287	2	14	59	122248	-1	122925	0	677	2	3	2039	53	124301	-54	0																5												
WM080112	116524_fnca	1	1	1	1544900387	1	75.030	75.030	2.0.10.147	2.0.10.242	2.0.10.242	1.0.0.439	7	234	2	3	Verdana	1	80	0	0	0	WM Stimuli\	0.5	1217.8	0.8	1267.375	0.7	1238.71428571429	0.5	958.4	0.4	1266.75	0.6	1143.33333333333	0.7	943.857142857143	0.6	879	13	399803	2	399791	26	39	399829	-999999	399806	0	3	TrialsPROC	BP_001_BP1_BA.png	1	2	6	SessionSelectionList													4	target	2	Body	2-Back	5	80	4	0	0	0	1	39	126860	2	13	73	124821	-1	125896	0	1075	3	2	2039	52	126873	-53	0																6												
WM080112	116524_fnca	1	1	1	1544900387	1	75.030	75.030	2.0.10.147	2.0.10.242	2.0.10.242	1.0.0.439	7	234	2	3	Verdana	1	80	0	0	0	WM Stimuli\	0.5	1217.8	0.8	1267.375	0.7	1238.71428571429	0.5	958.4	0.4	1266.75	0.6	1143.33333333333	0.7	943.857142857143	0.6	879	13	399803	2	399791	26	39	399829	-999999	399806	0	3	TrialsPROC	BP_005_BP19_BA.png	1	2	7	SessionSelectionList													5	nonlure	3	Body	2-Back	6	80	5	0	0	0	2	39	129432	1	14	72	127393	-1	128862	1	1469	3	3	2039	53	129446	-54	0																7												
WM080112	116524_fnca	1	1	1	1544900387	1	75.030	75.030	2.0.10.147	2.0.10.242	2.0.10.242	1.0.0.439	7	234	2	3	Verdana	1	80	0	0	0	WM Stimuli\	0.5	1217.8	0.8	1267.375	0.7	1238.71428571429	0.5	958.4	0.4	1266.75	0.6	1143.33333333333	0.7	943.857142857143	0.6	879	13	399803	2	399791	26	39	399829	-999999	399806	0	3	TrialsPROC	BP_003_BP16_BA.png	1	2	8	SessionSelectionList													6	nonlure	3	Body	2-Back	7	80	6	0	0	0	3	39	131991	1	13	59	129952	-1	131327	1	1375	3	3	2039	52	132004	-53	0																8												
WM080112	116524_fnca	1	1	1	1544900387	1	75.030	75.030	2.0.10.147	2.0.10.242	2.0.10.242	1.0.0.439	7	234	2	3	Verdana	1	80	0	0	0	WM Stimuli\	0.5	1217.8	0.8	1267.375	0.7	1238.71428571429	0.5	958.4	0.4	1266.75	0.6	1143.33333333333	0.7	943.857142857143	0.6	879	13	399803	2	399791	26	39	399829	-999999	399806	0	3	TrialsPROC	BP_006_BP2_BA.png	1	2	9	SessionSelectionList													7	lure	3	Body	2-Back	8	80	7	0	0	0	1	39	134550	1	13	59	132511	-1	134206	0	1695	2	3	2039	52	134563	-53	0																9												
WM080112	116524_fnca	1	1	1	1544900387	1	75.030	75.030	2.0.10.147	2.0.10.242	2.0.10.242	1.0.0.439	7	234	2	3	Verdana	1	80	0	0	0	WM Stimuli\	0.5	1217.8	0.8	1267.375	0.7	1238.71428571429	0.5	958.4	0.4	1266.75	0.6	1143.33333333333	0.7	943.857142857143	0.6	879	13	399803	2	399791	26	39	399829	-999999	399806	0	3	TrialsPROC	BP_004_BP18_BA.png	1	2	10	SessionSelectionList													8	nonlure	3	Body	2-Back	9	80	8	0	0	0	1	39	137109	2	13	59	135070	-1	136183	1	1113	3	3	2039	52	137122	-53	0																10												
WM080112	116524_fnca	1	1	1	1544900387	1	75.030	75.030	2.0.10.147	2.0.10.242	2.0.10.242	1.0.0.439	7	234	2	3	Verdana	1	80	0	0	0	WM Stimuli\	0.5	1217.8	0.8	1267.375	0.7	1238.71428571429	0.5	958.4	0.4	1266.75	0.6	1143.33333333333	0.7	943.857142857143	0.6	879	13	399803	2	399791	26	39	399829	-999999	399806	0	3	TrialsPROC	BP_005_BP19_BA.png	1	2	11	SessionSelectionList													9	lure	3	Body	2-Back	10	80	9	0	0	0	1	39	139668	1	13	59	137629	-1	138460	0	831	2	3	2039	52	139681	-53	0																11												
WM080112	116524_fnca	1	1	1	1544900387	1	75.030	75.030	2.0.10.147	2.0.10.242	2.0.10.242	1.0.0.439	7	234	2	3	Verdana	1	80	0	0	0	WM Stimuli\	0.5	1217.8	0.8	1267.375	0.7	1238.71428571429	0.5	958.4	0.4	1266.75	0.6	1143.33333333333	0.7	943.857142857143	0.6	879	13	399803	2	399791	26	39	399829	-999999	399806	0	3	TrialsPROC	BP_004_BP18_BA.png	1	2	12	SessionSelectionList													10	target	2	Body	2-Back	11	80	10	0	0	0	1	39	142227	2	13	59	140188	-1	141103	0	915	3	2	2039	52	142240	-53	0																12												
WM080112	116524_fnca	1	1	1	1544900387	1	75.030	75.030	2.0.10.147	2.0.10.242	2.0.10.242	1.0.0.439	7	234	2	3	Verdana	1	80	0	0	0	WM Stimuli\	0.5	1217.8	0.8	1267.375	0.7	1238.71428571429	0.5	958.4	0.4	1266.75	0.6	1143.33333333333	0.7	943.857142857143	0.6	879	13	399803	2	399791	26	39	399829	-999999	399806	0	4	Cue0BackPROC	FC_001_M1.png	1	2	13	SessionSelectionList																																										19	142707	-20	0												13												
WM080112	116524_fnca	1	1	1	1544900387	1	75.030	75.030	2.0.10.147	2.0.10.242	2.0.10.242	1.0.0.439	7	234	2	3	Verdana	1	80	0	0	0	WM Stimuli\	0.5	1217.8	0.8	1267.375	0.7	1238.71428571429	0.5	958.4	0.4	1266.75	0.6	1143.33333333333	0.7	943.857142857143	0.6	879	13	399803	2	399791	26	39	399829	-999999	399806	0	5	TrialsPROC	FC_005_M3.png	1	2	14	SessionSelectionList														nonlure	3	Face	0-Back	12	80	10	0	1	0	1	40	147292	2	13	64	145252	-1	0	0	0	""	3	2040	53	147305	-54	0					1											14												
WM080112	116524_fnca	1	1	1	1544900387	1	75.030	75.030	2.0.10.147	2.0.10.242	2.0.10.242	1.0.0.439	7	234	2	3	Verdana	1	80	0	0	0	WM Stimuli\	0.5	1217.8	0.8	1267.375	0.7	1238.71428571429	0.5	958.4	0.4	1266.75	0.6	1143.33333333333	0.7	943.857142857143	0.6	879	13	399803	2	399791	26	39	399829	-999999	399806	0	5	TrialsPROC	FC_001_M1.png	1	2	15	SessionSelectionList														target	2	Face	0-Back	13	80	11	0	0	0	1	39	149864	2	13	73	147825	-1	149450	0	1625	3	2	2039	52	149877	-53	0					2											15												
WM080112	116524_fnca	1	1	1	1544900387	1	75.030	75.030	2.0.10.147	2.0.10.242	2.0.10.242	1.0.0.439	7	234	2	3	Verdana	1	80	0	0	0	WM Stimuli\	0.5	1217.8	0.8	1267.375	0.7	1238.71428571429	0.5	958.4	0.4	1266.75	0.6	1143.33333333333	0.7	943.857142857143	0.6	879	13	399803	2	399791	26	39	399829	-999999	399806	0	5	TrialsPROC	FC_003_M2.png	1	2	16	SessionSelectionList														nonlure	3	Face	0-Back	14	80	12	0	0	0	1	39	152436	3	14	72	150397	-1	151166	0	769	2	3	2039	53	152450	-54	0					3											16												
WM080112	116524_fnca	1	1	1	1544900387	1	75.030	75.030	2.0.10.147	2.0.10.242	2.0.10.242	1.0.0.439	7	234	2	3	Verdana	1	80	0	0	0	WM Stimuli\	0.5	1217.8	0.8	1267.375	0.7	1238.71428571429	0.5	958.4	0.4	1266.75	0.6	1143.33333333333	0.7	943.857142857143	0.6	879	13	399803	2	399791	26	39	399829	-999999	399806	0	5	TrialsPROC	FC_004_F2.png	1	2	17	SessionSelectionList														nonlure	3	Face	0-Back	15	80	13	0	0	25	1	39	155008	2	14	72	152969	-1	153958	1	989	3	3	2039	53	155022	-54	0					4											17												
WM080112	116524_fnca	1	1	1	1544900387	1	75.030	75.030	2.0.10.147	2.0.10.242	2.0.10.242	1.0.0.439	7	234	2	3	Verdana	1	80	0	0	0	WM Stimuli\	0.5	1217.8	0.8	1267.375	0.7	1238.71428571429	0.5	958.4	0.4	1266.75	0.6	1143.33333333333	0.7	943.857142857143	0.6	879	13	399803	2	399791	26	39	399829	-999999	399806	0	5	TrialsPROC	FC_004_F2.png	1	2	18	SessionSelectionList														lure	3	Face	0-Back	16	80	14	0	0	40	2	40	157581	2	13	72	155541	-1	156229	1	688	3	3	2040	53	157594	-54	0					5											18												
WM080112	116524_fnca	1	1	1	1544900387	1	75.030	75.030	2.0.10.147	2.0.10.242	2.0.10.242	1.0.0.439	7	234	2	3	Verdana	1	80	0	0	0	WM Stimuli\	0.5	1217.8	0.8	1267.375	0.7	1238.71428571429	0.5	958.4	0.4	1266.75	0.6	1143.33333333333	0.7	943.857142857143	0.6	879	13	399803	2	399791	26	39	399829	-999999	399806	0	5	TrialsPROC	FC_001_M1.png	1	2	19	SessionSelectionList														target	2	Face	0-Back	17	80	15	0	0	33	3	39	160153	2	13	73	158114	-1	159717	0	1603	3	2	2039	52	160166	-53	0					6											19												
WM080112	116524_fnca	1	1	1	1544900387	1	75.030	75.030	2.0.10.147	2.0.10.242	2.0.10.242	1.0.0.439	7	234	2	3	Verdana	1	80	0	0	0	WM Stimuli\	0.5	1217.8	0.8	1267.375	0.7	1238.71428571429	0.5	958.4	0.4	1266.75	0.6	1143.33333333333	0.7	943.857142857143	0.6	879	13	399803	2	399791	26	39	399829	-999999	399806	0	5	TrialsPROC	FC_006_F3.png	1	2	20	SessionSelectionList														nonlure	3	Face	0-Back	18	80	16	0	0	43	4	39	162725	3	14	72	160686	-1	161547	1	861	3	3	2039	53	162739	-54	0					7											20												
WM080112	116524_fnca	1	1	1	1544900387	1	75.030	75.030	2.0.10.147	2.0.10.242	2.0.10.242	1.0.0.439	7	234	2	3	Verdana	1	80	0	0	0	WM Stimuli\	0.5	1217.8	0.8	1267.375	0.7	1238.71428571429	0.5	958.4	0.4	1266.75	0.6	1143.33333333333	0.7	943.857142857143	0.6	879	13	399803	2	399791	26	39	399829	-999999	399806	0	5	TrialsPROC	FC_006_F3.png	1	2	21	SessionSelectionList														lure	3	Face	0-Back	19	80	17	0	0	50	5	40	165298	1	13	72	163258	-1	164397	1	1139	3	3	2040	53	165311	-54	0					8											21												
WM080112	116524_fnca	1	1	1	1544900387	1	75.030	75.030	2.0.10.147	2.0.10.242	2.0.10.242	1.0.0.439	7	234	2	3	Verdana	1	80	0	0	0	WM Stimuli\	0.5	1217.8	0.8	1267.375	0.7	1238.71428571429	0.5	958.4	0.4	1266.75	0.6	1143.33333333333	0.7	943.857142857143	0.6	879	13	399803	2	399791	26	39	399829	-999999	399806	0	5	TrialsPROC	FC_003_M2.png	1	2	22	SessionSelectionList														lure	3	Face	0-Back	20	80	18	0	0	44	1	39	167870	2	13	73	165831	-1	166370	0	539	2	3	2039	52	167883	-53	0					9											22												
WM080112	116524_fnca	1	1	1	1544900387	1	75.030	75.030	2.0.10.147	2.0.10.242	2.0.10.242	1.0.0.439	7	234	2	3	Verdana	1	80	0	0	0	WM Stimuli\	0.5	1217.8	0.8	1267.375	0.7	1238.71428571429	0.5	958.4	0.4	1266.75	0.6	1143.33333333333	0.7	943.857142857143	0.6	879	13	399803	2	399791	26	39	399829	-999999	399806	0	5	TrialsPROC	FC_002_F1.png	1	2	23	SessionSelectionList														nonlure	3	Face	0-Back	21	80	19	0	0	50	1	39	170442	3	14	72	168403	-1	169518	1	1115	3	3	2039	53	170456	-54	0					10											23												
WM080112	116524_fnca	1	1	1	1544900387	1	75.030	75.030	2.0.10.147	2.0.10.242	2.0.10.242	1.0.0.439	7	234	2	3	Verdana	1	80	0	0	0	WM Stimuli\	0.5	1217.8	0.8	1267.375	0.7	1238.71428571429	0.5	958.4	0.4	1266.75	0.6	1143.33333333333	0.7	943.857142857143	0.6	879	13	399803	2	399791	26	39	399829	-999999	399806	0	6	Fix15secPROC	""	1	2	24	SessionSelectionList																																															6	170909	-7	0							24												
WM080112	116524_fnca	1	1	1	1544900387	1	75.030	75.030	2.0.10.147	2.0.10.242	2.0.10.242	1.0.0.439	7	234	2	3	Verdana	1	80	0	0	0	WM Stimuli\	0.5	1217.8	0.8	1267.375	0.7	1238.71428571429	0.5	958.4	0.4	1266.75	0.6	1143.33333333333	0.7	943.857142857143	0.6	879	13	399803	2	399791	26	39	399829	-999999	399806	0	7	Cue2BackPROC	""	1	2	25	SessionSelectionList									13	185916	-14	0																																													25												
WM080112	116524_fnca	1	1	1	1544900387	1	75.030	75.030	2.0.10.147	2.0.10.242	2.0.10.242	1.0.0.439	7	234	2	3	Verdana	1	80	0	0	0	WM Stimuli\	0.5	1217.8	0.8	1267.375	0.7	1238.71428571429	0.5	958.4	0.4	1266.75	0.6	1143.33333333333	0.7	943.857142857143	0.6	879	13	399803	2	399791	26	39	399829	-999999	399806	0	8	TrialsPROC	TO_001_TOOL1_BA.png	1	2	26	SessionSelectionList														nonlure	3	Tools	2-Back	22	80	20	0	0	50	2	40	190501	1	13	58	188461	-1	189030	1	569	3	3	2040	53	190514	-54	0										1						26												
WM080112	116524_fnca	1	1	1	1544900387	1	75.030	75.030	2.0.10.147	2.0.10.242	2.0.10.242	1.0.0.439	7	234	2	3	Verdana	1	80	0	0	0	WM Stimuli\	0.5	1217.8	0.8	1267.375	0.7	1238.71428571429	0.5	958.4	0.4	1266.75	0.6	1143.33333333333	0.7	943.857142857143	0.6	879	13	399803	2	399791	26	39	399829	-999999	399806	0	8	TrialsPROC	TO_002_TOOL2_BA.png	1	2	27	SessionSelectionList														nonlure	3	Tools	2-Back	23	80	21	0	0	50	3	40	193060	1	13	59	191020	-1	191841	1	821	3	3	2040	53	193073	-54	0										2						27												
WM080112	116524_fnca	1	1	1	1544900387	1	75.030	75.030	2.0.10.147	2.0.10.242	2.0.10.242	1.0.0.439	7	234	2	3	Verdana	1	80	0	0	0	WM Stimuli\	0.5	1217.8	0.8	1267.375	0.7	1238.71428571429	0.5	958.4	0.4	1266.75	0.6	1143.33333333333	0.7	943.857142857143	0.6	879	13	399803	2	399791	26	39	399829	-999999	399806	0	8	TrialsPROC	TO_004_TOOL4_BA.png	1	2	28	SessionSelectionList														nonlure	3	Tools	2-Back	24	80	22	0	0	50	4	39	195619	2	13	60	193580	-1	194386	1	806	3	3	2039	52	195632	-53	0										3						28												
WM080112	116524_fnca	1	1	1	1544900387	1	75.030	75.030	2.0.10.147	2.0.10.242	2.0.10.242	1.0.0.439	7	234	2	3	Verdana	1	80	0	0	0	WM Stimuli\	0.5	1217.8	0.8	1267.375	0.7	1238.71428571429	0.5	958.4	0.4	1266.75	0.6	1143.33333333333	0.7	943.857142857143	0.6	879	13	399803	2	399791	26	39	399829	-999999	399806	0	8	TrialsPROC	TO_002_TOOL2_BA.png	1	2	29	SessionSelectionList														target	2	Tools	2-Back	25	80	23	0	0	50	5	40	198178	1	13	58	196138	-1	198011	0	1873	3	2	2040	53	198191	-54	0										4						29												
WM080112	116524_fnca	1	1	1	1544900387	1	75.030	75.030	2.0.10.147	2.0.10.242	2.0.10.242	1.0.0.439	7	234	2	3	Verdana	1	80	0	0	0	WM Stimuli\	0.5	1217.8	0.8	1267.375	0.7	1238.71428571429	0.5	958.4	0.4	1266.75	0.6	1143.33333333333	0.7	943.857142857143	0.6	879	13	399803	2	399791	26	39	399829	-999999	399806	0	8	TrialsPROC	TO_001_TOOL1_BA.png	1	2	30	SessionSelectionList														lure	3	Tools	2-Back	26	80	24	0	0	50	1	39	200736	2	14	59	198697	-1	199277	0	580	2	3	2039	53	200750	-54	0										5						30												
WM080112	116524_fnca	1	1	1	1544900387	1	75.030	75.030	2.0.10.147	2.0.10.242	2.0.10.242	1.0.0.439	7	234	2	3	Verdana	1	80	0	0	0	WM Stimuli\	0.5	1217.8	0.8	1267.375	0.7	1238.71428571429	0.5	958.4	0.4	1266.75	0.6	1143.33333333333	0.7	943.857142857143	0.6	879	13	399803	2	399791	26	39	399829	-999999	399806	0	8	TrialsPROC	TO_004_TOOL4_BA.png	1	2	31	SessionSelectionList														lure	3	Tools	2-Back	27	80	25	0	0	50	2	39	203295	3	14	59	201256	-1	202716	0	1460	2	3	2039	53	203309	-54	0										6						31												
WM080112	116524_fnca	1	1	1	1544900387	1	75.030	75.030	2.0.10.147	2.0.10.242	2.0.10.242	1.0.0.439	7	234	2	3	Verdana	1	80	0	0	0	WM Stimuli\	0.5	1217.8	0.8	1267.375	0.7	1238.71428571429	0.5	958.4	0.4	1266.75	0.6	1143.33333333333	0.7	943.857142857143	0.6	879	13	399803	2	399791	26	39	399829	-999999	399806	0	8	TrialsPROC	TO_006_TOOL6_BA.png	1	2	32	SessionSelectionList														nonlure	3	Tools	2-Back	28	80	26	0	0	50	1	39	205854	3	14	59	203815	-1	204708	1	893	3	3	2039	53	205868	-54	0										7						32												
WM080112	116524_fnca	1	1	1	1544900387	1	75.030	75.030	2.0.10.147	2.0.10.242	2.0.10.242	1.0.0.439	7	234	2	3	Verdana	1	80	0	0	0	WM Stimuli\	0.5	1217.8	0.8	1267.375	0.7	1238.71428571429	0.5	958.4	0.4	1266.75	0.6	1143.33333333333	0.7	943.857142857143	0.6	879	13	399803	2	399791	26	39	399829	-999999	399806	0	8	TrialsPROC	TO_005_TOOL5_BA.png	1	2	33	SessionSelectionList														nonlure	3	Tools	2-Back	29	80	27	0	0	50	2	39	208413	3	14	59	206374	-1	207322	1	948	3	3	2039	53	208427	-54	0										8						33												
WM080112	116524_fnca	1	1	1	1544900387	1	75.030	75.030	2.0.10.147	2.0.10.242	2.0.10.242	1.0.0.439	7	234	2	3	Verdana	1	80	0	0	0	WM Stimuli\	0.5	1217.8	0.8	1267.375	0.7	1238.71428571429	0.5	958.4	0.4	1266.75	0.6	1143.33333333333	0.7	943.857142857143	0.6	879	13	399803	2	399791	26	39	399829	-999999	399806	0	8	TrialsPROC	TO_006_TOOL6_BA.png	1	2	34	SessionSelectionList														target	2	Tools	2-Back	30	80	28	0	0	50	1	39	210972	2	14	59	208933	-1	210286	1	1353	2	2	2039	53	210986	-54	0										9						34												
WM080112	116524_fnca	1	1	1	1544900387	1	75.030	75.030	2.0.10.147	2.0.10.242	2.0.10.242	1.0.0.439	7	234	2	3	Verdana	1	80	0	0	0	WM Stimuli\	0.5	1217.8	0.8	1267.375	0.7	1238.71428571429	0.5	958.4	0.4	1266.75	0.6	1143.33333333333	0.7	943.857142857143	0.6	879	13	399803	2	399791	26	39	399829	-999999	399806	0	8	TrialsPROC	TO_003_TOOL3_BA.png	1	2	35	SessionSelectionList														nonlure	3	Tools	2-Back	31	80	29	0	0	50	1	39	213531	3	14	59	211492	-1	212709	1	1217	3	3	2039	53	213545	-54	0										10						35												
WM080112	116524_fnca	1	1	1	1544900387	1	75.030	75.030	2.0.10.147	2.0.10.242	2.0.10.242	1.0.0.439	7	234	2	3	Verdana	1	80	0	0	0	WM Stimuli\	0.5	1217.8	0.8	1267.375	0.7	1238.71428571429	0.5	958.4	0.4	1266.75	0.6	1143.33333333333	0.7	943.857142857143	0.6	879	13	399803	2	399791	26	39	399829	-999999	399806	0	9	Cue0BackPROC	BP_007_BP20_BA.png	1	2	36	SessionSelectionList																																										19	214011	-20	0												36												
WM080112	116524_fnca	1	1	1	1544900387	1	75.030	75.030	2.0.10.147	2.0.10.242	2.0.10.242	1.0.0.439	7	234	2	3	Verdana	1	80	0	0	0	WM Stimuli\	0.5	1217.8	0.8	1267.375	0.7	1238.71428571429	0.5	958.4	0.4	1266.75	0.6	1143.33333333333	0.7	943.857142857143	0.6	879	13	399803	2	399791	26	39	399829	-999999	399806	0	10	TrialsPROC	BP_007_BP20_BA.png	1	2	37	SessionSelectionList														target	2	Body	0-Back	32	80	30	0	0	55	1	40	218583	2	13	51	216543	-1	218400	1	1857	2	2	2040	53	218596	-54	0											1					37												
WM080112	116524_fnca	1	1	1	1544900387	1	75.030	75.030	2.0.10.147	2.0.10.242	2.0.10.242	1.0.0.439	7	234	2	3	Verdana	1	80	0	0	0	WM Stimuli\	0.5	1217.8	0.8	1267.375	0.7	1238.71428571429	0.5	958.4	0.4	1266.75	0.6	1143.33333333333	0.7	943.857142857143	0.6	879	13	399803	2	399791	26	39	399829	-999999	399806	0	10	TrialsPROC	BP_011_BP4_BA.png	1	2	38	SessionSelectionList														nonlure	3	Body	0-Back	33	80	31	0	0	58	1	39	221155	1	13	73	219116	-1	220526	1	1410	3	3	2039	52	221168	-53	0											2					38												
WM080112	116524_fnca	1	1	1	1544900387	1	75.030	75.030	2.0.10.147	2.0.10.242	2.0.10.242	1.0.0.439	7	234	2	3	Verdana	1	80	0	0	0	WM Stimuli\	0.5	1217.8	0.8	1267.375	0.7	1238.71428571429	0.5	958.4	0.4	1266.75	0.6	1143.33333333333	0.7	943.857142857143	0.6	879	13	399803	2	399791	26	39	399829	-999999	399806	0	10	TrialsPROC	BP_010_BP3_BA.png	1	2	39	SessionSelectionList														nonlure	3	Body	0-Back	34	80	31	0	1	54	1	39	223714	1	13	59	221675	-1	0	0	0	""	3	2039	52	223727	-53	0											3					39												
WM080112	116524_fnca	1	1	1	1544900387	1	75.030	75.030	2.0.10.147	2.0.10.242	2.0.10.242	1.0.0.439	7	234	2	3	Verdana	1	80	0	0	0	WM Stimuli\	0.5	1217.8	0.8	1267.375	0.7	1238.71428571429	0.5	958.4	0.4	1266.75	0.6	1143.33333333333	0.7	943.857142857143	0.6	879	13	399803	2	399791	26	39	399829	-999999	399806	0	10	TrialsPROC	BP_008_BP21_BA.png	1	2	40	SessionSelectionList														nonlure	3	Body	0-Back	35	80	32	0	0	57	1	39	226273	1	13	59	224234	-1	225070	1	836	3	3	2039	52	226286	-53	0											4					40												
WM080112	116524_fnca	1	1	1	1544900387	1	75.030	75.030	2.0.10.147	2.0.10.242	2.0.10.242	1.0.0.439	7	234	2	3	Verdana	1	80	0	0	0	WM Stimuli\	0.5	1217.8	0.8	1267.375	0.7	1238.71428571429	0.5	958.4	0.4	1266.75	0.6	1143.33333333333	0.7	943.857142857143	0.6	879	13	399803	2	399791	26	39	399829	-999999	399806	0	10	TrialsPROC	BP_011_BP4_BA.png	1	2	41	SessionSelectionList														lure	3	Body	0-Back	36	80	33	0	0	53	1	39	228845	3	14	72	226806	-1	227970	0	1164	2	3	2039	53	228859	-54	0											5					41												
WM080112	116524_fnca	1	1	1	1544900387	1	75.030	75.030	2.0.10.147	2.0.10.242	2.0.10.242	1.0.0.439	7	234	2	3	Verdana	1	80	0	0	0	WM Stimuli\	0.5	1217.8	0.8	1267.375	0.7	1238.71428571429	0.5	958.4	0.4	1266.75	0.6	1143.33333333333	0.7	943.857142857143	0.6	879	13	399803	2	399791	26	39	399829	-999999	399806	0	10	TrialsPROC	BP_009_BP22_BA.png	1	2	42	SessionSelectionList														nonlure	3	Body	0-Back	37	80	34	0	0	56	1	39	231404	3	14	59	229365	-1	230275	1	910	3	3	2039	53	231418	-54	0											6					42												
WM080112	116524_fnca	1	1	1	1544900387	1	75.030	75.030	2.0.10.147	2.0.10.242	2.0.10.242	1.0.0.439	7	234	2	3	Verdana	1	80	0	0	0	WM Stimuli\	0.5	1217.8	0.8	1267.375	0.7	1238.71428571429	0.5	958.4	0.4	1266.75	0.6	1143.33333333333	0.7	943.857142857143	0.6	879	13	399803	2	399791	26	39	399829	-999999	399806	0	10	TrialsPROC	BP_009_BP22_BA.png	1	2	43	SessionSelectionList														lure	3	Body	0-Back	38	80	35	0	0	59	2	39	233963	2	13	59	231924	-1	233262	1	1338	3	3	2039	52	233976	-53	0											7					43												
WM080112	116524_fnca	1	1	1	1544900387	1	75.030	75.030	2.0.10.147	2.0.10.242	2.0.10.242	1.0.0.439	7	234	2	3	Verdana	1	80	0	0	0	WM Stimuli\	0.5	1217.8	0.8	1267.375	0.7	1238.71428571429	0.5	958.4	0.4	1266.75	0.6	1143.33333333333	0.7	943.857142857143	0.6	879	13	399803	2	399791	26	39	399829	-999999	399806	0	10	TrialsPROC	BP_008_BP21_BA.png	1	2	44	SessionSelectionList														lure	3	Body	0-Back	39	80	36	0	0	61	3	39	236522	2	13	59	234483	-1	235564	1	1081	3	3	2039	52	236535	-53	0											8					44												
WM080112	116524_fnca	1	1	1	1544900387	1	75.030	75.030	2.0.10.147	2.0.10.242	2.0.10.242	1.0.0.439	7	234	2	3	Verdana	1	80	0	0	0	WM Stimuli\	0.5	1217.8	0.8	1267.375	0.7	1238.71428571429	0.5	958.4	0.4	1266.75	0.6	1143.33333333333	0.7	943.857142857143	0.6	879	13	399803	2	399791	26	39	399829	-999999	399806	0	10	TrialsPROC	BP_007_BP20_BA.png	1	2	45	SessionSelectionList														target	2	Body	0-Back	40	80	37	0	0	63	1	39	239081	2	13	59	237042	-1	238170	1	1128	2	2	2039	52	239094	-53	0											9					45												
WM080112	116524_fnca	1	1	1	1544900387	1	75.030	75.030	2.0.10.147	2.0.10.242	2.0.10.242	1.0.0.439	7	234	2	3	Verdana	1	80	0	0	0	WM Stimuli\	0.5	1217.8	0.8	1267.375	0.7	1238.71428571429	0.5	958.4	0.4	1266.75	0.6	1143.33333333333	0.7	943.857142857143	0.6	879	13	399803	2	399791	26	39	399829	-999999	399806	0	10	TrialsPROC	BP_012_BP5_BA.png	1	2	46	SessionSelectionList														nonlure	3	Body	0-Back	41	80	38	0	0	65	1	39	241640	2	13	59	239601	-1	241180	1	1579	3	3	2039	52	241653	-53	0											10					46												
WM080112	116524_fnca	1	1	1	1544900387	1	75.030	75.030	2.0.10.147	2.0.10.242	2.0.10.242	1.0.0.439	7	234	2	3	Verdana	1	80	0	0	0	WM Stimuli\	0.5	1217.8	0.8	1267.375	0.7	1238.71428571429	0.5	958.4	0.4	1266.75	0.6	1143.33333333333	0.7	943.857142857143	0.6	879	13	399803	2	399791	26	39	399829	-999999	399806	0	11	Fix15secPROC	""	1	2	47	SessionSelectionList																																															6	242107	-7	0							47												
WM080112	116524_fnca	1	1	1	1544900387	1	75.030	75.030	2.0.10.147	2.0.10.242	2.0.10.242	1.0.0.439	7	234	2	3	Verdana	1	80	0	0	0	WM Stimuli\	0.5	1217.8	0.8	1267.375	0.7	1238.71428571429	0.5	958.4	0.4	1266.75	0.6	1143.33333333333	0.7	943.857142857143	0.6	879	13	399803	2	399791	26	39	399829	-999999	399806	0	12	Cue0BackPROC	PL_001_92012.png	1	2	48	SessionSelectionList																																										13	257114	-14	0												48												
WM080112	116524_fnca	1	1	1	1544900387	1	75.030	75.030	2.0.10.147	2.0.10.242	2.0.10.242	1.0.0.439	7	234	2	3	Verdana	1	80	0	0	0	WM Stimuli\	0.5	1217.8	0.8	1267.375	0.7	1238.71428571429	0.5	958.4	0.4	1266.75	0.6	1143.33333333333	0.7	943.857142857143	0.6	879	13	399803	2	399791	26	39	399829	-999999	399806	0	13	TrialsPROC	PL_003_92016.png	1	2	49	SessionSelectionList														nonlure	3	Place	0-Back	42	80	39	0	0	67	2	39	261712	1	13	72	259673	-1	261542	1	1869	3	3	2039	52	261725	-53	0												1				49												
WM080112	116524_fnca	1	1	1	1544900387	1	75.030	75.030	2.0.10.147	2.0.10.242	2.0.10.242	1.0.0.439	7	234	2	3	Verdana	1	80	0	0	0	WM Stimuli\	0.5	1217.8	0.8	1267.375	0.7	1238.71428571429	0.5	958.4	0.4	1266.75	0.6	1143.33333333333	0.7	943.857142857143	0.6	879	13	399803	2	399791	26	39	399829	-999999	399806	0	13	TrialsPROC	PL_003_92016.png	1	2	50	SessionSelectionList														lure	3	Place	0-Back	43	80	40	0	0	64	1	39	264284	3	14	72	262245	-1	263102	0	857	2	3	2039	53	264298	-54	0												2				50												
WM080112	116524_fnca	1	1	1	1544900387	1	75.030	75.030	2.0.10.147	2.0.10.242	2.0.10.242	1.0.0.439	7	234	2	3	Verdana	1	80	0	0	0	WM Stimuli\	0.5	1217.8	0.8	1267.375	0.7	1238.71428571429	0.5	958.4	0.4	1266.75	0.6	1143.33333333333	0.7	943.857142857143	0.6	879	13	399803	2	399791	26	39	399829	-999999	399806	0	13	TrialsPROC	PL_006_92025.png	1	2	51	SessionSelectionList														nonlure	3	Place	0-Back	44	80	41	0	0	65	1	39	266856	2	14	72	264817	-1	265671	1	854	3	3	2039	53	266870	-54	0												3				51												
WM080112	116524_fnca	1	1	1	1544900387	1	75.030	75.030	2.0.10.147	2.0.10.242	2.0.10.242	1.0.0.439	7	234	2	3	Verdana	1	80	0	0	0	WM Stimuli\	0.5	1217.8	0.8	1267.375	0.7	1238.71428571429	0.5	958.4	0.4	1266.75	0.6	1143.33333333333	0.7	943.857142857143	0.6	879	13	399803	2	399791	26	39	399829	-999999	399806	0	13	TrialsPROC	PL_001_92012.png	1	2	52	SessionSelectionList														target	2	Place	0-Back	45	80	42	0	0	62	2	39	269415	3	14	59	267376	-1	268897	0	1521	3	2	2039	53	269429	-54	0												4				52												
WM080112	116524_fnca	1	1	1	1544900387	1	75.030	75.030	2.0.10.147	2.0.10.242	2.0.10.242	1.0.0.439	7	234	2	3	Verdana	1	80	0	0	0	WM Stimuli\	0.5	1217.8	0.8	1267.375	0.7	1238.71428571429	0.5	958.4	0.4	1266.75	0.6	1143.33333333333	0.7	943.857142857143	0.6	879	13	399803	2	399791	26	39	399829	-999999	399806	0	13	TrialsPROC	PL_004_92023.png	1	2	53	SessionSelectionList														nonlure	3	Place	0-Back	46	80	43	0	0	64	3	40	271988	1	13	72	269948	-1	270954	1	1006	3	3	2040	53	272001	-54	0												5				53												
WM080112	116524_fnca	1	1	1	1544900387	1	75.030	75.030	2.0.10.147	2.0.10.242	2.0.10.242	1.0.0.439	7	234	2	3	Verdana	1	80	0	0	0	WM Stimuli\	0.5	1217.8	0.8	1267.375	0.7	1238.71428571429	0.5	958.4	0.4	1266.75	0.6	1143.33333333333	0.7	943.857142857143	0.6	879	13	399803	2	399791	26	39	399829	-999999	399806	0	13	TrialsPROC	PL_005_92024.png	1	2	54	SessionSelectionList														nonlure	3	Place	0-Back	47	80	44	0	0	65	4	39	274560	1	13	73	272521	-1	273593	1	1072	3	3	2039	52	274573	-53	0												6				54												
WM080112	116524_fnca	1	1	1	1544900387	1	75.030	75.030	2.0.10.147	2.0.10.242	2.0.10.242	1.0.0.439	7	234	2	3	Verdana	1	80	0	0	0	WM Stimuli\	0.5	1217.8	0.8	1267.375	0.7	1238.71428571429	0.5	958.4	0.4	1266.75	0.6	1143.33333333333	0.7	943.857142857143	0.6	879	13	399803	2	399791	26	39	399829	-999999	399806	0	13	TrialsPROC	PL_001_92012.png	1	2	55	SessionSelectionList														target	2	Place	0-Back	48	80	45	0	0	63	5	39	277132	2	14	72	275093	-1	276790	0	1697	3	2	2039	53	277146	-54	0												7				55												
WM080112	116524_fnca	1	1	1	1544900387	1	75.030	75.030	2.0.10.147	2.0.10.242	2.0.10.242	1.0.0.439	7	234	2	3	Verdana	1	80	0	0	0	WM Stimuli\	0.5	1217.8	0.8	1267.375	0.7	1238.71428571429	0.5	958.4	0.4	1266.75	0.6	1143.33333333333	0.7	943.857142857143	0.6	879	13	399803	2	399791	26	39	399829	-999999	399806	0	13	TrialsPROC	PL_002_92014.png	1	2	56	SessionSelectionList														nonlure	3	Place	0-Back	49	80	46	0	0	64	6	39	279704	3	14	72	277665	-1	278763	1	1098	3	3	2039	53	279718	-54	0												8				56												
WM080112	116524_fnca	1	1	1	1544900387	1	75.030	75.030	2.0.10.147	2.0.10.242	2.0.10.242	1.0.0.439	7	234	2	3	Verdana	1	80	0	0	0	WM Stimuli\	0.5	1217.8	0.8	1267.375	0.7	1238.71428571429	0.5	958.4	0.4	1266.75	0.6	1143.33333333333	0.7	943.857142857143	0.6	879	13	399803	2	399791	26	39	399829	-999999	399806	0	13	TrialsPROC	PL_004_92023.png	1	2	57	SessionSelectionList														lure	3	Place	0-Back	50	80	47	0	0	66	7	39	282277	1	13	73	280238	-1	281199	1	961	3	3	2039	52	282290	-53	0												9				57												
WM080112	116524_fnca	1	1	1	1544900387	1	75.030	75.030	2.0.10.147	2.0.10.242	2.0.10.242	1.0.0.439	7	234	2	3	Verdana	1	80	0	0	0	WM Stimuli\	0.5	1217.8	0.8	1267.375	0.7	1238.71428571429	0.5	958.4	0.4	1266.75	0.6	1143.33333333333	0.7	943.857142857143	0.6	879	13	399803	2	399791	26	39	399829	-999999	399806	0	13	TrialsPROC	PL_006_92025.png	1	2	58	SessionSelectionList														lure	3	Place	0-Back	51	80	47	0	1	63	7	39	284849	3	14	72	282810	-1	0	0	0	""	3	2039	53	284863	-54	0												10				58												
WM080112	116524_fnca	1	1	1	1544900387	1	75.030	75.030	2.0.10.147	2.0.10.242	2.0.10.242	1.0.0.439	7	234	2	3	Verdana	1	80	0	0	0	WM Stimuli\	0.5	1217.8	0.8	1267.375	0.7	1238.71428571429	0.5	958.4	0.4	1266.75	0.6	1143.33333333333	0.7	943.857142857143	0.6	879	13	399803	2	399791	26	39	399829	-999999	399806	0	14	Cue2BackPROC	""	1	2	59	SessionSelectionList									6	285316	-7	0																																													59												
WM080112	116524_fnca	1	1	1	1544900387	1	75.030	75.030	2.0.10.147	2.0.10.242	2.0.10.242	1.0.0.439	7	234	2	3	Verdana	1	80	0	0	0	WM Stimuli\	0.5	1217.8	0.8	1267.375	0.7	1238.71428571429	0.5	958.4	0.4	1266.75	0.6	1143.33333333333	0.7	943.857142857143	0.6	879	13	399803	2	399791	26	39	399829	-999999	399806	0	15	TrialsPROC	FC_010_F5.png	1	2	60	SessionSelectionList														nonlure	3	Face	2-Back	52	80	48	0	0	63	1	39	289914	2	13	65	287875	-1	289476	1	1601	3	3	2039	52	289927	-53	0													1			60												
WM080112	116524_fnca	1	1	1	1544900387	1	75.030	75.030	2.0.10.147	2.0.10.242	2.0.10.242	1.0.0.439	7	234	2	3	Verdana	1	80	0	0	0	WM Stimuli\	0.5	1217.8	0.8	1267.375	0.7	1238.71428571429	0.5	958.4	0.4	1266.75	0.6	1143.33333333333	0.7	943.857142857143	0.6	879	13	399803	2	399791	26	39	399829	-999999	399806	0	15	TrialsPROC	FC_012_F6.png	1	2	61	SessionSelectionList														nonlure	3	Face	2-Back	53	80	49	0	0	63	2	39	292486	1	13	72	290447	-1	291770	1	1323	3	3	2039	52	292499	-53	0													2			61												
WM080112	116524_fnca	1	1	1	1544900387	1	75.030	75.030	2.0.10.147	2.0.10.242	2.0.10.242	1.0.0.439	7	234	2	3	Verdana	1	80	0	0	0	WM Stimuli\	0.5	1217.8	0.8	1267.375	0.7	1238.71428571429	0.5	958.4	0.4	1266.75	0.6	1143.33333333333	0.7	943.857142857143	0.6	879	13	399803	2	399791	26	39	399829	-999999	399806	0	15	TrialsPROC	FC_010_F5.png	1	2	62	SessionSelectionList														target	2	Face	2-Back	54	80	50	0	0	63	1	39	295058	2	14	72	293019	-1	294256	1	1237	2	2	2039	53	295072	-54	0													3			62												
WM080112	116524_fnca	1	1	1	1544900387	1	75.030	75.030	2.0.10.147	2.0.10.242	2.0.10.242	1.0.0.439	7	234	2	3	Verdana	1	80	0	0	0	WM Stimuli\	0.5	1217.8	0.8	1267.375	0.7	1238.71428571429	0.5	958.4	0.4	1266.75	0.6	1143.33333333333	0.7	943.857142857143	0.6	879	13	399803	2	399791	26	39	399829	-999999	399806	0	15	TrialsPROC	FC_008_F4.png	1	2	63	SessionSelectionList														nonlure	3	Face	2-Back	55	80	51	0	0	63	1	40	297631	1	13	72	295591	-1	296674	1	1083	3	3	2040	53	297644	-54	0													4			63												
WM080112	116524_fnca	1	1	1	1544900387	1	75.030	75.030	2.0.10.147	2.0.10.242	2.0.10.242	1.0.0.439	7	234	2	3	Verdana	1	80	0	0	0	WM Stimuli\	0.5	1217.8	0.8	1267.375	0.7	1238.71428571429	0.5	958.4	0.4	1266.75	0.6	1143.33333333333	0.7	943.857142857143	0.6	879	13	399803	2	399791	26	39	399829	-999999	399806	0	15	TrialsPROC	FC_012_F6.png	1	2	64	SessionSelectionList														lure	3	Face	2-Back	56	80	52	0	0	63	2	39	300203	2	13	73	298164	-1	299643	1	1479	3	3	2039	52	300216	-53	0													5			64												
WM080112	116524_fnca	1	1	1	1544900387	1	75.030	75.030	2.0.10.147	2.0.10.242	2.0.10.242	1.0.0.439	7	234	2	3	Verdana	1	80	0	0	0	WM Stimuli\	0.5	1217.8	0.8	1267.375	0.7	1238.71428571429	0.5	958.4	0.4	1266.75	0.6	1143.33333333333	0.7	943.857142857143	0.6	879	13	399803	2	399791	26	39	399829	-999999	399806	0	15	TrialsPROC	FC_008_F4.png	1	2	65	SessionSelectionList														target	2	Face	2-Back	57	80	53	0	0	63	3	39	302775	3	14	72	300736	-1	301833	0	1097	3	2	2039	53	302789	-54	0													6			65												
WM080112	116524_fnca	1	1	1	1544900387	1	75.030	75.030	2.0.10.147	2.0.10.242	2.0.10.242	1.0.0.439	7	234	2	3	Verdana	1	80	0	0	0	WM Stimuli\	0.5	1217.8	0.8	1267.375	0.7	1238.71428571429	0.5	958.4	0.4	1266.75	0.6	1143.33333333333	0.7	943.857142857143	0.6	879	13	399803	2	399791	26	39	399829	-999999	399806	0	15	TrialsPROC	FC_007_M4.png	1	2	66	SessionSelectionList														nonlure	3	Face	2-Back	58	80	54	0	0	63	4	39	305347	3	14	72	303308	-1	304157	1	849	3	3	2039	53	305361	-54	0													7			66												
WM080112	116524_fnca	1	1	1	1544900387	1	75.030	75.030	2.0.10.147	2.0.10.242	2.0.10.242	1.0.0.439	7	234	2	3	Verdana	1	80	0	0	0	WM Stimuli\	0.5	1217.8	0.8	1267.375	0.7	1238.71428571429	0.5	958.4	0.4	1266.75	0.6	1143.33333333333	0.7	943.857142857143	0.6	879	13	399803	2	399791	26	39	399829	-999999	399806	0	15	TrialsPROC	FC_007_M4.png	1	2	67	SessionSelectionList														lure	3	Face	2-Back	59	80	55	0	0	63	1	39	307920	2	13	73	305881	-1	307818	0	1937	2	3	2039	52	307933	-53	0													8			67												
WM080112	116524_fnca	1	1	1	1544900387	1	75.030	75.030	2.0.10.147	2.0.10.242	2.0.10.242	1.0.0.439	7	234	2	3	Verdana	1	80	0	0	0	WM Stimuli\	0.5	1217.8	0.8	1267.375	0.7	1238.71428571429	0.5	958.4	0.4	1266.75	0.6	1143.33333333333	0.7	943.857142857143	0.6	879	13	399803	2	399791	26	39	399829	-999999	399806	0	15	TrialsPROC	FC_009_M5.png	1	2	68	SessionSelectionList														nonlure	3	Face	2-Back	60	80	55	0	1	63	1	39	310492	3	13	72	308453	-1	0	0	0	""	3	2039	52	310505	-53	0													9			68												
WM080112	116524_fnca	1	1	1	1544900387	1	75.030	75.030	2.0.10.147	2.0.10.242	2.0.10.242	1.0.0.439	7	234	2	3	Verdana	1	80	0	0	0	WM Stimuli\	0.5	1217.8	0.8	1267.375	0.7	1238.71428571429	0.5	958.4	0.4	1266.75	0.6	1143.33333333333	0.7	943.857142857143	0.6	879	13	399803	2	399791	26	39	399829	-999999	399806	0	15	TrialsPROC	FC_011_M6.png	1	2	69	SessionSelectionList														nonlure	3	Face	2-Back	61	80	56	0	0	63	1	39	313064	3	14	72	311025	-1	312124	1	1099	3	3	2039	53	313078	-54	0													10			69												
WM080112	116524_fnca	1	1	1	1544900387	1	75.030	75.030	2.0.10.147	2.0.10.242	2.0.10.242	1.0.0.439	7	234	2	3	Verdana	1	80	0	0	0	WM Stimuli\	0.5	1217.8	0.8	1267.375	0.7	1238.71428571429	0.5	958.4	0.4	1266.75	0.6	1143.33333333333	0.7	943.857142857143	0.6	879	13	399803	2	399791	26	39	399829	-999999	399806	0	16	Fix15secPROC	""	1	2	70	SessionSelectionList																																															6	313531	-7	0							70												
WM080112	116524_fnca	1	1	1	1544900387	1	75.030	75.030	2.0.10.147	2.0.10.242	2.0.10.242	1.0.0.439	7	234	2	3	Verdana	1	80	0	0	0	WM Stimuli\	0.5	1217.8	0.8	1267.375	0.7	1238.71428571429	0.5	958.4	0.4	1266.75	0.6	1143.33333333333	0.7	943.857142857143	0.6	879	13	399803	2	399791	26	39	399829	-999999	399806	0	17	Cue0BackPROC	TO_007_TOOL7_BA.png	1	2	71	SessionSelectionList																																										13	328538	-14	0												71												
WM080112	116524_fnca	1	1	1	1544900387	1	75.030	75.030	2.0.10.147	2.0.10.242	2.0.10.242	1.0.0.439	7	234	2	3	Verdana	1	80	0	0	0	WM Stimuli\	0.5	1217.8	0.8	1267.375	0.7	1238.71428571429	0.5	958.4	0.4	1266.75	0.6	1143.33333333333	0.7	943.857142857143	0.6	879	13	399803	2	399791	26	39	399829	-999999	399806	0	18	TrialsPROC	TO_010_TOOL10_BA.png	1	2	72	SessionSelectionList														nonlure	3	Tools	0-Back	62	80	56	0	1	61	1	39	333123	1	13	59	331084	-1	0	0	0	""	3	2039	52	333136	-53	0														1		72												
WM080112	116524_fnca	1	1	1	1544900387	1	75.030	75.030	2.0.10.147	2.0.10.242	2.0.10.242	1.0.0.439	7	234	2	3	Verdana	1	80	0	0	0	WM Stimuli\	0.5	1217.8	0.8	1267.375	0.7	1238.71428571429	0.5	958.4	0.4	1266.75	0.6	1143.33333333333	0.7	943.857142857143	0.6	879	13	399803	2	399791	26	39	399829	-999999	399806	0	18	TrialsPROC	TO_009_TOOL9_BA.png	1	2	73	SessionSelectionList														nonlure	3	Tools	0-Back	63	80	57	0	0	62	1	39	335682	2	13	59	333643	-1	334409	1	766	3	3	2039	52	335695	-53	0														2		73												
WM080112	116524_fnca	1	1	1	1544900387	1	75.030	75.030	2.0.10.147	2.0.10.242	2.0.10.242	1.0.0.439	7	234	2	3	Verdana	1	80	0	0	0	WM Stimuli\	0.5	1217.8	0.8	1267.375	0.7	1238.71428571429	0.5	958.4	0.4	1266.75	0.6	1143.33333333333	0.7	943.857142857143	0.6	879	13	399803	2	399791	26	39	399829	-999999	399806	0	18	TrialsPROC	TO_009_TOOL9_BA.png	1	2	74	SessionSelectionList														lure	3	Tools	0-Back	64	80	58	0	0	64	2	39	338241	1	13	59	336202	-1	337571	1	1369	3	3	2039	52	338254	-53	0														3		74												
WM080112	116524_fnca	1	1	1	1544900387	1	75.030	75.030	2.0.10.147	2.0.10.242	2.0.10.242	1.0.0.439	7	234	2	3	Verdana	1	80	0	0	0	WM Stimuli\	0.5	1217.8	0.8	1267.375	0.7	1238.71428571429	0.5	958.4	0.4	1266.75	0.6	1143.33333333333	0.7	943.857142857143	0.6	879	13	399803	2	399791	26	39	399829	-999999	399806	0	18	TrialsPROC	TO_008_TOOL8_BA.png	1	2	75	SessionSelectionList														nonlure	3	Tools	0-Back	65	80	59	0	0	65	3	39	340800	2	13	59	338761	-1	339894	1	1133	3	3	2039	52	340813	-53	0														4		75												
WM080112	116524_fnca	1	1	1	1544900387	1	75.030	75.030	2.0.10.147	2.0.10.242	2.0.10.242	1.0.0.439	7	234	2	3	Verdana	1	80	0	0	0	WM Stimuli\	0.5	1217.8	0.8	1267.375	0.7	1238.71428571429	0.5	958.4	0.4	1266.75	0.6	1143.33333333333	0.7	943.857142857143	0.6	879	13	399803	2	399791	26	39	399829	-999999	399806	0	18	TrialsPROC	TO_011_TOOL11_BA.png	1	2	76	SessionSelectionList														nonlure	3	Tools	0-Back	66	80	60	0	0	66	4	39	343359	2	13	59	341320	-1	341922	1	602	3	3	2039	52	343372	-53	0														5		76												
WM080112	116524_fnca	1	1	1	1544900387	1	75.030	75.030	2.0.10.147	2.0.10.242	2.0.10.242	1.0.0.439	7	234	2	3	Verdana	1	80	0	0	0	WM Stimuli\	0.5	1217.8	0.8	1267.375	0.7	1238.71428571429	0.5	958.4	0.4	1266.75	0.6	1143.33333333333	0.7	943.857142857143	0.6	879	13	399803	2	399791	26	39	399829	-999999	399806	0	18	TrialsPROC	TO_012_TOOL12_BA.png	1	2	77	SessionSelectionList														nonlure	3	Tools	0-Back	67	80	61	0	0	67	5	40	345918	2	13	58	343878	-1	344551	1	673	3	3	2040	53	345931	-54	0														6		77												
WM080112	116524_fnca	1	1	1	1544900387	1	75.030	75.030	2.0.10.147	2.0.10.242	2.0.10.242	1.0.0.439	7	234	2	3	Verdana	1	80	0	0	0	WM Stimuli\	0.5	1217.8	0.8	1267.375	0.7	1238.71428571429	0.5	958.4	0.4	1266.75	0.6	1143.33333333333	0.7	943.857142857143	0.6	879	13	399803	2	399791	26	39	399829	-999999	399806	0	18	TrialsPROC	TO_010_TOOL10_BA.png	1	2	78	SessionSelectionList														lure	3	Tools	0-Back	68	80	62	0	0	65	1	40	348477	1	13	59	346437	-1	347192	0	755	2	3	2040	53	348490	-54	0														7		78												
WM080112	116524_fnca	1	1	1	1544900387	1	75.030	75.030	2.0.10.147	2.0.10.242	2.0.10.242	1.0.0.439	7	234	2	3	Verdana	1	80	0	0	0	WM Stimuli\	0.5	1217.8	0.8	1267.375	0.7	1238.71428571429	0.5	958.4	0.4	1266.75	0.6	1143.33333333333	0.7	943.857142857143	0.6	879	13	399803	2	399791	26	39	399829	-999999	399806	0	18	TrialsPROC	TO_007_TOOL7_BA.png	1	2	79	SessionSelectionList														target	2	Tools	0-Back	69	80	62	0	1	63	1	40	351036	1	13	59	348996	-1	0	0	0	""	2	2040	53	351049	-54	0														8		79												
WM080112	116524_fnca	1	1	1	1544900387	1	75.030	75.030	2.0.10.147	2.0.10.242	2.0.10.242	1.0.0.439	7	234	2	3	Verdana	1	80	0	0	0	WM Stimuli\	0.5	1217.8	0.8	1267.375	0.7	1238.71428571429	0.5	958.4	0.4	1266.75	0.6	1143.33333333333	0.7	943.857142857143	0.6	879	13	399803	2	399791	26	39	399829	-999999	399806	0	18	TrialsPROC	TO_008_TOOL8_BA.png	1	2	80	SessionSelectionList														lure	3	Tools	0-Back	70	80	63	0	0	64	1	40	353595	2	13	59	351555	-1	352286	1	731	3	3	2040	53	353608	-54	0														9		80												
WM080112	116524_fnca	1	1	1	1544900387	1	75.030	75.030	2.0.10.147	2.0.10.242	2.0.10.242	1.0.0.439	7	234	2	3	Verdana	1	80	0	0	0	WM Stimuli\	0.5	1217.8	0.8	1267.375	0.7	1238.71428571429	0.5	958.4	0.4	1266.75	0.6	1143.33333333333	0.7	943.857142857143	0.6	879	13	399803	2	399791	26	39	399829	-999999	399806	0	18	TrialsPROC	TO_007_TOOL7_BA.png	1	2	81	SessionSelectionList														target	2	Tools	0-Back	71	80	64	0	0	62	2	40	356154	1	13	59	354114	-1	355681	0	1567	3	2	2040	53	356167	-54	0														10		81												
WM080112	116524_fnca	1	1	1	1544900387	1	75.030	75.030	2.0.10.147	2.0.10.242	2.0.10.242	1.0.0.439	7	234	2	3	Verdana	1	80	0	0	0	WM Stimuli\	0.5	1217.8	0.8	1267.375	0.7	1238.71428571429	0.5	958.4	0.4	1266.75	0.6	1143.33333333333	0.7	943.857142857143	0.6	879	13	399803	2	399791	26	39	399829	-999999	399806	0	19	Cue2BackPROC	""	1	2	82	SessionSelectionList									6	356620	-7	0																																													82												
WM080112	116524_fnca	1	1	1	1544900387	1	75.030	75.030	2.0.10.147	2.0.10.242	2.0.10.242	1.0.0.439	7	234	2	3	Verdana	1	80	0	0	0	WM Stimuli\	0.5	1217.8	0.8	1267.375	0.7	1238.71428571429	0.5	958.4	0.4	1266.75	0.6	1143.33333333333	0.7	943.857142857143	0.6	879	13	399803	2	399791	26	39	399829	-999999	399806	0	20	TrialsPROC	PL_007_92026.png	1	2	83	SessionSelectionList														nonlure	3	Place	2-Back	72	80	65	0	0	62	1	39	361218	3	14	65	359179	-1	360404	0	1225	2	3	2039	53	361232	-54	0															1	83												
WM080112	116524_fnca	1	1	1	1544900387	1	75.030	75.030	2.0.10.147	2.0.10.242	2.0.10.242	1.0.0.439	7	234	2	3	Verdana	1	80	0	0	0	WM Stimuli\	0.5	1217.8	0.8	1267.375	0.7	1238.71428571429	0.5	958.4	0.4	1266.75	0.6	1143.33333333333	0.7	943.857142857143	0.6	879	13	399803	2	399791	26	39	399829	-999999	399806	0	20	TrialsPROC	PL_007_92026.png	1	2	84	SessionSelectionList														lure	3	Place	2-Back	73	80	66	0	0	62	2	39	363790	2	14	72	361751	-1	363639	0	1888	2	3	2039	53	363804	-54	0															2	84												
WM080112	116524_fnca	1	1	1	1544900387	1	75.030	75.030	2.0.10.147	2.0.10.242	2.0.10.242	1.0.0.439	7	234	2	3	Verdana	1	80	0	0	0	WM Stimuli\	0.5	1217.8	0.8	1267.375	0.7	1238.71428571429	0.5	958.4	0.4	1266.75	0.6	1143.33333333333	0.7	943.857142857143	0.6	879	13	399803	2	399791	26	39	399829	-999999	399806	0	20	TrialsPROC	PL_010_92038.png	1	2	85	SessionSelectionList														nonlure	3	Place	2-Back	74	80	66	0	1	62	2	39	366363	1	13	73	364324	-1	0	0	0	""	3	2039	52	366376	-53	0															3	85												
WM080112	116524_fnca	1	1	1	1544900387	1	75.030	75.030	2.0.10.147	2.0.10.242	2.0.10.242	1.0.0.439	7	234	2	3	Verdana	1	80	0	0	0	WM Stimuli\	0.5	1217.8	0.8	1267.375	0.7	1238.71428571429	0.5	958.4	0.4	1266.75	0.6	1143.33333333333	0.7	943.857142857143	0.6	879	13	399803	2	399791	26	39	399829	-999999	399806	0	20	TrialsPROC	PL_009_92037.png	1	2	86	SessionSelectionList														nonlure	3	Place	2-Back	75	80	67	0	0	62	1	39	368922	1	13	59	366883	-1	368351	1	1468	3	3	2039	52	368935	-53	0															4	86												
WM080112	116524_fnca	1	1	1	1544900387	1	75.030	75.030	2.0.10.147	2.0.10.242	2.0.10.242	1.0.0.439	7	234	2	3	Verdana	1	80	0	0	0	WM Stimuli\	0.5	1217.8	0.8	1267.375	0.7	1238.71428571429	0.5	958.4	0.4	1266.75	0.6	1143.33333333333	0.7	943.857142857143	0.6	879	13	399803	2	399791	26	39	399829	-999999	399806	0	20	TrialsPROC	PL_010_92038.png	1	2	87	SessionSelectionList														target	2	Place	2-Back	76	80	68	0	0	62	2	39	371494	2	13	72	369455	-1	370485	0	1030	3	2	2039	52	371507	-53	0															5	87												
WM080112	116524_fnca	1	1	1	1544900387	1	75.030	75.030	2.0.10.147	2.0.10.242	2.0.10.242	1.0.0.439	7	234	2	3	Verdana	1	80	0	0	0	WM Stimuli\	0.5	1217.8	0.8	1267.375	0.7	1238.71428571429	0.5	958.4	0.4	1266.75	0.6	1143.33333333333	0.7	943.857142857143	0.6	879	13	399803	2	399791	26	39	399829	-999999	399806	0	20	TrialsPROC	PL_009_92037.png	1	2	88	SessionSelectionList														target	2	Place	2-Back	77	80	68	0	1	62	2	39	374053	1	13	59	372014	-1	0	0	0	""	2	2039	52	374066	-53	0															6	88												
WM080112	116524_fnca	1	1	1	1544900387	1	75.030	75.030	2.0.10.147	2.0.10.242	2.0.10.242	1.0.0.439	7	234	2	3	Verdana	1	80	0	0	0	WM Stimuli\	0.5	1217.8	0.8	1267.375	0.7	1238.71428571429	0.5	958.4	0.4	1266.75	0.6	1143.33333333333	0.7	943.857142857143	0.6	879	13	399803	2	399791	26	39	399829	-999999	399806	0	20	TrialsPROC	PL_008_92033.png	1	2	89	SessionSelectionList														nonlure	3	Place	2-Back	78	80	69	0	0	62	1	39	376625	3	14	72	374586	-1	375335	1	749	3	3	2039	53	376639	-54	0															7	89												
WM080112	116524_fnca	1	1	1	1544900387	1	75.030	75.030	2.0.10.147	2.0.10.242	2.0.10.242	1.0.0.439	7	234	2	3	Verdana	1	80	0	0	0	WM Stimuli\	0.5	1217.8	0.8	1267.375	0.7	1238.71428571429	0.5	958.4	0.4	1266.75	0.6	1143.33333333333	0.7	943.857142857143	0.6	879	13	399803	2	399791	26	39	399829	-999999	399806	0	20	TrialsPROC	PL_012_92047.png	1	2	90	SessionSelectionList														nonlure	3	Place	2-Back	79	80	70	0	0	62	2	39	379197	2	14	72	377158	-1	378374	1	1216	3	3	2039	53	379211	-54	0															8	90												
WM080112	116524_fnca	1	1	1	1544900387	1	75.030	75.030	2.0.10.147	2.0.10.242	2.0.10.242	1.0.0.439	7	234	2	3	Verdana	1	80	0	0	0	WM Stimuli\	0.5	1217.8	0.8	1267.375	0.7	1238.71428571429	0.5	958.4	0.4	1266.75	0.6	1143.33333333333	0.7	943.857142857143	0.6	879	13	399803	2	399791	26	39	399829	-999999	399806	0	20	TrialsPROC	PL_012_92047.png	1	2	91	SessionSelectionList														lure	3	Place	2-Back	80	80	71	0	0	62	1	39	381756	2	14	59	379717	-1	380464	0	747	2	3	2039	53	381770	-54	0															9	91												
WM080112	116524_fnca	1	1	1	1544900387	1	75.030	75.030	2.0.10.147	2.0.10.242	2.0.10.242	1.0.0.439	7	234	2	3	Verdana	1	80	0	0	0	WM Stimuli\	0.5	1217.8	0.8	1267.375	0.7	1238.71428571429	0.5	958.4	0.4	1266.75	0.6	1143.33333333333	0.7	943.857142857143	0.6	879	13	399803	2	399791	26	39	399829	-999999	399806	0	20	TrialsPROC	PL_011_92044.png	1	2	92	SessionSelectionList														nonlure	3	Place	2-Back	80	80	72	0	0	62	1	39	384329	1	13	73	382290	-1	383924	1	1634	3	3	2039	52	384342	-53	0															10	92												
WM080112	116524_fnca	1	1	1	1544900387	1	75.030	75.030	2.0.10.147	2.0.10.242	2.0.10.242	1.0.0.439	7	234	2	3	Verdana	1	80	0	0	0	WM Stimuli\	0.5	1217.8	0.8	1267.375	0.7	1238.71428571429	0.5	958.4	0.4	1266.75	0.6	1143.33333333333	0.7	943.857142857143	0.6	879	13	399803	2	399791	26	39	399829	-999999	399806	0	21	Fix15secPROC	""	1	2	93	SessionSelectionList																																															5	384795	-6	0							93												
