ExperimentName	HCPID	RunNumber	Subject	Session	RandomSeed	Group	Laptop.RefreshRate	ScannerD2.RefreshRate	StudioVersion	RuntimeVersion	RuntimeVersionExpected	ExperimentVersion	triggercode	Allowed	Target	Nontarget	FontStyle	RunTrialNumber[Session]	TrialsPerRun[Session]	TotalRespGreater200[Session]	ConsecRTLess200[Session]	ConsecNonResp[Session]	StimuliDir	ACC_2_Back_Body	Avg_RT_For_Correct_Trials_2_Back_Body	ACC_0_Back_Body	Avg_RT_For_Correct_Trials_0_Back_Body	ACC_2_Back_Face	Avg_RT_For_Correct_Trials_2_Back_Face	ACC_0_Back_Face	Avg_RT_For_Correct_Trials_0_Back_Face	ACC_2_Back_Place	Avg_RT_For_Correct_Trials_2_Back_Place	ACC_0_Back_Place	Avg_RT_For_Correct_Trials_0_Back_Place	ACC_2_Back_Tools	Avg_RT_For_Correct_Trials_2_Back_Tools	ACC_0_Back_Tools	Avg_RT_For_Correct_Trials_0_Back_Tools	ExpInstrucFeelFreeToRest.OnsetDelay	ExpInstrucFeelFreeToRest.OnsetTime	ExpInstrucFeelFreeToRest.DurationError	ExpInstrucFeelFreeToRest.StartTime	ExpInstrucFeelFreeToRest.OnsetToOnsetTime	FeelFreeToRest.OnsetDelay	FeelFreeToRest.OnsetTime	FeelFreeToRest.DurationError	FeelFreeToRest.StartTime	FeelFreeToRest.OnsetToOnsetTime	SessionSelectionList	Procedure[Block]	Stimulus[Block]	RunNumberFilterValue	SessionSelectionList.Cycle	SessionSelectionList.Sample	Running[Block]	IntroButtonMap.OnsetDelay	IntroButtonMap.OnsetTime	IntroButtonMap.DurationError	IntroButtonMap.OnsetToOnsetTime	GetReady.OnsetDelay	GetReady.OnsetTime	GetReady.DurationError	GetReady.OnsetToOnsetTime	Cue2Back.OnsetDelay	Cue2Back.OnsetTime	Cue2Back.DurationError	Cue2Back.OnsetToOnsetTime	Run1Block1	TargetType	CorrectResponse	StimType	BlockType	RunTrialNumber[Block]	TrialsPerRun[Block]	TotalRespGreater200[Block]	ConsecRTLess200[Block]	ConsecNonResp[Block]	ControlAcc	ConsecSameResp	ExperimenterWindow.OnsetDelay	ExperimenterWindow.OnsetTime	ExperimenterWindow.DurationError	ExperimenterWindow.OnsetToOnsetTime	Stim.OnsetDelay	Stim.OnsetTime	Stim.DurationError	Stim.RTTime	Stim.ACC	Stim.RT	Stim.RESP	Stim.CRESP	Stim.OnsetToOnsetTime	Fix.OnsetDelay	Fix.OnsetTime	Fix.DurationError	Fix.OnsetToOnsetTime	CueTarget.OnsetDelay	CueTarget.OnsetTime	CueTarget.DurationError	CueTarget.OnsetToOnsetTime	Run1Block2	Fix15sec.OnsetDelay	Fix15sec.OnsetTime	Fix15sec.DurationError	Fix15sec.OnsetToOnsetTime	Run1Block3	Run1Block4	Run1Block5	Run1Block6	Run1Block7	Run1Block8	Block	Procedure[Trial]	Stimulus[Trial]	ReadyList	Running[Trial]	ReadyList.Cycle	ReadyList.Sample	SyncSlide.OnsetDelay	SyncSlide.OnsetTime	SyncSlide.DurationError	SyncSlide.FinishTime	SyncSlide.OnsetToOnsetTime	Trial
WM080112	131217_fnca	1	1	1	-789004881	1	75.030	75.030	2.0.10.147	2.0.10.242	2.0.10.242	1.0.0.439	7	234	2	3	Verdana	1	80	0	0	0	WM Stimuli\	0.9	1114.11111111111	0.9	881.444444444444	1	876.8	1	723.6	0.8	837	1	668.3	0.9	1049.44444444444	1	582.3	13	420423	2	420411	28	41	420451	-999999	420426	0	1	TRSyncPROC	""	1	2	1	SessionSelectionList	117	9773	-999999	0	38	112520	-999999	0																																																	1	InitialTR	4	1	ReadyList	1	1	10	126581	-11	128570	0	1
WM080112	131217_fnca	1	1	1	-789004881	1	75.030	75.030	2.0.10.147	2.0.10.242	2.0.10.242	1.0.0.439	7	234	2	3	Verdana	1	80	0	0	0	WM Stimuli\	0.9	1114.11111111111	0.9	881.444444444444	1	876.8	1	723.6	0.8	837	1	668.3	0.9	1049.44444444444	1	582.3	13	420423	2	420411	28	41	420451	-999999	420426	0	1	TRSyncPROC	""	1	2	1	SessionSelectionList	117	9773	-999999	0	38	112520	-999999	0																																																	1	InitialTR	3	2	ReadyList	1	2	9	128580	-10	130570	0	2
WM080112	131217_fnca	1	1	1	-789004881	1	75.030	75.030	2.0.10.147	2.0.10.242	2.0.10.242	1.0.0.439	7	234	2	3	Verdana	1	80	0	0	0	WM Stimuli\	0.9	1114.11111111111	0.9	881.444444444444	1	876.8	1	723.6	0.8	837	1	668.3	0.9	1049.44444444444	1	582.3	13	420423	2	420411	28	41	420451	-999999	420426	0	1	TRSyncPROC	""	1	2	1	SessionSelectionList	117	9773	-999999	0	38	112520	-999999	0																																																	1	InitialTR	2	3	ReadyList	1	3	8	130579	-9	132570	0	3
WM080112	131217_fnca	1	1	1	-789004881	1	75.030	75.030	2.0.10.147	2.0.10.242	2.0.10.242	1.0.0.439	7	234	2	3	Verdana	1	80	0	0	0	WM Stimuli\	0.9	1114.11111111111	0.9	881.444444444444	1	876.8	1	723.6	0.8	837	1	668.3	0.9	1049.44444444444	1	582.3	13	420423	2	420411	28	41	420451	-999999	420426	0	1	TRSyncPROC	""	1	2	1	SessionSelectionList	117	9773	-999999	0	38	112520	-999999	0																																																	1	InitialTR	1	4	ReadyList	1	4	7	132578	-8	134570	0	4
WM080112	131217_fnca	1	1	1	-789004881	1	75.030	75.030	2.0.10.147	2.0.10.242	2.0.10.242	1.0.0.439	7	234	2	3	Verdana	1	80	0	0	0	WM Stimuli\	0.9	1114.11111111111	0.9	881.444444444444	1	876.8	1	723.6	0.8	837	1	668.3	0.9	1049.44444444444	1	582.3	13	420423	2	420411	28	41	420451	-999999	420426	0	2	Cue2BackPROC	""	1	2	2	SessionSelectionList									19	134590	-20	0																																													2												
WM080112	131217_fnca	1	1	1	-789004881	1	75.030	75.030	2.0.10.147	2.0.10.242	2.0.10.242	1.0.0.439	7	234	2	3	Verdana	1	80	0	0	0	WM Stimuli\	0.9	1114.11111111111	0.9	881.444444444444	1	876.8	1	723.6	0.8	837	1	668.3	0.9	1049.44444444444	1	582.3	13	420423	2	420411	28	41	420451	-999999	420426	0	3	TrialsPROC	BP_002_BP10_BA.png	1	2	3	SessionSelectionList													1	nonlure	3	Body	2-Back	2	80	1	0	0	0	1	53	139229	3	13	105	137176	-1	138547	1	1371	3	3	2053	66	139242	-67	0																3												
WM080112	131217_fnca	1	1	1	-789004881	1	75.030	75.030	2.0.10.147	2.0.10.242	2.0.10.242	1.0.0.439	7	234	2	3	Verdana	1	80	0	0	0	WM Stimuli\	0.9	1114.11111111111	0.9	881.444444444444	1	876.8	1	723.6	0.8	837	1	668.3	0.9	1049.44444444444	1	582.3	13	420423	2	420411	28	41	420451	-999999	420426	0	3	TrialsPROC	BP_001_BP1_BA.png	1	2	4	SessionSelectionList													2	nonlure	3	Body	2-Back	3	80	2	0	0	0	2	39	141801	2	14	86	139762	-1	141103	1	1341	3	3	2039	53	141815	-54	0																4												
WM080112	131217_fnca	1	1	1	-789004881	1	75.030	75.030	2.0.10.147	2.0.10.242	2.0.10.242	1.0.0.439	7	234	2	3	Verdana	1	80	0	0	0	WM Stimuli\	0.9	1114.11111111111	0.9	881.444444444444	1	876.8	1	723.6	0.8	837	1	668.3	0.9	1049.44444444444	1	582.3	13	420423	2	420411	28	41	420451	-999999	420426	0	3	TrialsPROC	BP_006_BP2_BA.png	1	2	5	SessionSelectionList													3	nonlure	3	Body	2-Back	4	80	3	0	0	0	3	39	144360	1	14	59	142321	-1	143429	1	1108	3	3	2039	53	144374	-54	0																5												
WM080112	131217_fnca	1	1	1	-789004881	1	75.030	75.030	2.0.10.147	2.0.10.242	2.0.10.242	1.0.0.439	7	234	2	3	Verdana	1	80	0	0	0	WM Stimuli\	0.9	1114.11111111111	0.9	881.444444444444	1	876.8	1	723.6	0.8	837	1	668.3	0.9	1049.44444444444	1	582.3	13	420423	2	420411	28	41	420451	-999999	420426	0	3	TrialsPROC	BP_001_BP1_BA.png	1	2	6	SessionSelectionList													4	target	2	Body	2-Back	5	80	4	0	0	0	1	39	146932	2	14	72	144893	-1	146084	1	1191	2	2	2039	53	146946	-54	0																6												
WM080112	131217_fnca	1	1	1	-789004881	1	75.030	75.030	2.0.10.147	2.0.10.242	2.0.10.242	1.0.0.439	7	234	2	3	Verdana	1	80	0	0	0	WM Stimuli\	0.9	1114.11111111111	0.9	881.444444444444	1	876.8	1	723.6	0.8	837	1	668.3	0.9	1049.44444444444	1	582.3	13	420423	2	420411	28	41	420451	-999999	420426	0	3	TrialsPROC	BP_005_BP19_BA.png	1	2	7	SessionSelectionList													5	nonlure	3	Body	2-Back	6	80	5	0	0	0	1	40	149505	1	13	72	147465	-1	148634	1	1169	3	3	2040	53	149518	-54	0																7												
WM080112	131217_fnca	1	1	1	-789004881	1	75.030	75.030	2.0.10.147	2.0.10.242	2.0.10.242	1.0.0.439	7	234	2	3	Verdana	1	80	0	0	0	WM Stimuli\	0.9	1114.11111111111	0.9	881.444444444444	1	876.8	1	723.6	0.8	837	1	668.3	0.9	1049.44444444444	1	582.3	13	420423	2	420411	28	41	420451	-999999	420426	0	3	TrialsPROC	BP_003_BP16_BA.png	1	2	8	SessionSelectionList													6	nonlure	3	Body	2-Back	7	80	6	0	0	0	2	40	152064	1	13	59	150024	-1	151036	1	1012	3	3	2040	53	152077	-54	0																8												
WM080112	131217_fnca	1	1	1	-789004881	1	75.030	75.030	2.0.10.147	2.0.10.242	2.0.10.242	1.0.0.439	7	234	2	3	Verdana	1	80	0	0	0	WM Stimuli\	0.9	1114.11111111111	0.9	881.444444444444	1	876.8	1	723.6	0.8	837	1	668.3	0.9	1049.44444444444	1	582.3	13	420423	2	420411	28	41	420451	-999999	420426	0	3	TrialsPROC	BP_006_BP2_BA.png	1	2	9	SessionSelectionList													7	lure	3	Body	2-Back	8	80	7	0	0	0	1	39	154622	2	14	59	152583	-1	153770	0	1187	2	3	2039	53	154636	-54	0																9												
WM080112	131217_fnca	1	1	1	-789004881	1	75.030	75.030	2.0.10.147	2.0.10.242	2.0.10.242	1.0.0.439	7	234	2	3	Verdana	1	80	0	0	0	WM Stimuli\	0.9	1114.11111111111	0.9	881.444444444444	1	876.8	1	723.6	0.8	837	1	668.3	0.9	1049.44444444444	1	582.3	13	420423	2	420411	28	41	420451	-999999	420426	0	3	TrialsPROC	BP_004_BP18_BA.png	1	2	10	SessionSelectionList													8	nonlure	3	Body	2-Back	9	80	8	0	0	0	1	39	157208	2	14	86	155169	-1	156214	1	1045	3	3	2039	53	157222	-54	0																10												
WM080112	131217_fnca	1	1	1	-789004881	1	75.030	75.030	2.0.10.147	2.0.10.242	2.0.10.242	1.0.0.439	7	234	2	3	Verdana	1	80	0	0	0	WM Stimuli\	0.9	1114.11111111111	0.9	881.444444444444	1	876.8	1	723.6	0.8	837	1	668.3	0.9	1049.44444444444	1	582.3	13	420423	2	420411	28	41	420451	-999999	420426	0	3	TrialsPROC	BP_005_BP19_BA.png	1	2	11	SessionSelectionList													9	lure	3	Body	2-Back	10	80	9	0	0	0	2	39	159767	2	14	59	157728	-1	158574	1	846	3	3	2039	53	159781	-54	0																11												
WM080112	131217_fnca	1	1	1	-789004881	1	75.030	75.030	2.0.10.147	2.0.10.242	2.0.10.242	1.0.0.439	7	234	2	3	Verdana	1	80	0	0	0	WM Stimuli\	0.9	1114.11111111111	0.9	881.444444444444	1	876.8	1	723.6	0.8	837	1	668.3	0.9	1049.44444444444	1	582.3	13	420423	2	420411	28	41	420451	-999999	420426	0	3	TrialsPROC	BP_004_BP18_BA.png	1	2	12	SessionSelectionList													10	target	2	Body	2-Back	11	80	10	0	0	0	1	39	162326	2	14	59	160287	-1	161231	1	944	2	2	2039	53	162340	-54	0																12												
WM080112	131217_fnca	1	1	1	-789004881	1	75.030	75.030	2.0.10.147	2.0.10.242	2.0.10.242	1.0.0.439	7	234	2	3	Verdana	1	80	0	0	0	WM Stimuli\	0.9	1114.11111111111	0.9	881.444444444444	1	876.8	1	723.6	0.8	837	1	668.3	0.9	1049.44444444444	1	582.3	13	420423	2	420411	28	41	420451	-999999	420426	0	4	Cue0BackPROC	FC_001_M1.png	1	2	13	SessionSelectionList																																										46	162833	-47	0												13												
WM080112	131217_fnca	1	1	1	-789004881	1	75.030	75.030	2.0.10.147	2.0.10.242	2.0.10.242	1.0.0.439	7	234	2	3	Verdana	1	80	0	0	0	WM Stimuli\	0.9	1114.11111111111	0.9	881.444444444444	1	876.8	1	723.6	0.8	837	1	668.3	0.9	1049.44444444444	1	582.3	13	420423	2	420411	28	41	420451	-999999	420426	0	5	TrialsPROC	FC_005_M3.png	1	2	14	SessionSelectionList														nonlure	3	Face	0-Back	12	80	11	0	0	100	1	39	167417	2	14	91	165378	-1	166218	1	840	3	3	2039	53	167431	-54	0					1											14												
WM080112	131217_fnca	1	1	1	-789004881	1	75.030	75.030	2.0.10.147	2.0.10.242	2.0.10.242	1.0.0.439	7	234	2	3	Verdana	1	80	0	0	0	WM Stimuli\	0.9	1114.11111111111	0.9	881.444444444444	1	876.8	1	723.6	0.8	837	1	668.3	0.9	1049.44444444444	1	582.3	13	420423	2	420411	28	41	420451	-999999	420426	0	5	TrialsPROC	FC_001_M1.png	1	2	15	SessionSelectionList														target	2	Face	0-Back	13	80	12	0	0	100	1	39	169990	2	13	73	167951	-1	168690	1	739	2	2	2039	52	170003	-53	0					2											15												
WM080112	131217_fnca	1	1	1	-789004881	1	75.030	75.030	2.0.10.147	2.0.10.242	2.0.10.242	1.0.0.439	7	234	2	3	Verdana	1	80	0	0	0	WM Stimuli\	0.9	1114.11111111111	0.9	881.444444444444	1	876.8	1	723.6	0.8	837	1	668.3	0.9	1049.44444444444	1	582.3	13	420423	2	420411	28	41	420451	-999999	420426	0	5	TrialsPROC	FC_003_M2.png	1	2	16	SessionSelectionList														nonlure	3	Face	0-Back	14	80	13	0	0	100	1	39	172562	2	14	72	170523	-1	171239	1	716	3	3	2039	53	172576	-54	0					3											16												
WM080112	131217_fnca	1	1	1	-789004881	1	75.030	75.030	2.0.10.147	2.0.10.242	2.0.10.242	1.0.0.439	7	234	2	3	Verdana	1	80	0	0	0	WM Stimuli\	0.9	1114.11111111111	0.9	881.444444444444	1	876.8	1	723.6	0.8	837	1	668.3	0.9	1049.44444444444	1	582.3	13	420423	2	420411	28	41	420451	-999999	420426	0	5	TrialsPROC	FC_004_F2.png	1	2	17	SessionSelectionList														nonlure	3	Face	0-Back	15	80	14	0	0	100	2	39	175161	2	14	99	173122	-1	173909	1	787	3	3	2039	53	175175	-54	0					4											17												
WM080112	131217_fnca	1	1	1	-789004881	1	75.030	75.030	2.0.10.147	2.0.10.242	2.0.10.242	1.0.0.439	7	234	2	3	Verdana	1	80	0	0	0	WM Stimuli\	0.9	1114.11111111111	0.9	881.444444444444	1	876.8	1	723.6	0.8	837	1	668.3	0.9	1049.44444444444	1	582.3	13	420423	2	420411	28	41	420451	-999999	420426	0	5	TrialsPROC	FC_004_F2.png	1	2	18	SessionSelectionList														lure	3	Face	0-Back	16	80	15	0	0	100	3	39	177733	2	14	72	175694	-1	176303	1	609	3	3	2039	53	177747	-54	0					5											18												
WM080112	131217_fnca	1	1	1	-789004881	1	75.030	75.030	2.0.10.147	2.0.10.242	2.0.10.242	1.0.0.439	7	234	2	3	Verdana	1	80	0	0	0	WM Stimuli\	0.9	1114.11111111111	0.9	881.444444444444	1	876.8	1	723.6	0.8	837	1	668.3	0.9	1049.44444444444	1	582.3	13	420423	2	420411	28	41	420451	-999999	420426	0	5	TrialsPROC	FC_001_M1.png	1	2	19	SessionSelectionList														target	2	Face	0-Back	17	80	16	0	0	100	1	40	180306	1	13	72	178266	-1	179109	1	843	2	2	2040	53	180319	-54	0					6											19												
WM080112	131217_fnca	1	1	1	-789004881	1	75.030	75.030	2.0.10.147	2.0.10.242	2.0.10.242	1.0.0.439	7	234	2	3	Verdana	1	80	0	0	0	WM Stimuli\	0.9	1114.11111111111	0.9	881.444444444444	1	876.8	1	723.6	0.8	837	1	668.3	0.9	1049.44444444444	1	582.3	13	420423	2	420411	28	41	420451	-999999	420426	0	5	TrialsPROC	FC_006_F3.png	1	2	20	SessionSelectionList														nonlure	3	Face	0-Back	18	80	17	0	0	100	1	39	182878	1	14	73	180839	-1	181581	1	742	3	3	2039	53	182892	-54	0					7											20												
WM080112	131217_fnca	1	1	1	-789004881	1	75.030	75.030	2.0.10.147	2.0.10.242	2.0.10.242	1.0.0.439	7	234	2	3	Verdana	1	80	0	0	0	WM Stimuli\	0.9	1114.11111111111	0.9	881.444444444444	1	876.8	1	723.6	0.8	837	1	668.3	0.9	1049.44444444444	1	582.3	13	420423	2	420411	28	41	420451	-999999	420426	0	5	TrialsPROC	FC_006_F3.png	1	2	21	SessionSelectionList														lure	3	Face	0-Back	19	80	18	0	0	100	2	39	185450	3	14	72	183411	-1	183943	1	532	3	3	2039	53	185464	-54	0					8											21												
WM080112	131217_fnca	1	1	1	-789004881	1	75.030	75.030	2.0.10.147	2.0.10.242	2.0.10.242	1.0.0.439	7	234	2	3	Verdana	1	80	0	0	0	WM Stimuli\	0.9	1114.11111111111	0.9	881.444444444444	1	876.8	1	723.6	0.8	837	1	668.3	0.9	1049.44444444444	1	582.3	13	420423	2	420411	28	41	420451	-999999	420426	0	5	TrialsPROC	FC_003_M2.png	1	2	22	SessionSelectionList														lure	3	Face	0-Back	20	80	19	0	0	100	3	40	188023	1	13	72	185983	-1	186811	1	828	3	3	2040	53	188036	-54	0					9											22												
WM080112	131217_fnca	1	1	1	-789004881	1	75.030	75.030	2.0.10.147	2.0.10.242	2.0.10.242	1.0.0.439	7	234	2	3	Verdana	1	80	0	0	0	WM Stimuli\	0.9	1114.11111111111	0.9	881.444444444444	1	876.8	1	723.6	0.8	837	1	668.3	0.9	1049.44444444444	1	582.3	13	420423	2	420411	28	41	420451	-999999	420426	0	5	TrialsPROC	FC_002_F1.png	1	2	23	SessionSelectionList														nonlure	3	Face	0-Back	21	80	20	0	0	100	4	39	190621	2	14	99	188582	-1	189182	1	600	3	3	2039	53	190635	-54	0					10											23												
WM080112	131217_fnca	1	1	1	-789004881	1	75.030	75.030	2.0.10.147	2.0.10.242	2.0.10.242	1.0.0.439	7	234	2	3	Verdana	1	80	0	0	0	WM Stimuli\	0.9	1114.11111111111	0.9	881.444444444444	1	876.8	1	723.6	0.8	837	1	668.3	0.9	1049.44444444444	1	582.3	13	420423	2	420411	28	41	420451	-999999	420426	0	6	Fix15secPROC	""	1	2	24	SessionSelectionList																																															6	191088	-7	0							24												
WM080112	131217_fnca	1	1	1	-789004881	1	75.030	75.030	2.0.10.147	2.0.10.242	2.0.10.242	1.0.0.439	7	234	2	3	Verdana	1	80	0	0	0	WM Stimuli\	0.9	1114.11111111111	0.9	881.444444444444	1	876.8	1	723.6	0.8	837	1	668.3	0.9	1049.44444444444	1	582.3	13	420423	2	420411	28	41	420451	-999999	420426	0	7	Cue2BackPROC	""	1	2	25	SessionSelectionList									13	206095	-14	0																																													25												
WM080112	131217_fnca	1	1	1	-789004881	1	75.030	75.030	2.0.10.147	2.0.10.242	2.0.10.242	1.0.0.439	7	234	2	3	Verdana	1	80	0	0	0	WM Stimuli\	0.9	1114.11111111111	0.9	881.444444444444	1	876.8	1	723.6	0.8	837	1	668.3	0.9	1049.44444444444	1	582.3	13	420423	2	420411	28	41	420451	-999999	420426	0	8	TrialsPROC	TO_001_TOOL1_BA.png	1	2	26	SessionSelectionList														nonlure	3	Tools	2-Back	22	80	21	0	0	100	5	39	210707	1	14	86	208668	-1	209530	1	862	3	3	2039	53	210721	-54	0										1						26												
WM080112	131217_fnca	1	1	1	-789004881	1	75.030	75.030	2.0.10.147	2.0.10.242	2.0.10.242	1.0.0.439	7	234	2	3	Verdana	1	80	0	0	0	WM Stimuli\	0.9	1114.11111111111	0.9	881.444444444444	1	876.8	1	723.6	0.8	837	1	668.3	0.9	1049.44444444444	1	582.3	13	420423	2	420411	28	41	420451	-999999	420426	0	8	TrialsPROC	TO_002_TOOL2_BA.png	1	2	27	SessionSelectionList														nonlure	3	Tools	2-Back	23	80	22	0	0	100	6	39	213266	2	14	59	211227	-1	212652	1	1425	3	3	2039	53	213280	-54	0										2						27												
WM080112	131217_fnca	1	1	1	-789004881	1	75.030	75.030	2.0.10.147	2.0.10.242	2.0.10.242	1.0.0.439	7	234	2	3	Verdana	1	80	0	0	0	WM Stimuli\	0.9	1114.11111111111	0.9	881.444444444444	1	876.8	1	723.6	0.8	837	1	668.3	0.9	1049.44444444444	1	582.3	13	420423	2	420411	28	41	420451	-999999	420426	0	8	TrialsPROC	TO_004_TOOL4_BA.png	1	2	28	SessionSelectionList														nonlure	3	Tools	2-Back	24	80	23	0	0	100	7	39	215851	2	14	85	213812	-1	214747	1	935	3	3	2039	53	215865	-54	0										3						28												
WM080112	131217_fnca	1	1	1	-789004881	1	75.030	75.030	2.0.10.147	2.0.10.242	2.0.10.242	1.0.0.439	7	234	2	3	Verdana	1	80	0	0	0	WM Stimuli\	0.9	1114.11111111111	0.9	881.444444444444	1	876.8	1	723.6	0.8	837	1	668.3	0.9	1049.44444444444	1	582.3	13	420423	2	420411	28	41	420451	-999999	420426	0	8	TrialsPROC	TO_002_TOOL2_BA.png	1	2	29	SessionSelectionList														target	2	Tools	2-Back	25	80	24	0	0	100	1	39	218410	3	14	59	216371	-1	217252	1	881	2	2	2039	53	218424	-54	0										4						29												
WM080112	131217_fnca	1	1	1	-789004881	1	75.030	75.030	2.0.10.147	2.0.10.242	2.0.10.242	1.0.0.439	7	234	2	3	Verdana	1	80	0	0	0	WM Stimuli\	0.9	1114.11111111111	0.9	881.444444444444	1	876.8	1	723.6	0.8	837	1	668.3	0.9	1049.44444444444	1	582.3	13	420423	2	420411	28	41	420451	-999999	420426	0	8	TrialsPROC	TO_001_TOOL1_BA.png	1	2	30	SessionSelectionList														lure	3	Tools	2-Back	26	80	25	0	0	100	1	39	220969	2	14	59	218930	-1	220231	1	1301	3	3	2039	53	220983	-54	0										5						30												
WM080112	131217_fnca	1	1	1	-789004881	1	75.030	75.030	2.0.10.147	2.0.10.242	2.0.10.242	1.0.0.439	7	234	2	3	Verdana	1	80	0	0	0	WM Stimuli\	0.9	1114.11111111111	0.9	881.444444444444	1	876.8	1	723.6	0.8	837	1	668.3	0.9	1049.44444444444	1	582.3	13	420423	2	420411	28	41	420451	-999999	420426	0	8	TrialsPROC	TO_004_TOOL4_BA.png	1	2	31	SessionSelectionList														lure	3	Tools	2-Back	27	80	25	0	1	100	1	39	223528	2	14	59	221489	-1	0	0	0	""	3	2039	53	223542	-54	0										6						31												
WM080112	131217_fnca	1	1	1	-789004881	1	75.030	75.030	2.0.10.147	2.0.10.242	2.0.10.242	1.0.0.439	7	234	2	3	Verdana	1	80	0	0	0	WM Stimuli\	0.9	1114.11111111111	0.9	881.444444444444	1	876.8	1	723.6	0.8	837	1	668.3	0.9	1049.44444444444	1	582.3	13	420423	2	420411	28	41	420451	-999999	420426	0	8	TrialsPROC	TO_006_TOOL6_BA.png	1	2	32	SessionSelectionList														nonlure	3	Tools	2-Back	28	80	26	0	0	100	1	39	226101	1	13	73	224062	-1	225415	1	1353	3	3	2039	52	226114	-53	0										7						32												
WM080112	131217_fnca	1	1	1	-789004881	1	75.030	75.030	2.0.10.147	2.0.10.242	2.0.10.242	1.0.0.439	7	234	2	3	Verdana	1	80	0	0	0	WM Stimuli\	0.9	1114.11111111111	0.9	881.444444444444	1	876.8	1	723.6	0.8	837	1	668.3	0.9	1049.44444444444	1	582.3	13	420423	2	420411	28	41	420451	-999999	420426	0	8	TrialsPROC	TO_005_TOOL5_BA.png	1	2	33	SessionSelectionList														nonlure	3	Tools	2-Back	29	80	27	0	0	100	2	39	228660	2	13	59	226621	-1	227758	1	1137	3	3	2039	52	228673	-53	0										8						33												
WM080112	131217_fnca	1	1	1	-789004881	1	75.030	75.030	2.0.10.147	2.0.10.242	2.0.10.242	1.0.0.439	7	234	2	3	Verdana	1	80	0	0	0	WM Stimuli\	0.9	1114.11111111111	0.9	881.444444444444	1	876.8	1	723.6	0.8	837	1	668.3	0.9	1049.44444444444	1	582.3	13	420423	2	420411	28	41	420451	-999999	420426	0	8	TrialsPROC	TO_006_TOOL6_BA.png	1	2	34	SessionSelectionList														target	2	Tools	2-Back	30	80	28	0	0	100	1	40	231219	1	13	58	229179	-1	229762	1	583	2	2	2040	53	231232	-54	0										9						34												
WM080112	131217_fnca	1	1	1	-789004881	1	75.030	75.030	2.0.10.147	2.0.10.242	2.0.10.242	1.0.0.439	7	234	2	3	Verdana	1	80	0	0	0	WM Stimuli\	0.9	1114.11111111111	0.9	881.444444444444	1	876.8	1	723.6	0.8	837	1	668.3	0.9	1049.44444444444	1	582.3	13	420423	2	420411	28	41	420451	-999999	420426	0	8	TrialsPROC	TO_003_TOOL3_BA.png	1	2	35	SessionSelectionList														nonlure	3	Tools	2-Back	31	80	29	0	0	100	1	39	233791	1	14	73	231752	-1	232720	1	968	3	3	2039	53	233805	-54	0										10						35												
WM080112	131217_fnca	1	1	1	-789004881	1	75.030	75.030	2.0.10.147	2.0.10.242	2.0.10.242	1.0.0.439	7	234	2	3	Verdana	1	80	0	0	0	WM Stimuli\	0.9	1114.11111111111	0.9	881.444444444444	1	876.8	1	723.6	0.8	837	1	668.3	0.9	1049.44444444444	1	582.3	13	420423	2	420411	28	41	420451	-999999	420426	0	9	Cue0BackPROC	BP_007_BP20_BA.png	1	2	36	SessionSelectionList																																										19	234271	-20	0												36												
WM080112	131217_fnca	1	1	1	-789004881	1	75.030	75.030	2.0.10.147	2.0.10.242	2.0.10.242	1.0.0.439	7	234	2	3	Verdana	1	80	0	0	0	WM Stimuli\	0.9	1114.11111111111	0.9	881.444444444444	1	876.8	1	723.6	0.8	837	1	668.3	0.9	1049.44444444444	1	582.3	13	420423	2	420411	28	41	420451	-999999	420426	0	10	TrialsPROC	BP_007_BP20_BA.png	1	2	37	SessionSelectionList														target	2	Body	0-Back	32	80	29	0	1	91	1	39	238842	2	14	51	236803	-1	0	0	0	""	2	2039	53	238856	-54	0											1					37												
WM080112	131217_fnca	1	1	1	-789004881	1	75.030	75.030	2.0.10.147	2.0.10.242	2.0.10.242	1.0.0.439	7	234	2	3	Verdana	1	80	0	0	0	WM Stimuli\	0.9	1114.11111111111	0.9	881.444444444444	1	876.8	1	723.6	0.8	837	1	668.3	0.9	1049.44444444444	1	582.3	13	420423	2	420411	28	41	420451	-999999	420426	0	10	TrialsPROC	BP_011_BP4_BA.png	1	2	38	SessionSelectionList														nonlure	3	Body	0-Back	33	80	30	0	0	92	1	40	241415	2	13	72	239375	-1	240268	1	893	3	3	2040	53	241428	-54	0											2					38												
WM080112	131217_fnca	1	1	1	-789004881	1	75.030	75.030	2.0.10.147	2.0.10.242	2.0.10.242	1.0.0.439	7	234	2	3	Verdana	1	80	0	0	0	WM Stimuli\	0.9	1114.11111111111	0.9	881.444444444444	1	876.8	1	723.6	0.8	837	1	668.3	0.9	1049.44444444444	1	582.3	13	420423	2	420411	28	41	420451	-999999	420426	0	10	TrialsPROC	BP_010_BP3_BA.png	1	2	39	SessionSelectionList														nonlure	3	Body	0-Back	34	80	31	0	0	92	2	39	243987	2	14	73	241948	-1	242748	1	800	3	3	2039	53	244001	-54	0											3					39												
WM080112	131217_fnca	1	1	1	-789004881	1	75.030	75.030	2.0.10.147	2.0.10.242	2.0.10.242	1.0.0.439	7	234	2	3	Verdana	1	80	0	0	0	WM Stimuli\	0.9	1114.11111111111	0.9	881.444444444444	1	876.8	1	723.6	0.8	837	1	668.3	0.9	1049.44444444444	1	582.3	13	420423	2	420411	28	41	420451	-999999	420426	0	10	TrialsPROC	BP_008_BP21_BA.png	1	2	40	SessionSelectionList														nonlure	3	Body	0-Back	35	80	32	0	0	93	3	39	246546	1	14	59	244507	-1	245590	1	1083	3	3	2039	53	246560	-54	0											4					40												
WM080112	131217_fnca	1	1	1	-789004881	1	75.030	75.030	2.0.10.147	2.0.10.242	2.0.10.242	1.0.0.439	7	234	2	3	Verdana	1	80	0	0	0	WM Stimuli\	0.9	1114.11111111111	0.9	881.444444444444	1	876.8	1	723.6	0.8	837	1	668.3	0.9	1049.44444444444	1	582.3	13	420423	2	420411	28	41	420451	-999999	420426	0	10	TrialsPROC	BP_011_BP4_BA.png	1	2	41	SessionSelectionList														lure	3	Body	0-Back	36	80	33	0	0	93	4	39	249105	1	14	59	247066	-1	247922	1	856	3	3	2039	53	249119	-54	0											5					41												
WM080112	131217_fnca	1	1	1	-789004881	1	75.030	75.030	2.0.10.147	2.0.10.242	2.0.10.242	1.0.0.439	7	234	2	3	Verdana	1	80	0	0	0	WM Stimuli\	0.9	1114.11111111111	0.9	881.444444444444	1	876.8	1	723.6	0.8	837	1	668.3	0.9	1049.44444444444	1	582.3	13	420423	2	420411	28	41	420451	-999999	420426	0	10	TrialsPROC	BP_009_BP22_BA.png	1	2	42	SessionSelectionList														nonlure	3	Body	0-Back	37	80	34	0	0	94	5	39	251664	1	14	59	249625	-1	250291	1	666	3	3	2039	53	251678	-54	0											6					42												
WM080112	131217_fnca	1	1	1	-789004881	1	75.030	75.030	2.0.10.147	2.0.10.242	2.0.10.242	1.0.0.439	7	234	2	3	Verdana	1	80	0	0	0	WM Stimuli\	0.9	1114.11111111111	0.9	881.444444444444	1	876.8	1	723.6	0.8	837	1	668.3	0.9	1049.44444444444	1	582.3	13	420423	2	420411	28	41	420451	-999999	420426	0	10	TrialsPROC	BP_009_BP22_BA.png	1	2	43	SessionSelectionList														lure	3	Body	0-Back	38	80	35	0	0	94	6	39	254223	1	14	59	252184	-1	252954	1	770	3	3	2039	53	254237	-54	0											7					43												
WM080112	131217_fnca	1	1	1	-789004881	1	75.030	75.030	2.0.10.147	2.0.10.242	2.0.10.242	1.0.0.439	7	234	2	3	Verdana	1	80	0	0	0	WM Stimuli\	0.9	1114.11111111111	0.9	881.444444444444	1	876.8	1	723.6	0.8	837	1	668.3	0.9	1049.44444444444	1	582.3	13	420423	2	420411	28	41	420451	-999999	420426	0	10	TrialsPROC	BP_008_BP21_BA.png	1	2	44	SessionSelectionList														lure	3	Body	0-Back	39	80	36	0	0	94	7	39	256782	1	14	59	254743	-1	255562	1	819	3	3	2039	53	256796	-54	0											8					44												
WM080112	131217_fnca	1	1	1	-789004881	1	75.030	75.030	2.0.10.147	2.0.10.242	2.0.10.242	1.0.0.439	7	234	2	3	Verdana	1	80	0	0	0	WM Stimuli\	0.9	1114.11111111111	0.9	881.444444444444	1	876.8	1	723.6	0.8	837	1	668.3	0.9	1049.44444444444	1	582.3	13	420423	2	420411	28	41	420451	-999999	420426	0	10	TrialsPROC	BP_007_BP20_BA.png	1	2	45	SessionSelectionList														target	2	Body	0-Back	40	80	37	0	0	95	1	39	259341	1	14	59	257302	-1	258112	1	810	2	2	2039	53	259355	-54	0											9					45												
WM080112	131217_fnca	1	1	1	-789004881	1	75.030	75.030	2.0.10.147	2.0.10.242	2.0.10.242	1.0.0.439	7	234	2	3	Verdana	1	80	0	0	0	WM Stimuli\	0.9	1114.11111111111	0.9	881.444444444444	1	876.8	1	723.6	0.8	837	1	668.3	0.9	1049.44444444444	1	582.3	13	420423	2	420411	28	41	420451	-999999	420426	0	10	TrialsPROC	BP_012_BP5_BA.png	1	2	46	SessionSelectionList														nonlure	3	Body	0-Back	41	80	38	0	0	95	1	39	261913	3	14	72	259874	-1	261110	1	1236	3	3	2039	53	261927	-54	0											10					46												
WM080112	131217_fnca	1	1	1	-789004881	1	75.030	75.030	2.0.10.147	2.0.10.242	2.0.10.242	1.0.0.439	7	234	2	3	Verdana	1	80	0	0	0	WM Stimuli\	0.9	1114.11111111111	0.9	881.444444444444	1	876.8	1	723.6	0.8	837	1	668.3	0.9	1049.44444444444	1	582.3	13	420423	2	420411	28	41	420451	-999999	420426	0	11	Fix15secPROC	""	1	2	47	SessionSelectionList																																															6	262380	-7	0							47												
WM080112	131217_fnca	1	1	1	-789004881	1	75.030	75.030	2.0.10.147	2.0.10.242	2.0.10.242	1.0.0.439	7	234	2	3	Verdana	1	80	0	0	0	WM Stimuli\	0.9	1114.11111111111	0.9	881.444444444444	1	876.8	1	723.6	0.8	837	1	668.3	0.9	1049.44444444444	1	582.3	13	420423	2	420411	28	41	420451	-999999	420426	0	12	Cue0BackPROC	PL_001_92012.png	1	2	48	SessionSelectionList																																										40	277414	-41	0												48												
WM080112	131217_fnca	1	1	1	-789004881	1	75.030	75.030	2.0.10.147	2.0.10.242	2.0.10.242	1.0.0.439	7	234	2	3	Verdana	1	80	0	0	0	WM Stimuli\	0.9	1114.11111111111	0.9	881.444444444444	1	876.8	1	723.6	0.8	837	1	668.3	0.9	1049.44444444444	1	582.3	13	420423	2	420411	28	41	420451	-999999	420426	0	13	TrialsPROC	PL_003_92016.png	1	2	49	SessionSelectionList														nonlure	3	Place	0-Back	42	80	39	0	0	95	2	40	281999	1	13	85	279959	-1	280744	1	785	3	3	2040	53	282012	-54	0												1				49												
WM080112	131217_fnca	1	1	1	-789004881	1	75.030	75.030	2.0.10.147	2.0.10.242	2.0.10.242	1.0.0.439	7	234	2	3	Verdana	1	80	0	0	0	WM Stimuli\	0.9	1114.11111111111	0.9	881.444444444444	1	876.8	1	723.6	0.8	837	1	668.3	0.9	1049.44444444444	1	582.3	13	420423	2	420411	28	41	420451	-999999	420426	0	13	TrialsPROC	PL_003_92016.png	1	2	50	SessionSelectionList														lure	3	Place	0-Back	43	80	40	0	0	95	3	39	284571	1	14	73	282532	-1	283261	1	729	3	3	2039	53	284585	-54	0												2				50												
WM080112	131217_fnca	1	1	1	-789004881	1	75.030	75.030	2.0.10.147	2.0.10.242	2.0.10.242	1.0.0.439	7	234	2	3	Verdana	1	80	0	0	0	WM Stimuli\	0.9	1114.11111111111	0.9	881.444444444444	1	876.8	1	723.6	0.8	837	1	668.3	0.9	1049.44444444444	1	582.3	13	420423	2	420411	28	41	420451	-999999	420426	0	13	TrialsPROC	PL_006_92025.png	1	2	51	SessionSelectionList														nonlure	3	Place	0-Back	44	80	41	0	0	96	4	39	287156	2	14	85	285117	-1	285820	1	703	3	3	2039	53	287170	-54	0												3				51												
WM080112	131217_fnca	1	1	1	-789004881	1	75.030	75.030	2.0.10.147	2.0.10.242	2.0.10.242	1.0.0.439	7	234	2	3	Verdana	1	80	0	0	0	WM Stimuli\	0.9	1114.11111111111	0.9	881.444444444444	1	876.8	1	723.6	0.8	837	1	668.3	0.9	1049.44444444444	1	582.3	13	420423	2	420411	28	41	420451	-999999	420426	0	13	TrialsPROC	PL_001_92012.png	1	2	52	SessionSelectionList														target	2	Place	0-Back	45	80	42	0	0	96	1	39	289729	2	14	73	287690	-1	288313	1	623	2	2	2039	53	289743	-54	0												4				52												
WM080112	131217_fnca	1	1	1	-789004881	1	75.030	75.030	2.0.10.147	2.0.10.242	2.0.10.242	1.0.0.439	7	234	2	3	Verdana	1	80	0	0	0	WM Stimuli\	0.9	1114.11111111111	0.9	881.444444444444	1	876.8	1	723.6	0.8	837	1	668.3	0.9	1049.44444444444	1	582.3	13	420423	2	420411	28	41	420451	-999999	420426	0	13	TrialsPROC	PL_004_92023.png	1	2	53	SessionSelectionList														nonlure	3	Place	0-Back	46	80	43	0	0	96	1	39	292328	1	14	99	290289	-1	290857	1	568	3	3	2039	53	292342	-54	0												5				53												
WM080112	131217_fnca	1	1	1	-789004881	1	75.030	75.030	2.0.10.147	2.0.10.242	2.0.10.242	1.0.0.439	7	234	2	3	Verdana	1	80	0	0	0	WM Stimuli\	0.9	1114.11111111111	0.9	881.444444444444	1	876.8	1	723.6	0.8	837	1	668.3	0.9	1049.44444444444	1	582.3	13	420423	2	420411	28	41	420451	-999999	420426	0	13	TrialsPROC	PL_005_92024.png	1	2	54	SessionSelectionList														nonlure	3	Place	0-Back	47	80	44	0	0	96	2	39	294900	1	14	72	292861	-1	293859	1	998	3	3	2039	53	294914	-54	0												6				54												
WM080112	131217_fnca	1	1	1	-789004881	1	75.030	75.030	2.0.10.147	2.0.10.242	2.0.10.242	1.0.0.439	7	234	2	3	Verdana	1	80	0	0	0	WM Stimuli\	0.9	1114.11111111111	0.9	881.444444444444	1	876.8	1	723.6	0.8	837	1	668.3	0.9	1049.44444444444	1	582.3	13	420423	2	420411	28	41	420451	-999999	420426	0	13	TrialsPROC	PL_001_92012.png	1	2	55	SessionSelectionList														target	2	Place	0-Back	48	80	45	0	0	96	1	39	297472	3	14	72	295433	-1	296000	1	567	2	2	2039	53	297486	-54	0												7				55												
WM080112	131217_fnca	1	1	1	-789004881	1	75.030	75.030	2.0.10.147	2.0.10.242	2.0.10.242	1.0.0.439	7	234	2	3	Verdana	1	80	0	0	0	WM Stimuli\	0.9	1114.11111111111	0.9	881.444444444444	1	876.8	1	723.6	0.8	837	1	668.3	0.9	1049.44444444444	1	582.3	13	420423	2	420411	28	41	420451	-999999	420426	0	13	TrialsPROC	PL_002_92014.png	1	2	56	SessionSelectionList														nonlure	3	Place	0-Back	49	80	46	0	0	96	1	40	300045	2	13	72	298005	-1	298536	1	531	3	3	2040	53	300058	-54	0												8				56												
WM080112	131217_fnca	1	1	1	-789004881	1	75.030	75.030	2.0.10.147	2.0.10.242	2.0.10.242	1.0.0.439	7	234	2	3	Verdana	1	80	0	0	0	WM Stimuli\	0.9	1114.11111111111	0.9	881.444444444444	1	876.8	1	723.6	0.8	837	1	668.3	0.9	1049.44444444444	1	582.3	13	420423	2	420411	28	41	420451	-999999	420426	0	13	TrialsPROC	PL_004_92023.png	1	2	57	SessionSelectionList														lure	3	Place	0-Back	50	80	47	0	0	97	2	39	302617	1	14	73	300578	-1	301190	1	612	3	3	2039	53	302631	-54	0												9				57												
WM080112	131217_fnca	1	1	1	-789004881	1	75.030	75.030	2.0.10.147	2.0.10.242	2.0.10.242	1.0.0.439	7	234	2	3	Verdana	1	80	0	0	0	WM Stimuli\	0.9	1114.11111111111	0.9	881.444444444444	1	876.8	1	723.6	0.8	837	1	668.3	0.9	1049.44444444444	1	582.3	13	420423	2	420411	28	41	420451	-999999	420426	0	13	TrialsPROC	PL_006_92025.png	1	2	58	SessionSelectionList														lure	3	Place	0-Back	51	80	48	0	0	97	3	39	305189	2	14	72	303150	-1	303717	1	567	3	3	2039	53	305203	-54	0												10				58												
WM080112	131217_fnca	1	1	1	-789004881	1	75.030	75.030	2.0.10.147	2.0.10.242	2.0.10.242	1.0.0.439	7	234	2	3	Verdana	1	80	0	0	0	WM Stimuli\	0.9	1114.11111111111	0.9	881.444444444444	1	876.8	1	723.6	0.8	837	1	668.3	0.9	1049.44444444444	1	582.3	13	420423	2	420411	28	41	420451	-999999	420426	0	14	Cue2BackPROC	""	1	2	59	SessionSelectionList									6	305656	-7	0																																													59												
WM080112	131217_fnca	1	1	1	-789004881	1	75.030	75.030	2.0.10.147	2.0.10.242	2.0.10.242	1.0.0.439	7	234	2	3	Verdana	1	80	0	0	0	WM Stimuli\	0.9	1114.11111111111	0.9	881.444444444444	1	876.8	1	723.6	0.8	837	1	668.3	0.9	1049.44444444444	1	582.3	13	420423	2	420411	28	41	420451	-999999	420426	0	15	TrialsPROC	FC_010_F5.png	1	2	60	SessionSelectionList														nonlure	3	Face	2-Back	52	80	49	0	0	97	4	40	310281	1	13	91	308241	-1	309267	1	1026	3	3	2040	53	310294	-54	0													1			60												
WM080112	131217_fnca	1	1	1	-789004881	1	75.030	75.030	2.0.10.147	2.0.10.242	2.0.10.242	1.0.0.439	7	234	2	3	Verdana	1	80	0	0	0	WM Stimuli\	0.9	1114.11111111111	0.9	881.444444444444	1	876.8	1	723.6	0.8	837	1	668.3	0.9	1049.44444444444	1	582.3	13	420423	2	420411	28	41	420451	-999999	420426	0	15	TrialsPROC	FC_012_F6.png	1	2	61	SessionSelectionList														nonlure	3	Face	2-Back	53	80	50	0	0	97	5	40	312880	1	13	99	310840	-1	311756	1	916	3	3	2040	53	312893	-54	0													2			61												
WM080112	131217_fnca	1	1	1	-789004881	1	75.030	75.030	2.0.10.147	2.0.10.242	2.0.10.242	1.0.0.439	7	234	2	3	Verdana	1	80	0	0	0	WM Stimuli\	0.9	1114.11111111111	0.9	881.444444444444	1	876.8	1	723.6	0.8	837	1	668.3	0.9	1049.44444444444	1	582.3	13	420423	2	420411	28	41	420451	-999999	420426	0	15	TrialsPROC	FC_010_F5.png	1	2	62	SessionSelectionList														target	2	Face	2-Back	54	80	51	0	0	97	1	39	315452	1	14	73	313413	-1	314025	1	612	2	2	2039	53	315466	-54	0													3			62												
WM080112	131217_fnca	1	1	1	-789004881	1	75.030	75.030	2.0.10.147	2.0.10.242	2.0.10.242	1.0.0.439	7	234	2	3	Verdana	1	80	0	0	0	WM Stimuli\	0.9	1114.11111111111	0.9	881.444444444444	1	876.8	1	723.6	0.8	837	1	668.3	0.9	1049.44444444444	1	582.3	13	420423	2	420411	28	41	420451	-999999	420426	0	15	TrialsPROC	FC_008_F4.png	1	2	63	SessionSelectionList														nonlure	3	Face	2-Back	55	80	52	0	0	97	1	39	318051	1	14	99	316012	-1	317008	1	996	3	3	2039	53	318065	-54	0													4			63												
WM080112	131217_fnca	1	1	1	-789004881	1	75.030	75.030	2.0.10.147	2.0.10.242	2.0.10.242	1.0.0.439	7	234	2	3	Verdana	1	80	0	0	0	WM Stimuli\	0.9	1114.11111111111	0.9	881.444444444444	1	876.8	1	723.6	0.8	837	1	668.3	0.9	1049.44444444444	1	582.3	13	420423	2	420411	28	41	420451	-999999	420426	0	15	TrialsPROC	FC_012_F6.png	1	2	64	SessionSelectionList														lure	3	Face	2-Back	56	80	53	0	0	97	2	39	320623	3	14	72	318584	-1	319391	1	807	3	3	2039	53	320637	-54	0													5			64												
WM080112	131217_fnca	1	1	1	-789004881	1	75.030	75.030	2.0.10.147	2.0.10.242	2.0.10.242	1.0.0.439	7	234	2	3	Verdana	1	80	0	0	0	WM Stimuli\	0.9	1114.11111111111	0.9	881.444444444444	1	876.8	1	723.6	0.8	837	1	668.3	0.9	1049.44444444444	1	582.3	13	420423	2	420411	28	41	420451	-999999	420426	0	15	TrialsPROC	FC_008_F4.png	1	2	65	SessionSelectionList														target	2	Face	2-Back	57	80	54	0	0	97	1	39	323195	2	14	72	321156	-1	321780	1	624	2	2	2039	53	323209	-54	0													6			65												
WM080112	131217_fnca	1	1	1	-789004881	1	75.030	75.030	2.0.10.147	2.0.10.242	2.0.10.242	1.0.0.439	7	234	2	3	Verdana	1	80	0	0	0	WM Stimuli\	0.9	1114.11111111111	0.9	881.444444444444	1	876.8	1	723.6	0.8	837	1	668.3	0.9	1049.44444444444	1	582.3	13	420423	2	420411	28	41	420451	-999999	420426	0	15	TrialsPROC	FC_007_M4.png	1	2	66	SessionSelectionList														nonlure	3	Face	2-Back	58	80	55	0	0	97	1	39	325768	1	14	73	323729	-1	324727	1	998	3	3	2039	53	325782	-54	0													7			66												
WM080112	131217_fnca	1	1	1	-789004881	1	75.030	75.030	2.0.10.147	2.0.10.242	2.0.10.242	1.0.0.439	7	234	2	3	Verdana	1	80	0	0	0	WM Stimuli\	0.9	1114.11111111111	0.9	881.444444444444	1	876.8	1	723.6	0.8	837	1	668.3	0.9	1049.44444444444	1	582.3	13	420423	2	420411	28	41	420451	-999999	420426	0	15	TrialsPROC	FC_007_M4.png	1	2	67	SessionSelectionList														lure	3	Face	2-Back	59	80	56	0	0	97	2	39	328340	1	14	72	326301	-1	327273	1	972	3	3	2039	53	328354	-54	0													8			67												
WM080112	131217_fnca	1	1	1	-789004881	1	75.030	75.030	2.0.10.147	2.0.10.242	2.0.10.242	1.0.0.439	7	234	2	3	Verdana	1	80	0	0	0	WM Stimuli\	0.9	1114.11111111111	0.9	881.444444444444	1	876.8	1	723.6	0.8	837	1	668.3	0.9	1049.44444444444	1	582.3	13	420423	2	420411	28	41	420451	-999999	420426	0	15	TrialsPROC	FC_009_M5.png	1	2	68	SessionSelectionList														nonlure	3	Face	2-Back	60	80	57	0	0	97	3	39	330912	3	14	72	328873	-1	329880	1	1007	3	3	2039	53	330926	-54	0													9			68												
WM080112	131217_fnca	1	1	1	-789004881	1	75.030	75.030	2.0.10.147	2.0.10.242	2.0.10.242	1.0.0.439	7	234	2	3	Verdana	1	80	0	0	0	WM Stimuli\	0.9	1114.11111111111	0.9	881.444444444444	1	876.8	1	723.6	0.8	837	1	668.3	0.9	1049.44444444444	1	582.3	13	420423	2	420411	28	41	420451	-999999	420426	0	15	TrialsPROC	FC_011_M6.png	1	2	69	SessionSelectionList														nonlure	3	Face	2-Back	61	80	58	0	0	97	4	39	333511	2	14	99	331472	-1	332282	1	810	3	3	2039	53	333525	-54	0													10			69												
WM080112	131217_fnca	1	1	1	-789004881	1	75.030	75.030	2.0.10.147	2.0.10.242	2.0.10.242	1.0.0.439	7	234	2	3	Verdana	1	80	0	0	0	WM Stimuli\	0.9	1114.11111111111	0.9	881.444444444444	1	876.8	1	723.6	0.8	837	1	668.3	0.9	1049.44444444444	1	582.3	13	420423	2	420411	28	41	420451	-999999	420426	0	16	Fix15secPROC	""	1	2	70	SessionSelectionList																																															6	333978	-7	0							70												
WM080112	131217_fnca	1	1	1	-789004881	1	75.030	75.030	2.0.10.147	2.0.10.242	2.0.10.242	1.0.0.439	7	234	2	3	Verdana	1	80	0	0	0	WM Stimuli\	0.9	1114.11111111111	0.9	881.444444444444	1	876.8	1	723.6	0.8	837	1	668.3	0.9	1049.44444444444	1	582.3	13	420423	2	420411	28	41	420451	-999999	420426	0	17	Cue0BackPROC	TO_007_TOOL7_BA.png	1	2	71	SessionSelectionList																																										40	349012	-41	0												71												
WM080112	131217_fnca	1	1	1	-789004881	1	75.030	75.030	2.0.10.147	2.0.10.242	2.0.10.242	1.0.0.439	7	234	2	3	Verdana	1	80	0	0	0	WM Stimuli\	0.9	1114.11111111111	0.9	881.444444444444	1	876.8	1	723.6	0.8	837	1	668.3	0.9	1049.44444444444	1	582.3	13	420423	2	420411	28	41	420451	-999999	420426	0	18	TrialsPROC	TO_010_TOOL10_BA.png	1	2	72	SessionSelectionList														nonlure	3	Tools	0-Back	62	80	59	0	0	97	5	39	353597	1	13	86	351558	-1	352457	1	899	3	3	2039	52	353610	-53	0														1		72												
WM080112	131217_fnca	1	1	1	-789004881	1	75.030	75.030	2.0.10.147	2.0.10.242	2.0.10.242	1.0.0.439	7	234	2	3	Verdana	1	80	0	0	0	WM Stimuli\	0.9	1114.11111111111	0.9	881.444444444444	1	876.8	1	723.6	0.8	837	1	668.3	0.9	1049.44444444444	1	582.3	13	420423	2	420411	28	41	420451	-999999	420426	0	18	TrialsPROC	TO_009_TOOL9_BA.png	1	2	73	SessionSelectionList														nonlure	3	Tools	0-Back	63	80	60	0	0	97	6	39	356182	2	14	85	354143	-1	354686	1	543	3	3	2039	53	356196	-54	0														2		73												
WM080112	131217_fnca	1	1	1	-789004881	1	75.030	75.030	2.0.10.147	2.0.10.242	2.0.10.242	1.0.0.439	7	234	2	3	Verdana	1	80	0	0	0	WM Stimuli\	0.9	1114.11111111111	0.9	881.444444444444	1	876.8	1	723.6	0.8	837	1	668.3	0.9	1049.44444444444	1	582.3	13	420423	2	420411	28	41	420451	-999999	420426	0	18	TrialsPROC	TO_009_TOOL9_BA.png	1	2	74	SessionSelectionList														lure	3	Tools	0-Back	64	80	61	0	0	97	7	39	358741	3	14	59	356702	-1	357325	1	623	3	3	2039	53	358755	-54	0														3		74												
WM080112	131217_fnca	1	1	1	-789004881	1	75.030	75.030	2.0.10.147	2.0.10.242	2.0.10.242	1.0.0.439	7	234	2	3	Verdana	1	80	0	0	0	WM Stimuli\	0.9	1114.11111111111	0.9	881.444444444444	1	876.8	1	723.6	0.8	837	1	668.3	0.9	1049.44444444444	1	582.3	13	420423	2	420411	28	41	420451	-999999	420426	0	18	TrialsPROC	TO_008_TOOL8_BA.png	1	2	75	SessionSelectionList														nonlure	3	Tools	0-Back	65	80	62	0	0	97	8	39	361327	1	14	86	359288	-1	359977	1	689	3	3	2039	53	361341	-54	0														4		75												
WM080112	131217_fnca	1	1	1	-789004881	1	75.030	75.030	2.0.10.147	2.0.10.242	2.0.10.242	1.0.0.439	7	234	2	3	Verdana	1	80	0	0	0	WM Stimuli\	0.9	1114.11111111111	0.9	881.444444444444	1	876.8	1	723.6	0.8	837	1	668.3	0.9	1049.44444444444	1	582.3	13	420423	2	420411	28	41	420451	-999999	420426	0	18	TrialsPROC	TO_011_TOOL11_BA.png	1	2	76	SessionSelectionList														nonlure	3	Tools	0-Back	66	80	63	0	0	97	9	39	363899	2	14	72	361860	-1	362337	1	477	3	3	2039	53	363913	-54	0														5		76												
WM080112	131217_fnca	1	1	1	-789004881	1	75.030	75.030	2.0.10.147	2.0.10.242	2.0.10.242	1.0.0.439	7	234	2	3	Verdana	1	80	0	0	0	WM Stimuli\	0.9	1114.11111111111	0.9	881.444444444444	1	876.8	1	723.6	0.8	837	1	668.3	0.9	1049.44444444444	1	582.3	13	420423	2	420411	28	41	420451	-999999	420426	0	18	TrialsPROC	TO_012_TOOL12_BA.png	1	2	77	SessionSelectionList														nonlure	3	Tools	0-Back	67	80	64	0	0	97	10	39	366485	1	14	86	364446	-1	364927	1	481	3	3	2039	53	366499	-54	0														6		77												
WM080112	131217_fnca	1	1	1	-789004881	1	75.030	75.030	2.0.10.147	2.0.10.242	2.0.10.242	1.0.0.439	7	234	2	3	Verdana	1	80	0	0	0	WM Stimuli\	0.9	1114.11111111111	0.9	881.444444444444	1	876.8	1	723.6	0.8	837	1	668.3	0.9	1049.44444444444	1	582.3	13	420423	2	420411	28	41	420451	-999999	420426	0	18	TrialsPROC	TO_010_TOOL10_BA.png	1	2	78	SessionSelectionList														lure	3	Tools	0-Back	68	80	65	0	0	97	11	39	369044	1	14	59	367005	-1	367532	1	527	3	3	2039	53	369058	-54	0														7		78												
WM080112	131217_fnca	1	1	1	-789004881	1	75.030	75.030	2.0.10.147	2.0.10.242	2.0.10.242	1.0.0.439	7	234	2	3	Verdana	1	80	0	0	0	WM Stimuli\	0.9	1114.11111111111	0.9	881.444444444444	1	876.8	1	723.6	0.8	837	1	668.3	0.9	1049.44444444444	1	582.3	13	420423	2	420411	28	41	420451	-999999	420426	0	18	TrialsPROC	TO_007_TOOL7_BA.png	1	2	79	SessionSelectionList														target	2	Tools	0-Back	69	80	66	0	0	97	1	39	371603	1	14	59	369564	-1	370084	1	520	2	2	2039	53	371617	-54	0														8		79												
WM080112	131217_fnca	1	1	1	-789004881	1	75.030	75.030	2.0.10.147	2.0.10.242	2.0.10.242	1.0.0.439	7	234	2	3	Verdana	1	80	0	0	0	WM Stimuli\	0.9	1114.11111111111	0.9	881.444444444444	1	876.8	1	723.6	0.8	837	1	668.3	0.9	1049.44444444444	1	582.3	13	420423	2	420411	28	41	420451	-999999	420426	0	18	TrialsPROC	TO_008_TOOL8_BA.png	1	2	80	SessionSelectionList														lure	3	Tools	0-Back	70	80	67	0	0	97	1	39	374162	1	14	59	372123	-1	372584	1	461	3	3	2039	53	374176	-54	0														9		80												
WM080112	131217_fnca	1	1	1	-789004881	1	75.030	75.030	2.0.10.147	2.0.10.242	2.0.10.242	1.0.0.439	7	234	2	3	Verdana	1	80	0	0	0	WM Stimuli\	0.9	1114.11111111111	0.9	881.444444444444	1	876.8	1	723.6	0.8	837	1	668.3	0.9	1049.44444444444	1	582.3	13	420423	2	420411	28	41	420451	-999999	420426	0	18	TrialsPROC	TO_007_TOOL7_BA.png	1	2	81	SessionSelectionList														target	2	Tools	0-Back	71	80	68	0	0	98	1	39	376721	2	14	59	374682	-1	375285	1	603	2	2	2039	53	376735	-54	0														10		81												
WM080112	131217_fnca	1	1	1	-789004881	1	75.030	75.030	2.0.10.147	2.0.10.242	2.0.10.242	1.0.0.439	7	234	2	3	Verdana	1	80	0	0	0	WM Stimuli\	0.9	1114.11111111111	0.9	881.444444444444	1	876.8	1	723.6	0.8	837	1	668.3	0.9	1049.44444444444	1	582.3	13	420423	2	420411	28	41	420451	-999999	420426	0	19	Cue2BackPROC	""	1	2	82	SessionSelectionList									5	377187	-6	0																																													82												
WM080112	131217_fnca	1	1	1	-789004881	1	75.030	75.030	2.0.10.147	2.0.10.242	2.0.10.242	1.0.0.439	7	234	2	3	Verdana	1	80	0	0	0	WM Stimuli\	0.9	1114.11111111111	0.9	881.444444444444	1	876.8	1	723.6	0.8	837	1	668.3	0.9	1049.44444444444	1	582.3	13	420423	2	420411	28	41	420451	-999999	420426	0	20	TrialsPROC	PL_007_92026.png	1	2	83	SessionSelectionList														nonlure	3	Place	2-Back	72	80	69	0	0	98	1	39	381799	1	14	78	379760	-1	380621	1	861	3	3	2039	53	381813	-54	0															1	83												
WM080112	131217_fnca	1	1	1	-789004881	1	75.030	75.030	2.0.10.147	2.0.10.242	2.0.10.242	1.0.0.439	7	234	2	3	Verdana	1	80	0	0	0	WM Stimuli\	0.9	1114.11111111111	0.9	881.444444444444	1	876.8	1	723.6	0.8	837	1	668.3	0.9	1049.44444444444	1	582.3	13	420423	2	420411	28	41	420451	-999999	420426	0	20	TrialsPROC	PL_007_92026.png	1	2	84	SessionSelectionList														lure	3	Place	2-Back	73	80	70	0	0	98	2	39	384371	2	14	72	382332	-1	383293	1	961	3	3	2039	53	384385	-54	0															2	84												
WM080112	131217_fnca	1	1	1	-789004881	1	75.030	75.030	2.0.10.147	2.0.10.242	2.0.10.242	1.0.0.439	7	234	2	3	Verdana	1	80	0	0	0	WM Stimuli\	0.9	1114.11111111111	0.9	881.444444444444	1	876.8	1	723.6	0.8	837	1	668.3	0.9	1049.44444444444	1	582.3	13	420423	2	420411	28	41	420451	-999999	420426	0	20	TrialsPROC	PL_010_92038.png	1	2	85	SessionSelectionList														nonlure	3	Place	2-Back	74	80	71	0	0	98	3	39	386943	3	14	72	384904	-1	385960	1	1056	3	3	2039	53	386957	-54	0															3	85												
WM080112	131217_fnca	1	1	1	-789004881	1	75.030	75.030	2.0.10.147	2.0.10.242	2.0.10.242	1.0.0.439	7	234	2	3	Verdana	1	80	0	0	0	WM Stimuli\	0.9	1114.11111111111	0.9	881.444444444444	1	876.8	1	723.6	0.8	837	1	668.3	0.9	1049.44444444444	1	582.3	13	420423	2	420411	28	41	420451	-999999	420426	0	20	TrialsPROC	PL_009_92037.png	1	2	86	SessionSelectionList														nonlure	3	Place	2-Back	75	80	72	0	0	98	4	39	389516	2	14	73	387477	-1	388128	1	651	3	3	2039	53	389530	-54	0															4	86												
WM080112	131217_fnca	1	1	1	-789004881	1	75.030	75.030	2.0.10.147	2.0.10.242	2.0.10.242	1.0.0.439	7	234	2	3	Verdana	1	80	0	0	0	WM Stimuli\	0.9	1114.11111111111	0.9	881.444444444444	1	876.8	1	723.6	0.8	837	1	668.3	0.9	1049.44444444444	1	582.3	13	420423	2	420411	28	41	420451	-999999	420426	0	20	TrialsPROC	PL_010_92038.png	1	2	87	SessionSelectionList														target	2	Place	2-Back	76	80	73	0	0	98	5	39	392088	2	14	72	390049	-1	390872	0	823	3	2	2039	53	392102	-54	0															5	87												
WM080112	131217_fnca	1	1	1	-789004881	1	75.030	75.030	2.0.10.147	2.0.10.242	2.0.10.242	1.0.0.439	7	234	2	3	Verdana	1	80	0	0	0	WM Stimuli\	0.9	1114.11111111111	0.9	881.444444444444	1	876.8	1	723.6	0.8	837	1	668.3	0.9	1049.44444444444	1	582.3	13	420423	2	420411	28	41	420451	-999999	420426	0	20	TrialsPROC	PL_009_92037.png	1	2	88	SessionSelectionList														target	2	Place	2-Back	77	80	74	0	0	98	6	39	394647	2	14	59	392608	-1	393521	0	913	3	2	2039	53	394661	-54	0															6	88												
WM080112	131217_fnca	1	1	1	-789004881	1	75.030	75.030	2.0.10.147	2.0.10.242	2.0.10.242	1.0.0.439	7	234	2	3	Verdana	1	80	0	0	0	WM Stimuli\	0.9	1114.11111111111	0.9	881.444444444444	1	876.8	1	723.6	0.8	837	1	668.3	0.9	1049.44444444444	1	582.3	13	420423	2	420411	28	41	420451	-999999	420426	0	20	TrialsPROC	PL_008_92033.png	1	2	89	SessionSelectionList														nonlure	3	Place	2-Back	78	80	75	0	0	98	7	39	397219	2	14	72	395180	-1	396015	1	835	3	3	2039	53	397233	-54	0															7	89												
WM080112	131217_fnca	1	1	1	-789004881	1	75.030	75.030	2.0.10.147	2.0.10.242	2.0.10.242	1.0.0.439	7	234	2	3	Verdana	1	80	0	0	0	WM Stimuli\	0.9	1114.11111111111	0.9	881.444444444444	1	876.8	1	723.6	0.8	837	1	668.3	0.9	1049.44444444444	1	582.3	13	420423	2	420411	28	41	420451	-999999	420426	0	20	TrialsPROC	PL_012_92047.png	1	2	90	SessionSelectionList														nonlure	3	Place	2-Back	79	80	76	0	0	98	8	39	399818	2	14	99	397779	-1	398472	1	693	3	3	2039	53	399832	-54	0															8	90												
WM080112	131217_fnca	1	1	1	-789004881	1	75.030	75.030	2.0.10.147	2.0.10.242	2.0.10.242	1.0.0.439	7	234	2	3	Verdana	1	80	0	0	0	WM Stimuli\	0.9	1114.11111111111	0.9	881.444444444444	1	876.8	1	723.6	0.8	837	1	668.3	0.9	1049.44444444444	1	582.3	13	420423	2	420411	28	41	420451	-999999	420426	0	20	TrialsPROC	PL_012_92047.png	1	2	91	SessionSelectionList														lure	3	Place	2-Back	80	80	77	0	0	98	9	39	402377	2	14	59	400338	-1	401220	1	882	3	3	2039	53	402391	-54	0															9	91												
WM080112	131217_fnca	1	1	1	-789004881	1	75.030	75.030	2.0.10.147	2.0.10.242	2.0.10.242	1.0.0.439	7	234	2	3	Verdana	1	80	0	0	0	WM Stimuli\	0.9	1114.11111111111	0.9	881.444444444444	1	876.8	1	723.6	0.8	837	1	668.3	0.9	1049.44444444444	1	582.3	13	420423	2	420411	28	41	420451	-999999	420426	0	20	TrialsPROC	PL_011_92044.png	1	2	92	SessionSelectionList														nonlure	3	Place	2-Back	80	80	78	0	0	98	10	40	404950	1	13	72	402910	-1	403667	1	757	3	3	2040	53	404963	-54	0															10	92												
WM080112	131217_fnca	1	1	1	-789004881	1	75.030	75.030	2.0.10.147	2.0.10.242	2.0.10.242	1.0.0.439	7	234	2	3	Verdana	1	80	0	0	0	WM Stimuli\	0.9	1114.11111111111	0.9	881.444444444444	1	876.8	1	723.6	0.8	837	1	668.3	0.9	1049.44444444444	1	582.3	13	420423	2	420411	28	41	420451	-999999	420426	0	21	Fix15secPROC	""	1	2	93	SessionSelectionList																																															7	405417	-8	0							93												
