ExperimentName	HCPID	RunNumber	Subject	Session	RandomSeed	Group	Laptop.RefreshRate	ScannerD2.RefreshRate	StudioVersion	RuntimeVersion	RuntimeVersionExpected	ExperimentVersion	triggercode	Allowed	Target	Nontarget	FontStyle	RunTrialNumber[Session]	TrialsPerRun[Session]	TotalRespGreater200[Session]	ConsecRTLess200[Session]	ConsecNonResp[Session]	StimuliDir	ACC_2_Back_Body	Avg_RT_For_Correct_Trials_2_Back_Body	ACC_0_Back_Body	Avg_RT_For_Correct_Trials_0_Back_Body	ACC_2_Back_Face	Avg_RT_For_Correct_Trials_2_Back_Face	ACC_0_Back_Face	Avg_RT_For_Correct_Trials_0_Back_Face	ACC_2_Back_Place	Avg_RT_For_Correct_Trials_2_Back_Place	ACC_0_Back_Place	Avg_RT_For_Correct_Trials_0_Back_Place	ACC_2_Back_Tools	Avg_RT_For_Correct_Trials_2_Back_Tools	ACC_0_Back_Tools	Avg_RT_For_Correct_Trials_0_Back_Tools	ExpInstrucFeelFreeToRest.OnsetDelay	ExpInstrucFeelFreeToRest.OnsetTime	ExpInstrucFeelFreeToRest.DurationError	ExpInstrucFeelFreeToRest.StartTime	ExpInstrucFeelFreeToRest.OnsetToOnsetTime	FeelFreeToRest.OnsetDelay	FeelFreeToRest.OnsetTime	FeelFreeToRest.DurationError	FeelFreeToRest.StartTime	FeelFreeToRest.OnsetToOnsetTime	SessionSelectionList	Procedure[Block]	Stimulus[Block]	RunNumberFilterValue	SessionSelectionList.Cycle	SessionSelectionList.Sample	Running[Block]	IntroButtonMap.OnsetDelay	IntroButtonMap.OnsetTime	IntroButtonMap.DurationError	IntroButtonMap.OnsetToOnsetTime	GetReady.OnsetDelay	GetReady.OnsetTime	GetReady.DurationError	GetReady.OnsetToOnsetTime	Cue2Back.OnsetDelay	Cue2Back.OnsetTime	Cue2Back.DurationError	Cue2Back.OnsetToOnsetTime	Run1Block1	TargetType	CorrectResponse	StimType	BlockType	RunTrialNumber[Block]	TrialsPerRun[Block]	TotalRespGreater200[Block]	ConsecRTLess200[Block]	ConsecNonResp[Block]	ControlAcc	ConsecSameResp	ExperimenterWindow.OnsetDelay	ExperimenterWindow.OnsetTime	ExperimenterWindow.DurationError	ExperimenterWindow.OnsetToOnsetTime	Stim.OnsetDelay	Stim.OnsetTime	Stim.DurationError	Stim.RTTime	Stim.ACC	Stim.RT	Stim.RESP	Stim.CRESP	Stim.OnsetToOnsetTime	Fix.OnsetDelay	Fix.OnsetTime	Fix.DurationError	Fix.OnsetToOnsetTime	CueTarget.OnsetDelay	CueTarget.OnsetTime	CueTarget.DurationError	CueTarget.OnsetToOnsetTime	Run1Block2	Fix15sec.OnsetDelay	Fix15sec.OnsetTime	Fix15sec.DurationError	Fix15sec.OnsetToOnsetTime	Run1Block3	Run1Block4	Run1Block5	Run1Block6	Run1Block7	Run1Block8	Block	Procedure[Trial]	Stimulus[Trial]	ReadyList	Running[Trial]	ReadyList.Cycle	ReadyList.Sample	SyncSlide.OnsetDelay	SyncSlide.OnsetTime	SyncSlide.DurationError	SyncSlide.FinishTime	SyncSlide.OnsetToOnsetTime	Trial
WM080112	131722_fnca	1	1	1	-1345297175	1	75.031	75.031	2.0.10.147	2.0.10.242	2.0.10.242	1.0.0.439	7	234	2	3	Verdana	1	80	0	0	0	WM Stimuli\	0.9	1048.22222222222	0.9	1080	0.8	879.125	1	822.3	1	890.5	1	846.8	0.6	1296.33333333333	0.7	707.142857142857	13	375691	2	375679	27	40	375718	-999999	375694	0	1	TRSyncPROC	""	1	2	1	SessionSelectionList	119	16147	-999999	0	32	69618	-999999	0																																																	1	InitialTR	4	1	ReadyList	1	1	15	82266	-16	84250	0	1
WM080112	131722_fnca	1	1	1	-1345297175	1	75.031	75.031	2.0.10.147	2.0.10.242	2.0.10.242	1.0.0.439	7	234	2	3	Verdana	1	80	0	0	0	WM Stimuli\	0.9	1048.22222222222	0.9	1080	0.8	879.125	1	822.3	1	890.5	1	846.8	0.6	1296.33333333333	0.7	707.142857142857	13	375691	2	375679	27	40	375718	-999999	375694	0	1	TRSyncPROC	""	1	2	1	SessionSelectionList	119	16147	-999999	0	32	69618	-999999	0																																																	1	InitialTR	3	2	ReadyList	1	2	14	84265	-15	86250	0	2
WM080112	131722_fnca	1	1	1	-1345297175	1	75.031	75.031	2.0.10.147	2.0.10.242	2.0.10.242	1.0.0.439	7	234	2	3	Verdana	1	80	0	0	0	WM Stimuli\	0.9	1048.22222222222	0.9	1080	0.8	879.125	1	822.3	1	890.5	1	846.8	0.6	1296.33333333333	0.7	707.142857142857	13	375691	2	375679	27	40	375718	-999999	375694	0	1	TRSyncPROC	""	1	2	1	SessionSelectionList	119	16147	-999999	0	32	69618	-999999	0																																																	1	InitialTR	2	3	ReadyList	1	3	13	86264	-14	88250	0	3
WM080112	131722_fnca	1	1	1	-1345297175	1	75.031	75.031	2.0.10.147	2.0.10.242	2.0.10.242	1.0.0.439	7	234	2	3	Verdana	1	80	0	0	0	WM Stimuli\	0.9	1048.22222222222	0.9	1080	0.8	879.125	1	822.3	1	890.5	1	846.8	0.6	1296.33333333333	0.7	707.142857142857	13	375691	2	375679	27	40	375718	-999999	375694	0	1	TRSyncPROC	""	1	2	1	SessionSelectionList	119	16147	-999999	0	32	69618	-999999	0																																																	1	InitialTR	1	4	ReadyList	1	4	12	88263	-13	90250	0	4
WM080112	131722_fnca	1	1	1	-1345297175	1	75.031	75.031	2.0.10.147	2.0.10.242	2.0.10.242	1.0.0.439	7	234	2	3	Verdana	1	80	0	0	0	WM Stimuli\	0.9	1048.22222222222	0.9	1080	0.8	879.125	1	822.3	1	890.5	1	846.8	0.6	1296.33333333333	0.7	707.142857142857	13	375691	2	375679	27	40	375718	-999999	375694	0	2	Cue2BackPROC	""	1	2	2	SessionSelectionList									12	90263	-13	0																																													2												
WM080112	131722_fnca	1	1	1	-1345297175	1	75.031	75.031	2.0.10.147	2.0.10.242	2.0.10.242	1.0.0.439	7	234	2	3	Verdana	1	80	0	0	0	WM Stimuli\	0.9	1048.22222222222	0.9	1080	0.8	879.125	1	822.3	1	890.5	1	846.8	0.6	1296.33333333333	0.7	707.142857142857	13	375691	2	375679	27	40	375718	-999999	375694	0	3	TrialsPROC	BP_002_BP10_BA.png	1	2	3	SessionSelectionList													1	nonlure	3	Body	2-Back	2	80	1	0	0	0	1	52	94887	3	14	84	92835	-1	93657	1	822	3	3	2052	66	94901	-67	0																3												
WM080112	131722_fnca	1	1	1	-1345297175	1	75.031	75.031	2.0.10.147	2.0.10.242	2.0.10.242	1.0.0.439	7	234	2	3	Verdana	1	80	0	0	0	WM Stimuli\	0.9	1048.22222222222	0.9	1080	0.8	879.125	1	822.3	1	890.5	1	846.8	0.6	1296.33333333333	0.7	707.142857142857	13	375691	2	375679	27	40	375718	-999999	375694	0	3	TrialsPROC	BP_001_BP1_BA.png	1	2	4	SessionSelectionList													2	nonlure	3	Body	2-Back	3	80	2	0	0	0	2	39	97446	3	14	72	95407	-1	96405	1	998	3	3	2039	53	97460	-54	0																4												
WM080112	131722_fnca	1	1	1	-1345297175	1	75.031	75.031	2.0.10.147	2.0.10.242	2.0.10.242	1.0.0.439	7	234	2	3	Verdana	1	80	0	0	0	WM Stimuli\	0.9	1048.22222222222	0.9	1080	0.8	879.125	1	822.3	1	890.5	1	846.8	0.6	1296.33333333333	0.7	707.142857142857	13	375691	2	375679	27	40	375718	-999999	375694	0	3	TrialsPROC	BP_006_BP2_BA.png	1	2	5	SessionSelectionList													3	nonlure	3	Body	2-Back	4	80	3	0	0	0	3	39	100005	2	14	59	97966	-1	99097	1	1131	3	3	2039	53	100019	-54	0																5												
WM080112	131722_fnca	1	1	1	-1345297175	1	75.031	75.031	2.0.10.147	2.0.10.242	2.0.10.242	1.0.0.439	7	234	2	3	Verdana	1	80	0	0	0	WM Stimuli\	0.9	1048.22222222222	0.9	1080	0.8	879.125	1	822.3	1	890.5	1	846.8	0.6	1296.33333333333	0.7	707.142857142857	13	375691	2	375679	27	40	375718	-999999	375694	0	3	TrialsPROC	BP_001_BP1_BA.png	1	2	6	SessionSelectionList													4	target	2	Body	2-Back	5	80	4	0	0	0	1	39	102577	2	14	72	100538	-1	101915	1	1377	2	2	2039	53	102591	-54	0																6												
WM080112	131722_fnca	1	1	1	-1345297175	1	75.031	75.031	2.0.10.147	2.0.10.242	2.0.10.242	1.0.0.439	7	234	2	3	Verdana	1	80	0	0	0	WM Stimuli\	0.9	1048.22222222222	0.9	1080	0.8	879.125	1	822.3	1	890.5	1	846.8	0.6	1296.33333333333	0.7	707.142857142857	13	375691	2	375679	27	40	375718	-999999	375694	0	3	TrialsPROC	BP_005_BP19_BA.png	1	2	7	SessionSelectionList													5	nonlure	3	Body	2-Back	6	80	5	0	0	0	1	39	105136	2	14	59	103097	-1	104017	1	920	3	3	2039	53	105150	-54	0																7												
WM080112	131722_fnca	1	1	1	-1345297175	1	75.031	75.031	2.0.10.147	2.0.10.242	2.0.10.242	1.0.0.439	7	234	2	3	Verdana	1	80	0	0	0	WM Stimuli\	0.9	1048.22222222222	0.9	1080	0.8	879.125	1	822.3	1	890.5	1	846.8	0.6	1296.33333333333	0.7	707.142857142857	13	375691	2	375679	27	40	375718	-999999	375694	0	3	TrialsPROC	BP_003_BP16_BA.png	1	2	8	SessionSelectionList													6	nonlure	3	Body	2-Back	7	80	6	0	0	0	2	39	107695	2	14	59	105656	-1	106404	1	748	3	3	2039	53	107709	-54	0																8												
WM080112	131722_fnca	1	1	1	-1345297175	1	75.031	75.031	2.0.10.147	2.0.10.242	2.0.10.242	1.0.0.439	7	234	2	3	Verdana	1	80	0	0	0	WM Stimuli\	0.9	1048.22222222222	0.9	1080	0.8	879.125	1	822.3	1	890.5	1	846.8	0.6	1296.33333333333	0.7	707.142857142857	13	375691	2	375679	27	40	375718	-999999	375694	0	3	TrialsPROC	BP_006_BP2_BA.png	1	2	9	SessionSelectionList													7	lure	3	Body	2-Back	8	80	7	0	0	0	1	39	110254	2	14	59	108215	-1	108945	0	730	2	3	2039	53	110268	-54	0																9												
WM080112	131722_fnca	1	1	1	-1345297175	1	75.031	75.031	2.0.10.147	2.0.10.242	2.0.10.242	1.0.0.439	7	234	2	3	Verdana	1	80	0	0	0	WM Stimuli\	0.9	1048.22222222222	0.9	1080	0.8	879.125	1	822.3	1	890.5	1	846.8	0.6	1296.33333333333	0.7	707.142857142857	13	375691	2	375679	27	40	375718	-999999	375694	0	3	TrialsPROC	BP_004_BP18_BA.png	1	2	10	SessionSelectionList													8	nonlure	3	Body	2-Back	9	80	8	0	0	0	1	39	112813	2	14	59	110774	-1	111650	1	876	3	3	2039	53	112827	-54	0																10												
WM080112	131722_fnca	1	1	1	-1345297175	1	75.031	75.031	2.0.10.147	2.0.10.242	2.0.10.242	1.0.0.439	7	234	2	3	Verdana	1	80	0	0	0	WM Stimuli\	0.9	1048.22222222222	0.9	1080	0.8	879.125	1	822.3	1	890.5	1	846.8	0.6	1296.33333333333	0.7	707.142857142857	13	375691	2	375679	27	40	375718	-999999	375694	0	3	TrialsPROC	BP_005_BP19_BA.png	1	2	11	SessionSelectionList													9	lure	3	Body	2-Back	10	80	9	0	0	0	2	39	115372	1	14	59	113333	-1	114297	1	964	3	3	2039	53	115386	-54	0																11												
WM080112	131722_fnca	1	1	1	-1345297175	1	75.031	75.031	2.0.10.147	2.0.10.242	2.0.10.242	1.0.0.439	7	234	2	3	Verdana	1	80	0	0	0	WM Stimuli\	0.9	1048.22222222222	0.9	1080	0.8	879.125	1	822.3	1	890.5	1	846.8	0.6	1296.33333333333	0.7	707.142857142857	13	375691	2	375679	27	40	375718	-999999	375694	0	3	TrialsPROC	BP_004_BP18_BA.png	1	2	12	SessionSelectionList													10	target	2	Body	2-Back	11	80	10	0	0	0	1	39	117931	1	14	59	115892	-1	117490	1	1598	2	2	2039	53	117945	-54	0																12												
WM080112	131722_fnca	1	1	1	-1345297175	1	75.031	75.031	2.0.10.147	2.0.10.242	2.0.10.242	1.0.0.439	7	234	2	3	Verdana	1	80	0	0	0	WM Stimuli\	0.9	1048.22222222222	0.9	1080	0.8	879.125	1	822.3	1	890.5	1	846.8	0.6	1296.33333333333	0.7	707.142857142857	13	375691	2	375679	27	40	375718	-999999	375694	0	4	Cue0BackPROC	FC_001_M1.png	1	2	13	SessionSelectionList																																										19	118411	-20	0												13												
WM080112	131722_fnca	1	1	1	-1345297175	1	75.031	75.031	2.0.10.147	2.0.10.242	2.0.10.242	1.0.0.439	7	234	2	3	Verdana	1	80	0	0	0	WM Stimuli\	0.9	1048.22222222222	0.9	1080	0.8	879.125	1	822.3	1	890.5	1	846.8	0.6	1296.33333333333	0.7	707.142857142857	13	375691	2	375679	27	40	375718	-999999	375694	0	5	TrialsPROC	FC_005_M3.png	1	2	14	SessionSelectionList														nonlure	3	Face	0-Back	12	80	11	0	0	100	1	40	122996	1	13	64	120956	-1	121967	1	1011	3	3	2040	53	123009	-54	0					1											14												
WM080112	131722_fnca	1	1	1	-1345297175	1	75.031	75.031	2.0.10.147	2.0.10.242	2.0.10.242	1.0.0.439	7	234	2	3	Verdana	1	80	0	0	0	WM Stimuli\	0.9	1048.22222222222	0.9	1080	0.8	879.125	1	822.3	1	890.5	1	846.8	0.6	1296.33333333333	0.7	707.142857142857	13	375691	2	375679	27	40	375718	-999999	375694	0	5	TrialsPROC	FC_001_M1.png	1	2	15	SessionSelectionList														target	2	Face	0-Back	13	80	12	0	0	100	1	39	125568	2	13	73	123529	-1	124962	1	1433	2	2	2039	52	125581	-53	0					2											15												
WM080112	131722_fnca	1	1	1	-1345297175	1	75.031	75.031	2.0.10.147	2.0.10.242	2.0.10.242	1.0.0.439	7	234	2	3	Verdana	1	80	0	0	0	WM Stimuli\	0.9	1048.22222222222	0.9	1080	0.8	879.125	1	822.3	1	890.5	1	846.8	0.6	1296.33333333333	0.7	707.142857142857	13	375691	2	375679	27	40	375718	-999999	375694	0	5	TrialsPROC	FC_003_M2.png	1	2	16	SessionSelectionList														nonlure	3	Face	0-Back	14	80	13	0	0	100	1	39	128140	2	14	72	126101	-1	126725	1	624	3	3	2039	53	128154	-54	0					3											16												
WM080112	131722_fnca	1	1	1	-1345297175	1	75.031	75.031	2.0.10.147	2.0.10.242	2.0.10.242	1.0.0.439	7	234	2	3	Verdana	1	80	0	0	0	WM Stimuli\	0.9	1048.22222222222	0.9	1080	0.8	879.125	1	822.3	1	890.5	1	846.8	0.6	1296.33333333333	0.7	707.142857142857	13	375691	2	375679	27	40	375718	-999999	375694	0	5	TrialsPROC	FC_004_F2.png	1	2	17	SessionSelectionList														nonlure	3	Face	0-Back	15	80	14	0	0	100	2	39	130712	2	14	72	128673	-1	129252	1	579	3	3	2039	53	130726	-54	0					4											17												
WM080112	131722_fnca	1	1	1	-1345297175	1	75.031	75.031	2.0.10.147	2.0.10.242	2.0.10.242	1.0.0.439	7	234	2	3	Verdana	1	80	0	0	0	WM Stimuli\	0.9	1048.22222222222	0.9	1080	0.8	879.125	1	822.3	1	890.5	1	846.8	0.6	1296.33333333333	0.7	707.142857142857	13	375691	2	375679	27	40	375718	-999999	375694	0	5	TrialsPROC	FC_004_F2.png	1	2	18	SessionSelectionList														lure	3	Face	0-Back	16	80	15	0	0	100	3	39	133285	1	13	73	131246	-1	131778	1	532	3	3	2039	52	133298	-53	0					5											18												
WM080112	131722_fnca	1	1	1	-1345297175	1	75.031	75.031	2.0.10.147	2.0.10.242	2.0.10.242	1.0.0.439	7	234	2	3	Verdana	1	80	0	0	0	WM Stimuli\	0.9	1048.22222222222	0.9	1080	0.8	879.125	1	822.3	1	890.5	1	846.8	0.6	1296.33333333333	0.7	707.142857142857	13	375691	2	375679	27	40	375718	-999999	375694	0	5	TrialsPROC	FC_001_M1.png	1	2	19	SessionSelectionList														target	2	Face	0-Back	17	80	16	0	0	100	1	39	135857	1	13	72	133818	-1	134592	1	774	2	2	2039	52	135870	-53	0					6											19												
WM080112	131722_fnca	1	1	1	-1345297175	1	75.031	75.031	2.0.10.147	2.0.10.242	2.0.10.242	1.0.0.439	7	234	2	3	Verdana	1	80	0	0	0	WM Stimuli\	0.9	1048.22222222222	0.9	1080	0.8	879.125	1	822.3	1	890.5	1	846.8	0.6	1296.33333333333	0.7	707.142857142857	13	375691	2	375679	27	40	375718	-999999	375694	0	5	TrialsPROC	FC_006_F3.png	1	2	20	SessionSelectionList														nonlure	3	Face	0-Back	18	80	17	0	0	100	1	39	138429	2	14	72	136390	-1	137031	1	641	3	3	2039	53	138443	-54	0					7											20												
WM080112	131722_fnca	1	1	1	-1345297175	1	75.031	75.031	2.0.10.147	2.0.10.242	2.0.10.242	1.0.0.439	7	234	2	3	Verdana	1	80	0	0	0	WM Stimuli\	0.9	1048.22222222222	0.9	1080	0.8	879.125	1	822.3	1	890.5	1	846.8	0.6	1296.33333333333	0.7	707.142857142857	13	375691	2	375679	27	40	375718	-999999	375694	0	5	TrialsPROC	FC_006_F3.png	1	2	21	SessionSelectionList														lure	3	Face	0-Back	19	80	18	0	0	100	2	40	141002	1	13	72	138962	-1	139737	1	775	3	3	2040	53	141015	-54	0					8											21												
WM080112	131722_fnca	1	1	1	-1345297175	1	75.031	75.031	2.0.10.147	2.0.10.242	2.0.10.242	1.0.0.439	7	234	2	3	Verdana	1	80	0	0	0	WM Stimuli\	0.9	1048.22222222222	0.9	1080	0.8	879.125	1	822.3	1	890.5	1	846.8	0.6	1296.33333333333	0.7	707.142857142857	13	375691	2	375679	27	40	375718	-999999	375694	0	5	TrialsPROC	FC_003_M2.png	1	2	22	SessionSelectionList														lure	3	Face	0-Back	20	80	19	0	0	100	3	39	143574	1	13	73	141535	-1	142810	1	1275	3	3	2039	52	143587	-53	0					9											22												
WM080112	131722_fnca	1	1	1	-1345297175	1	75.031	75.031	2.0.10.147	2.0.10.242	2.0.10.242	1.0.0.439	7	234	2	3	Verdana	1	80	0	0	0	WM Stimuli\	0.9	1048.22222222222	0.9	1080	0.8	879.125	1	822.3	1	890.5	1	846.8	0.6	1296.33333333333	0.7	707.142857142857	13	375691	2	375679	27	40	375718	-999999	375694	0	5	TrialsPROC	FC_002_F1.png	1	2	23	SessionSelectionList														nonlure	3	Face	0-Back	21	80	20	0	0	100	4	39	146146	1	13	72	144107	-1	144686	1	579	3	3	2039	52	146159	-53	0					10											23												
WM080112	131722_fnca	1	1	1	-1345297175	1	75.031	75.031	2.0.10.147	2.0.10.242	2.0.10.242	1.0.0.439	7	234	2	3	Verdana	1	80	0	0	0	WM Stimuli\	0.9	1048.22222222222	0.9	1080	0.8	879.125	1	822.3	1	890.5	1	846.8	0.6	1296.33333333333	0.7	707.142857142857	13	375691	2	375679	27	40	375718	-999999	375694	0	6	Fix15secPROC	""	1	2	24	SessionSelectionList																																															6	146613	-7	0							24												
WM080112	131722_fnca	1	1	1	-1345297175	1	75.031	75.031	2.0.10.147	2.0.10.242	2.0.10.242	1.0.0.439	7	234	2	3	Verdana	1	80	0	0	0	WM Stimuli\	0.9	1048.22222222222	0.9	1080	0.8	879.125	1	822.3	1	890.5	1	846.8	0.6	1296.33333333333	0.7	707.142857142857	13	375691	2	375679	27	40	375718	-999999	375694	0	7	Cue2BackPROC	""	1	2	25	SessionSelectionList									13	161620	-14	0																																													25												
WM080112	131722_fnca	1	1	1	-1345297175	1	75.031	75.031	2.0.10.147	2.0.10.242	2.0.10.242	1.0.0.439	7	234	2	3	Verdana	1	80	0	0	0	WM Stimuli\	0.9	1048.22222222222	0.9	1080	0.8	879.125	1	822.3	1	890.5	1	846.8	0.6	1296.33333333333	0.7	707.142857142857	13	375691	2	375679	27	40	375718	-999999	375694	0	8	TrialsPROC	TO_001_TOOL1_BA.png	1	2	26	SessionSelectionList														nonlure	3	Tools	2-Back	22	80	20	0	1	100	4	39	166204	2	14	58	164165	-1	0	0	0	""	3	2039	53	166218	-54	0										1						26												
WM080112	131722_fnca	1	1	1	-1345297175	1	75.031	75.031	2.0.10.147	2.0.10.242	2.0.10.242	1.0.0.439	7	234	2	3	Verdana	1	80	0	0	0	WM Stimuli\	0.9	1048.22222222222	0.9	1080	0.8	879.125	1	822.3	1	890.5	1	846.8	0.6	1296.33333333333	0.7	707.142857142857	13	375691	2	375679	27	40	375718	-999999	375694	0	8	TrialsPROC	TO_002_TOOL2_BA.png	1	2	27	SessionSelectionList														nonlure	3	Tools	2-Back	23	80	21	0	0	100	1	39	168763	2	14	59	166724	-1	168060	1	1336	3	3	2039	53	168777	-54	0										2						27												
WM080112	131722_fnca	1	1	1	-1345297175	1	75.031	75.031	2.0.10.147	2.0.10.242	2.0.10.242	1.0.0.439	7	234	2	3	Verdana	1	80	0	0	0	WM Stimuli\	0.9	1048.22222222222	0.9	1080	0.8	879.125	1	822.3	1	890.5	1	846.8	0.6	1296.33333333333	0.7	707.142857142857	13	375691	2	375679	27	40	375718	-999999	375694	0	8	TrialsPROC	TO_004_TOOL4_BA.png	1	2	28	SessionSelectionList														nonlure	3	Tools	2-Back	24	80	22	0	0	100	2	38	171322	2	14	60	169284	-1	170273	1	989	3	3	2038	52	171336	-53	0										3						28												
WM080112	131722_fnca	1	1	1	-1345297175	1	75.031	75.031	2.0.10.147	2.0.10.242	2.0.10.242	1.0.0.439	7	234	2	3	Verdana	1	80	0	0	0	WM Stimuli\	0.9	1048.22222222222	0.9	1080	0.8	879.125	1	822.3	1	890.5	1	846.8	0.6	1296.33333333333	0.7	707.142857142857	13	375691	2	375679	27	40	375718	-999999	375694	0	8	TrialsPROC	TO_002_TOOL2_BA.png	1	2	29	SessionSelectionList														target	2	Tools	2-Back	25	80	23	0	0	100	3	39	173881	2	14	58	171842	-1	172843	0	1001	3	2	2039	53	173895	-54	0										4						29												
WM080112	131722_fnca	1	1	1	-1345297175	1	75.031	75.031	2.0.10.147	2.0.10.242	2.0.10.242	1.0.0.439	7	234	2	3	Verdana	1	80	0	0	0	WM Stimuli\	0.9	1048.22222222222	0.9	1080	0.8	879.125	1	822.3	1	890.5	1	846.8	0.6	1296.33333333333	0.7	707.142857142857	13	375691	2	375679	27	40	375718	-999999	375694	0	8	TrialsPROC	TO_001_TOOL1_BA.png	1	2	30	SessionSelectionList														lure	3	Tools	2-Back	26	80	24	0	0	100	4	39	176440	2	14	59	174401	-1	175672	1	1271	3	3	2039	53	176454	-54	0										5						30												
WM080112	131722_fnca	1	1	1	-1345297175	1	75.031	75.031	2.0.10.147	2.0.10.242	2.0.10.242	1.0.0.439	7	234	2	3	Verdana	1	80	0	0	0	WM Stimuli\	0.9	1048.22222222222	0.9	1080	0.8	879.125	1	822.3	1	890.5	1	846.8	0.6	1296.33333333333	0.7	707.142857142857	13	375691	2	375679	27	40	375718	-999999	375694	0	8	TrialsPROC	TO_004_TOOL4_BA.png	1	2	31	SessionSelectionList														lure	3	Tools	2-Back	27	80	25	0	0	100	1	39	178999	2	14	59	176960	-1	177875	0	915	2	3	2039	53	179013	-54	0										6						31												
WM080112	131722_fnca	1	1	1	-1345297175	1	75.031	75.031	2.0.10.147	2.0.10.242	2.0.10.242	1.0.0.439	7	234	2	3	Verdana	1	80	0	0	0	WM Stimuli\	0.9	1048.22222222222	0.9	1080	0.8	879.125	1	822.3	1	890.5	1	846.8	0.6	1296.33333333333	0.7	707.142857142857	13	375691	2	375679	27	40	375718	-999999	375694	0	8	TrialsPROC	TO_006_TOOL6_BA.png	1	2	32	SessionSelectionList														nonlure	3	Tools	2-Back	28	80	26	0	0	100	1	39	181558	1	13	59	179519	-1	180286	1	767	3	3	2039	52	181571	-53	0										7						32												
WM080112	131722_fnca	1	1	1	-1345297175	1	75.031	75.031	2.0.10.147	2.0.10.242	2.0.10.242	1.0.0.439	7	234	2	3	Verdana	1	80	0	0	0	WM Stimuli\	0.9	1048.22222222222	0.9	1080	0.8	879.125	1	822.3	1	890.5	1	846.8	0.6	1296.33333333333	0.7	707.142857142857	13	375691	2	375679	27	40	375718	-999999	375694	0	8	TrialsPROC	TO_005_TOOL5_BA.png	1	2	33	SessionSelectionList														nonlure	3	Tools	2-Back	29	80	27	0	0	100	2	39	184117	1	13	59	182078	-1	183578	1	1500	3	3	2039	52	184130	-53	0										8						33												
WM080112	131722_fnca	1	1	1	-1345297175	1	75.031	75.031	2.0.10.147	2.0.10.242	2.0.10.242	1.0.0.439	7	234	2	3	Verdana	1	80	0	0	0	WM Stimuli\	0.9	1048.22222222222	0.9	1080	0.8	879.125	1	822.3	1	890.5	1	846.8	0.6	1296.33333333333	0.7	707.142857142857	13	375691	2	375679	27	40	375718	-999999	375694	0	8	TrialsPROC	TO_006_TOOL6_BA.png	1	2	34	SessionSelectionList														target	2	Tools	2-Back	30	80	28	0	0	100	1	39	186676	1	13	59	184637	-1	186552	1	1915	2	2	2039	52	186689	-53	0										9						34												
WM080112	131722_fnca	1	1	1	-1345297175	1	75.031	75.031	2.0.10.147	2.0.10.242	2.0.10.242	1.0.0.439	7	234	2	3	Verdana	1	80	0	0	0	WM Stimuli\	0.9	1048.22222222222	0.9	1080	0.8	879.125	1	822.3	1	890.5	1	846.8	0.6	1296.33333333333	0.7	707.142857142857	13	375691	2	375679	27	40	375718	-999999	375694	0	8	TrialsPROC	TO_003_TOOL3_BA.png	1	2	35	SessionSelectionList														nonlure	3	Tools	2-Back	31	80	29	0	0	100	2	39	189235	1	13	59	187196	-1	188887	0	1691	2	3	2039	52	189248	-53	0										10						35												
WM080112	131722_fnca	1	1	1	-1345297175	1	75.031	75.031	2.0.10.147	2.0.10.242	2.0.10.242	1.0.0.439	7	234	2	3	Verdana	1	80	0	0	0	WM Stimuli\	0.9	1048.22222222222	0.9	1080	0.8	879.125	1	822.3	1	890.5	1	846.8	0.6	1296.33333333333	0.7	707.142857142857	13	375691	2	375679	27	40	375718	-999999	375694	0	9	Cue0BackPROC	BP_007_BP20_BA.png	1	2	36	SessionSelectionList																																										19	189715	-20	0												36												
WM080112	131722_fnca	1	1	1	-1345297175	1	75.031	75.031	2.0.10.147	2.0.10.242	2.0.10.242	1.0.0.439	7	234	2	3	Verdana	1	80	0	0	0	WM Stimuli\	0.9	1048.22222222222	0.9	1080	0.8	879.125	1	822.3	1	890.5	1	846.8	0.6	1296.33333333333	0.7	707.142857142857	13	375691	2	375679	27	40	375718	-999999	375694	0	10	TrialsPROC	BP_007_BP20_BA.png	1	2	37	SessionSelectionList														target	2	Body	0-Back	32	80	30	0	0	91	1	39	194286	1	14	51	192247	-1	193374	0	1127	3	2	2039	53	194300	-54	0											1					37												
WM080112	131722_fnca	1	1	1	-1345297175	1	75.031	75.031	2.0.10.147	2.0.10.242	2.0.10.242	1.0.0.439	7	234	2	3	Verdana	1	80	0	0	0	WM Stimuli\	0.9	1048.22222222222	0.9	1080	0.8	879.125	1	822.3	1	890.5	1	846.8	0.6	1296.33333333333	0.7	707.142857142857	13	375691	2	375679	27	40	375718	-999999	375694	0	10	TrialsPROC	BP_011_BP4_BA.png	1	2	38	SessionSelectionList														nonlure	3	Body	0-Back	33	80	31	0	0	92	2	39	196858	2	14	72	194819	-1	196359	1	1540	3	3	2039	53	196872	-54	0											2					38												
WM080112	131722_fnca	1	1	1	-1345297175	1	75.031	75.031	2.0.10.147	2.0.10.242	2.0.10.242	1.0.0.439	7	234	2	3	Verdana	1	80	0	0	0	WM Stimuli\	0.9	1048.22222222222	0.9	1080	0.8	879.125	1	822.3	1	890.5	1	846.8	0.6	1296.33333333333	0.7	707.142857142857	13	375691	2	375679	27	40	375718	-999999	375694	0	10	TrialsPROC	BP_010_BP3_BA.png	1	2	39	SessionSelectionList														nonlure	3	Body	0-Back	34	80	32	0	0	92	3	38	199417	2	14	60	197379	-1	198407	1	1028	3	3	2038	52	199431	-53	0											3					39												
WM080112	131722_fnca	1	1	1	-1345297175	1	75.031	75.031	2.0.10.147	2.0.10.242	2.0.10.242	1.0.0.439	7	234	2	3	Verdana	1	80	0	0	0	WM Stimuli\	0.9	1048.22222222222	0.9	1080	0.8	879.125	1	822.3	1	890.5	1	846.8	0.6	1296.33333333333	0.7	707.142857142857	13	375691	2	375679	27	40	375718	-999999	375694	0	10	TrialsPROC	BP_008_BP21_BA.png	1	2	40	SessionSelectionList														nonlure	3	Body	0-Back	35	80	33	0	0	93	4	39	201976	2	14	58	199937	-1	200711	1	774	3	3	2039	53	201990	-54	0											4					40												
WM080112	131722_fnca	1	1	1	-1345297175	1	75.031	75.031	2.0.10.147	2.0.10.242	2.0.10.242	1.0.0.439	7	234	2	3	Verdana	1	80	0	0	0	WM Stimuli\	0.9	1048.22222222222	0.9	1080	0.8	879.125	1	822.3	1	890.5	1	846.8	0.6	1296.33333333333	0.7	707.142857142857	13	375691	2	375679	27	40	375718	-999999	375694	0	10	TrialsPROC	BP_011_BP4_BA.png	1	2	41	SessionSelectionList														lure	3	Body	0-Back	36	80	34	0	0	93	5	39	204535	2	14	59	202496	-1	203533	1	1037	3	3	2039	53	204549	-54	0											5					41												
WM080112	131722_fnca	1	1	1	-1345297175	1	75.031	75.031	2.0.10.147	2.0.10.242	2.0.10.242	1.0.0.439	7	234	2	3	Verdana	1	80	0	0	0	WM Stimuli\	0.9	1048.22222222222	0.9	1080	0.8	879.125	1	822.3	1	890.5	1	846.8	0.6	1296.33333333333	0.7	707.142857142857	13	375691	2	375679	27	40	375718	-999999	375694	0	10	TrialsPROC	BP_009_BP22_BA.png	1	2	42	SessionSelectionList														nonlure	3	Body	0-Back	37	80	35	0	0	94	6	39	207094	2	14	59	205055	-1	206437	1	1382	3	3	2039	53	207108	-54	0											6					42												
WM080112	131722_fnca	1	1	1	-1345297175	1	75.031	75.031	2.0.10.147	2.0.10.242	2.0.10.242	1.0.0.439	7	234	2	3	Verdana	1	80	0	0	0	WM Stimuli\	0.9	1048.22222222222	0.9	1080	0.8	879.125	1	822.3	1	890.5	1	846.8	0.6	1296.33333333333	0.7	707.142857142857	13	375691	2	375679	27	40	375718	-999999	375694	0	10	TrialsPROC	BP_009_BP22_BA.png	1	2	43	SessionSelectionList														lure	3	Body	0-Back	38	80	36	0	0	94	7	39	209653	1	14	59	207614	-1	208403	1	789	3	3	2039	53	209667	-54	0											7					43												
WM080112	131722_fnca	1	1	1	-1345297175	1	75.031	75.031	2.0.10.147	2.0.10.242	2.0.10.242	1.0.0.439	7	234	2	3	Verdana	1	80	0	0	0	WM Stimuli\	0.9	1048.22222222222	0.9	1080	0.8	879.125	1	822.3	1	890.5	1	846.8	0.6	1296.33333333333	0.7	707.142857142857	13	375691	2	375679	27	40	375718	-999999	375694	0	10	TrialsPROC	BP_008_BP21_BA.png	1	2	44	SessionSelectionList														lure	3	Body	0-Back	39	80	37	0	0	94	8	39	212212	1	13	59	210173	-1	211494	1	1321	3	3	2039	52	212225	-53	0											8					44												
WM080112	131722_fnca	1	1	1	-1345297175	1	75.031	75.031	2.0.10.147	2.0.10.242	2.0.10.242	1.0.0.439	7	234	2	3	Verdana	1	80	0	0	0	WM Stimuli\	0.9	1048.22222222222	0.9	1080	0.8	879.125	1	822.3	1	890.5	1	846.8	0.6	1296.33333333333	0.7	707.142857142857	13	375691	2	375679	27	40	375718	-999999	375694	0	10	TrialsPROC	BP_007_BP20_BA.png	1	2	45	SessionSelectionList														target	2	Body	0-Back	40	80	38	0	0	95	1	39	214771	1	13	59	212732	-1	213812	1	1080	2	2	2039	52	214784	-53	0											9					45												
WM080112	131722_fnca	1	1	1	-1345297175	1	75.031	75.031	2.0.10.147	2.0.10.242	2.0.10.242	1.0.0.439	7	234	2	3	Verdana	1	80	0	0	0	WM Stimuli\	0.9	1048.22222222222	0.9	1080	0.8	879.125	1	822.3	1	890.5	1	846.8	0.6	1296.33333333333	0.7	707.142857142857	13	375691	2	375679	27	40	375718	-999999	375694	0	10	TrialsPROC	BP_012_BP5_BA.png	1	2	46	SessionSelectionList														nonlure	3	Body	0-Back	41	80	39	0	0	95	1	39	217343	2	14	72	215304	-1	216073	1	769	3	3	2039	53	217357	-54	0											10					46												
WM080112	131722_fnca	1	1	1	-1345297175	1	75.031	75.031	2.0.10.147	2.0.10.242	2.0.10.242	1.0.0.439	7	234	2	3	Verdana	1	80	0	0	0	WM Stimuli\	0.9	1048.22222222222	0.9	1080	0.8	879.125	1	822.3	1	890.5	1	846.8	0.6	1296.33333333333	0.7	707.142857142857	13	375691	2	375679	27	40	375718	-999999	375694	0	11	Fix15secPROC	""	1	2	47	SessionSelectionList																																															6	217810	-7	0							47												
WM080112	131722_fnca	1	1	1	-1345297175	1	75.031	75.031	2.0.10.147	2.0.10.242	2.0.10.242	1.0.0.439	7	234	2	3	Verdana	1	80	0	0	0	WM Stimuli\	0.9	1048.22222222222	0.9	1080	0.8	879.125	1	822.3	1	890.5	1	846.8	0.6	1296.33333333333	0.7	707.142857142857	13	375691	2	375679	27	40	375718	-999999	375694	0	12	Cue0BackPROC	PL_001_92012.png	1	2	48	SessionSelectionList																																										13	232817	-14	0												48												
WM080112	131722_fnca	1	1	1	-1345297175	1	75.031	75.031	2.0.10.147	2.0.10.242	2.0.10.242	1.0.0.439	7	234	2	3	Verdana	1	80	0	0	0	WM Stimuli\	0.9	1048.22222222222	0.9	1080	0.8	879.125	1	822.3	1	890.5	1	846.8	0.6	1296.33333333333	0.7	707.142857142857	13	375691	2	375679	27	40	375718	-999999	375694	0	13	TrialsPROC	PL_003_92016.png	1	2	49	SessionSelectionList														nonlure	3	Place	0-Back	42	80	40	0	0	95	2	39	237415	1	13	72	235376	-1	236986	1	1610	3	3	2039	52	237428	-53	0												1				49												
WM080112	131722_fnca	1	1	1	-1345297175	1	75.031	75.031	2.0.10.147	2.0.10.242	2.0.10.242	1.0.0.439	7	234	2	3	Verdana	1	80	0	0	0	WM Stimuli\	0.9	1048.22222222222	0.9	1080	0.8	879.125	1	822.3	1	890.5	1	846.8	0.6	1296.33333333333	0.7	707.142857142857	13	375691	2	375679	27	40	375718	-999999	375694	0	13	TrialsPROC	PL_003_92016.png	1	2	50	SessionSelectionList														lure	3	Place	0-Back	43	80	41	0	0	95	3	39	239987	2	14	72	237948	-1	238813	1	865	3	3	2039	53	240001	-54	0												2				50												
WM080112	131722_fnca	1	1	1	-1345297175	1	75.031	75.031	2.0.10.147	2.0.10.242	2.0.10.242	1.0.0.439	7	234	2	3	Verdana	1	80	0	0	0	WM Stimuli\	0.9	1048.22222222222	0.9	1080	0.8	879.125	1	822.3	1	890.5	1	846.8	0.6	1296.33333333333	0.7	707.142857142857	13	375691	2	375679	27	40	375718	-999999	375694	0	13	TrialsPROC	PL_006_92025.png	1	2	51	SessionSelectionList														nonlure	3	Place	0-Back	44	80	42	0	0	96	4	39	242559	2	14	72	240520	-1	241292	1	772	3	3	2039	53	242573	-54	0												3				51												
WM080112	131722_fnca	1	1	1	-1345297175	1	75.031	75.031	2.0.10.147	2.0.10.242	2.0.10.242	1.0.0.439	7	234	2	3	Verdana	1	80	0	0	0	WM Stimuli\	0.9	1048.22222222222	0.9	1080	0.8	879.125	1	822.3	1	890.5	1	846.8	0.6	1296.33333333333	0.7	707.142857142857	13	375691	2	375679	27	40	375718	-999999	375694	0	13	TrialsPROC	PL_001_92012.png	1	2	52	SessionSelectionList														target	2	Place	0-Back	45	80	43	0	0	96	1	39	245132	1	13	73	243093	-1	243922	1	829	2	2	2039	52	245145	-53	0												4				52												
WM080112	131722_fnca	1	1	1	-1345297175	1	75.031	75.031	2.0.10.147	2.0.10.242	2.0.10.242	1.0.0.439	7	234	2	3	Verdana	1	80	0	0	0	WM Stimuli\	0.9	1048.22222222222	0.9	1080	0.8	879.125	1	822.3	1	890.5	1	846.8	0.6	1296.33333333333	0.7	707.142857142857	13	375691	2	375679	27	40	375718	-999999	375694	0	13	TrialsPROC	PL_004_92023.png	1	2	53	SessionSelectionList														nonlure	3	Place	0-Back	46	80	44	0	0	96	1	39	247704	1	13	72	245665	-1	246327	1	662	3	3	2039	52	247717	-53	0												5				53												
WM080112	131722_fnca	1	1	1	-1345297175	1	75.031	75.031	2.0.10.147	2.0.10.242	2.0.10.242	1.0.0.439	7	234	2	3	Verdana	1	80	0	0	0	WM Stimuli\	0.9	1048.22222222222	0.9	1080	0.8	879.125	1	822.3	1	890.5	1	846.8	0.6	1296.33333333333	0.7	707.142857142857	13	375691	2	375679	27	40	375718	-999999	375694	0	13	TrialsPROC	PL_005_92024.png	1	2	54	SessionSelectionList														nonlure	3	Place	0-Back	47	80	45	0	0	96	2	39	250276	2	14	72	248237	-1	249232	1	995	3	3	2039	53	250290	-54	0												6				54												
WM080112	131722_fnca	1	1	1	-1345297175	1	75.031	75.031	2.0.10.147	2.0.10.242	2.0.10.242	1.0.0.439	7	234	2	3	Verdana	1	80	0	0	0	WM Stimuli\	0.9	1048.22222222222	0.9	1080	0.8	879.125	1	822.3	1	890.5	1	846.8	0.6	1296.33333333333	0.7	707.142857142857	13	375691	2	375679	27	40	375718	-999999	375694	0	13	TrialsPROC	PL_001_92012.png	1	2	55	SessionSelectionList														target	2	Place	0-Back	48	80	46	0	0	96	1	39	252848	2	14	72	250809	-1	251741	1	932	2	2	2039	53	252862	-54	0												7				55												
WM080112	131722_fnca	1	1	1	-1345297175	1	75.031	75.031	2.0.10.147	2.0.10.242	2.0.10.242	1.0.0.439	7	234	2	3	Verdana	1	80	0	0	0	WM Stimuli\	0.9	1048.22222222222	0.9	1080	0.8	879.125	1	822.3	1	890.5	1	846.8	0.6	1296.33333333333	0.7	707.142857142857	13	375691	2	375679	27	40	375718	-999999	375694	0	13	TrialsPROC	PL_002_92014.png	1	2	56	SessionSelectionList														nonlure	3	Place	0-Back	49	80	47	0	0	96	1	39	255421	1	13	73	253382	-1	254110	1	728	3	3	2039	52	255434	-53	0												8				56												
WM080112	131722_fnca	1	1	1	-1345297175	1	75.031	75.031	2.0.10.147	2.0.10.242	2.0.10.242	1.0.0.439	7	234	2	3	Verdana	1	80	0	0	0	WM Stimuli\	0.9	1048.22222222222	0.9	1080	0.8	879.125	1	822.3	1	890.5	1	846.8	0.6	1296.33333333333	0.7	707.142857142857	13	375691	2	375679	27	40	375718	-999999	375694	0	13	TrialsPROC	PL_004_92023.png	1	2	57	SessionSelectionList														lure	3	Place	0-Back	50	80	48	0	0	97	2	39	257993	1	13	72	255954	-1	256524	1	570	3	3	2039	52	258006	-53	0												9				57												
WM080112	131722_fnca	1	1	1	-1345297175	1	75.031	75.031	2.0.10.147	2.0.10.242	2.0.10.242	1.0.0.439	7	234	2	3	Verdana	1	80	0	0	0	WM Stimuli\	0.9	1048.22222222222	0.9	1080	0.8	879.125	1	822.3	1	890.5	1	846.8	0.6	1296.33333333333	0.7	707.142857142857	13	375691	2	375679	27	40	375718	-999999	375694	0	13	TrialsPROC	PL_006_92025.png	1	2	58	SessionSelectionList														lure	3	Place	0-Back	51	80	49	0	0	97	3	39	260565	2	14	72	258526	-1	259031	1	505	3	3	2039	53	260579	-54	0												10				58												
WM080112	131722_fnca	1	1	1	-1345297175	1	75.031	75.031	2.0.10.147	2.0.10.242	2.0.10.242	1.0.0.439	7	234	2	3	Verdana	1	80	0	0	0	WM Stimuli\	0.9	1048.22222222222	0.9	1080	0.8	879.125	1	822.3	1	890.5	1	846.8	0.6	1296.33333333333	0.7	707.142857142857	13	375691	2	375679	27	40	375718	-999999	375694	0	14	Cue2BackPROC	""	1	2	59	SessionSelectionList									6	261032	-7	0																																													59												
WM080112	131722_fnca	1	1	1	-1345297175	1	75.031	75.031	2.0.10.147	2.0.10.242	2.0.10.242	1.0.0.439	7	234	2	3	Verdana	1	80	0	0	0	WM Stimuli\	0.9	1048.22222222222	0.9	1080	0.8	879.125	1	822.3	1	890.5	1	846.8	0.6	1296.33333333333	0.7	707.142857142857	13	375691	2	375679	27	40	375718	-999999	375694	0	15	TrialsPROC	FC_010_F5.png	1	2	60	SessionSelectionList														nonlure	3	Face	2-Back	52	80	50	0	0	97	4	39	265630	1	13	65	263591	-1	264725	1	1134	3	3	2039	52	265643	-53	0													1			60												
WM080112	131722_fnca	1	1	1	-1345297175	1	75.031	75.031	2.0.10.147	2.0.10.242	2.0.10.242	1.0.0.439	7	234	2	3	Verdana	1	80	0	0	0	WM Stimuli\	0.9	1048.22222222222	0.9	1080	0.8	879.125	1	822.3	1	890.5	1	846.8	0.6	1296.33333333333	0.7	707.142857142857	13	375691	2	375679	27	40	375718	-999999	375694	0	15	TrialsPROC	FC_012_F6.png	1	2	61	SessionSelectionList														nonlure	3	Face	2-Back	53	80	51	0	0	97	5	39	268202	3	14	72	266163	-1	266776	1	613	3	3	2039	53	268216	-54	0													2			61												
WM080112	131722_fnca	1	1	1	-1345297175	1	75.031	75.031	2.0.10.147	2.0.10.242	2.0.10.242	1.0.0.439	7	234	2	3	Verdana	1	80	0	0	0	WM Stimuli\	0.9	1048.22222222222	0.9	1080	0.8	879.125	1	822.3	1	890.5	1	846.8	0.6	1296.33333333333	0.7	707.142857142857	13	375691	2	375679	27	40	375718	-999999	375694	0	15	TrialsPROC	FC_010_F5.png	1	2	62	SessionSelectionList														target	2	Face	2-Back	54	80	52	0	0	97	1	39	270774	2	14	72	268735	-1	269370	1	635	2	2	2039	53	270788	-54	0													3			62												
WM080112	131722_fnca	1	1	1	-1345297175	1	75.031	75.031	2.0.10.147	2.0.10.242	2.0.10.242	1.0.0.439	7	234	2	3	Verdana	1	80	0	0	0	WM Stimuli\	0.9	1048.22222222222	0.9	1080	0.8	879.125	1	822.3	1	890.5	1	846.8	0.6	1296.33333333333	0.7	707.142857142857	13	375691	2	375679	27	40	375718	-999999	375694	0	15	TrialsPROC	FC_008_F4.png	1	2	63	SessionSelectionList														nonlure	3	Face	2-Back	55	80	53	0	0	97	1	39	273347	1	13	73	271308	-1	271992	1	684	3	3	2039	52	273360	-53	0													4			63												
WM080112	131722_fnca	1	1	1	-1345297175	1	75.031	75.031	2.0.10.147	2.0.10.242	2.0.10.242	1.0.0.439	7	234	2	3	Verdana	1	80	0	0	0	WM Stimuli\	0.9	1048.22222222222	0.9	1080	0.8	879.125	1	822.3	1	890.5	1	846.8	0.6	1296.33333333333	0.7	707.142857142857	13	375691	2	375679	27	40	375718	-999999	375694	0	15	TrialsPROC	FC_012_F6.png	1	2	64	SessionSelectionList														lure	3	Face	2-Back	56	80	54	0	0	97	1	39	275919	1	13	72	273880	-1	275071	0	1191	2	3	2039	52	275932	-53	0													5			64												
WM080112	131722_fnca	1	1	1	-1345297175	1	75.031	75.031	2.0.10.147	2.0.10.242	2.0.10.242	1.0.0.439	7	234	2	3	Verdana	1	80	0	0	0	WM Stimuli\	0.9	1048.22222222222	0.9	1080	0.8	879.125	1	822.3	1	890.5	1	846.8	0.6	1296.33333333333	0.7	707.142857142857	13	375691	2	375679	27	40	375718	-999999	375694	0	15	TrialsPROC	FC_008_F4.png	1	2	65	SessionSelectionList														target	2	Face	2-Back	57	80	55	0	0	97	1	39	278491	2	14	72	276452	-1	277853	0	1401	3	2	2039	53	278505	-54	0													6			65												
WM080112	131722_fnca	1	1	1	-1345297175	1	75.031	75.031	2.0.10.147	2.0.10.242	2.0.10.242	1.0.0.439	7	234	2	3	Verdana	1	80	0	0	0	WM Stimuli\	0.9	1048.22222222222	0.9	1080	0.8	879.125	1	822.3	1	890.5	1	846.8	0.6	1296.33333333333	0.7	707.142857142857	13	375691	2	375679	27	40	375718	-999999	375694	0	15	TrialsPROC	FC_007_M4.png	1	2	66	SessionSelectionList														nonlure	3	Face	2-Back	58	80	56	0	0	97	2	39	281063	2	14	72	279024	-1	279844	1	820	3	3	2039	53	281077	-54	0													7			66												
WM080112	131722_fnca	1	1	1	-1345297175	1	75.031	75.031	2.0.10.147	2.0.10.242	2.0.10.242	1.0.0.439	7	234	2	3	Verdana	1	80	0	0	0	WM Stimuli\	0.9	1048.22222222222	0.9	1080	0.8	879.125	1	822.3	1	890.5	1	846.8	0.6	1296.33333333333	0.7	707.142857142857	13	375691	2	375679	27	40	375718	-999999	375694	0	15	TrialsPROC	FC_007_M4.png	1	2	67	SessionSelectionList														lure	3	Face	2-Back	59	80	57	0	0	97	3	39	283636	1	13	73	281597	-1	282485	1	888	3	3	2039	52	283649	-53	0													8			67												
WM080112	131722_fnca	1	1	1	-1345297175	1	75.031	75.031	2.0.10.147	2.0.10.242	2.0.10.242	1.0.0.439	7	234	2	3	Verdana	1	80	0	0	0	WM Stimuli\	0.9	1048.22222222222	0.9	1080	0.8	879.125	1	822.3	1	890.5	1	846.8	0.6	1296.33333333333	0.7	707.142857142857	13	375691	2	375679	27	40	375718	-999999	375694	0	15	TrialsPROC	FC_009_M5.png	1	2	68	SessionSelectionList														nonlure	3	Face	2-Back	60	80	58	0	0	97	4	39	286221	2	14	85	284182	-1	285241	1	1059	3	3	2039	53	286235	-54	0													9			68												
WM080112	131722_fnca	1	1	1	-1345297175	1	75.031	75.031	2.0.10.147	2.0.10.242	2.0.10.242	1.0.0.439	7	234	2	3	Verdana	1	80	0	0	0	WM Stimuli\	0.9	1048.22222222222	0.9	1080	0.8	879.125	1	822.3	1	890.5	1	846.8	0.6	1296.33333333333	0.7	707.142857142857	13	375691	2	375679	27	40	375718	-999999	375694	0	15	TrialsPROC	FC_011_M6.png	1	2	69	SessionSelectionList														nonlure	3	Face	2-Back	61	80	59	0	0	97	5	39	288820	2	14	99	286781	-1	287981	1	1200	3	3	2039	53	288834	-54	0													10			69												
WM080112	131722_fnca	1	1	1	-1345297175	1	75.031	75.031	2.0.10.147	2.0.10.242	2.0.10.242	1.0.0.439	7	234	2	3	Verdana	1	80	0	0	0	WM Stimuli\	0.9	1048.22222222222	0.9	1080	0.8	879.125	1	822.3	1	890.5	1	846.8	0.6	1296.33333333333	0.7	707.142857142857	13	375691	2	375679	27	40	375718	-999999	375694	0	16	Fix15secPROC	""	1	2	70	SessionSelectionList																																															6	289287	-7	0							70												
WM080112	131722_fnca	1	1	1	-1345297175	1	75.031	75.031	2.0.10.147	2.0.10.242	2.0.10.242	1.0.0.439	7	234	2	3	Verdana	1	80	0	0	0	WM Stimuli\	0.9	1048.22222222222	0.9	1080	0.8	879.125	1	822.3	1	890.5	1	846.8	0.6	1296.33333333333	0.7	707.142857142857	13	375691	2	375679	27	40	375718	-999999	375694	0	17	Cue0BackPROC	TO_007_TOOL7_BA.png	1	2	71	SessionSelectionList																																										40	304321	-41	0												71												
WM080112	131722_fnca	1	1	1	-1345297175	1	75.031	75.031	2.0.10.147	2.0.10.242	2.0.10.242	1.0.0.439	7	234	2	3	Verdana	1	80	0	0	0	WM Stimuli\	0.9	1048.22222222222	0.9	1080	0.8	879.125	1	822.3	1	890.5	1	846.8	0.6	1296.33333333333	0.7	707.142857142857	13	375691	2	375679	27	40	375718	-999999	375694	0	18	TrialsPROC	TO_010_TOOL10_BA.png	1	2	72	SessionSelectionList														nonlure	3	Tools	0-Back	62	80	60	0	0	97	6	39	308892	1	13	72	306853	-1	307996	1	1143	3	3	2039	52	308905	-53	0														1		72												
WM080112	131722_fnca	1	1	1	-1345297175	1	75.031	75.031	2.0.10.147	2.0.10.242	2.0.10.242	1.0.0.439	7	234	2	3	Verdana	1	80	0	0	0	WM Stimuli\	0.9	1048.22222222222	0.9	1080	0.8	879.125	1	822.3	1	890.5	1	846.8	0.6	1296.33333333333	0.7	707.142857142857	13	375691	2	375679	27	40	375718	-999999	375694	0	18	TrialsPROC	TO_009_TOOL9_BA.png	1	2	73	SessionSelectionList														nonlure	3	Tools	0-Back	63	80	61	0	0	97	7	40	311478	1	13	85	309438	-1	310101	1	663	3	3	2040	53	311491	-54	0														2		73												
WM080112	131722_fnca	1	1	1	-1345297175	1	75.031	75.031	2.0.10.147	2.0.10.242	2.0.10.242	1.0.0.439	7	234	2	3	Verdana	1	80	0	0	0	WM Stimuli\	0.9	1048.22222222222	0.9	1080	0.8	879.125	1	822.3	1	890.5	1	846.8	0.6	1296.33333333333	0.7	707.142857142857	13	375691	2	375679	27	40	375718	-999999	375694	0	18	TrialsPROC	TO_009_TOOL9_BA.png	1	2	74	SessionSelectionList														lure	3	Tools	0-Back	64	80	62	0	0	97	8	40	314037	1	13	59	311997	-1	312677	1	680	3	3	2040	53	314050	-54	0														3		74												
WM080112	131722_fnca	1	1	1	-1345297175	1	75.031	75.031	2.0.10.147	2.0.10.242	2.0.10.242	1.0.0.439	7	234	2	3	Verdana	1	80	0	0	0	WM Stimuli\	0.9	1048.22222222222	0.9	1080	0.8	879.125	1	822.3	1	890.5	1	846.8	0.6	1296.33333333333	0.7	707.142857142857	13	375691	2	375679	27	40	375718	-999999	375694	0	18	TrialsPROC	TO_008_TOOL8_BA.png	1	2	75	SessionSelectionList														nonlure	3	Tools	0-Back	65	80	63	0	0	97	9	39	316622	1	14	86	314583	-1	315259	1	676	3	3	2039	53	316636	-54	0														4		75												
WM080112	131722_fnca	1	1	1	-1345297175	1	75.031	75.031	2.0.10.147	2.0.10.242	2.0.10.242	1.0.0.439	7	234	2	3	Verdana	1	80	0	0	0	WM Stimuli\	0.9	1048.22222222222	0.9	1080	0.8	879.125	1	822.3	1	890.5	1	846.8	0.6	1296.33333333333	0.7	707.142857142857	13	375691	2	375679	27	40	375718	-999999	375694	0	18	TrialsPROC	TO_011_TOOL11_BA.png	1	2	76	SessionSelectionList														nonlure	3	Tools	0-Back	66	80	64	0	0	97	10	39	319194	2	14	72	317155	-1	317684	1	529	3	3	2039	53	319208	-54	0														5		76												
WM080112	131722_fnca	1	1	1	-1345297175	1	75.031	75.031	2.0.10.147	2.0.10.242	2.0.10.242	1.0.0.439	7	234	2	3	Verdana	1	80	0	0	0	WM Stimuli\	0.9	1048.22222222222	0.9	1080	0.8	879.125	1	822.3	1	890.5	1	846.8	0.6	1296.33333333333	0.7	707.142857142857	13	375691	2	375679	27	40	375718	-999999	375694	0	18	TrialsPROC	TO_012_TOOL12_BA.png	1	2	77	SessionSelectionList														nonlure	3	Tools	0-Back	67	80	65	0	0	97	11	40	321767	1	13	72	319727	-1	320315	1	588	3	3	2040	53	321780	-54	0														6		77												
WM080112	131722_fnca	1	1	1	-1345297175	1	75.031	75.031	2.0.10.147	2.0.10.242	2.0.10.242	1.0.0.439	7	234	2	3	Verdana	1	80	0	0	0	WM Stimuli\	0.9	1048.22222222222	0.9	1080	0.8	879.125	1	822.3	1	890.5	1	846.8	0.6	1296.33333333333	0.7	707.142857142857	13	375691	2	375679	27	40	375718	-999999	375694	0	18	TrialsPROC	TO_010_TOOL10_BA.png	1	2	78	SessionSelectionList														lure	3	Tools	0-Back	68	80	66	0	0	95	1	40	324326	1	13	59	322286	-1	323565	0	1279	2	3	2040	53	324339	-54	0														7		78												
WM080112	131722_fnca	1	1	1	-1345297175	1	75.031	75.031	2.0.10.147	2.0.10.242	2.0.10.242	1.0.0.439	7	234	2	3	Verdana	1	80	0	0	0	WM Stimuli\	0.9	1048.22222222222	0.9	1080	0.8	879.125	1	822.3	1	890.5	1	846.8	0.6	1296.33333333333	0.7	707.142857142857	13	375691	2	375679	27	40	375718	-999999	375694	0	18	TrialsPROC	TO_007_TOOL7_BA.png	1	2	79	SessionSelectionList														target	2	Tools	0-Back	69	80	67	0	0	92	1	39	326884	2	14	59	324845	-1	326670	0	1825	3	2	2039	53	326898	-54	0														8		79												
WM080112	131722_fnca	1	1	1	-1345297175	1	75.031	75.031	2.0.10.147	2.0.10.242	2.0.10.242	1.0.0.439	7	234	2	3	Verdana	1	80	0	0	0	WM Stimuli\	0.9	1048.22222222222	0.9	1080	0.8	879.125	1	822.3	1	890.5	1	846.8	0.6	1296.33333333333	0.7	707.142857142857	13	375691	2	375679	27	40	375718	-999999	375694	0	18	TrialsPROC	TO_008_TOOL8_BA.png	1	2	80	SessionSelectionList														lure	3	Tools	0-Back	70	80	68	0	0	92	2	39	329443	2	14	59	327404	-1	328075	1	671	3	3	2039	53	329457	-54	0														9		80												
WM080112	131722_fnca	1	1	1	-1345297175	1	75.031	75.031	2.0.10.147	2.0.10.242	2.0.10.242	1.0.0.439	7	234	2	3	Verdana	1	80	0	0	0	WM Stimuli\	0.9	1048.22222222222	0.9	1080	0.8	879.125	1	822.3	1	890.5	1	846.8	0.6	1296.33333333333	0.7	707.142857142857	13	375691	2	375679	27	40	375718	-999999	375694	0	18	TrialsPROC	TO_007_TOOL7_BA.png	1	2	81	SessionSelectionList														target	2	Tools	0-Back	71	80	69	0	0	90	3	39	332002	2	14	59	329963	-1	330658	0	695	3	2	2039	53	332016	-54	0														10		81												
WM080112	131722_fnca	1	1	1	-1345297175	1	75.031	75.031	2.0.10.147	2.0.10.242	2.0.10.242	1.0.0.439	7	234	2	3	Verdana	1	80	0	0	0	WM Stimuli\	0.9	1048.22222222222	0.9	1080	0.8	879.125	1	822.3	1	890.5	1	846.8	0.6	1296.33333333333	0.7	707.142857142857	13	375691	2	375679	27	40	375718	-999999	375694	0	19	Cue2BackPROC	""	1	2	82	SessionSelectionList									6	332469	-7	0																																													82												
WM080112	131722_fnca	1	1	1	-1345297175	1	75.031	75.031	2.0.10.147	2.0.10.242	2.0.10.242	1.0.0.439	7	234	2	3	Verdana	1	80	0	0	0	WM Stimuli\	0.9	1048.22222222222	0.9	1080	0.8	879.125	1	822.3	1	890.5	1	846.8	0.6	1296.33333333333	0.7	707.142857142857	13	375691	2	375679	27	40	375718	-999999	375694	0	20	TrialsPROC	PL_007_92026.png	1	2	83	SessionSelectionList														nonlure	3	Place	2-Back	72	80	70	0	0	90	4	39	337080	2	14	78	335041	-1	336519	1	1478	3	3	2039	53	337094	-54	0															1	83												
WM080112	131722_fnca	1	1	1	-1345297175	1	75.031	75.031	2.0.10.147	2.0.10.242	2.0.10.242	1.0.0.439	7	234	2	3	Verdana	1	80	0	0	0	WM Stimuli\	0.9	1048.22222222222	0.9	1080	0.8	879.125	1	822.3	1	890.5	1	846.8	0.6	1296.33333333333	0.7	707.142857142857	13	375691	2	375679	27	40	375718	-999999	375694	0	20	TrialsPROC	PL_007_92026.png	1	2	84	SessionSelectionList														lure	3	Place	2-Back	73	80	71	0	0	90	5	40	339653	1	13	72	337613	-1	338316	1	703	3	3	2040	53	339666	-54	0															2	84												
WM080112	131722_fnca	1	1	1	-1345297175	1	75.031	75.031	2.0.10.147	2.0.10.242	2.0.10.242	1.0.0.439	7	234	2	3	Verdana	1	80	0	0	0	WM Stimuli\	0.9	1048.22222222222	0.9	1080	0.8	879.125	1	822.3	1	890.5	1	846.8	0.6	1296.33333333333	0.7	707.142857142857	13	375691	2	375679	27	40	375718	-999999	375694	0	20	TrialsPROC	PL_010_92038.png	1	2	85	SessionSelectionList														nonlure	3	Place	2-Back	74	80	72	0	0	90	6	39	342225	1	13	73	340186	-1	341064	1	878	3	3	2039	52	342238	-53	0															3	85												
WM080112	131722_fnca	1	1	1	-1345297175	1	75.031	75.031	2.0.10.147	2.0.10.242	2.0.10.242	1.0.0.439	7	234	2	3	Verdana	1	80	0	0	0	WM Stimuli\	0.9	1048.22222222222	0.9	1080	0.8	879.125	1	822.3	1	890.5	1	846.8	0.6	1296.33333333333	0.7	707.142857142857	13	375691	2	375679	27	40	375718	-999999	375694	0	20	TrialsPROC	PL_009_92037.png	1	2	86	SessionSelectionList														nonlure	3	Place	2-Back	75	80	73	0	0	90	7	39	344797	1	14	72	342758	-1	343313	1	555	3	3	2039	53	344811	-54	0															4	86												
WM080112	131722_fnca	1	1	1	-1345297175	1	75.031	75.031	2.0.10.147	2.0.10.242	2.0.10.242	1.0.0.439	7	234	2	3	Verdana	1	80	0	0	0	WM Stimuli\	0.9	1048.22222222222	0.9	1080	0.8	879.125	1	822.3	1	890.5	1	846.8	0.6	1296.33333333333	0.7	707.142857142857	13	375691	2	375679	27	40	375718	-999999	375694	0	20	TrialsPROC	PL_010_92038.png	1	2	87	SessionSelectionList														target	2	Place	2-Back	76	80	74	0	0	90	1	39	347369	2	14	72	345330	-1	346289	1	959	2	2	2039	53	347383	-54	0															5	87												
WM080112	131722_fnca	1	1	1	-1345297175	1	75.031	75.031	2.0.10.147	2.0.10.242	2.0.10.242	1.0.0.439	7	234	2	3	Verdana	1	80	0	0	0	WM Stimuli\	0.9	1048.22222222222	0.9	1080	0.8	879.125	1	822.3	1	890.5	1	846.8	0.6	1296.33333333333	0.7	707.142857142857	13	375691	2	375679	27	40	375718	-999999	375694	0	20	TrialsPROC	PL_009_92037.png	1	2	88	SessionSelectionList														target	2	Place	2-Back	77	80	75	0	0	90	2	38	349928	2	14	60	347890	-1	348989	1	1099	2	2	2038	52	349942	-53	0															6	88												
WM080112	131722_fnca	1	1	1	-1345297175	1	75.031	75.031	2.0.10.147	2.0.10.242	2.0.10.242	1.0.0.439	7	234	2	3	Verdana	1	80	0	0	0	WM Stimuli\	0.9	1048.22222222222	0.9	1080	0.8	879.125	1	822.3	1	890.5	1	846.8	0.6	1296.33333333333	0.7	707.142857142857	13	375691	2	375679	27	40	375718	-999999	375694	0	20	TrialsPROC	PL_008_92033.png	1	2	89	SessionSelectionList														nonlure	3	Place	2-Back	78	80	76	0	0	90	1	40	352501	1	13	71	350461	-1	351285	1	824	3	3	2040	53	352514	-54	0															7	89												
WM080112	131722_fnca	1	1	1	-1345297175	1	75.031	75.031	2.0.10.147	2.0.10.242	2.0.10.242	1.0.0.439	7	234	2	3	Verdana	1	80	0	0	0	WM Stimuli\	0.9	1048.22222222222	0.9	1080	0.8	879.125	1	822.3	1	890.5	1	846.8	0.6	1296.33333333333	0.7	707.142857142857	13	375691	2	375679	27	40	375718	-999999	375694	0	20	TrialsPROC	PL_012_92047.png	1	2	90	SessionSelectionList														nonlure	3	Place	2-Back	79	80	77	0	0	90	2	39	355073	1	13	73	353034	-1	353630	1	596	3	3	2039	52	355086	-53	0															8	90												
WM080112	131722_fnca	1	1	1	-1345297175	1	75.031	75.031	2.0.10.147	2.0.10.242	2.0.10.242	1.0.0.439	7	234	2	3	Verdana	1	80	0	0	0	WM Stimuli\	0.9	1048.22222222222	0.9	1080	0.8	879.125	1	822.3	1	890.5	1	846.8	0.6	1296.33333333333	0.7	707.142857142857	13	375691	2	375679	27	40	375718	-999999	375694	0	20	TrialsPROC	PL_012_92047.png	1	2	91	SessionSelectionList														lure	3	Place	2-Back	80	80	78	0	0	90	3	39	357645	1	14	72	355606	-1	356725	1	1119	3	3	2039	53	357659	-54	0															9	91												
WM080112	131722_fnca	1	1	1	-1345297175	1	75.031	75.031	2.0.10.147	2.0.10.242	2.0.10.242	1.0.0.439	7	234	2	3	Verdana	1	80	0	0	0	WM Stimuli\	0.9	1048.22222222222	0.9	1080	0.8	879.125	1	822.3	1	890.5	1	846.8	0.6	1296.33333333333	0.7	707.142857142857	13	375691	2	375679	27	40	375718	-999999	375694	0	20	TrialsPROC	PL_011_92044.png	1	2	92	SessionSelectionList														nonlure	3	Place	2-Back	80	80	79	0	0	90	4	39	360217	2	14	72	358178	-1	358872	1	694	3	3	2039	53	360231	-54	0															10	92												
WM080112	131722_fnca	1	1	1	-1345297175	1	75.031	75.031	2.0.10.147	2.0.10.242	2.0.10.242	1.0.0.439	7	234	2	3	Verdana	1	80	0	0	0	WM Stimuli\	0.9	1048.22222222222	0.9	1080	0.8	879.125	1	822.3	1	890.5	1	846.8	0.6	1296.33333333333	0.7	707.142857142857	13	375691	2	375679	27	40	375718	-999999	375694	0	21	Fix15secPROC	""	1	2	93	SessionSelectionList																																															6	360684	-7	0							93												
