ExperimentName	HCPID	RunNumber	Subject	Session	RandomSeed	Group	Laptop.RefreshRate	ScannerD2.RefreshRate	StudioVersion	RuntimeVersion	RuntimeVersionExpected	ExperimentVersion	triggercode	Allowed	Target	Nontarget	FontStyle	RunTrialNumber[Session]	TrialsPerRun[Session]	TotalRespGreater200[Session]	ConsecRTLess200[Session]	ConsecNonResp[Session]	StimuliDir	ACC_2_Back_Body	Avg_RT_For_Correct_Trials_2_Back_Body	ACC_0_Back_Body	Avg_RT_For_Correct_Trials_0_Back_Body	ACC_2_Back_Face	Avg_RT_For_Correct_Trials_2_Back_Face	ACC_0_Back_Face	Avg_RT_For_Correct_Trials_0_Back_Face	ACC_2_Back_Place	Avg_RT_For_Correct_Trials_2_Back_Place	ACC_0_Back_Place	Avg_RT_For_Correct_Trials_0_Back_Place	ACC_2_Back_Tools	Avg_RT_For_Correct_Trials_2_Back_Tools	ACC_0_Back_Tools	Avg_RT_For_Correct_Trials_0_Back_Tools	ExpInstrucFeelFreeToRest.OnsetDelay	ExpInstrucFeelFreeToRest.OnsetTime	ExpInstrucFeelFreeToRest.DurationError	ExpInstrucFeelFreeToRest.StartTime	ExpInstrucFeelFreeToRest.OnsetToOnsetTime	FeelFreeToRest.OnsetDelay	FeelFreeToRest.OnsetTime	FeelFreeToRest.DurationError	FeelFreeToRest.StartTime	FeelFreeToRest.OnsetToOnsetTime	SessionSelectionList	Procedure[Block]	Stimulus[Block]	RunNumberFilterValue	SessionSelectionList.Cycle	SessionSelectionList.Sample	Running[Block]	IntroButtonMap.OnsetDelay	IntroButtonMap.OnsetTime	IntroButtonMap.DurationError	IntroButtonMap.OnsetToOnsetTime	GetReady.OnsetDelay	GetReady.OnsetTime	GetReady.DurationError	GetReady.OnsetToOnsetTime	Cue2Back.OnsetDelay	Cue2Back.OnsetTime	Cue2Back.DurationError	Cue2Back.OnsetToOnsetTime	Run1Block1	TargetType	CorrectResponse	StimType	BlockType	RunTrialNumber[Block]	TrialsPerRun[Block]	TotalRespGreater200[Block]	ConsecRTLess200[Block]	ConsecNonResp[Block]	ControlAcc	ConsecSameResp	ExperimenterWindow.OnsetDelay	ExperimenterWindow.OnsetTime	ExperimenterWindow.DurationError	ExperimenterWindow.OnsetToOnsetTime	Stim.OnsetDelay	Stim.OnsetTime	Stim.DurationError	Stim.RTTime	Stim.ACC	Stim.RT	Stim.RESP	Stim.CRESP	Stim.OnsetToOnsetTime	Fix.OnsetDelay	Fix.OnsetTime	Fix.DurationError	Fix.OnsetToOnsetTime	CueTarget.OnsetDelay	CueTarget.OnsetTime	CueTarget.DurationError	CueTarget.OnsetToOnsetTime	Run1Block2	Fix15sec.OnsetDelay	Fix15sec.OnsetTime	Fix15sec.DurationError	Fix15sec.OnsetToOnsetTime	Run1Block3	Run1Block4	Run1Block5	Run1Block6	Run1Block7	Run1Block8	Block	Procedure[Trial]	Stimulus[Trial]	ReadyList	Running[Trial]	ReadyList.Cycle	ReadyList.Sample	SyncSlide.OnsetDelay	SyncSlide.OnsetTime	SyncSlide.DurationError	SyncSlide.FinishTime	SyncSlide.OnsetToOnsetTime	Trial
WM080112	125525_fnca	1	1	1	810688612	1	75.032	75.032	2.0.10.147	2.0.10.242	2.0.10.242	1.0.0.439	7	234	2	3	Verdana	1	80	0	0	0	WM Stimuli\	0.5	1051.4	0.6	1190.16666666667	0.7	891.285714285714	0.6	1099.5	0.9	1318.44444444444	0.9	1011.44444444444	0.9	924.666666666667	0.7	1004.57142857143	12	358159	3	358148	27	39	358186	-999999	358162	0	1	TRSyncPROC	""	1	2	1	SessionSelectionList	115	13251	-999999	0	31	49023	-999999	0																																																	1	InitialTR	4	1	ReadyList	1	1	12	64563	-13	66550	0	1
WM080112	125525_fnca	1	1	1	810688612	1	75.032	75.032	2.0.10.147	2.0.10.242	2.0.10.242	1.0.0.439	7	234	2	3	Verdana	1	80	0	0	0	WM Stimuli\	0.5	1051.4	0.6	1190.16666666667	0.7	891.285714285714	0.6	1099.5	0.9	1318.44444444444	0.9	1011.44444444444	0.9	924.666666666667	0.7	1004.57142857143	12	358159	3	358148	27	39	358186	-999999	358162	0	1	TRSyncPROC	""	1	2	1	SessionSelectionList	115	13251	-999999	0	31	49023	-999999	0																																																	1	InitialTR	3	2	ReadyList	1	2	11	66562	-12	68550	0	2
WM080112	125525_fnca	1	1	1	810688612	1	75.032	75.032	2.0.10.147	2.0.10.242	2.0.10.242	1.0.0.439	7	234	2	3	Verdana	1	80	0	0	0	WM Stimuli\	0.5	1051.4	0.6	1190.16666666667	0.7	891.285714285714	0.6	1099.5	0.9	1318.44444444444	0.9	1011.44444444444	0.9	924.666666666667	0.7	1004.57142857143	12	358159	3	358148	27	39	358186	-999999	358162	0	1	TRSyncPROC	""	1	2	1	SessionSelectionList	115	13251	-999999	0	31	49023	-999999	0																																																	1	InitialTR	2	3	ReadyList	1	3	10	68561	-11	70550	0	3
WM080112	125525_fnca	1	1	1	810688612	1	75.032	75.032	2.0.10.147	2.0.10.242	2.0.10.242	1.0.0.439	7	234	2	3	Verdana	1	80	0	0	0	WM Stimuli\	0.5	1051.4	0.6	1190.16666666667	0.7	891.285714285714	0.6	1099.5	0.9	1318.44444444444	0.9	1011.44444444444	0.9	924.666666666667	0.7	1004.57142857143	12	358159	3	358148	27	39	358186	-999999	358162	0	1	TRSyncPROC	""	1	2	1	SessionSelectionList	115	13251	-999999	0	31	49023	-999999	0																																																	1	InitialTR	1	4	ReadyList	1	4	9	70560	-10	72550	0	4
WM080112	125525_fnca	1	1	1	810688612	1	75.032	75.032	2.0.10.147	2.0.10.242	2.0.10.242	1.0.0.439	7	234	2	3	Verdana	1	80	0	0	0	WM Stimuli\	0.5	1051.4	0.6	1190.16666666667	0.7	891.285714285714	0.6	1099.5	0.9	1318.44444444444	0.9	1011.44444444444	0.9	924.666666666667	0.7	1004.57142857143	12	358159	3	358148	27	39	358186	-999999	358162	0	2	Cue2BackPROC	""	1	2	2	SessionSelectionList									9	72560	-10	0																																													2												
WM080112	125525_fnca	1	1	1	810688612	1	75.032	75.032	2.0.10.147	2.0.10.242	2.0.10.242	1.0.0.439	7	234	2	3	Verdana	1	80	0	0	0	WM Stimuli\	0.5	1051.4	0.6	1190.16666666667	0.7	891.285714285714	0.6	1099.5	0.9	1318.44444444444	0.9	1011.44444444444	0.9	924.666666666667	0.7	1004.57142857143	12	358159	3	358148	27	39	358186	-999999	358162	0	3	TrialsPROC	BP_002_BP10_BA.png	1	2	3	SessionSelectionList													1	nonlure	3	Body	2-Back	2	80	0	0	1	0	0	53	77211	3	14	107	75158	-1	0	0	0	""	3	2053	67	77225	-68	0																3												
WM080112	125525_fnca	1	1	1	810688612	1	75.032	75.032	2.0.10.147	2.0.10.242	2.0.10.242	1.0.0.439	7	234	2	3	Verdana	1	80	0	0	0	WM Stimuli\	0.5	1051.4	0.6	1190.16666666667	0.7	891.285714285714	0.6	1099.5	0.9	1318.44444444444	0.9	1011.44444444444	0.9	924.666666666667	0.7	1004.57142857143	12	358159	3	358148	27	39	358186	-999999	358162	0	3	TrialsPROC	BP_001_BP1_BA.png	1	2	4	SessionSelectionList													2	nonlure	3	Body	2-Back	3	80	1	0	0	0	1	39	79770	2	14	73	77731	-1	79266	1	1535	3	3	2039	53	79784	-54	0																4												
WM080112	125525_fnca	1	1	1	810688612	1	75.032	75.032	2.0.10.147	2.0.10.242	2.0.10.242	1.0.0.439	7	234	2	3	Verdana	1	80	0	0	0	WM Stimuli\	0.5	1051.4	0.6	1190.16666666667	0.7	891.285714285714	0.6	1099.5	0.9	1318.44444444444	0.9	1011.44444444444	0.9	924.666666666667	0.7	1004.57142857143	12	358159	3	358148	27	39	358186	-999999	358162	0	3	TrialsPROC	BP_006_BP2_BA.png	1	2	5	SessionSelectionList													3	nonlure	3	Body	2-Back	4	80	2	0	0	0	2	39	82355	2	14	85	80316	-1	81335	1	1019	3	3	2039	53	82369	-54	0																5												
WM080112	125525_fnca	1	1	1	810688612	1	75.032	75.032	2.0.10.147	2.0.10.242	2.0.10.242	1.0.0.439	7	234	2	3	Verdana	1	80	0	0	0	WM Stimuli\	0.5	1051.4	0.6	1190.16666666667	0.7	891.285714285714	0.6	1099.5	0.9	1318.44444444444	0.9	1011.44444444444	0.9	924.666666666667	0.7	1004.57142857143	12	358159	3	358148	27	39	358186	-999999	358162	0	3	TrialsPROC	BP_001_BP1_BA.png	1	2	6	SessionSelectionList													4	target	2	Body	2-Back	5	80	2	0	1	0	2	39	84928	1	13	73	82889	-1	0	0	0	""	2	2039	52	84941	-53	0																6												
WM080112	125525_fnca	1	1	1	810688612	1	75.032	75.032	2.0.10.147	2.0.10.242	2.0.10.242	1.0.0.439	7	234	2	3	Verdana	1	80	0	0	0	WM Stimuli\	0.5	1051.4	0.6	1190.16666666667	0.7	891.285714285714	0.6	1099.5	0.9	1318.44444444444	0.9	1011.44444444444	0.9	924.666666666667	0.7	1004.57142857143	12	358159	3	358148	27	39	358186	-999999	358162	0	3	TrialsPROC	BP_005_BP19_BA.png	1	2	7	SessionSelectionList													5	nonlure	3	Body	2-Back	6	80	3	0	0	0	1	39	87500	1	14	72	85461	-1	86488	1	1027	3	3	2039	53	87514	-54	0																7												
WM080112	125525_fnca	1	1	1	810688612	1	75.032	75.032	2.0.10.147	2.0.10.242	2.0.10.242	1.0.0.439	7	234	2	3	Verdana	1	80	0	0	0	WM Stimuli\	0.5	1051.4	0.6	1190.16666666667	0.7	891.285714285714	0.6	1099.5	0.9	1318.44444444444	0.9	1011.44444444444	0.9	924.666666666667	0.7	1004.57142857143	12	358159	3	358148	27	39	358186	-999999	358162	0	3	TrialsPROC	BP_003_BP16_BA.png	1	2	8	SessionSelectionList													6	nonlure	3	Body	2-Back	7	80	4	0	0	0	2	39	90059	1	14	59	88020	-1	88779	1	759	3	3	2039	53	90073	-54	0																8												
WM080112	125525_fnca	1	1	1	810688612	1	75.032	75.032	2.0.10.147	2.0.10.242	2.0.10.242	1.0.0.439	7	234	2	3	Verdana	1	80	0	0	0	WM Stimuli\	0.5	1051.4	0.6	1190.16666666667	0.7	891.285714285714	0.6	1099.5	0.9	1318.44444444444	0.9	1011.44444444444	0.9	924.666666666667	0.7	1004.57142857143	12	358159	3	358148	27	39	358186	-999999	358162	0	3	TrialsPROC	BP_006_BP2_BA.png	1	2	9	SessionSelectionList													7	lure	3	Body	2-Back	8	80	5	0	0	0	1	39	92618	1	14	59	90579	-1	91320	0	741	2	3	2039	53	92632	-54	0																9												
WM080112	125525_fnca	1	1	1	810688612	1	75.032	75.032	2.0.10.147	2.0.10.242	2.0.10.242	1.0.0.439	7	234	2	3	Verdana	1	80	0	0	0	WM Stimuli\	0.5	1051.4	0.6	1190.16666666667	0.7	891.285714285714	0.6	1099.5	0.9	1318.44444444444	0.9	1011.44444444444	0.9	924.666666666667	0.7	1004.57142857143	12	358159	3	358148	27	39	358186	-999999	358162	0	3	TrialsPROC	BP_004_BP18_BA.png	1	2	10	SessionSelectionList													8	nonlure	3	Body	2-Back	9	80	6	0	0	0	1	39	95177	1	14	59	93138	-1	94055	1	917	3	3	2039	53	95191	-54	0																10												
WM080112	125525_fnca	1	1	1	810688612	1	75.032	75.032	2.0.10.147	2.0.10.242	2.0.10.242	1.0.0.439	7	234	2	3	Verdana	1	80	0	0	0	WM Stimuli\	0.5	1051.4	0.6	1190.16666666667	0.7	891.285714285714	0.6	1099.5	0.9	1318.44444444444	0.9	1011.44444444444	0.9	924.666666666667	0.7	1004.57142857143	12	358159	3	358148	27	39	358186	-999999	358162	0	3	TrialsPROC	BP_005_BP19_BA.png	1	2	11	SessionSelectionList													9	lure	3	Body	2-Back	10	80	7	0	0	0	1	39	97736	1	13	59	95697	-1	97015	0	1318	2	3	2039	52	97749	-53	0																11												
WM080112	125525_fnca	1	1	1	810688612	1	75.032	75.032	2.0.10.147	2.0.10.242	2.0.10.242	1.0.0.439	7	234	2	3	Verdana	1	80	0	0	0	WM Stimuli\	0.5	1051.4	0.6	1190.16666666667	0.7	891.285714285714	0.6	1099.5	0.9	1318.44444444444	0.9	1011.44444444444	0.9	924.666666666667	0.7	1004.57142857143	12	358159	3	358148	27	39	358186	-999999	358162	0	3	TrialsPROC	BP_004_BP18_BA.png	1	2	12	SessionSelectionList													10	target	2	Body	2-Back	11	80	8	0	0	0	1	40	100295	1	13	58	98255	-1	99117	0	862	3	2	2040	53	100308	-54	0																12												
WM080112	125525_fnca	1	1	1	810688612	1	75.032	75.032	2.0.10.147	2.0.10.242	2.0.10.242	1.0.0.439	7	234	2	3	Verdana	1	80	0	0	0	WM Stimuli\	0.5	1051.4	0.6	1190.16666666667	0.7	891.285714285714	0.6	1099.5	0.9	1318.44444444444	0.9	1011.44444444444	0.9	924.666666666667	0.7	1004.57142857143	12	358159	3	358148	27	39	358186	-999999	358162	0	4	Cue0BackPROC	FC_001_M1.png	1	2	13	SessionSelectionList																																										19	100774	-20	0												13												
WM080112	125525_fnca	1	1	1	810688612	1	75.032	75.032	2.0.10.147	2.0.10.242	2.0.10.242	1.0.0.439	7	234	2	3	Verdana	1	80	0	0	0	WM Stimuli\	0.5	1051.4	0.6	1190.16666666667	0.7	891.285714285714	0.6	1099.5	0.9	1318.44444444444	0.9	1011.44444444444	0.9	924.666666666667	0.7	1004.57142857143	12	358159	3	358148	27	39	358186	-999999	358162	0	5	TrialsPROC	FC_005_M3.png	1	2	14	SessionSelectionList														nonlure	3	Face	0-Back	12	80	9	0	0	0	1	39	105359	1	14	65	103320	-1	104204	0	884	2	3	2039	53	105373	-54	0					1											14												
WM080112	125525_fnca	1	1	1	810688612	1	75.032	75.032	2.0.10.147	2.0.10.242	2.0.10.242	1.0.0.439	7	234	2	3	Verdana	1	80	0	0	0	WM Stimuli\	0.5	1051.4	0.6	1190.16666666667	0.7	891.285714285714	0.6	1099.5	0.9	1318.44444444444	0.9	1011.44444444444	0.9	924.666666666667	0.7	1004.57142857143	12	358159	3	358148	27	39	358186	-999999	358162	0	5	TrialsPROC	FC_001_M1.png	1	2	15	SessionSelectionList														target	2	Face	0-Back	13	80	10	0	0	50	2	39	107931	2	14	72	105892	-1	107086	1	1194	2	2	2039	53	107945	-54	0					2											15												
WM080112	125525_fnca	1	1	1	810688612	1	75.032	75.032	2.0.10.147	2.0.10.242	2.0.10.242	1.0.0.439	7	234	2	3	Verdana	1	80	0	0	0	WM Stimuli\	0.5	1051.4	0.6	1190.16666666667	0.7	891.285714285714	0.6	1099.5	0.9	1318.44444444444	0.9	1011.44444444444	0.9	924.666666666667	0.7	1004.57142857143	12	358159	3	358148	27	39	358186	-999999	358162	0	5	TrialsPROC	FC_003_M2.png	1	2	16	SessionSelectionList														nonlure	3	Face	0-Back	14	80	11	0	0	33	3	40	110504	2	13	72	108464	-1	109244	0	780	2	3	2040	53	110517	-54	0					3											16												
WM080112	125525_fnca	1	1	1	810688612	1	75.032	75.032	2.0.10.147	2.0.10.242	2.0.10.242	1.0.0.439	7	234	2	3	Verdana	1	80	0	0	0	WM Stimuli\	0.5	1051.4	0.6	1190.16666666667	0.7	891.285714285714	0.6	1099.5	0.9	1318.44444444444	0.9	1011.44444444444	0.9	924.666666666667	0.7	1004.57142857143	12	358159	3	358148	27	39	358186	-999999	358162	0	5	TrialsPROC	FC_004_F2.png	1	2	17	SessionSelectionList														nonlure	3	Face	0-Back	15	80	12	0	0	50	1	39	113076	1	14	73	111037	-1	111996	1	959	3	3	2039	53	113090	-54	0					4											17												
WM080112	125525_fnca	1	1	1	810688612	1	75.032	75.032	2.0.10.147	2.0.10.242	2.0.10.242	1.0.0.439	7	234	2	3	Verdana	1	80	0	0	0	WM Stimuli\	0.5	1051.4	0.6	1190.16666666667	0.7	891.285714285714	0.6	1099.5	0.9	1318.44444444444	0.9	1011.44444444444	0.9	924.666666666667	0.7	1004.57142857143	12	358159	3	358148	27	39	358186	-999999	358162	0	5	TrialsPROC	FC_004_F2.png	1	2	18	SessionSelectionList														lure	3	Face	0-Back	16	80	13	0	0	60	2	39	115648	2	14	72	113609	-1	114414	1	805	3	3	2039	53	115662	-54	0					5											18												
WM080112	125525_fnca	1	1	1	810688612	1	75.032	75.032	2.0.10.147	2.0.10.242	2.0.10.242	1.0.0.439	7	234	2	3	Verdana	1	80	0	0	0	WM Stimuli\	0.5	1051.4	0.6	1190.16666666667	0.7	891.285714285714	0.6	1099.5	0.9	1318.44444444444	0.9	1011.44444444444	0.9	924.666666666667	0.7	1004.57142857143	12	358159	3	358148	27	39	358186	-999999	358162	0	5	TrialsPROC	FC_001_M1.png	1	2	19	SessionSelectionList														target	2	Face	0-Back	17	80	14	0	0	50	3	39	118220	2	14	72	116181	-1	117454	0	1273	3	2	2039	53	118234	-54	0					6											19												
WM080112	125525_fnca	1	1	1	810688612	1	75.032	75.032	2.0.10.147	2.0.10.242	2.0.10.242	1.0.0.439	7	234	2	3	Verdana	1	80	0	0	0	WM Stimuli\	0.5	1051.4	0.6	1190.16666666667	0.7	891.285714285714	0.6	1099.5	0.9	1318.44444444444	0.9	1011.44444444444	0.9	924.666666666667	0.7	1004.57142857143	12	358159	3	358148	27	39	358186	-999999	358162	0	5	TrialsPROC	FC_006_F3.png	1	2	20	SessionSelectionList														nonlure	3	Face	0-Back	18	80	15	0	0	57	4	40	120793	1	13	72	118753	-1	119830	1	1077	3	3	2040	53	120806	-54	0					7											20												
WM080112	125525_fnca	1	1	1	810688612	1	75.032	75.032	2.0.10.147	2.0.10.242	2.0.10.242	1.0.0.439	7	234	2	3	Verdana	1	80	0	0	0	WM Stimuli\	0.5	1051.4	0.6	1190.16666666667	0.7	891.285714285714	0.6	1099.5	0.9	1318.44444444444	0.9	1011.44444444444	0.9	924.666666666667	0.7	1004.57142857143	12	358159	3	358148	27	39	358186	-999999	358162	0	5	TrialsPROC	FC_006_F3.png	1	2	21	SessionSelectionList														lure	3	Face	0-Back	19	80	16	0	0	62	5	39	123365	1	14	73	121326	-1	123040	1	1714	3	3	2039	53	123379	-54	0					8											21												
WM080112	125525_fnca	1	1	1	810688612	1	75.032	75.032	2.0.10.147	2.0.10.242	2.0.10.242	1.0.0.439	7	234	2	3	Verdana	1	80	0	0	0	WM Stimuli\	0.5	1051.4	0.6	1190.16666666667	0.7	891.285714285714	0.6	1099.5	0.9	1318.44444444444	0.9	1011.44444444444	0.9	924.666666666667	0.7	1004.57142857143	12	358159	3	358148	27	39	358186	-999999	358162	0	5	TrialsPROC	FC_003_M2.png	1	2	22	SessionSelectionList														lure	3	Face	0-Back	20	80	17	0	0	56	1	39	125937	2	14	72	123898	-1	124649	0	751	2	3	2039	53	125951	-54	0					9											22												
WM080112	125525_fnca	1	1	1	810688612	1	75.032	75.032	2.0.10.147	2.0.10.242	2.0.10.242	1.0.0.439	7	234	2	3	Verdana	1	80	0	0	0	WM Stimuli\	0.5	1051.4	0.6	1190.16666666667	0.7	891.285714285714	0.6	1099.5	0.9	1318.44444444444	0.9	1011.44444444444	0.9	924.666666666667	0.7	1004.57142857143	12	358159	3	358148	27	39	358186	-999999	358162	0	5	TrialsPROC	FC_002_F1.png	1	2	23	SessionSelectionList														nonlure	3	Face	0-Back	21	80	18	0	0	60	1	39	128509	2	14	72	126470	-1	127318	1	848	3	3	2039	53	128523	-54	0					10											23												
WM080112	125525_fnca	1	1	1	810688612	1	75.032	75.032	2.0.10.147	2.0.10.242	2.0.10.242	1.0.0.439	7	234	2	3	Verdana	1	80	0	0	0	WM Stimuli\	0.5	1051.4	0.6	1190.16666666667	0.7	891.285714285714	0.6	1099.5	0.9	1318.44444444444	0.9	1011.44444444444	0.9	924.666666666667	0.7	1004.57142857143	12	358159	3	358148	27	39	358186	-999999	358162	0	6	Fix15secPROC	""	1	2	24	SessionSelectionList																																															6	128976	-7	0							24												
WM080112	125525_fnca	1	1	1	810688612	1	75.032	75.032	2.0.10.147	2.0.10.242	2.0.10.242	1.0.0.439	7	234	2	3	Verdana	1	80	0	0	0	WM Stimuli\	0.5	1051.4	0.6	1190.16666666667	0.7	891.285714285714	0.6	1099.5	0.9	1318.44444444444	0.9	1011.44444444444	0.9	924.666666666667	0.7	1004.57142857143	12	358159	3	358148	27	39	358186	-999999	358162	0	7	Cue2BackPROC	""	1	2	25	SessionSelectionList									13	143983	-14	0																																													25												
WM080112	125525_fnca	1	1	1	810688612	1	75.032	75.032	2.0.10.147	2.0.10.242	2.0.10.242	1.0.0.439	7	234	2	3	Verdana	1	80	0	0	0	WM Stimuli\	0.5	1051.4	0.6	1190.16666666667	0.7	891.285714285714	0.6	1099.5	0.9	1318.44444444444	0.9	1011.44444444444	0.9	924.666666666667	0.7	1004.57142857143	12	358159	3	358148	27	39	358186	-999999	358162	0	8	TrialsPROC	TO_001_TOOL1_BA.png	1	2	26	SessionSelectionList														nonlure	3	Tools	2-Back	22	80	18	0	1	60	1	39	148568	1	13	59	146529	-1	0	0	0	""	3	2039	52	148581	-53	0										1						26												
WM080112	125525_fnca	1	1	1	810688612	1	75.032	75.032	2.0.10.147	2.0.10.242	2.0.10.242	1.0.0.439	7	234	2	3	Verdana	1	80	0	0	0	WM Stimuli\	0.5	1051.4	0.6	1190.16666666667	0.7	891.285714285714	0.6	1099.5	0.9	1318.44444444444	0.9	1011.44444444444	0.9	924.666666666667	0.7	1004.57142857143	12	358159	3	358148	27	39	358186	-999999	358162	0	8	TrialsPROC	TO_002_TOOL2_BA.png	1	2	27	SessionSelectionList														nonlure	3	Tools	2-Back	23	80	19	0	0	60	1	39	151126	2	14	58	149087	-1	149825	1	738	3	3	2039	53	151140	-54	0										2						27												
WM080112	125525_fnca	1	1	1	810688612	1	75.032	75.032	2.0.10.147	2.0.10.242	2.0.10.242	1.0.0.439	7	234	2	3	Verdana	1	80	0	0	0	WM Stimuli\	0.5	1051.4	0.6	1190.16666666667	0.7	891.285714285714	0.6	1099.5	0.9	1318.44444444444	0.9	1011.44444444444	0.9	924.666666666667	0.7	1004.57142857143	12	358159	3	358148	27	39	358186	-999999	358162	0	8	TrialsPROC	TO_004_TOOL4_BA.png	1	2	28	SessionSelectionList														nonlure	3	Tools	2-Back	24	80	20	0	0	60	2	38	153685	2	14	60	151647	-1	152323	1	676	3	3	2038	52	153699	-53	0										3						28												
WM080112	125525_fnca	1	1	1	810688612	1	75.032	75.032	2.0.10.147	2.0.10.242	2.0.10.242	1.0.0.439	7	234	2	3	Verdana	1	80	0	0	0	WM Stimuli\	0.5	1051.4	0.6	1190.16666666667	0.7	891.285714285714	0.6	1099.5	0.9	1318.44444444444	0.9	1011.44444444444	0.9	924.666666666667	0.7	1004.57142857143	12	358159	3	358148	27	39	358186	-999999	358162	0	8	TrialsPROC	TO_002_TOOL2_BA.png	1	2	29	SessionSelectionList														target	2	Tools	2-Back	25	80	21	0	0	60	1	39	156244	2	14	58	154205	-1	154855	1	650	2	2	2039	53	156258	-54	0										4						29												
WM080112	125525_fnca	1	1	1	810688612	1	75.032	75.032	2.0.10.147	2.0.10.242	2.0.10.242	1.0.0.439	7	234	2	3	Verdana	1	80	0	0	0	WM Stimuli\	0.5	1051.4	0.6	1190.16666666667	0.7	891.285714285714	0.6	1099.5	0.9	1318.44444444444	0.9	1011.44444444444	0.9	924.666666666667	0.7	1004.57142857143	12	358159	3	358148	27	39	358186	-999999	358162	0	8	TrialsPROC	TO_001_TOOL1_BA.png	1	2	30	SessionSelectionList														lure	3	Tools	2-Back	26	80	22	0	0	60	1	39	158803	2	14	59	156764	-1	158121	1	1357	3	3	2039	53	158817	-54	0										5						30												
WM080112	125525_fnca	1	1	1	810688612	1	75.032	75.032	2.0.10.147	2.0.10.242	2.0.10.242	1.0.0.439	7	234	2	3	Verdana	1	80	0	0	0	WM Stimuli\	0.5	1051.4	0.6	1190.16666666667	0.7	891.285714285714	0.6	1099.5	0.9	1318.44444444444	0.9	1011.44444444444	0.9	924.666666666667	0.7	1004.57142857143	12	358159	3	358148	27	39	358186	-999999	358162	0	8	TrialsPROC	TO_004_TOOL4_BA.png	1	2	31	SessionSelectionList														lure	3	Tools	2-Back	27	80	23	0	0	60	2	39	161362	2	14	59	159323	-1	160919	1	1596	3	3	2039	53	161376	-54	0										6						31												
WM080112	125525_fnca	1	1	1	810688612	1	75.032	75.032	2.0.10.147	2.0.10.242	2.0.10.242	1.0.0.439	7	234	2	3	Verdana	1	80	0	0	0	WM Stimuli\	0.5	1051.4	0.6	1190.16666666667	0.7	891.285714285714	0.6	1099.5	0.9	1318.44444444444	0.9	1011.44444444444	0.9	924.666666666667	0.7	1004.57142857143	12	358159	3	358148	27	39	358186	-999999	358162	0	8	TrialsPROC	TO_006_TOOL6_BA.png	1	2	32	SessionSelectionList														nonlure	3	Tools	2-Back	28	80	24	0	0	60	3	39	163921	2	14	59	161882	-1	163029	1	1147	3	3	2039	53	163935	-54	0										7						32												
WM080112	125525_fnca	1	1	1	810688612	1	75.032	75.032	2.0.10.147	2.0.10.242	2.0.10.242	1.0.0.439	7	234	2	3	Verdana	1	80	0	0	0	WM Stimuli\	0.5	1051.4	0.6	1190.16666666667	0.7	891.285714285714	0.6	1099.5	0.9	1318.44444444444	0.9	1011.44444444444	0.9	924.666666666667	0.7	1004.57142857143	12	358159	3	358148	27	39	358186	-999999	358162	0	8	TrialsPROC	TO_005_TOOL5_BA.png	1	2	33	SessionSelectionList														nonlure	3	Tools	2-Back	29	80	25	0	0	60	4	39	166480	1	14	59	164441	-1	165456	1	1015	3	3	2039	53	166494	-54	0										8						33												
WM080112	125525_fnca	1	1	1	810688612	1	75.032	75.032	2.0.10.147	2.0.10.242	2.0.10.242	1.0.0.439	7	234	2	3	Verdana	1	80	0	0	0	WM Stimuli\	0.5	1051.4	0.6	1190.16666666667	0.7	891.285714285714	0.6	1099.5	0.9	1318.44444444444	0.9	1011.44444444444	0.9	924.666666666667	0.7	1004.57142857143	12	358159	3	358148	27	39	358186	-999999	358162	0	8	TrialsPROC	TO_006_TOOL6_BA.png	1	2	34	SessionSelectionList														target	2	Tools	2-Back	30	80	26	0	0	60	1	39	169039	1	14	59	167000	-1	167487	1	487	2	2	2039	53	169053	-54	0										9						34												
WM080112	125525_fnca	1	1	1	810688612	1	75.032	75.032	2.0.10.147	2.0.10.242	2.0.10.242	1.0.0.439	7	234	2	3	Verdana	1	80	0	0	0	WM Stimuli\	0.5	1051.4	0.6	1190.16666666667	0.7	891.285714285714	0.6	1099.5	0.9	1318.44444444444	0.9	1011.44444444444	0.9	924.666666666667	0.7	1004.57142857143	12	358159	3	358148	27	39	358186	-999999	358162	0	8	TrialsPROC	TO_003_TOOL3_BA.png	1	2	35	SessionSelectionList														nonlure	3	Tools	2-Back	31	80	27	0	0	60	1	39	171598	1	14	59	169559	-1	170215	1	656	3	3	2039	53	171612	-54	0										10						35												
WM080112	125525_fnca	1	1	1	810688612	1	75.032	75.032	2.0.10.147	2.0.10.242	2.0.10.242	1.0.0.439	7	234	2	3	Verdana	1	80	0	0	0	WM Stimuli\	0.5	1051.4	0.6	1190.16666666667	0.7	891.285714285714	0.6	1099.5	0.9	1318.44444444444	0.9	1011.44444444444	0.9	924.666666666667	0.7	1004.57142857143	12	358159	3	358148	27	39	358186	-999999	358162	0	9	Cue0BackPROC	BP_007_BP20_BA.png	1	2	36	SessionSelectionList																																										19	172078	-20	0												36												
WM080112	125525_fnca	1	1	1	810688612	1	75.032	75.032	2.0.10.147	2.0.10.242	2.0.10.242	1.0.0.439	7	234	2	3	Verdana	1	80	0	0	0	WM Stimuli\	0.5	1051.4	0.6	1190.16666666667	0.7	891.285714285714	0.6	1099.5	0.9	1318.44444444444	0.9	1011.44444444444	0.9	924.666666666667	0.7	1004.57142857143	12	358159	3	358148	27	39	358186	-999999	358162	0	10	TrialsPROC	BP_007_BP20_BA.png	1	2	37	SessionSelectionList														target	2	Body	0-Back	32	80	28	0	0	55	2	39	176649	1	14	51	174610	-1	175910	0	1300	3	2	2039	53	176663	-54	0											1					37												
WM080112	125525_fnca	1	1	1	810688612	1	75.032	75.032	2.0.10.147	2.0.10.242	2.0.10.242	1.0.0.439	7	234	2	3	Verdana	1	80	0	0	0	WM Stimuli\	0.5	1051.4	0.6	1190.16666666667	0.7	891.285714285714	0.6	1099.5	0.9	1318.44444444444	0.9	1011.44444444444	0.9	924.666666666667	0.7	1004.57142857143	12	358159	3	358148	27	39	358186	-999999	358162	0	10	TrialsPROC	BP_011_BP4_BA.png	1	2	38	SessionSelectionList														nonlure	3	Body	0-Back	33	80	29	0	0	58	3	39	179221	2	14	72	177182	-1	178952	1	1770	3	3	2039	53	179235	-54	0											2					38												
WM080112	125525_fnca	1	1	1	810688612	1	75.032	75.032	2.0.10.147	2.0.10.242	2.0.10.242	1.0.0.439	7	234	2	3	Verdana	1	80	0	0	0	WM Stimuli\	0.5	1051.4	0.6	1190.16666666667	0.7	891.285714285714	0.6	1099.5	0.9	1318.44444444444	0.9	1011.44444444444	0.9	924.666666666667	0.7	1004.57142857143	12	358159	3	358148	27	39	358186	-999999	358162	0	10	TrialsPROC	BP_010_BP3_BA.png	1	2	39	SessionSelectionList														nonlure	3	Body	0-Back	34	80	30	0	0	62	4	39	181780	2	14	59	179741	-1	181093	1	1352	3	3	2039	53	181794	-54	0											3					39												
WM080112	125525_fnca	1	1	1	810688612	1	75.032	75.032	2.0.10.147	2.0.10.242	2.0.10.242	1.0.0.439	7	234	2	3	Verdana	1	80	0	0	0	WM Stimuli\	0.5	1051.4	0.6	1190.16666666667	0.7	891.285714285714	0.6	1099.5	0.9	1318.44444444444	0.9	1011.44444444444	0.9	924.666666666667	0.7	1004.57142857143	12	358159	3	358148	27	39	358186	-999999	358162	0	10	TrialsPROC	BP_008_BP21_BA.png	1	2	40	SessionSelectionList														nonlure	3	Body	0-Back	35	80	31	0	0	64	5	39	184339	2	14	59	182300	-1	183350	1	1050	3	3	2039	53	184353	-54	0											4					40												
WM080112	125525_fnca	1	1	1	810688612	1	75.032	75.032	2.0.10.147	2.0.10.242	2.0.10.242	1.0.0.439	7	234	2	3	Verdana	1	80	0	0	0	WM Stimuli\	0.5	1051.4	0.6	1190.16666666667	0.7	891.285714285714	0.6	1099.5	0.9	1318.44444444444	0.9	1011.44444444444	0.9	924.666666666667	0.7	1004.57142857143	12	358159	3	358148	27	39	358186	-999999	358162	0	10	TrialsPROC	BP_011_BP4_BA.png	1	2	41	SessionSelectionList														lure	3	Body	0-Back	36	80	32	0	0	60	1	39	186898	1	14	59	184859	-1	185781	0	922	2	3	2039	53	186912	-54	0											5					41												
WM080112	125525_fnca	1	1	1	810688612	1	75.032	75.032	2.0.10.147	2.0.10.242	2.0.10.242	1.0.0.439	7	234	2	3	Verdana	1	80	0	0	0	WM Stimuli\	0.5	1051.4	0.6	1190.16666666667	0.7	891.285714285714	0.6	1099.5	0.9	1318.44444444444	0.9	1011.44444444444	0.9	924.666666666667	0.7	1004.57142857143	12	358159	3	358148	27	39	358186	-999999	358162	0	10	TrialsPROC	BP_009_BP22_BA.png	1	2	42	SessionSelectionList														nonlure	3	Body	0-Back	37	80	33	0	0	62	1	39	189457	1	14	59	187418	-1	188297	1	879	3	3	2039	53	189471	-54	0											6					42												
WM080112	125525_fnca	1	1	1	810688612	1	75.032	75.032	2.0.10.147	2.0.10.242	2.0.10.242	1.0.0.439	7	234	2	3	Verdana	1	80	0	0	0	WM Stimuli\	0.5	1051.4	0.6	1190.16666666667	0.7	891.285714285714	0.6	1099.5	0.9	1318.44444444444	0.9	1011.44444444444	0.9	924.666666666667	0.7	1004.57142857143	12	358159	3	358148	27	39	358186	-999999	358162	0	10	TrialsPROC	BP_009_BP22_BA.png	1	2	43	SessionSelectionList														lure	3	Body	0-Back	38	80	34	0	0	65	2	39	192016	1	14	59	189977	-1	190689	1	712	3	3	2039	53	192030	-54	0											7					43												
WM080112	125525_fnca	1	1	1	810688612	1	75.032	75.032	2.0.10.147	2.0.10.242	2.0.10.242	1.0.0.439	7	234	2	3	Verdana	1	80	0	0	0	WM Stimuli\	0.5	1051.4	0.6	1190.16666666667	0.7	891.285714285714	0.6	1099.5	0.9	1318.44444444444	0.9	1011.44444444444	0.9	924.666666666667	0.7	1004.57142857143	12	358159	3	358148	27	39	358186	-999999	358162	0	10	TrialsPROC	BP_008_BP21_BA.png	1	2	44	SessionSelectionList														lure	3	Body	0-Back	39	80	35	0	0	61	1	39	194575	1	14	59	192536	-1	193528	0	992	2	3	2039	53	194589	-54	0											8					44												
WM080112	125525_fnca	1	1	1	810688612	1	75.032	75.032	2.0.10.147	2.0.10.242	2.0.10.242	1.0.0.439	7	234	2	3	Verdana	1	80	0	0	0	WM Stimuli\	0.5	1051.4	0.6	1190.16666666667	0.7	891.285714285714	0.6	1099.5	0.9	1318.44444444444	0.9	1011.44444444444	0.9	924.666666666667	0.7	1004.57142857143	12	358159	3	358148	27	39	358186	-999999	358162	0	10	TrialsPROC	BP_007_BP20_BA.png	1	2	45	SessionSelectionList														target	2	Body	0-Back	40	80	36	0	0	58	1	39	197134	1	14	59	195095	-1	196350	0	1255	3	2	2039	53	197148	-54	0											9					45												
WM080112	125525_fnca	1	1	1	810688612	1	75.032	75.032	2.0.10.147	2.0.10.242	2.0.10.242	1.0.0.439	7	234	2	3	Verdana	1	80	0	0	0	WM Stimuli\	0.5	1051.4	0.6	1190.16666666667	0.7	891.285714285714	0.6	1099.5	0.9	1318.44444444444	0.9	1011.44444444444	0.9	924.666666666667	0.7	1004.57142857143	12	358159	3	358148	27	39	358186	-999999	358162	0	10	TrialsPROC	BP_012_BP5_BA.png	1	2	46	SessionSelectionList														nonlure	3	Body	0-Back	41	80	37	0	0	60	2	39	199706	1	14	72	197667	-1	199045	1	1378	3	3	2039	53	199720	-54	0											10					46												
WM080112	125525_fnca	1	1	1	810688612	1	75.032	75.032	2.0.10.147	2.0.10.242	2.0.10.242	1.0.0.439	7	234	2	3	Verdana	1	80	0	0	0	WM Stimuli\	0.5	1051.4	0.6	1190.16666666667	0.7	891.285714285714	0.6	1099.5	0.9	1318.44444444444	0.9	1011.44444444444	0.9	924.666666666667	0.7	1004.57142857143	12	358159	3	358148	27	39	358186	-999999	358162	0	11	Fix15secPROC	""	1	2	47	SessionSelectionList																																															6	200173	-7	0							47												
WM080112	125525_fnca	1	1	1	810688612	1	75.032	75.032	2.0.10.147	2.0.10.242	2.0.10.242	1.0.0.439	7	234	2	3	Verdana	1	80	0	0	0	WM Stimuli\	0.5	1051.4	0.6	1190.16666666667	0.7	891.285714285714	0.6	1099.5	0.9	1318.44444444444	0.9	1011.44444444444	0.9	924.666666666667	0.7	1004.57142857143	12	358159	3	358148	27	39	358186	-999999	358162	0	12	Cue0BackPROC	PL_001_92012.png	1	2	48	SessionSelectionList																																										12	215179	-13	0												48												
WM080112	125525_fnca	1	1	1	810688612	1	75.032	75.032	2.0.10.147	2.0.10.242	2.0.10.242	1.0.0.439	7	234	2	3	Verdana	1	80	0	0	0	WM Stimuli\	0.5	1051.4	0.6	1190.16666666667	0.7	891.285714285714	0.6	1099.5	0.9	1318.44444444444	0.9	1011.44444444444	0.9	924.666666666667	0.7	1004.57142857143	12	358159	3	358148	27	39	358186	-999999	358162	0	13	TrialsPROC	PL_003_92016.png	1	2	49	SessionSelectionList														nonlure	3	Place	0-Back	42	80	38	0	0	62	3	40	219778	1	13	71	217738	-1	219505	1	1767	3	3	2040	53	219791	-54	0												1				49												
WM080112	125525_fnca	1	1	1	810688612	1	75.032	75.032	2.0.10.147	2.0.10.242	2.0.10.242	1.0.0.439	7	234	2	3	Verdana	1	80	0	0	0	WM Stimuli\	0.5	1051.4	0.6	1190.16666666667	0.7	891.285714285714	0.6	1099.5	0.9	1318.44444444444	0.9	1011.44444444444	0.9	924.666666666667	0.7	1004.57142857143	12	358159	3	358148	27	39	358186	-999999	358162	0	13	TrialsPROC	PL_003_92016.png	1	2	50	SessionSelectionList														lure	3	Place	0-Back	43	80	39	0	0	64	4	39	222350	1	14	73	220311	-1	220785	1	474	3	3	2039	53	222364	-54	0												2				50												
WM080112	125525_fnca	1	1	1	810688612	1	75.032	75.032	2.0.10.147	2.0.10.242	2.0.10.242	1.0.0.439	7	234	2	3	Verdana	1	80	0	0	0	WM Stimuli\	0.5	1051.4	0.6	1190.16666666667	0.7	891.285714285714	0.6	1099.5	0.9	1318.44444444444	0.9	1011.44444444444	0.9	924.666666666667	0.7	1004.57142857143	12	358159	3	358148	27	39	358186	-999999	358162	0	13	TrialsPROC	PL_006_92025.png	1	2	51	SessionSelectionList														nonlure	3	Place	0-Back	44	80	40	0	0	65	5	39	224922	1	14	72	222883	-1	223785	1	902	3	3	2039	53	224936	-54	0												3				51												
WM080112	125525_fnca	1	1	1	810688612	1	75.032	75.032	2.0.10.147	2.0.10.242	2.0.10.242	1.0.0.439	7	234	2	3	Verdana	1	80	0	0	0	WM Stimuli\	0.5	1051.4	0.6	1190.16666666667	0.7	891.285714285714	0.6	1099.5	0.9	1318.44444444444	0.9	1011.44444444444	0.9	924.666666666667	0.7	1004.57142857143	12	358159	3	358148	27	39	358186	-999999	358162	0	13	TrialsPROC	PL_001_92012.png	1	2	52	SessionSelectionList														target	2	Place	0-Back	45	80	41	0	0	67	1	39	227494	2	14	72	225455	-1	226492	1	1037	2	2	2039	53	227508	-54	0												4				52												
WM080112	125525_fnca	1	1	1	810688612	1	75.032	75.032	2.0.10.147	2.0.10.242	2.0.10.242	1.0.0.439	7	234	2	3	Verdana	1	80	0	0	0	WM Stimuli\	0.5	1051.4	0.6	1190.16666666667	0.7	891.285714285714	0.6	1099.5	0.9	1318.44444444444	0.9	1011.44444444444	0.9	924.666666666667	0.7	1004.57142857143	12	358159	3	358148	27	39	358186	-999999	358162	0	13	TrialsPROC	PL_004_92023.png	1	2	53	SessionSelectionList														nonlure	3	Place	0-Back	46	80	42	0	0	68	1	40	230067	1	13	72	228027	-1	228762	1	735	3	3	2040	53	230080	-54	0												5				53												
WM080112	125525_fnca	1	1	1	810688612	1	75.032	75.032	2.0.10.147	2.0.10.242	2.0.10.242	1.0.0.439	7	234	2	3	Verdana	1	80	0	0	0	WM Stimuli\	0.5	1051.4	0.6	1190.16666666667	0.7	891.285714285714	0.6	1099.5	0.9	1318.44444444444	0.9	1011.44444444444	0.9	924.666666666667	0.7	1004.57142857143	12	358159	3	358148	27	39	358186	-999999	358162	0	13	TrialsPROC	PL_005_92024.png	1	2	54	SessionSelectionList														nonlure	3	Place	0-Back	47	80	43	0	0	65	1	39	232639	1	14	73	230600	-1	231950	0	1350	2	3	2039	53	232653	-54	0												6				54												
WM080112	125525_fnca	1	1	1	810688612	1	75.032	75.032	2.0.10.147	2.0.10.242	2.0.10.242	1.0.0.439	7	234	2	3	Verdana	1	80	0	0	0	WM Stimuli\	0.5	1051.4	0.6	1190.16666666667	0.7	891.285714285714	0.6	1099.5	0.9	1318.44444444444	0.9	1011.44444444444	0.9	924.666666666667	0.7	1004.57142857143	12	358159	3	358148	27	39	358186	-999999	358162	0	13	TrialsPROC	PL_001_92012.png	1	2	55	SessionSelectionList														target	2	Place	0-Back	48	80	44	0	0	67	2	39	235211	2	14	72	233172	-1	234690	1	1518	2	2	2039	53	235225	-54	0												7				55												
WM080112	125525_fnca	1	1	1	810688612	1	75.032	75.032	2.0.10.147	2.0.10.242	2.0.10.242	1.0.0.439	7	234	2	3	Verdana	1	80	0	0	0	WM Stimuli\	0.5	1051.4	0.6	1190.16666666667	0.7	891.285714285714	0.6	1099.5	0.9	1318.44444444444	0.9	1011.44444444444	0.9	924.666666666667	0.7	1004.57142857143	12	358159	3	358148	27	39	358186	-999999	358162	0	13	TrialsPROC	PL_002_92014.png	1	2	56	SessionSelectionList														nonlure	3	Place	0-Back	49	80	45	0	0	68	1	39	237783	2	14	72	235744	-1	236612	1	868	3	3	2039	53	237797	-54	0												8				56												
WM080112	125525_fnca	1	1	1	810688612	1	75.032	75.032	2.0.10.147	2.0.10.242	2.0.10.242	1.0.0.439	7	234	2	3	Verdana	1	80	0	0	0	WM Stimuli\	0.5	1051.4	0.6	1190.16666666667	0.7	891.285714285714	0.6	1099.5	0.9	1318.44444444444	0.9	1011.44444444444	0.9	924.666666666667	0.7	1004.57142857143	12	358159	3	358148	27	39	358186	-999999	358162	0	13	TrialsPROC	PL_004_92023.png	1	2	57	SessionSelectionList														lure	3	Place	0-Back	50	80	46	0	0	69	2	40	240356	1	13	72	238316	-1	239174	1	858	3	3	2040	53	240369	-54	0												9				57												
WM080112	125525_fnca	1	1	1	810688612	1	75.032	75.032	2.0.10.147	2.0.10.242	2.0.10.242	1.0.0.439	7	234	2	3	Verdana	1	80	0	0	0	WM Stimuli\	0.5	1051.4	0.6	1190.16666666667	0.7	891.285714285714	0.6	1099.5	0.9	1318.44444444444	0.9	1011.44444444444	0.9	924.666666666667	0.7	1004.57142857143	12	358159	3	358148	27	39	358186	-999999	358162	0	13	TrialsPROC	PL_006_92025.png	1	2	58	SessionSelectionList														lure	3	Place	0-Back	51	80	47	0	0	70	3	39	242928	1	14	73	240889	-1	241833	1	944	3	3	2039	53	242942	-54	0												10				58												
WM080112	125525_fnca	1	1	1	810688612	1	75.032	75.032	2.0.10.147	2.0.10.242	2.0.10.242	1.0.0.439	7	234	2	3	Verdana	1	80	0	0	0	WM Stimuli\	0.5	1051.4	0.6	1190.16666666667	0.7	891.285714285714	0.6	1099.5	0.9	1318.44444444444	0.9	1011.44444444444	0.9	924.666666666667	0.7	1004.57142857143	12	358159	3	358148	27	39	358186	-999999	358162	0	14	Cue2BackPROC	""	1	2	59	SessionSelectionList									5	243394	-6	0																																													59												
WM080112	125525_fnca	1	1	1	810688612	1	75.032	75.032	2.0.10.147	2.0.10.242	2.0.10.242	1.0.0.439	7	234	2	3	Verdana	1	80	0	0	0	WM Stimuli\	0.5	1051.4	0.6	1190.16666666667	0.7	891.285714285714	0.6	1099.5	0.9	1318.44444444444	0.9	1011.44444444444	0.9	924.666666666667	0.7	1004.57142857143	12	358159	3	358148	27	39	358186	-999999	358162	0	15	TrialsPROC	FC_010_F5.png	1	2	60	SessionSelectionList														nonlure	3	Face	2-Back	52	80	48	0	0	70	4	39	247992	2	14	64	245953	-1	246982	1	1029	3	3	2039	53	248006	-54	0													1			60												
WM080112	125525_fnca	1	1	1	810688612	1	75.032	75.032	2.0.10.147	2.0.10.242	2.0.10.242	1.0.0.439	7	234	2	3	Verdana	1	80	0	0	0	WM Stimuli\	0.5	1051.4	0.6	1190.16666666667	0.7	891.285714285714	0.6	1099.5	0.9	1318.44444444444	0.9	1011.44444444444	0.9	924.666666666667	0.7	1004.57142857143	12	358159	3	358148	27	39	358186	-999999	358162	0	15	TrialsPROC	FC_012_F6.png	1	2	61	SessionSelectionList														nonlure	3	Face	2-Back	53	80	49	0	0	70	5	40	250565	1	13	72	248525	-1	249321	1	796	3	3	2040	53	250578	-54	0													2			61												
WM080112	125525_fnca	1	1	1	810688612	1	75.032	75.032	2.0.10.147	2.0.10.242	2.0.10.242	1.0.0.439	7	234	2	3	Verdana	1	80	0	0	0	WM Stimuli\	0.5	1051.4	0.6	1190.16666666667	0.7	891.285714285714	0.6	1099.5	0.9	1318.44444444444	0.9	1011.44444444444	0.9	924.666666666667	0.7	1004.57142857143	12	358159	3	358148	27	39	358186	-999999	358162	0	15	TrialsPROC	FC_010_F5.png	1	2	62	SessionSelectionList														target	2	Face	2-Back	54	80	50	0	0	70	1	39	253137	2	14	73	251098	-1	251766	1	668	2	2	2039	53	253151	-54	0													3			62												
WM080112	125525_fnca	1	1	1	810688612	1	75.032	75.032	2.0.10.147	2.0.10.242	2.0.10.242	1.0.0.439	7	234	2	3	Verdana	1	80	0	0	0	WM Stimuli\	0.5	1051.4	0.6	1190.16666666667	0.7	891.285714285714	0.6	1099.5	0.9	1318.44444444444	0.9	1011.44444444444	0.9	924.666666666667	0.7	1004.57142857143	12	358159	3	358148	27	39	358186	-999999	358162	0	15	TrialsPROC	FC_008_F4.png	1	2	63	SessionSelectionList														nonlure	3	Face	2-Back	55	80	51	0	0	70	1	39	255709	2	14	72	253670	-1	254310	1	640	3	3	2039	53	255723	-54	0													4			63												
WM080112	125525_fnca	1	1	1	810688612	1	75.032	75.032	2.0.10.147	2.0.10.242	2.0.10.242	1.0.0.439	7	234	2	3	Verdana	1	80	0	0	0	WM Stimuli\	0.5	1051.4	0.6	1190.16666666667	0.7	891.285714285714	0.6	1099.5	0.9	1318.44444444444	0.9	1011.44444444444	0.9	924.666666666667	0.7	1004.57142857143	12	358159	3	358148	27	39	358186	-999999	358162	0	15	TrialsPROC	FC_012_F6.png	1	2	64	SessionSelectionList														lure	3	Face	2-Back	56	80	52	0	0	70	1	39	258281	2	14	72	256242	-1	257288	0	1046	2	3	2039	53	258295	-54	0													5			64												
WM080112	125525_fnca	1	1	1	810688612	1	75.032	75.032	2.0.10.147	2.0.10.242	2.0.10.242	1.0.0.439	7	234	2	3	Verdana	1	80	0	0	0	WM Stimuli\	0.5	1051.4	0.6	1190.16666666667	0.7	891.285714285714	0.6	1099.5	0.9	1318.44444444444	0.9	1011.44444444444	0.9	924.666666666667	0.7	1004.57142857143	12	358159	3	358148	27	39	358186	-999999	358162	0	15	TrialsPROC	FC_008_F4.png	1	2	65	SessionSelectionList														target	2	Face	2-Back	57	80	53	0	0	70	1	40	260854	1	13	72	258814	-1	259955	0	1141	3	2	2040	53	260867	-54	0													6			65												
WM080112	125525_fnca	1	1	1	810688612	1	75.032	75.032	2.0.10.147	2.0.10.242	2.0.10.242	1.0.0.439	7	234	2	3	Verdana	1	80	0	0	0	WM Stimuli\	0.5	1051.4	0.6	1190.16666666667	0.7	891.285714285714	0.6	1099.5	0.9	1318.44444444444	0.9	1011.44444444444	0.9	924.666666666667	0.7	1004.57142857143	12	358159	3	358148	27	39	358186	-999999	358162	0	15	TrialsPROC	FC_007_M4.png	1	2	66	SessionSelectionList														nonlure	3	Face	2-Back	58	80	54	0	0	70	2	39	263439	2	14	86	261400	-1	262487	1	1087	3	3	2039	53	263453	-54	0													7			66												
WM080112	125525_fnca	1	1	1	810688612	1	75.032	75.032	2.0.10.147	2.0.10.242	2.0.10.242	1.0.0.439	7	234	2	3	Verdana	1	80	0	0	0	WM Stimuli\	0.5	1051.4	0.6	1190.16666666667	0.7	891.285714285714	0.6	1099.5	0.9	1318.44444444444	0.9	1011.44444444444	0.9	924.666666666667	0.7	1004.57142857143	12	358159	3	358148	27	39	358186	-999999	358162	0	15	TrialsPROC	FC_007_M4.png	1	2	67	SessionSelectionList														lure	3	Face	2-Back	59	80	55	0	0	70	3	39	266011	2	14	72	263972	-1	264908	1	936	3	3	2039	53	266025	-54	0													8			67												
WM080112	125525_fnca	1	1	1	810688612	1	75.032	75.032	2.0.10.147	2.0.10.242	2.0.10.242	1.0.0.439	7	234	2	3	Verdana	1	80	0	0	0	WM Stimuli\	0.5	1051.4	0.6	1190.16666666667	0.7	891.285714285714	0.6	1099.5	0.9	1318.44444444444	0.9	1011.44444444444	0.9	924.666666666667	0.7	1004.57142857143	12	358159	3	358148	27	39	358186	-999999	358162	0	15	TrialsPROC	FC_009_M5.png	1	2	68	SessionSelectionList														nonlure	3	Face	2-Back	60	80	56	0	0	70	4	39	268597	1	14	86	266558	-1	267641	1	1083	3	3	2039	53	268611	-54	0													9			68												
WM080112	125525_fnca	1	1	1	810688612	1	75.032	75.032	2.0.10.147	2.0.10.242	2.0.10.242	1.0.0.439	7	234	2	3	Verdana	1	80	0	0	0	WM Stimuli\	0.5	1051.4	0.6	1190.16666666667	0.7	891.285714285714	0.6	1099.5	0.9	1318.44444444444	0.9	1011.44444444444	0.9	924.666666666667	0.7	1004.57142857143	12	358159	3	358148	27	39	358186	-999999	358162	0	15	TrialsPROC	FC_011_M6.png	1	2	69	SessionSelectionList														nonlure	3	Face	2-Back	61	80	57	0	0	70	1	40	271183	1	13	85	269143	-1	269971	0	828	2	3	2040	53	271196	-54	0													10			69												
WM080112	125525_fnca	1	1	1	810688612	1	75.032	75.032	2.0.10.147	2.0.10.242	2.0.10.242	1.0.0.439	7	234	2	3	Verdana	1	80	0	0	0	WM Stimuli\	0.5	1051.4	0.6	1190.16666666667	0.7	891.285714285714	0.6	1099.5	0.9	1318.44444444444	0.9	1011.44444444444	0.9	924.666666666667	0.7	1004.57142857143	12	358159	3	358148	27	39	358186	-999999	358162	0	16	Fix15secPROC	""	1	2	70	SessionSelectionList																																															7	271650	-8	0							70												
WM080112	125525_fnca	1	1	1	810688612	1	75.032	75.032	2.0.10.147	2.0.10.242	2.0.10.242	1.0.0.439	7	234	2	3	Verdana	1	80	0	0	0	WM Stimuli\	0.5	1051.4	0.6	1190.16666666667	0.7	891.285714285714	0.6	1099.5	0.9	1318.44444444444	0.9	1011.44444444444	0.9	924.666666666667	0.7	1004.57142857143	12	358159	3	358148	27	39	358186	-999999	358162	0	17	Cue0BackPROC	TO_007_TOOL7_BA.png	1	2	71	SessionSelectionList																																										40	286683	-41	0												71												
WM080112	125525_fnca	1	1	1	810688612	1	75.032	75.032	2.0.10.147	2.0.10.242	2.0.10.242	1.0.0.439	7	234	2	3	Verdana	1	80	0	0	0	WM Stimuli\	0.5	1051.4	0.6	1190.16666666667	0.7	891.285714285714	0.6	1099.5	0.9	1318.44444444444	0.9	1011.44444444444	0.9	924.666666666667	0.7	1004.57142857143	12	358159	3	358148	27	39	358186	-999999	358162	0	18	TrialsPROC	TO_010_TOOL10_BA.png	1	2	72	SessionSelectionList														nonlure	3	Tools	0-Back	62	80	58	0	0	71	1	39	291267	2	14	85	289228	-1	289943	1	715	3	3	2039	53	291281	-54	0														1		72												
WM080112	125525_fnca	1	1	1	810688612	1	75.032	75.032	2.0.10.147	2.0.10.242	2.0.10.242	1.0.0.439	7	234	2	3	Verdana	1	80	0	0	0	WM Stimuli\	0.5	1051.4	0.6	1190.16666666667	0.7	891.285714285714	0.6	1099.5	0.9	1318.44444444444	0.9	1011.44444444444	0.9	924.666666666667	0.7	1004.57142857143	12	358159	3	358148	27	39	358186	-999999	358162	0	18	TrialsPROC	TO_009_TOOL9_BA.png	1	2	73	SessionSelectionList														nonlure	3	Tools	0-Back	63	80	59	0	0	72	2	39	293853	1	14	86	291814	-1	292736	1	922	3	3	2039	53	293867	-54	0														2		73												
WM080112	125525_fnca	1	1	1	810688612	1	75.032	75.032	2.0.10.147	2.0.10.242	2.0.10.242	1.0.0.439	7	234	2	3	Verdana	1	80	0	0	0	WM Stimuli\	0.5	1051.4	0.6	1190.16666666667	0.7	891.285714285714	0.6	1099.5	0.9	1318.44444444444	0.9	1011.44444444444	0.9	924.666666666667	0.7	1004.57142857143	12	358159	3	358148	27	39	358186	-999999	358162	0	18	TrialsPROC	TO_009_TOOL9_BA.png	1	2	74	SessionSelectionList														lure	3	Tools	0-Back	64	80	60	0	0	73	3	39	296412	1	14	59	294373	-1	295319	1	946	3	3	2039	53	296426	-54	0														3		74												
WM080112	125525_fnca	1	1	1	810688612	1	75.032	75.032	2.0.10.147	2.0.10.242	2.0.10.242	1.0.0.439	7	234	2	3	Verdana	1	80	0	0	0	WM Stimuli\	0.5	1051.4	0.6	1190.16666666667	0.7	891.285714285714	0.6	1099.5	0.9	1318.44444444444	0.9	1011.44444444444	0.9	924.666666666667	0.7	1004.57142857143	12	358159	3	358148	27	39	358186	-999999	358162	0	18	TrialsPROC	TO_008_TOOL8_BA.png	1	2	75	SessionSelectionList														nonlure	3	Tools	0-Back	65	80	61	0	0	74	4	39	298997	2	14	85	296958	-1	298151	1	1193	3	3	2039	53	299011	-54	0														4		75												
WM080112	125525_fnca	1	1	1	810688612	1	75.032	75.032	2.0.10.147	2.0.10.242	2.0.10.242	1.0.0.439	7	234	2	3	Verdana	1	80	0	0	0	WM Stimuli\	0.5	1051.4	0.6	1190.16666666667	0.7	891.285714285714	0.6	1099.5	0.9	1318.44444444444	0.9	1011.44444444444	0.9	924.666666666667	0.7	1004.57142857143	12	358159	3	358148	27	39	358186	-999999	358162	0	18	TrialsPROC	TO_011_TOOL11_BA.png	1	2	76	SessionSelectionList														nonlure	3	Tools	0-Back	66	80	62	0	0	74	5	39	301583	1	14	86	299544	-1	300266	1	722	3	3	2039	53	301597	-54	0														5		76												
WM080112	125525_fnca	1	1	1	810688612	1	75.032	75.032	2.0.10.147	2.0.10.242	2.0.10.242	1.0.0.439	7	234	2	3	Verdana	1	80	0	0	0	WM Stimuli\	0.5	1051.4	0.6	1190.16666666667	0.7	891.285714285714	0.6	1099.5	0.9	1318.44444444444	0.9	1011.44444444444	0.9	924.666666666667	0.7	1004.57142857143	12	358159	3	358148	27	39	358186	-999999	358162	0	18	TrialsPROC	TO_012_TOOL12_BA.png	1	2	77	SessionSelectionList														nonlure	3	Tools	0-Back	67	80	63	0	0	75	6	39	304155	2	14	72	302116	-1	302904	1	788	3	3	2039	53	304169	-54	0														6		77												
WM080112	125525_fnca	1	1	1	810688612	1	75.032	75.032	2.0.10.147	2.0.10.242	2.0.10.242	1.0.0.439	7	234	2	3	Verdana	1	80	0	0	0	WM Stimuli\	0.5	1051.4	0.6	1190.16666666667	0.7	891.285714285714	0.6	1099.5	0.9	1318.44444444444	0.9	1011.44444444444	0.9	924.666666666667	0.7	1004.57142857143	12	358159	3	358148	27	39	358186	-999999	358162	0	18	TrialsPROC	TO_010_TOOL10_BA.png	1	2	78	SessionSelectionList														lure	3	Tools	0-Back	68	80	64	0	0	76	7	39	306714	2	14	59	304675	-1	306421	1	1746	3	3	2039	53	306728	-54	0														7		78												
WM080112	125525_fnca	1	1	1	810688612	1	75.032	75.032	2.0.10.147	2.0.10.242	2.0.10.242	1.0.0.439	7	234	2	3	Verdana	1	80	0	0	0	WM Stimuli\	0.5	1051.4	0.6	1190.16666666667	0.7	891.285714285714	0.6	1099.5	0.9	1318.44444444444	0.9	1011.44444444444	0.9	924.666666666667	0.7	1004.57142857143	12	358159	3	358148	27	39	358186	-999999	358162	0	18	TrialsPROC	TO_007_TOOL7_BA.png	1	2	79	SessionSelectionList														target	2	Tools	0-Back	69	80	65	0	0	74	8	39	309273	2	14	59	307234	-1	308923	0	1689	3	2	2039	53	309287	-54	0														8		79												
WM080112	125525_fnca	1	1	1	810688612	1	75.032	75.032	2.0.10.147	2.0.10.242	2.0.10.242	1.0.0.439	7	234	2	3	Verdana	1	80	0	0	0	WM Stimuli\	0.5	1051.4	0.6	1190.16666666667	0.7	891.285714285714	0.6	1099.5	0.9	1318.44444444444	0.9	1011.44444444444	0.9	924.666666666667	0.7	1004.57142857143	12	358159	3	358148	27	39	358186	-999999	358162	0	18	TrialsPROC	TO_008_TOOL8_BA.png	1	2	80	SessionSelectionList														lure	3	Tools	0-Back	70	80	66	0	0	72	1	39	311832	1	14	59	309793	-1	311222	0	1429	2	3	2039	53	311846	-54	0														9		80												
WM080112	125525_fnca	1	1	1	810688612	1	75.032	75.032	2.0.10.147	2.0.10.242	2.0.10.242	1.0.0.439	7	234	2	3	Verdana	1	80	0	0	0	WM Stimuli\	0.5	1051.4	0.6	1190.16666666667	0.7	891.285714285714	0.6	1099.5	0.9	1318.44444444444	0.9	1011.44444444444	0.9	924.666666666667	0.7	1004.57142857143	12	358159	3	358148	27	39	358186	-999999	358162	0	18	TrialsPROC	TO_007_TOOL7_BA.png	1	2	81	SessionSelectionList														target	2	Tools	0-Back	71	80	67	0	0	70	1	39	314391	1	14	59	312352	-1	313737	0	1385	3	2	2039	53	314405	-54	0														10		81												
WM080112	125525_fnca	1	1	1	810688612	1	75.032	75.032	2.0.10.147	2.0.10.242	2.0.10.242	1.0.0.439	7	234	2	3	Verdana	1	80	0	0	0	WM Stimuli\	0.5	1051.4	0.6	1190.16666666667	0.7	891.285714285714	0.6	1099.5	0.9	1318.44444444444	0.9	1011.44444444444	0.9	924.666666666667	0.7	1004.57142857143	12	358159	3	358148	27	39	358186	-999999	358162	0	19	Cue2BackPROC	""	1	2	82	SessionSelectionList									5	314857	-6	0																																													82												
WM080112	125525_fnca	1	1	1	810688612	1	75.032	75.032	2.0.10.147	2.0.10.242	2.0.10.242	1.0.0.439	7	234	2	3	Verdana	1	80	0	0	0	WM Stimuli\	0.5	1051.4	0.6	1190.16666666667	0.7	891.285714285714	0.6	1099.5	0.9	1318.44444444444	0.9	1011.44444444444	0.9	924.666666666667	0.7	1004.57142857143	12	358159	3	358148	27	39	358186	-999999	358162	0	20	TrialsPROC	PL_007_92026.png	1	2	83	SessionSelectionList														nonlure	3	Place	2-Back	72	80	68	0	0	70	2	39	319469	1	14	78	317430	-1	318592	1	1162	3	3	2039	53	319483	-54	0															1	83												
WM080112	125525_fnca	1	1	1	810688612	1	75.032	75.032	2.0.10.147	2.0.10.242	2.0.10.242	1.0.0.439	7	234	2	3	Verdana	1	80	0	0	0	WM Stimuli\	0.5	1051.4	0.6	1190.16666666667	0.7	891.285714285714	0.6	1099.5	0.9	1318.44444444444	0.9	1011.44444444444	0.9	924.666666666667	0.7	1004.57142857143	12	358159	3	358148	27	39	358186	-999999	358162	0	20	TrialsPROC	PL_007_92026.png	1	2	84	SessionSelectionList														lure	3	Place	2-Back	73	80	69	0	0	70	3	39	322041	1	14	72	320002	-1	321366	1	1364	3	3	2039	53	322055	-54	0															2	84												
WM080112	125525_fnca	1	1	1	810688612	1	75.032	75.032	2.0.10.147	2.0.10.242	2.0.10.242	1.0.0.439	7	234	2	3	Verdana	1	80	0	0	0	WM Stimuli\	0.5	1051.4	0.6	1190.16666666667	0.7	891.285714285714	0.6	1099.5	0.9	1318.44444444444	0.9	1011.44444444444	0.9	924.666666666667	0.7	1004.57142857143	12	358159	3	358148	27	39	358186	-999999	358162	0	20	TrialsPROC	PL_010_92038.png	1	2	85	SessionSelectionList														nonlure	3	Place	2-Back	74	80	70	0	0	70	4	39	324627	1	14	86	322588	-1	323861	1	1273	3	3	2039	53	324641	-54	0															3	85												
WM080112	125525_fnca	1	1	1	810688612	1	75.032	75.032	2.0.10.147	2.0.10.242	2.0.10.242	1.0.0.439	7	234	2	3	Verdana	1	80	0	0	0	WM Stimuli\	0.5	1051.4	0.6	1190.16666666667	0.7	891.285714285714	0.6	1099.5	0.9	1318.44444444444	0.9	1011.44444444444	0.9	924.666666666667	0.7	1004.57142857143	12	358159	3	358148	27	39	358186	-999999	358162	0	20	TrialsPROC	PL_009_92037.png	1	2	86	SessionSelectionList														nonlure	3	Place	2-Back	75	80	71	0	0	70	5	39	327212	2	14	85	325173	-1	327144	1	1971	3	3	2039	53	327226	-54	0															4	86												
WM080112	125525_fnca	1	1	1	810688612	1	75.032	75.032	2.0.10.147	2.0.10.242	2.0.10.242	1.0.0.439	7	234	2	3	Verdana	1	80	0	0	0	WM Stimuli\	0.5	1051.4	0.6	1190.16666666667	0.7	891.285714285714	0.6	1099.5	0.9	1318.44444444444	0.9	1011.44444444444	0.9	924.666666666667	0.7	1004.57142857143	12	358159	3	358148	27	39	358186	-999999	358162	0	20	TrialsPROC	PL_010_92038.png	1	2	87	SessionSelectionList														target	2	Place	2-Back	76	80	72	0	0	70	1	40	329785	1	13	72	327745	-1	328895	1	1150	2	2	2040	53	329798	-54	0															5	87												
WM080112	125525_fnca	1	1	1	810688612	1	75.032	75.032	2.0.10.147	2.0.10.242	2.0.10.242	1.0.0.439	7	234	2	3	Verdana	1	80	0	0	0	WM Stimuli\	0.5	1051.4	0.6	1190.16666666667	0.7	891.285714285714	0.6	1099.5	0.9	1318.44444444444	0.9	1011.44444444444	0.9	924.666666666667	0.7	1004.57142857143	12	358159	3	358148	27	39	358186	-999999	358162	0	20	TrialsPROC	PL_009_92037.png	1	2	88	SessionSelectionList														target	2	Place	2-Back	77	80	73	0	0	70	1	38	332343	2	14	60	330305	-1	331454	0	1149	3	2	2038	52	332357	-53	0															6	88												
WM080112	125525_fnca	1	1	1	810688612	1	75.032	75.032	2.0.10.147	2.0.10.242	2.0.10.242	1.0.0.439	7	234	2	3	Verdana	1	80	0	0	0	WM Stimuli\	0.5	1051.4	0.6	1190.16666666667	0.7	891.285714285714	0.6	1099.5	0.9	1318.44444444444	0.9	1011.44444444444	0.9	924.666666666667	0.7	1004.57142857143	12	358159	3	358148	27	39	358186	-999999	358162	0	20	TrialsPROC	PL_008_92033.png	1	2	89	SessionSelectionList														nonlure	3	Place	2-Back	78	80	74	0	0	70	2	39	334929	1	14	85	332890	-1	333976	1	1086	3	3	2039	53	334943	-54	0															7	89												
WM080112	125525_fnca	1	1	1	810688612	1	75.032	75.032	2.0.10.147	2.0.10.242	2.0.10.242	1.0.0.439	7	234	2	3	Verdana	1	80	0	0	0	WM Stimuli\	0.5	1051.4	0.6	1190.16666666667	0.7	891.285714285714	0.6	1099.5	0.9	1318.44444444444	0.9	1011.44444444444	0.9	924.666666666667	0.7	1004.57142857143	12	358159	3	358148	27	39	358186	-999999	358162	0	20	TrialsPROC	PL_012_92047.png	1	2	90	SessionSelectionList														nonlure	3	Place	2-Back	79	80	75	0	0	70	3	40	337515	1	13	85	335475	-1	336580	1	1105	3	3	2040	53	337528	-54	0															8	90												
WM080112	125525_fnca	1	1	1	810688612	1	75.032	75.032	2.0.10.147	2.0.10.242	2.0.10.242	1.0.0.439	7	234	2	3	Verdana	1	80	0	0	0	WM Stimuli\	0.5	1051.4	0.6	1190.16666666667	0.7	891.285714285714	0.6	1099.5	0.9	1318.44444444444	0.9	1011.44444444444	0.9	924.666666666667	0.7	1004.57142857143	12	358159	3	358148	27	39	358186	-999999	358162	0	20	TrialsPROC	PL_012_92047.png	1	2	91	SessionSelectionList														lure	3	Place	2-Back	80	80	76	0	0	70	4	39	340087	1	14	73	338048	-1	339373	1	1325	3	3	2039	53	340101	-54	0															9	91												
WM080112	125525_fnca	1	1	1	810688612	1	75.032	75.032	2.0.10.147	2.0.10.242	2.0.10.242	1.0.0.439	7	234	2	3	Verdana	1	80	0	0	0	WM Stimuli\	0.5	1051.4	0.6	1190.16666666667	0.7	891.285714285714	0.6	1099.5	0.9	1318.44444444444	0.9	1011.44444444444	0.9	924.666666666667	0.7	1004.57142857143	12	358159	3	358148	27	39	358186	-999999	358162	0	20	TrialsPROC	PL_011_92044.png	1	2	92	SessionSelectionList														nonlure	3	Place	2-Back	80	80	77	0	0	70	5	39	342686	1	14	99	340647	-1	342077	1	1430	3	3	2039	53	342700	-54	0															10	92												
WM080112	125525_fnca	1	1	1	810688612	1	75.032	75.032	2.0.10.147	2.0.10.242	2.0.10.242	1.0.0.439	7	234	2	3	Verdana	1	80	0	0	0	WM Stimuli\	0.5	1051.4	0.6	1190.16666666667	0.7	891.285714285714	0.6	1099.5	0.9	1318.44444444444	0.9	1011.44444444444	0.9	924.666666666667	0.7	1004.57142857143	12	358159	3	358148	27	39	358186	-999999	358162	0	21	Fix15secPROC	""	1	2	93	SessionSelectionList																																															6	343153	-7	0							93												
