ExperimentName	HCPID	RunNumber	Subject	Session	RandomSeed	Group	Laptop.RefreshRate	ScannerD2.RefreshRate	StudioVersion	RuntimeVersion	RuntimeVersionExpected	ExperimentVersion	triggercode	Allowed	Target	Nontarget	FontStyle	RunTrialNumber[Session]	TrialsPerRun[Session]	TotalRespGreater200[Session]	ConsecRTLess200[Session]	ConsecNonResp[Session]	StimuliDir	ACC_2_Back_Body	Avg_RT_For_Correct_Trials_2_Back_Body	ACC_0_Back_Body	Avg_RT_For_Correct_Trials_0_Back_Body	ACC_2_Back_Face	Avg_RT_For_Correct_Trials_2_Back_Face	ACC_0_Back_Face	Avg_RT_For_Correct_Trials_0_Back_Face	ACC_2_Back_Place	Avg_RT_For_Correct_Trials_2_Back_Place	ACC_0_Back_Place	Avg_RT_For_Correct_Trials_0_Back_Place	ACC_2_Back_Tools	Avg_RT_For_Correct_Trials_2_Back_Tools	ACC_0_Back_Tools	Avg_RT_For_Correct_Trials_0_Back_Tools	ExpInstrucFeelFreeToRest.OnsetDelay	ExpInstrucFeelFreeToRest.OnsetTime	ExpInstrucFeelFreeToRest.DurationError	ExpInstrucFeelFreeToRest.StartTime	ExpInstrucFeelFreeToRest.OnsetToOnsetTime	FeelFreeToRest.OnsetDelay	FeelFreeToRest.OnsetTime	FeelFreeToRest.DurationError	FeelFreeToRest.StartTime	FeelFreeToRest.OnsetToOnsetTime	SessionSelectionList	Procedure[Block]	Stimulus[Block]	RunNumberFilterValue	SessionSelectionList.Cycle	SessionSelectionList.Sample	Running[Block]	IntroButtonMap.OnsetDelay	IntroButtonMap.OnsetTime	IntroButtonMap.DurationError	IntroButtonMap.OnsetToOnsetTime	GetReady.OnsetDelay	GetReady.OnsetTime	GetReady.DurationError	GetReady.OnsetToOnsetTime	Cue2Back.OnsetDelay	Cue2Back.OnsetTime	Cue2Back.DurationError	Cue2Back.OnsetToOnsetTime	Run1Block1	TargetType	CorrectResponse	StimType	BlockType	RunTrialNumber[Block]	TrialsPerRun[Block]	TotalRespGreater200[Block]	ConsecRTLess200[Block]	ConsecNonResp[Block]	ControlAcc	ConsecSameResp	ExperimenterWindow.OnsetDelay	ExperimenterWindow.OnsetTime	ExperimenterWindow.DurationError	ExperimenterWindow.OnsetToOnsetTime	Stim.OnsetDelay	Stim.OnsetTime	Stim.DurationError	Stim.RTTime	Stim.ACC	Stim.RT	Stim.RESP	Stim.CRESP	Stim.OnsetToOnsetTime	Fix.OnsetDelay	Fix.OnsetTime	Fix.DurationError	Fix.OnsetToOnsetTime	CueTarget.OnsetDelay	CueTarget.OnsetTime	CueTarget.DurationError	CueTarget.OnsetToOnsetTime	Run1Block2	Fix15sec.OnsetDelay	Fix15sec.OnsetTime	Fix15sec.DurationError	Fix15sec.OnsetToOnsetTime	Run1Block3	Run1Block4	Run1Block5	Run1Block6	Run1Block7	Run1Block8	Block	Procedure[Trial]	Stimulus[Trial]	ReadyList	Running[Trial]	ReadyList.Cycle	ReadyList.Sample	SyncSlide.OnsetDelay	SyncSlide.OnsetTime	SyncSlide.DurationError	SyncSlide.FinishTime	SyncSlide.OnsetToOnsetTime	Trial
WM080112	128632_fnca	1	1	1	1390792027	1	75.031	75.031	2.0.10.147	2.0.10.242	2.0.10.242	1.0.0.439	7	234	2	3	Verdana	1	80	0	0	0	WM Stimuli\	0.6	1378.33333333333	0.9	1082.77777777778	0.7	1023.71428571429	1	966.3	0.7	1490.28571428571	0.9	946.444444444444	0.8	1161.875	1	764.8	13	367367	2	367355	26	39	367393	-999999	367370	0	1	TRSyncPROC	""	1	2	1	SessionSelectionList	104	16683	-999999	0	32	59745	-999999	0																																																	1	InitialTR	4	1	ReadyList	1	1	11	73913	-12	75901	0	1
WM080112	128632_fnca	1	1	1	1390792027	1	75.031	75.031	2.0.10.147	2.0.10.242	2.0.10.242	1.0.0.439	7	234	2	3	Verdana	1	80	0	0	0	WM Stimuli\	0.6	1378.33333333333	0.9	1082.77777777778	0.7	1023.71428571429	1	966.3	0.7	1490.28571428571	0.9	946.444444444444	0.8	1161.875	1	764.8	13	367367	2	367355	26	39	367393	-999999	367370	0	1	TRSyncPROC	""	1	2	1	SessionSelectionList	104	16683	-999999	0	32	59745	-999999	0																																																	1	InitialTR	3	2	ReadyList	1	2	10	75912	-11	77901	0	2
WM080112	128632_fnca	1	1	1	1390792027	1	75.031	75.031	2.0.10.147	2.0.10.242	2.0.10.242	1.0.0.439	7	234	2	3	Verdana	1	80	0	0	0	WM Stimuli\	0.6	1378.33333333333	0.9	1082.77777777778	0.7	1023.71428571429	1	966.3	0.7	1490.28571428571	0.9	946.444444444444	0.8	1161.875	1	764.8	13	367367	2	367355	26	39	367393	-999999	367370	0	1	TRSyncPROC	""	1	2	1	SessionSelectionList	104	16683	-999999	0	32	59745	-999999	0																																																	1	InitialTR	2	3	ReadyList	1	3	9	77911	-10	79901	0	3
WM080112	128632_fnca	1	1	1	1390792027	1	75.031	75.031	2.0.10.147	2.0.10.242	2.0.10.242	1.0.0.439	7	234	2	3	Verdana	1	80	0	0	0	WM Stimuli\	0.6	1378.33333333333	0.9	1082.77777777778	0.7	1023.71428571429	1	966.3	0.7	1490.28571428571	0.9	946.444444444444	0.8	1161.875	1	764.8	13	367367	2	367355	26	39	367393	-999999	367370	0	1	TRSyncPROC	""	1	2	1	SessionSelectionList	104	16683	-999999	0	32	59745	-999999	0																																																	1	InitialTR	1	4	ReadyList	1	4	8	79910	-9	81901	0	4
WM080112	128632_fnca	1	1	1	1390792027	1	75.031	75.031	2.0.10.147	2.0.10.242	2.0.10.242	1.0.0.439	7	234	2	3	Verdana	1	80	0	0	0	WM Stimuli\	0.6	1378.33333333333	0.9	1082.77777777778	0.7	1023.71428571429	1	966.3	0.7	1490.28571428571	0.9	946.444444444444	0.8	1161.875	1	764.8	13	367367	2	367355	26	39	367393	-999999	367370	0	2	Cue2BackPROC	""	1	2	2	SessionSelectionList									7	81909	-8	0																																													2												
WM080112	128632_fnca	1	1	1	1390792027	1	75.031	75.031	2.0.10.147	2.0.10.242	2.0.10.242	1.0.0.439	7	234	2	3	Verdana	1	80	0	0	0	WM Stimuli\	0.6	1378.33333333333	0.9	1082.77777777778	0.7	1023.71428571429	1	966.3	0.7	1490.28571428571	0.9	946.444444444444	0.8	1161.875	1	764.8	13	367367	2	367355	26	39	367393	-999999	367370	0	3	TrialsPROC	BP_002_BP10_BA.png	1	2	3	SessionSelectionList													1	nonlure	3	Body	2-Back	2	80	1	0	0	0	1	52	86534	3	14	80	84482	-1	86085	1	1603	3	3	2052	66	86548	-67	0																3												
WM080112	128632_fnca	1	1	1	1390792027	1	75.031	75.031	2.0.10.147	2.0.10.242	2.0.10.242	1.0.0.439	7	234	2	3	Verdana	1	80	0	0	0	WM Stimuli\	0.6	1378.33333333333	0.9	1082.77777777778	0.7	1023.71428571429	1	966.3	0.7	1490.28571428571	0.9	946.444444444444	0.8	1161.875	1	764.8	13	367367	2	367355	26	39	367393	-999999	367370	0	3	TrialsPROC	BP_001_BP1_BA.png	1	2	4	SessionSelectionList													2	nonlure	3	Body	2-Back	3	80	2	0	0	0	2	39	89093	3	14	72	87054	-1	87584	1	530	3	3	2039	53	89107	-54	0																4												
WM080112	128632_fnca	1	1	1	1390792027	1	75.031	75.031	2.0.10.147	2.0.10.242	2.0.10.242	1.0.0.439	7	234	2	3	Verdana	1	80	0	0	0	WM Stimuli\	0.6	1378.33333333333	0.9	1082.77777777778	0.7	1023.71428571429	1	966.3	0.7	1490.28571428571	0.9	946.444444444444	0.8	1161.875	1	764.8	13	367367	2	367355	26	39	367393	-999999	367370	0	3	TrialsPROC	BP_006_BP2_BA.png	1	2	5	SessionSelectionList													3	nonlure	3	Body	2-Back	4	80	3	0	0	0	1	39	91652	2	14	59	89613	-1	91232	0	1619	2	3	2039	53	91666	-54	0																5												
WM080112	128632_fnca	1	1	1	1390792027	1	75.031	75.031	2.0.10.147	2.0.10.242	2.0.10.242	1.0.0.439	7	234	2	3	Verdana	1	80	0	0	0	WM Stimuli\	0.6	1378.33333333333	0.9	1082.77777777778	0.7	1023.71428571429	1	966.3	0.7	1490.28571428571	0.9	946.444444444444	0.8	1161.875	1	764.8	13	367367	2	367355	26	39	367393	-999999	367370	0	3	TrialsPROC	BP_001_BP1_BA.png	1	2	6	SessionSelectionList													4	target	2	Body	2-Back	5	80	4	0	0	0	1	39	94224	2	14	72	92185	-1	94109	0	1924	3	2	2039	53	94238	-54	0																6												
WM080112	128632_fnca	1	1	1	1390792027	1	75.031	75.031	2.0.10.147	2.0.10.242	2.0.10.242	1.0.0.439	7	234	2	3	Verdana	1	80	0	0	0	WM Stimuli\	0.6	1378.33333333333	0.9	1082.77777777778	0.7	1023.71428571429	1	966.3	0.7	1490.28571428571	0.9	946.444444444444	0.8	1161.875	1	764.8	13	367367	2	367355	26	39	367393	-999999	367370	0	3	TrialsPROC	BP_005_BP19_BA.png	1	2	7	SessionSelectionList													5	nonlure	3	Body	2-Back	6	80	5	0	0	0	2	39	96797	1	13	73	94758	-1	96042	1	1284	3	3	2039	52	96810	-53	0																7												
WM080112	128632_fnca	1	1	1	1390792027	1	75.031	75.031	2.0.10.147	2.0.10.242	2.0.10.242	1.0.0.439	7	234	2	3	Verdana	1	80	0	0	0	WM Stimuli\	0.6	1378.33333333333	0.9	1082.77777777778	0.7	1023.71428571429	1	966.3	0.7	1490.28571428571	0.9	946.444444444444	0.8	1161.875	1	764.8	13	367367	2	367355	26	39	367393	-999999	367370	0	3	TrialsPROC	BP_003_BP16_BA.png	1	2	8	SessionSelectionList													6	nonlure	3	Body	2-Back	7	80	6	0	0	0	3	39	99356	1	13	59	97317	-1	98383	1	1066	3	3	2039	52	99369	-53	0																8												
WM080112	128632_fnca	1	1	1	1390792027	1	75.031	75.031	2.0.10.147	2.0.10.242	2.0.10.242	1.0.0.439	7	234	2	3	Verdana	1	80	0	0	0	WM Stimuli\	0.6	1378.33333333333	0.9	1082.77777777778	0.7	1023.71428571429	1	966.3	0.7	1490.28571428571	0.9	946.444444444444	0.8	1161.875	1	764.8	13	367367	2	367355	26	39	367393	-999999	367370	0	3	TrialsPROC	BP_006_BP2_BA.png	1	2	9	SessionSelectionList													7	lure	3	Body	2-Back	8	80	6	0	1	0	3	40	101915	1	13	58	99875	-1	0	0	0	""	3	2040	53	101928	-54	0																9												
WM080112	128632_fnca	1	1	1	1390792027	1	75.031	75.031	2.0.10.147	2.0.10.242	2.0.10.242	1.0.0.439	7	234	2	3	Verdana	1	80	0	0	0	WM Stimuli\	0.6	1378.33333333333	0.9	1082.77777777778	0.7	1023.71428571429	1	966.3	0.7	1490.28571428571	0.9	946.444444444444	0.8	1161.875	1	764.8	13	367367	2	367355	26	39	367393	-999999	367370	0	3	TrialsPROC	BP_004_BP18_BA.png	1	2	10	SessionSelectionList													8	nonlure	3	Body	2-Back	9	80	7	0	0	0	1	40	104474	1	13	59	102434	-1	104345	1	1911	3	3	2040	53	104487	-54	0																10												
WM080112	128632_fnca	1	1	1	1390792027	1	75.031	75.031	2.0.10.147	2.0.10.242	2.0.10.242	1.0.0.439	7	234	2	3	Verdana	1	80	0	0	0	WM Stimuli\	0.6	1378.33333333333	0.9	1082.77777777778	0.7	1023.71428571429	1	966.3	0.7	1490.28571428571	0.9	946.444444444444	0.8	1161.875	1	764.8	13	367367	2	367355	26	39	367393	-999999	367370	0	3	TrialsPROC	BP_005_BP19_BA.png	1	2	11	SessionSelectionList													9	lure	3	Body	2-Back	10	80	7	0	1	0	1	39	107033	1	13	60	104994	-1	0	0	0	""	3	2039	52	107046	-53	0																11												
WM080112	128632_fnca	1	1	1	1390792027	1	75.031	75.031	2.0.10.147	2.0.10.242	2.0.10.242	1.0.0.439	7	234	2	3	Verdana	1	80	0	0	0	WM Stimuli\	0.6	1378.33333333333	0.9	1082.77777777778	0.7	1023.71428571429	1	966.3	0.7	1490.28571428571	0.9	946.444444444444	0.8	1161.875	1	764.8	13	367367	2	367355	26	39	367393	-999999	367370	0	3	TrialsPROC	BP_004_BP18_BA.png	1	2	12	SessionSelectionList													10	target	2	Body	2-Back	11	80	8	0	0	0	1	40	109592	1	13	58	107552	-1	109428	1	1876	2	2	2040	53	109605	-54	0																12												
WM080112	128632_fnca	1	1	1	1390792027	1	75.031	75.031	2.0.10.147	2.0.10.242	2.0.10.242	1.0.0.439	7	234	2	3	Verdana	1	80	0	0	0	WM Stimuli\	0.6	1378.33333333333	0.9	1082.77777777778	0.7	1023.71428571429	1	966.3	0.7	1490.28571428571	0.9	946.444444444444	0.8	1161.875	1	764.8	13	367367	2	367355	26	39	367393	-999999	367370	0	4	Cue0BackPROC	FC_001_M1.png	1	2	13	SessionSelectionList																																										19	110071	-20	0												13												
WM080112	128632_fnca	1	1	1	1390792027	1	75.031	75.031	2.0.10.147	2.0.10.242	2.0.10.242	1.0.0.439	7	234	2	3	Verdana	1	80	0	0	0	WM Stimuli\	0.6	1378.33333333333	0.9	1082.77777777778	0.7	1023.71428571429	1	966.3	0.7	1490.28571428571	0.9	946.444444444444	0.8	1161.875	1	764.8	13	367367	2	367355	26	39	367393	-999999	367370	0	5	TrialsPROC	FC_005_M3.png	1	2	14	SessionSelectionList														nonlure	3	Face	0-Back	12	80	9	0	0	100	1	39	114656	2	14	65	112617	-1	113617	1	1000	3	3	2039	53	114670	-54	0					1											14												
WM080112	128632_fnca	1	1	1	1390792027	1	75.031	75.031	2.0.10.147	2.0.10.242	2.0.10.242	1.0.0.439	7	234	2	3	Verdana	1	80	0	0	0	WM Stimuli\	0.6	1378.33333333333	0.9	1082.77777777778	0.7	1023.71428571429	1	966.3	0.7	1490.28571428571	0.9	946.444444444444	0.8	1161.875	1	764.8	13	367367	2	367355	26	39	367393	-999999	367370	0	5	TrialsPROC	FC_001_M1.png	1	2	15	SessionSelectionList														target	2	Face	0-Back	13	80	10	0	0	100	1	39	117228	2	14	72	115189	-1	116187	1	998	2	2	2039	53	117242	-54	0					2											15												
WM080112	128632_fnca	1	1	1	1390792027	1	75.031	75.031	2.0.10.147	2.0.10.242	2.0.10.242	1.0.0.439	7	234	2	3	Verdana	1	80	0	0	0	WM Stimuli\	0.6	1378.33333333333	0.9	1082.77777777778	0.7	1023.71428571429	1	966.3	0.7	1490.28571428571	0.9	946.444444444444	0.8	1161.875	1	764.8	13	367367	2	367355	26	39	367393	-999999	367370	0	5	TrialsPROC	FC_003_M2.png	1	2	16	SessionSelectionList														nonlure	3	Face	0-Back	14	80	11	0	0	100	1	39	119801	1	13	73	117762	-1	118830	1	1068	3	3	2039	52	119814	-53	0					3											16												
WM080112	128632_fnca	1	1	1	1390792027	1	75.031	75.031	2.0.10.147	2.0.10.242	2.0.10.242	1.0.0.439	7	234	2	3	Verdana	1	80	0	0	0	WM Stimuli\	0.6	1378.33333333333	0.9	1082.77777777778	0.7	1023.71428571429	1	966.3	0.7	1490.28571428571	0.9	946.444444444444	0.8	1161.875	1	764.8	13	367367	2	367355	26	39	367393	-999999	367370	0	5	TrialsPROC	FC_004_F2.png	1	2	17	SessionSelectionList														nonlure	3	Face	0-Back	15	80	12	0	0	100	2	39	122373	1	13	72	120334	-1	121292	1	958	3	3	2039	52	122386	-53	0					4											17												
WM080112	128632_fnca	1	1	1	1390792027	1	75.031	75.031	2.0.10.147	2.0.10.242	2.0.10.242	1.0.0.439	7	234	2	3	Verdana	1	80	0	0	0	WM Stimuli\	0.6	1378.33333333333	0.9	1082.77777777778	0.7	1023.71428571429	1	966.3	0.7	1490.28571428571	0.9	946.444444444444	0.8	1161.875	1	764.8	13	367367	2	367355	26	39	367393	-999999	367370	0	5	TrialsPROC	FC_004_F2.png	1	2	18	SessionSelectionList														lure	3	Face	0-Back	16	80	13	0	0	100	3	39	124945	2	14	72	122906	-1	123798	1	892	3	3	2039	53	124959	-54	0					5											18												
WM080112	128632_fnca	1	1	1	1390792027	1	75.031	75.031	2.0.10.147	2.0.10.242	2.0.10.242	1.0.0.439	7	234	2	3	Verdana	1	80	0	0	0	WM Stimuli\	0.6	1378.33333333333	0.9	1082.77777777778	0.7	1023.71428571429	1	966.3	0.7	1490.28571428571	0.9	946.444444444444	0.8	1161.875	1	764.8	13	367367	2	367355	26	39	367393	-999999	367370	0	5	TrialsPROC	FC_001_M1.png	1	2	19	SessionSelectionList														target	2	Face	0-Back	17	80	14	0	0	100	1	40	127518	1	13	72	125478	-1	126349	1	871	2	2	2040	53	127531	-54	0					6											19												
WM080112	128632_fnca	1	1	1	1390792027	1	75.031	75.031	2.0.10.147	2.0.10.242	2.0.10.242	1.0.0.439	7	234	2	3	Verdana	1	80	0	0	0	WM Stimuli\	0.6	1378.33333333333	0.9	1082.77777777778	0.7	1023.71428571429	1	966.3	0.7	1490.28571428571	0.9	946.444444444444	0.8	1161.875	1	764.8	13	367367	2	367355	26	39	367393	-999999	367370	0	5	TrialsPROC	FC_006_F3.png	1	2	20	SessionSelectionList														nonlure	3	Face	0-Back	18	80	15	0	0	100	1	39	130090	1	13	73	128051	-1	129003	1	952	3	3	2039	52	130103	-53	0					7											20												
WM080112	128632_fnca	1	1	1	1390792027	1	75.031	75.031	2.0.10.147	2.0.10.242	2.0.10.242	1.0.0.439	7	234	2	3	Verdana	1	80	0	0	0	WM Stimuli\	0.6	1378.33333333333	0.9	1082.77777777778	0.7	1023.71428571429	1	966.3	0.7	1490.28571428571	0.9	946.444444444444	0.8	1161.875	1	764.8	13	367367	2	367355	26	39	367393	-999999	367370	0	5	TrialsPROC	FC_006_F3.png	1	2	21	SessionSelectionList														lure	3	Face	0-Back	19	80	16	0	0	100	2	39	132662	2	14	72	130623	-1	131755	1	1132	3	3	2039	53	132676	-54	0					8											21												
WM080112	128632_fnca	1	1	1	1390792027	1	75.031	75.031	2.0.10.147	2.0.10.242	2.0.10.242	1.0.0.439	7	234	2	3	Verdana	1	80	0	0	0	WM Stimuli\	0.6	1378.33333333333	0.9	1082.77777777778	0.7	1023.71428571429	1	966.3	0.7	1490.28571428571	0.9	946.444444444444	0.8	1161.875	1	764.8	13	367367	2	367355	26	39	367393	-999999	367370	0	5	TrialsPROC	FC_003_M2.png	1	2	22	SessionSelectionList														lure	3	Face	0-Back	20	80	17	0	0	100	3	39	135234	2	14	72	133195	-1	134101	1	906	3	3	2039	53	135248	-54	0					9											22												
WM080112	128632_fnca	1	1	1	1390792027	1	75.031	75.031	2.0.10.147	2.0.10.242	2.0.10.242	1.0.0.439	7	234	2	3	Verdana	1	80	0	0	0	WM Stimuli\	0.6	1378.33333333333	0.9	1082.77777777778	0.7	1023.71428571429	1	966.3	0.7	1490.28571428571	0.9	946.444444444444	0.8	1161.875	1	764.8	13	367367	2	367355	26	39	367393	-999999	367370	0	5	TrialsPROC	FC_002_F1.png	1	2	23	SessionSelectionList														nonlure	3	Face	0-Back	21	80	18	0	0	100	4	39	137807	1	13	73	135768	-1	136654	1	886	3	3	2039	52	137820	-53	0					10											23												
WM080112	128632_fnca	1	1	1	1390792027	1	75.031	75.031	2.0.10.147	2.0.10.242	2.0.10.242	1.0.0.439	7	234	2	3	Verdana	1	80	0	0	0	WM Stimuli\	0.6	1378.33333333333	0.9	1082.77777777778	0.7	1023.71428571429	1	966.3	0.7	1490.28571428571	0.9	946.444444444444	0.8	1161.875	1	764.8	13	367367	2	367355	26	39	367393	-999999	367370	0	6	Fix15secPROC	""	1	2	24	SessionSelectionList																																															5	138273	-6	0							24												
WM080112	128632_fnca	1	1	1	1390792027	1	75.031	75.031	2.0.10.147	2.0.10.242	2.0.10.242	1.0.0.439	7	234	2	3	Verdana	1	80	0	0	0	WM Stimuli\	0.6	1378.33333333333	0.9	1082.77777777778	0.7	1023.71428571429	1	966.3	0.7	1490.28571428571	0.9	946.444444444444	0.8	1161.875	1	764.8	13	367367	2	367355	26	39	367393	-999999	367370	0	7	Cue2BackPROC	""	1	2	25	SessionSelectionList									12	153280	-13	0																																													25												
WM080112	128632_fnca	1	1	1	1390792027	1	75.031	75.031	2.0.10.147	2.0.10.242	2.0.10.242	1.0.0.439	7	234	2	3	Verdana	1	80	0	0	0	WM Stimuli\	0.6	1378.33333333333	0.9	1082.77777777778	0.7	1023.71428571429	1	966.3	0.7	1490.28571428571	0.9	946.444444444444	0.8	1161.875	1	764.8	13	367367	2	367355	26	39	367393	-999999	367370	0	8	TrialsPROC	TO_001_TOOL1_BA.png	1	2	26	SessionSelectionList														nonlure	3	Tools	2-Back	22	80	19	0	0	100	5	39	157865	2	14	58	155826	-1	156626	1	800	3	3	2039	53	157879	-54	0										1						26												
WM080112	128632_fnca	1	1	1	1390792027	1	75.031	75.031	2.0.10.147	2.0.10.242	2.0.10.242	1.0.0.439	7	234	2	3	Verdana	1	80	0	0	0	WM Stimuli\	0.6	1378.33333333333	0.9	1082.77777777778	0.7	1023.71428571429	1	966.3	0.7	1490.28571428571	0.9	946.444444444444	0.8	1161.875	1	764.8	13	367367	2	367355	26	39	367393	-999999	367370	0	8	TrialsPROC	TO_002_TOOL2_BA.png	1	2	27	SessionSelectionList														nonlure	3	Tools	2-Back	23	80	20	0	0	100	6	39	160424	2	14	59	158385	-1	159356	1	971	3	3	2039	53	160438	-54	0										2						27												
WM080112	128632_fnca	1	1	1	1390792027	1	75.031	75.031	2.0.10.147	2.0.10.242	2.0.10.242	1.0.0.439	7	234	2	3	Verdana	1	80	0	0	0	WM Stimuli\	0.6	1378.33333333333	0.9	1082.77777777778	0.7	1023.71428571429	1	966.3	0.7	1490.28571428571	0.9	946.444444444444	0.8	1161.875	1	764.8	13	367367	2	367355	26	39	367393	-999999	367370	0	8	TrialsPROC	TO_004_TOOL4_BA.png	1	2	28	SessionSelectionList														nonlure	3	Tools	2-Back	24	80	21	0	0	100	7	39	162983	2	14	59	160944	-1	162106	1	1162	3	3	2039	53	162997	-54	0										3						28												
WM080112	128632_fnca	1	1	1	1390792027	1	75.031	75.031	2.0.10.147	2.0.10.242	2.0.10.242	1.0.0.439	7	234	2	3	Verdana	1	80	0	0	0	WM Stimuli\	0.6	1378.33333333333	0.9	1082.77777777778	0.7	1023.71428571429	1	966.3	0.7	1490.28571428571	0.9	946.444444444444	0.8	1161.875	1	764.8	13	367367	2	367355	26	39	367393	-999999	367370	0	8	TrialsPROC	TO_002_TOOL2_BA.png	1	2	29	SessionSelectionList														target	2	Tools	2-Back	25	80	22	0	0	100	8	39	165542	2	14	59	163503	-1	165061	0	1558	3	2	2039	53	165556	-54	0										4						29												
WM080112	128632_fnca	1	1	1	1390792027	1	75.031	75.031	2.0.10.147	2.0.10.242	2.0.10.242	1.0.0.439	7	234	2	3	Verdana	1	80	0	0	0	WM Stimuli\	0.6	1378.33333333333	0.9	1082.77777777778	0.7	1023.71428571429	1	966.3	0.7	1490.28571428571	0.9	946.444444444444	0.8	1161.875	1	764.8	13	367367	2	367355	26	39	367393	-999999	367370	0	8	TrialsPROC	TO_001_TOOL1_BA.png	1	2	30	SessionSelectionList														lure	3	Tools	2-Back	26	80	23	0	0	100	9	39	168101	2	14	59	166062	-1	167599	1	1537	3	3	2039	53	168115	-54	0										5						30												
WM080112	128632_fnca	1	1	1	1390792027	1	75.031	75.031	2.0.10.147	2.0.10.242	2.0.10.242	1.0.0.439	7	234	2	3	Verdana	1	80	0	0	0	WM Stimuli\	0.6	1378.33333333333	0.9	1082.77777777778	0.7	1023.71428571429	1	966.3	0.7	1490.28571428571	0.9	946.444444444444	0.8	1161.875	1	764.8	13	367367	2	367355	26	39	367393	-999999	367370	0	8	TrialsPROC	TO_004_TOOL4_BA.png	1	2	31	SessionSelectionList														lure	3	Tools	2-Back	27	80	24	0	0	100	1	39	170660	1	13	59	168621	-1	169917	0	1296	2	3	2039	52	170673	-53	0										6						31												
WM080112	128632_fnca	1	1	1	1390792027	1	75.031	75.031	2.0.10.147	2.0.10.242	2.0.10.242	1.0.0.439	7	234	2	3	Verdana	1	80	0	0	0	WM Stimuli\	0.6	1378.33333333333	0.9	1082.77777777778	0.7	1023.71428571429	1	966.3	0.7	1490.28571428571	0.9	946.444444444444	0.8	1161.875	1	764.8	13	367367	2	367355	26	39	367393	-999999	367370	0	8	TrialsPROC	TO_006_TOOL6_BA.png	1	2	32	SessionSelectionList														nonlure	3	Tools	2-Back	28	80	25	0	0	100	1	39	173219	1	13	59	171180	-1	172287	1	1107	3	3	2039	52	173232	-53	0										7						32												
WM080112	128632_fnca	1	1	1	1390792027	1	75.031	75.031	2.0.10.147	2.0.10.242	2.0.10.242	1.0.0.439	7	234	2	3	Verdana	1	80	0	0	0	WM Stimuli\	0.6	1378.33333333333	0.9	1082.77777777778	0.7	1023.71428571429	1	966.3	0.7	1490.28571428571	0.9	946.444444444444	0.8	1161.875	1	764.8	13	367367	2	367355	26	39	367393	-999999	367370	0	8	TrialsPROC	TO_005_TOOL5_BA.png	1	2	33	SessionSelectionList														nonlure	3	Tools	2-Back	29	80	26	0	0	100	2	39	175778	1	13	59	173739	-1	175508	1	1769	3	3	2039	52	175791	-53	0										8						33												
WM080112	128632_fnca	1	1	1	1390792027	1	75.031	75.031	2.0.10.147	2.0.10.242	2.0.10.242	1.0.0.439	7	234	2	3	Verdana	1	80	0	0	0	WM Stimuli\	0.6	1378.33333333333	0.9	1082.77777777778	0.7	1023.71428571429	1	966.3	0.7	1490.28571428571	0.9	946.444444444444	0.8	1161.875	1	764.8	13	367367	2	367355	26	39	367393	-999999	367370	0	8	TrialsPROC	TO_006_TOOL6_BA.png	1	2	34	SessionSelectionList														target	2	Tools	2-Back	30	80	27	0	0	100	1	39	178337	1	13	59	176298	-1	177232	1	934	2	2	2039	52	178350	-53	0										9						34												
WM080112	128632_fnca	1	1	1	1390792027	1	75.031	75.031	2.0.10.147	2.0.10.242	2.0.10.242	1.0.0.439	7	234	2	3	Verdana	1	80	0	0	0	WM Stimuli\	0.6	1378.33333333333	0.9	1082.77777777778	0.7	1023.71428571429	1	966.3	0.7	1490.28571428571	0.9	946.444444444444	0.8	1161.875	1	764.8	13	367367	2	367355	26	39	367393	-999999	367370	0	8	TrialsPROC	TO_003_TOOL3_BA.png	1	2	35	SessionSelectionList														nonlure	3	Tools	2-Back	31	80	28	0	0	100	1	39	180896	1	13	59	178857	-1	179872	1	1015	3	3	2039	52	180909	-53	0										10						35												
WM080112	128632_fnca	1	1	1	1390792027	1	75.031	75.031	2.0.10.147	2.0.10.242	2.0.10.242	1.0.0.439	7	234	2	3	Verdana	1	80	0	0	0	WM Stimuli\	0.6	1378.33333333333	0.9	1082.77777777778	0.7	1023.71428571429	1	966.3	0.7	1490.28571428571	0.9	946.444444444444	0.8	1161.875	1	764.8	13	367367	2	367355	26	39	367393	-999999	367370	0	9	Cue0BackPROC	BP_007_BP20_BA.png	1	2	36	SessionSelectionList																																										19	181376	-20	0												36												
WM080112	128632_fnca	1	1	1	1390792027	1	75.031	75.031	2.0.10.147	2.0.10.242	2.0.10.242	1.0.0.439	7	234	2	3	Verdana	1	80	0	0	0	WM Stimuli\	0.6	1378.33333333333	0.9	1082.77777777778	0.7	1023.71428571429	1	966.3	0.7	1490.28571428571	0.9	946.444444444444	0.8	1161.875	1	764.8	13	367367	2	367355	26	39	367393	-999999	367370	0	10	TrialsPROC	BP_007_BP20_BA.png	1	2	37	SessionSelectionList														target	2	Body	0-Back	32	80	28	0	1	91	1	39	185947	2	14	51	183908	-1	0	0	0	""	2	2039	53	185961	-54	0											1					37												
WM080112	128632_fnca	1	1	1	1390792027	1	75.031	75.031	2.0.10.147	2.0.10.242	2.0.10.242	1.0.0.439	7	234	2	3	Verdana	1	80	0	0	0	WM Stimuli\	0.6	1378.33333333333	0.9	1082.77777777778	0.7	1023.71428571429	1	966.3	0.7	1490.28571428571	0.9	946.444444444444	0.8	1161.875	1	764.8	13	367367	2	367355	26	39	367393	-999999	367370	0	10	TrialsPROC	BP_011_BP4_BA.png	1	2	38	SessionSelectionList														nonlure	3	Body	0-Back	33	80	29	0	0	92	1	39	188519	2	14	72	186480	-1	187996	1	1516	3	3	2039	53	188533	-54	0											2					38												
WM080112	128632_fnca	1	1	1	1390792027	1	75.031	75.031	2.0.10.147	2.0.10.242	2.0.10.242	1.0.0.439	7	234	2	3	Verdana	1	80	0	0	0	WM Stimuli\	0.6	1378.33333333333	0.9	1082.77777777778	0.7	1023.71428571429	1	966.3	0.7	1490.28571428571	0.9	946.444444444444	0.8	1161.875	1	764.8	13	367367	2	367355	26	39	367393	-999999	367370	0	10	TrialsPROC	BP_010_BP3_BA.png	1	2	39	SessionSelectionList														nonlure	3	Body	0-Back	34	80	30	0	0	92	2	38	191078	2	14	60	189040	-1	190059	1	1019	3	3	2038	52	191092	-53	0											3					39												
WM080112	128632_fnca	1	1	1	1390792027	1	75.031	75.031	2.0.10.147	2.0.10.242	2.0.10.242	1.0.0.439	7	234	2	3	Verdana	1	80	0	0	0	WM Stimuli\	0.6	1378.33333333333	0.9	1082.77777777778	0.7	1023.71428571429	1	966.3	0.7	1490.28571428571	0.9	946.444444444444	0.8	1161.875	1	764.8	13	367367	2	367355	26	39	367393	-999999	367370	0	10	TrialsPROC	BP_008_BP21_BA.png	1	2	40	SessionSelectionList														nonlure	3	Body	0-Back	35	80	31	0	0	93	3	39	193637	2	14	58	191598	-1	192590	1	992	3	3	2039	53	193651	-54	0											4					40												
WM080112	128632_fnca	1	1	1	1390792027	1	75.031	75.031	2.0.10.147	2.0.10.242	2.0.10.242	1.0.0.439	7	234	2	3	Verdana	1	80	0	0	0	WM Stimuli\	0.6	1378.33333333333	0.9	1082.77777777778	0.7	1023.71428571429	1	966.3	0.7	1490.28571428571	0.9	946.444444444444	0.8	1161.875	1	764.8	13	367367	2	367355	26	39	367393	-999999	367370	0	10	TrialsPROC	BP_011_BP4_BA.png	1	2	41	SessionSelectionList														lure	3	Body	0-Back	36	80	32	0	0	93	4	40	196210	1	13	72	194170	-1	195126	1	956	3	3	2040	53	196223	-54	0											5					41												
WM080112	128632_fnca	1	1	1	1390792027	1	75.031	75.031	2.0.10.147	2.0.10.242	2.0.10.242	1.0.0.439	7	234	2	3	Verdana	1	80	0	0	0	WM Stimuli\	0.6	1378.33333333333	0.9	1082.77777777778	0.7	1023.71428571429	1	966.3	0.7	1490.28571428571	0.9	946.444444444444	0.8	1161.875	1	764.8	13	367367	2	367355	26	39	367393	-999999	367370	0	10	TrialsPROC	BP_009_BP22_BA.png	1	2	42	SessionSelectionList														nonlure	3	Body	0-Back	37	80	33	0	0	94	5	40	198769	1	13	59	196729	-1	197616	1	887	3	3	2040	53	198782	-54	0											6					42												
WM080112	128632_fnca	1	1	1	1390792027	1	75.031	75.031	2.0.10.147	2.0.10.242	2.0.10.242	1.0.0.439	7	234	2	3	Verdana	1	80	0	0	0	WM Stimuli\	0.6	1378.33333333333	0.9	1082.77777777778	0.7	1023.71428571429	1	966.3	0.7	1490.28571428571	0.9	946.444444444444	0.8	1161.875	1	764.8	13	367367	2	367355	26	39	367393	-999999	367370	0	10	TrialsPROC	BP_009_BP22_BA.png	1	2	43	SessionSelectionList														lure	3	Body	0-Back	38	80	34	0	0	94	6	40	201328	1	13	59	199288	-1	200344	1	1056	3	3	2040	53	201341	-54	0											7					43												
WM080112	128632_fnca	1	1	1	1390792027	1	75.031	75.031	2.0.10.147	2.0.10.242	2.0.10.242	1.0.0.439	7	234	2	3	Verdana	1	80	0	0	0	WM Stimuli\	0.6	1378.33333333333	0.9	1082.77777777778	0.7	1023.71428571429	1	966.3	0.7	1490.28571428571	0.9	946.444444444444	0.8	1161.875	1	764.8	13	367367	2	367355	26	39	367393	-999999	367370	0	10	TrialsPROC	BP_008_BP21_BA.png	1	2	44	SessionSelectionList														lure	3	Body	0-Back	39	80	35	0	0	94	7	39	203886	2	14	59	201847	-1	203485	1	1638	3	3	2039	53	203900	-54	0											8					44												
WM080112	128632_fnca	1	1	1	1390792027	1	75.031	75.031	2.0.10.147	2.0.10.242	2.0.10.242	1.0.0.439	7	234	2	3	Verdana	1	80	0	0	0	WM Stimuli\	0.6	1378.33333333333	0.9	1082.77777777778	0.7	1023.71428571429	1	966.3	0.7	1490.28571428571	0.9	946.444444444444	0.8	1161.875	1	764.8	13	367367	2	367355	26	39	367393	-999999	367370	0	10	TrialsPROC	BP_007_BP20_BA.png	1	2	45	SessionSelectionList														target	2	Body	0-Back	40	80	36	0	0	95	1	39	206445	2	14	59	204406	-1	205185	1	779	2	2	2039	53	206459	-54	0											9					45												
WM080112	128632_fnca	1	1	1	1390792027	1	75.031	75.031	2.0.10.147	2.0.10.242	2.0.10.242	1.0.0.439	7	234	2	3	Verdana	1	80	0	0	0	WM Stimuli\	0.6	1378.33333333333	0.9	1082.77777777778	0.7	1023.71428571429	1	966.3	0.7	1490.28571428571	0.9	946.444444444444	0.8	1161.875	1	764.8	13	367367	2	367355	26	39	367393	-999999	367370	0	10	TrialsPROC	BP_012_BP5_BA.png	1	2	46	SessionSelectionList														nonlure	3	Body	0-Back	41	80	37	0	0	95	1	39	209018	1	13	73	206979	-1	207881	1	902	3	3	2039	52	209031	-53	0											10					46												
WM080112	128632_fnca	1	1	1	1390792027	1	75.031	75.031	2.0.10.147	2.0.10.242	2.0.10.242	1.0.0.439	7	234	2	3	Verdana	1	80	0	0	0	WM Stimuli\	0.6	1378.33333333333	0.9	1082.77777777778	0.7	1023.71428571429	1	966.3	0.7	1490.28571428571	0.9	946.444444444444	0.8	1161.875	1	764.8	13	367367	2	367355	26	39	367393	-999999	367370	0	11	Fix15secPROC	""	1	2	47	SessionSelectionList																																															5	209484	-6	0							47												
WM080112	128632_fnca	1	1	1	1390792027	1	75.031	75.031	2.0.10.147	2.0.10.242	2.0.10.242	1.0.0.439	7	234	2	3	Verdana	1	80	0	0	0	WM Stimuli\	0.6	1378.33333333333	0.9	1082.77777777778	0.7	1023.71428571429	1	966.3	0.7	1490.28571428571	0.9	946.444444444444	0.8	1161.875	1	764.8	13	367367	2	367355	26	39	367393	-999999	367370	0	12	Cue0BackPROC	PL_001_92012.png	1	2	48	SessionSelectionList																																										12	224491	-13	0												48												
WM080112	128632_fnca	1	1	1	1390792027	1	75.031	75.031	2.0.10.147	2.0.10.242	2.0.10.242	1.0.0.439	7	234	2	3	Verdana	1	80	0	0	0	WM Stimuli\	0.6	1378.33333333333	0.9	1082.77777777778	0.7	1023.71428571429	1	966.3	0.7	1490.28571428571	0.9	946.444444444444	0.8	1161.875	1	764.8	13	367367	2	367355	26	39	367393	-999999	367370	0	13	TrialsPROC	PL_003_92016.png	1	2	49	SessionSelectionList														nonlure	3	Place	0-Back	42	80	38	0	0	95	2	40	229090	2	13	71	227050	-1	228177	1	1127	3	3	2040	53	229103	-54	0												1				49												
WM080112	128632_fnca	1	1	1	1390792027	1	75.031	75.031	2.0.10.147	2.0.10.242	2.0.10.242	1.0.0.439	7	234	2	3	Verdana	1	80	0	0	0	WM Stimuli\	0.6	1378.33333333333	0.9	1082.77777777778	0.7	1023.71428571429	1	966.3	0.7	1490.28571428571	0.9	946.444444444444	0.8	1161.875	1	764.8	13	367367	2	367355	26	39	367393	-999999	367370	0	13	TrialsPROC	PL_003_92016.png	1	2	50	SessionSelectionList														lure	3	Place	0-Back	43	80	39	0	0	95	3	39	231662	1	13	73	229623	-1	230518	1	895	3	3	2039	52	231675	-53	0												2				50												
WM080112	128632_fnca	1	1	1	1390792027	1	75.031	75.031	2.0.10.147	2.0.10.242	2.0.10.242	1.0.0.439	7	234	2	3	Verdana	1	80	0	0	0	WM Stimuli\	0.6	1378.33333333333	0.9	1082.77777777778	0.7	1023.71428571429	1	966.3	0.7	1490.28571428571	0.9	946.444444444444	0.8	1161.875	1	764.8	13	367367	2	367355	26	39	367393	-999999	367370	0	13	TrialsPROC	PL_006_92025.png	1	2	51	SessionSelectionList														nonlure	3	Place	0-Back	44	80	40	0	0	96	4	39	234234	2	14	72	232195	-1	233044	1	849	3	3	2039	53	234248	-54	0												3				51												
WM080112	128632_fnca	1	1	1	1390792027	1	75.031	75.031	2.0.10.147	2.0.10.242	2.0.10.242	1.0.0.439	7	234	2	3	Verdana	1	80	0	0	0	WM Stimuli\	0.6	1378.33333333333	0.9	1082.77777777778	0.7	1023.71428571429	1	966.3	0.7	1490.28571428571	0.9	946.444444444444	0.8	1161.875	1	764.8	13	367367	2	367355	26	39	367393	-999999	367370	0	13	TrialsPROC	PL_001_92012.png	1	2	52	SessionSelectionList														target	2	Place	0-Back	45	80	41	0	0	96	1	39	236806	2	14	72	234767	-1	236611	1	1844	2	2	2039	53	236820	-54	0												4				52												
WM080112	128632_fnca	1	1	1	1390792027	1	75.031	75.031	2.0.10.147	2.0.10.242	2.0.10.242	1.0.0.439	7	234	2	3	Verdana	1	80	0	0	0	WM Stimuli\	0.6	1378.33333333333	0.9	1082.77777777778	0.7	1023.71428571429	1	966.3	0.7	1490.28571428571	0.9	946.444444444444	0.8	1161.875	1	764.8	13	367367	2	367355	26	39	367393	-999999	367370	0	13	TrialsPROC	PL_004_92023.png	1	2	53	SessionSelectionList														nonlure	3	Place	0-Back	46	80	42	0	0	96	1	39	239379	1	13	73	237340	-1	238188	1	848	3	3	2039	52	239392	-53	0												5				53												
WM080112	128632_fnca	1	1	1	1390792027	1	75.031	75.031	2.0.10.147	2.0.10.242	2.0.10.242	1.0.0.439	7	234	2	3	Verdana	1	80	0	0	0	WM Stimuli\	0.6	1378.33333333333	0.9	1082.77777777778	0.7	1023.71428571429	1	966.3	0.7	1490.28571428571	0.9	946.444444444444	0.8	1161.875	1	764.8	13	367367	2	367355	26	39	367393	-999999	367370	0	13	TrialsPROC	PL_005_92024.png	1	2	54	SessionSelectionList														nonlure	3	Place	0-Back	47	80	43	0	0	96	2	39	241938	2	13	59	239899	-1	240653	1	754	3	3	2039	52	241951	-53	0												6				54												
WM080112	128632_fnca	1	1	1	1390792027	1	75.031	75.031	2.0.10.147	2.0.10.242	2.0.10.242	1.0.0.439	7	234	2	3	Verdana	1	80	0	0	0	WM Stimuli\	0.6	1378.33333333333	0.9	1082.77777777778	0.7	1023.71428571429	1	966.3	0.7	1490.28571428571	0.9	946.444444444444	0.8	1161.875	1	764.8	13	367367	2	367355	26	39	367393	-999999	367370	0	13	TrialsPROC	PL_001_92012.png	1	2	55	SessionSelectionList														target	2	Place	0-Back	48	80	44	0	0	93	3	39	244510	1	13	72	242471	-1	243143	0	672	3	2	2039	52	244523	-53	0												7				55												
WM080112	128632_fnca	1	1	1	1390792027	1	75.031	75.031	2.0.10.147	2.0.10.242	2.0.10.242	1.0.0.439	7	234	2	3	Verdana	1	80	0	0	0	WM Stimuli\	0.6	1378.33333333333	0.9	1082.77777777778	0.7	1023.71428571429	1	966.3	0.7	1490.28571428571	0.9	946.444444444444	0.8	1161.875	1	764.8	13	367367	2	367355	26	39	367393	-999999	367370	0	13	TrialsPROC	PL_002_92014.png	1	2	56	SessionSelectionList														nonlure	3	Place	0-Back	49	80	45	0	0	93	4	39	247082	2	14	72	245043	-1	245771	1	728	3	3	2039	53	247096	-54	0												8				56												
WM080112	128632_fnca	1	1	1	1390792027	1	75.031	75.031	2.0.10.147	2.0.10.242	2.0.10.242	1.0.0.439	7	234	2	3	Verdana	1	80	0	0	0	WM Stimuli\	0.6	1378.33333333333	0.9	1082.77777777778	0.7	1023.71428571429	1	966.3	0.7	1490.28571428571	0.9	946.444444444444	0.8	1161.875	1	764.8	13	367367	2	367355	26	39	367393	-999999	367370	0	13	TrialsPROC	PL_004_92023.png	1	2	57	SessionSelectionList														lure	3	Place	0-Back	50	80	46	0	0	93	5	40	249655	1	13	72	247615	-1	248337	1	722	3	3	2040	53	249668	-54	0												9				57												
WM080112	128632_fnca	1	1	1	1390792027	1	75.031	75.031	2.0.10.147	2.0.10.242	2.0.10.242	1.0.0.439	7	234	2	3	Verdana	1	80	0	0	0	WM Stimuli\	0.6	1378.33333333333	0.9	1082.77777777778	0.7	1023.71428571429	1	966.3	0.7	1490.28571428571	0.9	946.444444444444	0.8	1161.875	1	764.8	13	367367	2	367355	26	39	367393	-999999	367370	0	13	TrialsPROC	PL_006_92025.png	1	2	58	SessionSelectionList														lure	3	Place	0-Back	51	80	47	0	0	93	6	39	252227	1	13	73	250188	-1	250939	1	751	3	3	2039	52	252240	-53	0												10				58												
WM080112	128632_fnca	1	1	1	1390792027	1	75.031	75.031	2.0.10.147	2.0.10.242	2.0.10.242	1.0.0.439	7	234	2	3	Verdana	1	80	0	0	0	WM Stimuli\	0.6	1378.33333333333	0.9	1082.77777777778	0.7	1023.71428571429	1	966.3	0.7	1490.28571428571	0.9	946.444444444444	0.8	1161.875	1	764.8	13	367367	2	367355	26	39	367393	-999999	367370	0	14	Cue2BackPROC	""	1	2	59	SessionSelectionList									5	252693	-6	0																																													59												
WM080112	128632_fnca	1	1	1	1390792027	1	75.031	75.031	2.0.10.147	2.0.10.242	2.0.10.242	1.0.0.439	7	234	2	3	Verdana	1	80	0	0	0	WM Stimuli\	0.6	1378.33333333333	0.9	1082.77777777778	0.7	1023.71428571429	1	966.3	0.7	1490.28571428571	0.9	946.444444444444	0.8	1161.875	1	764.8	13	367367	2	367355	26	39	367393	-999999	367370	0	15	TrialsPROC	FC_010_F5.png	1	2	60	SessionSelectionList														nonlure	3	Face	2-Back	52	80	47	0	1	93	6	39	257291	2	14	64	255252	-1	0	0	0	""	3	2039	53	257305	-54	0													1			60												
WM080112	128632_fnca	1	1	1	1390792027	1	75.031	75.031	2.0.10.147	2.0.10.242	2.0.10.242	1.0.0.439	7	234	2	3	Verdana	1	80	0	0	0	WM Stimuli\	0.6	1378.33333333333	0.9	1082.77777777778	0.7	1023.71428571429	1	966.3	0.7	1490.28571428571	0.9	946.444444444444	0.8	1161.875	1	764.8	13	367367	2	367355	26	39	367393	-999999	367370	0	15	TrialsPROC	FC_012_F6.png	1	2	61	SessionSelectionList														nonlure	3	Face	2-Back	53	80	48	0	0	93	1	39	259864	1	13	73	257825	-1	258485	1	660	3	3	2039	52	259877	-53	0													2			61												
WM080112	128632_fnca	1	1	1	1390792027	1	75.031	75.031	2.0.10.147	2.0.10.242	2.0.10.242	1.0.0.439	7	234	2	3	Verdana	1	80	0	0	0	WM Stimuli\	0.6	1378.33333333333	0.9	1082.77777777778	0.7	1023.71428571429	1	966.3	0.7	1490.28571428571	0.9	946.444444444444	0.8	1161.875	1	764.8	13	367367	2	367355	26	39	367393	-999999	367370	0	15	TrialsPROC	FC_010_F5.png	1	2	62	SessionSelectionList														target	2	Face	2-Back	54	80	49	0	0	93	2	39	262436	1	13	72	260397	-1	261571	0	1174	3	2	2039	52	262449	-53	0													3			62												
WM080112	128632_fnca	1	1	1	1390792027	1	75.031	75.031	2.0.10.147	2.0.10.242	2.0.10.242	1.0.0.439	7	234	2	3	Verdana	1	80	0	0	0	WM Stimuli\	0.6	1378.33333333333	0.9	1082.77777777778	0.7	1023.71428571429	1	966.3	0.7	1490.28571428571	0.9	946.444444444444	0.8	1161.875	1	764.8	13	367367	2	367355	26	39	367393	-999999	367370	0	15	TrialsPROC	FC_008_F4.png	1	2	63	SessionSelectionList														nonlure	3	Face	2-Back	55	80	50	0	0	93	3	39	265008	2	14	72	262969	-1	264404	1	1435	3	3	2039	53	265022	-54	0													4			63												
WM080112	128632_fnca	1	1	1	1390792027	1	75.031	75.031	2.0.10.147	2.0.10.242	2.0.10.242	1.0.0.439	7	234	2	3	Verdana	1	80	0	0	0	WM Stimuli\	0.6	1378.33333333333	0.9	1082.77777777778	0.7	1023.71428571429	1	966.3	0.7	1490.28571428571	0.9	946.444444444444	0.8	1161.875	1	764.8	13	367367	2	367355	26	39	367393	-999999	367370	0	15	TrialsPROC	FC_012_F6.png	1	2	64	SessionSelectionList														lure	3	Face	2-Back	56	80	51	0	0	93	4	40	267581	1	13	72	265541	-1	267286	1	1745	3	3	2040	53	267594	-54	0													5			64												
WM080112	128632_fnca	1	1	1	1390792027	1	75.031	75.031	2.0.10.147	2.0.10.242	2.0.10.242	1.0.0.439	7	234	2	3	Verdana	1	80	0	0	0	WM Stimuli\	0.6	1378.33333333333	0.9	1082.77777777778	0.7	1023.71428571429	1	966.3	0.7	1490.28571428571	0.9	946.444444444444	0.8	1161.875	1	764.8	13	367367	2	367355	26	39	367393	-999999	367370	0	15	TrialsPROC	FC_008_F4.png	1	2	65	SessionSelectionList														target	2	Face	2-Back	57	80	52	0	0	93	1	39	270153	1	13	73	268114	-1	269002	1	888	2	2	2039	52	270166	-53	0													6			65												
WM080112	128632_fnca	1	1	1	1390792027	1	75.031	75.031	2.0.10.147	2.0.10.242	2.0.10.242	1.0.0.439	7	234	2	3	Verdana	1	80	0	0	0	WM Stimuli\	0.6	1378.33333333333	0.9	1082.77777777778	0.7	1023.71428571429	1	966.3	0.7	1490.28571428571	0.9	946.444444444444	0.8	1161.875	1	764.8	13	367367	2	367355	26	39	367393	-999999	367370	0	15	TrialsPROC	FC_007_M4.png	1	2	66	SessionSelectionList														nonlure	3	Face	2-Back	58	80	53	0	0	93	1	39	272725	2	14	72	270686	-1	271627	1	941	3	3	2039	53	272739	-54	0													7			66												
WM080112	128632_fnca	1	1	1	1390792027	1	75.031	75.031	2.0.10.147	2.0.10.242	2.0.10.242	1.0.0.439	7	234	2	3	Verdana	1	80	0	0	0	WM Stimuli\	0.6	1378.33333333333	0.9	1082.77777777778	0.7	1023.71428571429	1	966.3	0.7	1490.28571428571	0.9	946.444444444444	0.8	1161.875	1	764.8	13	367367	2	367355	26	39	367393	-999999	367370	0	15	TrialsPROC	FC_007_M4.png	1	2	67	SessionSelectionList														lure	3	Face	2-Back	59	80	53	0	1	93	1	39	275297	2	14	72	273258	-1	0	0	0	""	3	2039	53	275311	-54	0													8			67												
WM080112	128632_fnca	1	1	1	1390792027	1	75.031	75.031	2.0.10.147	2.0.10.242	2.0.10.242	1.0.0.439	7	234	2	3	Verdana	1	80	0	0	0	WM Stimuli\	0.6	1378.33333333333	0.9	1082.77777777778	0.7	1023.71428571429	1	966.3	0.7	1490.28571428571	0.9	946.444444444444	0.8	1161.875	1	764.8	13	367367	2	367355	26	39	367393	-999999	367370	0	15	TrialsPROC	FC_009_M5.png	1	2	68	SessionSelectionList														nonlure	3	Face	2-Back	60	80	54	0	0	93	1	39	277870	1	13	73	275831	-1	276523	1	692	3	3	2039	52	277883	-53	0													9			68												
WM080112	128632_fnca	1	1	1	1390792027	1	75.031	75.031	2.0.10.147	2.0.10.242	2.0.10.242	1.0.0.439	7	234	2	3	Verdana	1	80	0	0	0	WM Stimuli\	0.6	1378.33333333333	0.9	1082.77777777778	0.7	1023.71428571429	1	966.3	0.7	1490.28571428571	0.9	946.444444444444	0.8	1161.875	1	764.8	13	367367	2	367355	26	39	367393	-999999	367370	0	15	TrialsPROC	FC_011_M6.png	1	2	69	SessionSelectionList														nonlure	3	Face	2-Back	61	80	55	0	0	93	2	39	280455	2	14	85	278416	-1	279221	1	805	3	3	2039	53	280469	-54	0													10			69												
WM080112	128632_fnca	1	1	1	1390792027	1	75.031	75.031	2.0.10.147	2.0.10.242	2.0.10.242	1.0.0.439	7	234	2	3	Verdana	1	80	0	0	0	WM Stimuli\	0.6	1378.33333333333	0.9	1082.77777777778	0.7	1023.71428571429	1	966.3	0.7	1490.28571428571	0.9	946.444444444444	0.8	1161.875	1	764.8	13	367367	2	367355	26	39	367393	-999999	367370	0	16	Fix15secPROC	""	1	2	70	SessionSelectionList																																															6	280922	-7	0							70												
WM080112	128632_fnca	1	1	1	1390792027	1	75.031	75.031	2.0.10.147	2.0.10.242	2.0.10.242	1.0.0.439	7	234	2	3	Verdana	1	80	0	0	0	WM Stimuli\	0.6	1378.33333333333	0.9	1082.77777777778	0.7	1023.71428571429	1	966.3	0.7	1490.28571428571	0.9	946.444444444444	0.8	1161.875	1	764.8	13	367367	2	367355	26	39	367393	-999999	367370	0	17	Cue0BackPROC	TO_007_TOOL7_BA.png	1	2	71	SessionSelectionList																																										40	295956	-41	0												71												
WM080112	128632_fnca	1	1	1	1390792027	1	75.031	75.031	2.0.10.147	2.0.10.242	2.0.10.242	1.0.0.439	7	234	2	3	Verdana	1	80	0	0	0	WM Stimuli\	0.6	1378.33333333333	0.9	1082.77777777778	0.7	1023.71428571429	1	966.3	0.7	1490.28571428571	0.9	946.444444444444	0.8	1161.875	1	764.8	13	367367	2	367355	26	39	367393	-999999	367370	0	18	TrialsPROC	TO_010_TOOL10_BA.png	1	2	72	SessionSelectionList														nonlure	3	Tools	0-Back	62	80	56	0	0	94	3	39	300540	2	14	85	298501	-1	299526	1	1025	3	3	2039	53	300554	-54	0														1		72												
WM080112	128632_fnca	1	1	1	1390792027	1	75.031	75.031	2.0.10.147	2.0.10.242	2.0.10.242	1.0.0.439	7	234	2	3	Verdana	1	80	0	0	0	WM Stimuli\	0.6	1378.33333333333	0.9	1082.77777777778	0.7	1023.71428571429	1	966.3	0.7	1490.28571428571	0.9	946.444444444444	0.8	1161.875	1	764.8	13	367367	2	367355	26	39	367393	-999999	367370	0	18	TrialsPROC	TO_009_TOOL9_BA.png	1	2	73	SessionSelectionList														nonlure	3	Tools	0-Back	63	80	57	0	0	94	4	39	303126	2	14	86	301087	-1	301825	1	738	3	3	2039	53	303140	-54	0														2		73												
WM080112	128632_fnca	1	1	1	1390792027	1	75.031	75.031	2.0.10.147	2.0.10.242	2.0.10.242	1.0.0.439	7	234	2	3	Verdana	1	80	0	0	0	WM Stimuli\	0.6	1378.33333333333	0.9	1082.77777777778	0.7	1023.71428571429	1	966.3	0.7	1490.28571428571	0.9	946.444444444444	0.8	1161.875	1	764.8	13	367367	2	367355	26	39	367393	-999999	367370	0	18	TrialsPROC	TO_009_TOOL9_BA.png	1	2	74	SessionSelectionList														lure	3	Tools	0-Back	64	80	58	0	0	94	5	39	305685	1	13	59	303646	-1	304308	1	662	3	3	2039	52	305698	-53	0														3		74												
WM080112	128632_fnca	1	1	1	1390792027	1	75.031	75.031	2.0.10.147	2.0.10.242	2.0.10.242	1.0.0.439	7	234	2	3	Verdana	1	80	0	0	0	WM Stimuli\	0.6	1378.33333333333	0.9	1082.77777777778	0.7	1023.71428571429	1	966.3	0.7	1490.28571428571	0.9	946.444444444444	0.8	1161.875	1	764.8	13	367367	2	367355	26	39	367393	-999999	367370	0	18	TrialsPROC	TO_008_TOOL8_BA.png	1	2	75	SessionSelectionList														nonlure	3	Tools	0-Back	65	80	59	0	0	94	6	40	308271	1	13	85	306231	-1	306984	1	753	3	3	2040	53	308284	-54	0														4		75												
WM080112	128632_fnca	1	1	1	1390792027	1	75.031	75.031	2.0.10.147	2.0.10.242	2.0.10.242	1.0.0.439	7	234	2	3	Verdana	1	80	0	0	0	WM Stimuli\	0.6	1378.33333333333	0.9	1082.77777777778	0.7	1023.71428571429	1	966.3	0.7	1490.28571428571	0.9	946.444444444444	0.8	1161.875	1	764.8	13	367367	2	367355	26	39	367393	-999999	367370	0	18	TrialsPROC	TO_011_TOOL11_BA.png	1	2	76	SessionSelectionList														nonlure	3	Tools	0-Back	66	80	60	0	0	94	7	39	310856	2	14	86	308817	-1	309503	1	686	3	3	2039	53	310870	-54	0														5		76												
WM080112	128632_fnca	1	1	1	1390792027	1	75.031	75.031	2.0.10.147	2.0.10.242	2.0.10.242	1.0.0.439	7	234	2	3	Verdana	1	80	0	0	0	WM Stimuli\	0.6	1378.33333333333	0.9	1082.77777777778	0.7	1023.71428571429	1	966.3	0.7	1490.28571428571	0.9	946.444444444444	0.8	1161.875	1	764.8	13	367367	2	367355	26	39	367393	-999999	367370	0	18	TrialsPROC	TO_012_TOOL12_BA.png	1	2	77	SessionSelectionList														nonlure	3	Tools	0-Back	67	80	61	0	0	94	8	39	313442	1	13	86	311403	-1	312108	1	705	3	3	2039	52	313455	-53	0														6		77												
WM080112	128632_fnca	1	1	1	1390792027	1	75.031	75.031	2.0.10.147	2.0.10.242	2.0.10.242	1.0.0.439	7	234	2	3	Verdana	1	80	0	0	0	WM Stimuli\	0.6	1378.33333333333	0.9	1082.77777777778	0.7	1023.71428571429	1	966.3	0.7	1490.28571428571	0.9	946.444444444444	0.8	1161.875	1	764.8	13	367367	2	367355	26	39	367393	-999999	367370	0	18	TrialsPROC	TO_010_TOOL10_BA.png	1	2	78	SessionSelectionList														lure	3	Tools	0-Back	68	80	62	0	0	95	9	39	316001	1	13	59	313962	-1	314928	1	966	3	3	2039	52	316014	-53	0														7		78												
WM080112	128632_fnca	1	1	1	1390792027	1	75.031	75.031	2.0.10.147	2.0.10.242	2.0.10.242	1.0.0.439	7	234	2	3	Verdana	1	80	0	0	0	WM Stimuli\	0.6	1378.33333333333	0.9	1082.77777777778	0.7	1023.71428571429	1	966.3	0.7	1490.28571428571	0.9	946.444444444444	0.8	1161.875	1	764.8	13	367367	2	367355	26	39	367393	-999999	367370	0	18	TrialsPROC	TO_007_TOOL7_BA.png	1	2	79	SessionSelectionList														target	2	Tools	0-Back	69	80	63	0	0	95	1	39	318560	1	13	59	316521	-1	317244	1	723	2	2	2039	52	318573	-53	0														8		79												
WM080112	128632_fnca	1	1	1	1390792027	1	75.031	75.031	2.0.10.147	2.0.10.242	2.0.10.242	1.0.0.439	7	234	2	3	Verdana	1	80	0	0	0	WM Stimuli\	0.6	1378.33333333333	0.9	1082.77777777778	0.7	1023.71428571429	1	966.3	0.7	1490.28571428571	0.9	946.444444444444	0.8	1161.875	1	764.8	13	367367	2	367355	26	39	367393	-999999	367370	0	18	TrialsPROC	TO_008_TOOL8_BA.png	1	2	80	SessionSelectionList														lure	3	Tools	0-Back	70	80	64	0	0	95	1	39	321119	1	13	59	319080	-1	319801	1	721	3	3	2039	52	321132	-53	0														9		80												
WM080112	128632_fnca	1	1	1	1390792027	1	75.031	75.031	2.0.10.147	2.0.10.242	2.0.10.242	1.0.0.439	7	234	2	3	Verdana	1	80	0	0	0	WM Stimuli\	0.6	1378.33333333333	0.9	1082.77777777778	0.7	1023.71428571429	1	966.3	0.7	1490.28571428571	0.9	946.444444444444	0.8	1161.875	1	764.8	13	367367	2	367355	26	39	367393	-999999	367370	0	18	TrialsPROC	TO_007_TOOL7_BA.png	1	2	81	SessionSelectionList														target	2	Tools	0-Back	71	80	65	0	0	95	1	39	323678	1	13	59	321639	-1	322308	1	669	2	2	2039	52	323691	-53	0														10		81												
WM080112	128632_fnca	1	1	1	1390792027	1	75.031	75.031	2.0.10.147	2.0.10.242	2.0.10.242	1.0.0.439	7	234	2	3	Verdana	1	80	0	0	0	WM Stimuli\	0.6	1378.33333333333	0.9	1082.77777777778	0.7	1023.71428571429	1	966.3	0.7	1490.28571428571	0.9	946.444444444444	0.8	1161.875	1	764.8	13	367367	2	367355	26	39	367393	-999999	367370	0	19	Cue2BackPROC	""	1	2	82	SessionSelectionList									5	324144	-6	0																																													82												
WM080112	128632_fnca	1	1	1	1390792027	1	75.031	75.031	2.0.10.147	2.0.10.242	2.0.10.242	1.0.0.439	7	234	2	3	Verdana	1	80	0	0	0	WM Stimuli\	0.6	1378.33333333333	0.9	1082.77777777778	0.7	1023.71428571429	1	966.3	0.7	1490.28571428571	0.9	946.444444444444	0.8	1161.875	1	764.8	13	367367	2	367355	26	39	367393	-999999	367370	0	20	TrialsPROC	PL_007_92026.png	1	2	83	SessionSelectionList														nonlure	3	Place	2-Back	72	80	65	0	1	95	1	40	328756	1	13	77	326716	-1	0	0	0	""	3	2040	53	328769	-54	0															1	83												
WM080112	128632_fnca	1	1	1	1390792027	1	75.031	75.031	2.0.10.147	2.0.10.242	2.0.10.242	1.0.0.439	7	234	2	3	Verdana	1	80	0	0	0	WM Stimuli\	0.6	1378.33333333333	0.9	1082.77777777778	0.7	1023.71428571429	1	966.3	0.7	1490.28571428571	0.9	946.444444444444	0.8	1161.875	1	764.8	13	367367	2	367355	26	39	367393	-999999	367370	0	20	TrialsPROC	PL_007_92026.png	1	2	84	SessionSelectionList														lure	3	Place	2-Back	73	80	65	0	2	95	1	39	331328	1	13	73	329289	-1	0	0	0	""	3	2039	52	331341	-53	0															2	84												
WM080112	128632_fnca	1	1	1	1390792027	1	75.031	75.031	2.0.10.147	2.0.10.242	2.0.10.242	1.0.0.439	7	234	2	3	Verdana	1	80	0	0	0	WM Stimuli\	0.6	1378.33333333333	0.9	1082.77777777778	0.7	1023.71428571429	1	966.3	0.7	1490.28571428571	0.9	946.444444444444	0.8	1161.875	1	764.8	13	367367	2	367355	26	39	367393	-999999	367370	0	20	TrialsPROC	PL_010_92038.png	1	2	85	SessionSelectionList														nonlure	3	Place	2-Back	74	80	66	0	0	95	1	39	333900	2	14	72	331861	-1	333676	1	1815	3	3	2039	53	333914	-54	0															3	85												
WM080112	128632_fnca	1	1	1	1390792027	1	75.031	75.031	2.0.10.147	2.0.10.242	2.0.10.242	1.0.0.439	7	234	2	3	Verdana	1	80	0	0	0	WM Stimuli\	0.6	1378.33333333333	0.9	1082.77777777778	0.7	1023.71428571429	1	966.3	0.7	1490.28571428571	0.9	946.444444444444	0.8	1161.875	1	764.8	13	367367	2	367355	26	39	367393	-999999	367370	0	20	TrialsPROC	PL_009_92037.png	1	2	86	SessionSelectionList														nonlure	3	Place	2-Back	75	80	67	0	0	95	2	40	336473	1	13	72	334433	-1	335755	1	1322	3	3	2040	53	336486	-54	0															4	86												
WM080112	128632_fnca	1	1	1	1390792027	1	75.031	75.031	2.0.10.147	2.0.10.242	2.0.10.242	1.0.0.439	7	234	2	3	Verdana	1	80	0	0	0	WM Stimuli\	0.6	1378.33333333333	0.9	1082.77777777778	0.7	1023.71428571429	1	966.3	0.7	1490.28571428571	0.9	946.444444444444	0.8	1161.875	1	764.8	13	367367	2	367355	26	39	367393	-999999	367370	0	20	TrialsPROC	PL_010_92038.png	1	2	87	SessionSelectionList														target	2	Place	2-Back	76	80	68	0	0	95	1	39	339045	1	13	73	337006	-1	338741	1	1735	2	2	2039	52	339058	-53	0															5	87												
WM080112	128632_fnca	1	1	1	1390792027	1	75.031	75.031	2.0.10.147	2.0.10.242	2.0.10.242	1.0.0.439	7	234	2	3	Verdana	1	80	0	0	0	WM Stimuli\	0.6	1378.33333333333	0.9	1082.77777777778	0.7	1023.71428571429	1	966.3	0.7	1490.28571428571	0.9	946.444444444444	0.8	1161.875	1	764.8	13	367367	2	367355	26	39	367393	-999999	367370	0	20	TrialsPROC	PL_009_92037.png	1	2	88	SessionSelectionList														target	2	Place	2-Back	77	80	69	0	0	95	2	39	341604	1	13	59	339565	-1	340838	1	1273	2	2	2039	52	341617	-53	0															6	88												
WM080112	128632_fnca	1	1	1	1390792027	1	75.031	75.031	2.0.10.147	2.0.10.242	2.0.10.242	1.0.0.439	7	234	2	3	Verdana	1	80	0	0	0	WM Stimuli\	0.6	1378.33333333333	0.9	1082.77777777778	0.7	1023.71428571429	1	966.3	0.7	1490.28571428571	0.9	946.444444444444	0.8	1161.875	1	764.8	13	367367	2	367355	26	39	367393	-999999	367370	0	20	TrialsPROC	PL_008_92033.png	1	2	89	SessionSelectionList														nonlure	3	Place	2-Back	78	80	70	0	0	95	1	39	344176	1	13	72	342137	-1	343469	1	1332	3	3	2039	52	344189	-53	0															7	89												
WM080112	128632_fnca	1	1	1	1390792027	1	75.031	75.031	2.0.10.147	2.0.10.242	2.0.10.242	1.0.0.439	7	234	2	3	Verdana	1	80	0	0	0	WM Stimuli\	0.6	1378.33333333333	0.9	1082.77777777778	0.7	1023.71428571429	1	966.3	0.7	1490.28571428571	0.9	946.444444444444	0.8	1161.875	1	764.8	13	367367	2	367355	26	39	367393	-999999	367370	0	20	TrialsPROC	PL_012_92047.png	1	2	90	SessionSelectionList														nonlure	3	Place	2-Back	79	80	71	0	0	95	2	39	346748	2	14	72	344709	-1	345963	1	1254	3	3	2039	53	346762	-54	0															8	90												
WM080112	128632_fnca	1	1	1	1390792027	1	75.031	75.031	2.0.10.147	2.0.10.242	2.0.10.242	1.0.0.439	7	234	2	3	Verdana	1	80	0	0	0	WM Stimuli\	0.6	1378.33333333333	0.9	1082.77777777778	0.7	1023.71428571429	1	966.3	0.7	1490.28571428571	0.9	946.444444444444	0.8	1161.875	1	764.8	13	367367	2	367355	26	39	367393	-999999	367370	0	20	TrialsPROC	PL_012_92047.png	1	2	91	SessionSelectionList														lure	3	Place	2-Back	80	80	72	0	0	95	1	40	349321	1	13	72	347281	-1	348948	0	1667	2	3	2040	53	349334	-54	0															9	91												
WM080112	128632_fnca	1	1	1	1390792027	1	75.031	75.031	2.0.10.147	2.0.10.242	2.0.10.242	1.0.0.439	7	234	2	3	Verdana	1	80	0	0	0	WM Stimuli\	0.6	1378.33333333333	0.9	1082.77777777778	0.7	1023.71428571429	1	966.3	0.7	1490.28571428571	0.9	946.444444444444	0.8	1161.875	1	764.8	13	367367	2	367355	26	39	367393	-999999	367370	0	20	TrialsPROC	PL_011_92044.png	1	2	92	SessionSelectionList														nonlure	3	Place	2-Back	80	80	73	0	0	95	1	39	351893	1	13	73	349854	-1	351555	1	1701	3	3	2039	52	351906	-53	0															10	92												
WM080112	128632_fnca	1	1	1	1390792027	1	75.031	75.031	2.0.10.147	2.0.10.242	2.0.10.242	1.0.0.439	7	234	2	3	Verdana	1	80	0	0	0	WM Stimuli\	0.6	1378.33333333333	0.9	1082.77777777778	0.7	1023.71428571429	1	966.3	0.7	1490.28571428571	0.9	946.444444444444	0.8	1161.875	1	764.8	13	367367	2	367355	26	39	367393	-999999	367370	0	21	Fix15secPROC	""	1	2	93	SessionSelectionList																																															6	352360	-7	0							93												
