ExperimentName	HCPID	RunNumber	Subject	Session	RandomSeed	Group	Laptop.RefreshRate	ScannerD2.RefreshRate	StudioVersion	RuntimeVersion	RuntimeVersionExpected	ExperimentVersion	triggercode	Allowed	Target	Nontarget	FontStyle	RunTrialNumber[Session]	TrialsPerRun[Session]	TotalRespGreater200[Session]	ConsecRTLess200[Session]	ConsecNonResp[Session]	StimuliDir	ACC_2_Back_Body	Avg_RT_For_Correct_Trials_2_Back_Body	ACC_0_Back_Body	Avg_RT_For_Correct_Trials_0_Back_Body	ACC_2_Back_Face	Avg_RT_For_Correct_Trials_2_Back_Face	ACC_0_Back_Face	Avg_RT_For_Correct_Trials_0_Back_Face	ACC_2_Back_Place	Avg_RT_For_Correct_Trials_2_Back_Place	ACC_0_Back_Place	Avg_RT_For_Correct_Trials_0_Back_Place	ACC_2_Back_Tools	Avg_RT_For_Correct_Trials_2_Back_Tools	ACC_0_Back_Tools	Avg_RT_For_Correct_Trials_0_Back_Tools	ExpInstrucFeelFreeToRest.OnsetDelay	ExpInstrucFeelFreeToRest.OnsetTime	ExpInstrucFeelFreeToRest.DurationError	ExpInstrucFeelFreeToRest.StartTime	ExpInstrucFeelFreeToRest.OnsetToOnsetTime	FeelFreeToRest.OnsetDelay	FeelFreeToRest.OnsetTime	FeelFreeToRest.DurationError	FeelFreeToRest.StartTime	FeelFreeToRest.OnsetToOnsetTime	SessionSelectionList	Procedure[Block]	Stimulus[Block]	RunNumberFilterValue	SessionSelectionList.Cycle	SessionSelectionList.Sample	Running[Block]	IntroButtonMap.OnsetDelay	IntroButtonMap.OnsetTime	IntroButtonMap.DurationError	IntroButtonMap.OnsetToOnsetTime	GetReady.OnsetDelay	GetReady.OnsetTime	GetReady.DurationError	GetReady.OnsetToOnsetTime	Cue2Back.OnsetDelay	Cue2Back.OnsetTime	Cue2Back.DurationError	Cue2Back.OnsetToOnsetTime	Run1Block1	TargetType	CorrectResponse	StimType	BlockType	RunTrialNumber[Block]	TrialsPerRun[Block]	TotalRespGreater200[Block]	ConsecRTLess200[Block]	ConsecNonResp[Block]	ControlAcc	ConsecSameResp	ExperimenterWindow.OnsetDelay	ExperimenterWindow.OnsetTime	ExperimenterWindow.DurationError	ExperimenterWindow.OnsetToOnsetTime	Stim.OnsetDelay	Stim.OnsetTime	Stim.DurationError	Stim.RTTime	Stim.ACC	Stim.RT	Stim.RESP	Stim.CRESP	Stim.OnsetToOnsetTime	Fix.OnsetDelay	Fix.OnsetTime	Fix.DurationError	Fix.OnsetToOnsetTime	CueTarget.OnsetDelay	CueTarget.OnsetTime	CueTarget.DurationError	CueTarget.OnsetToOnsetTime	Run1Block2	Fix15sec.OnsetDelay	Fix15sec.OnsetTime	Fix15sec.DurationError	Fix15sec.OnsetToOnsetTime	Run1Block3	Run1Block4	Run1Block5	Run1Block6	Run1Block7	Run1Block8	Block	Procedure[Trial]	Stimulus[Trial]	ReadyList	Running[Trial]	ReadyList.Cycle	ReadyList.Sample	SyncSlide.OnsetDelay	SyncSlide.OnsetTime	SyncSlide.DurationError	SyncSlide.FinishTime	SyncSlide.OnsetToOnsetTime	Trial
WM080112	214423_fnca	2	1	1	1240935856	1	75.031	75.031	2.0.10.147	2.0.10.242	2.0.10.242	1.0.0.439	7	234	2	3	Verdana	1	80	0	0	0	WM Stimuli\	0.7	1132.85714285714	0.5	1378.2	0.9	1232.77777777778	0.7	1085.71428571429	0.9	1076.11111111111	0.7	1104.85714285714	1	957.6	0.5	1241.4	13	320068	2	320056	27	40	320095	-999999	320071	0	22	TRSyncPROC	""	2	2	1	SessionSelectionList	101	7491	-999999	0	28	14875	-999999	0																																																	1	InitialTR	4	1	ReadyList	1	1	15	26510	-16	28494	0	1
WM080112	214423_fnca	2	1	1	1240935856	1	75.031	75.031	2.0.10.147	2.0.10.242	2.0.10.242	1.0.0.439	7	234	2	3	Verdana	1	80	0	0	0	WM Stimuli\	0.7	1132.85714285714	0.5	1378.2	0.9	1232.77777777778	0.7	1085.71428571429	0.9	1076.11111111111	0.7	1104.85714285714	1	957.6	0.5	1241.4	13	320068	2	320056	27	40	320095	-999999	320071	0	22	TRSyncPROC	""	2	2	1	SessionSelectionList	101	7491	-999999	0	28	14875	-999999	0																																																	1	InitialTR	3	2	ReadyList	1	2	14	28509	-15	30494	0	2
WM080112	214423_fnca	2	1	1	1240935856	1	75.031	75.031	2.0.10.147	2.0.10.242	2.0.10.242	1.0.0.439	7	234	2	3	Verdana	1	80	0	0	0	WM Stimuli\	0.7	1132.85714285714	0.5	1378.2	0.9	1232.77777777778	0.7	1085.71428571429	0.9	1076.11111111111	0.7	1104.85714285714	1	957.6	0.5	1241.4	13	320068	2	320056	27	40	320095	-999999	320071	0	22	TRSyncPROC	""	2	2	1	SessionSelectionList	101	7491	-999999	0	28	14875	-999999	0																																																	1	InitialTR	2	3	ReadyList	1	3	13	30508	-14	32494	0	3
WM080112	214423_fnca	2	1	1	1240935856	1	75.031	75.031	2.0.10.147	2.0.10.242	2.0.10.242	1.0.0.439	7	234	2	3	Verdana	1	80	0	0	0	WM Stimuli\	0.7	1132.85714285714	0.5	1378.2	0.9	1232.77777777778	0.7	1085.71428571429	0.9	1076.11111111111	0.7	1104.85714285714	1	957.6	0.5	1241.4	13	320068	2	320056	27	40	320095	-999999	320071	0	22	TRSyncPROC	""	2	2	1	SessionSelectionList	101	7491	-999999	0	28	14875	-999999	0																																																	1	InitialTR	1	4	ReadyList	1	4	12	32507	-13	34494	0	4
WM080112	214423_fnca	2	1	1	1240935856	1	75.031	75.031	2.0.10.147	2.0.10.242	2.0.10.242	1.0.0.439	7	234	2	3	Verdana	1	80	0	0	0	WM Stimuli\	0.7	1132.85714285714	0.5	1378.2	0.9	1232.77777777778	0.7	1085.71428571429	0.9	1076.11111111111	0.7	1104.85714285714	1	957.6	0.5	1241.4	13	320068	2	320056	27	40	320095	-999999	320071	0	23	Cue2BackPROC	""	2	2	2	SessionSelectionList									11	34506	-12	0																																													2												
WM080112	214423_fnca	2	1	1	1240935856	1	75.031	75.031	2.0.10.147	2.0.10.242	2.0.10.242	1.0.0.439	7	234	2	3	Verdana	1	80	0	0	0	WM Stimuli\	0.7	1132.85714285714	0.5	1378.2	0.9	1232.77777777778	0.7	1085.71428571429	0.9	1076.11111111111	0.7	1104.85714285714	1	957.6	0.5	1241.4	13	320068	2	320056	27	40	320095	-999999	320071	0	24	TrialsPROC	TO_014_TOOL14_BA.png	2	2	3	SessionSelectionList														nonlure	3	Tools	2-Back	2	80	1	0	0	0	1	53	39131	3	14	83	37078	-1	38034	1	956	3	3	2053	67	39145	-68	0																3												
WM080112	214423_fnca	2	1	1	1240935856	1	75.031	75.031	2.0.10.147	2.0.10.242	2.0.10.242	1.0.0.439	7	234	2	3	Verdana	1	80	0	0	0	WM Stimuli\	0.7	1132.85714285714	0.5	1378.2	0.9	1232.77777777778	0.7	1085.71428571429	0.9	1076.11111111111	0.7	1104.85714285714	1	957.6	0.5	1241.4	13	320068	2	320056	27	40	320095	-999999	320071	0	24	TrialsPROC	TO_013_TOOL13_BA.png	2	2	4	SessionSelectionList														nonlure	3	Tools	2-Back	3	80	2	0	0	0	2	40	41677	2	13	59	39637	-1	40525	1	888	3	3	2040	53	41690	-54	0																4												
WM080112	214423_fnca	2	1	1	1240935856	1	75.031	75.031	2.0.10.147	2.0.10.242	2.0.10.242	1.0.0.439	7	234	2	3	Verdana	1	80	0	0	0	WM Stimuli\	0.7	1132.85714285714	0.5	1378.2	0.9	1232.77777777778	0.7	1085.71428571429	0.9	1076.11111111111	0.7	1104.85714285714	1	957.6	0.5	1241.4	13	320068	2	320056	27	40	320095	-999999	320071	0	24	TrialsPROC	TO_016_TOOL16_BA.png	2	2	5	SessionSelectionList														nonlure	3	Tools	2-Back	4	80	3	0	0	0	3	39	44236	1	13	60	42197	-1	43197	1	1000	3	3	2039	52	44249	-53	0																5												
WM080112	214423_fnca	2	1	1	1240935856	1	75.031	75.031	2.0.10.147	2.0.10.242	2.0.10.242	1.0.0.439	7	234	2	3	Verdana	1	80	0	0	0	WM Stimuli\	0.7	1132.85714285714	0.5	1378.2	0.9	1232.77777777778	0.7	1085.71428571429	0.9	1076.11111111111	0.7	1104.85714285714	1	957.6	0.5	1241.4	13	320068	2	320056	27	40	320095	-999999	320071	0	24	TrialsPROC	TO_014_TOOL14_BA.png	2	2	6	SessionSelectionList														lure	3	Tools	2-Back	5	80	4	0	0	0	4	39	46808	1	14	72	44769	-1	46102	1	1333	3	3	2039	53	46822	-54	0																6												
WM080112	214423_fnca	2	1	1	1240935856	1	75.031	75.031	2.0.10.147	2.0.10.242	2.0.10.242	1.0.0.439	7	234	2	3	Verdana	1	80	0	0	0	WM Stimuli\	0.7	1132.85714285714	0.5	1378.2	0.9	1232.77777777778	0.7	1085.71428571429	0.9	1076.11111111111	0.7	1104.85714285714	1	957.6	0.5	1241.4	13	320068	2	320056	27	40	320095	-999999	320071	0	24	TrialsPROC	TO_016_TOOL16_BA.png	2	2	7	SessionSelectionList														target	2	Tools	2-Back	6	80	5	0	0	0	1	39	49367	1	13	59	47328	-1	48283	1	955	2	2	2039	52	49380	-53	0																7												
WM080112	214423_fnca	2	1	1	1240935856	1	75.031	75.031	2.0.10.147	2.0.10.242	2.0.10.242	1.0.0.439	7	234	2	3	Verdana	1	80	0	0	0	WM Stimuli\	0.7	1132.85714285714	0.5	1378.2	0.9	1232.77777777778	0.7	1085.71428571429	0.9	1076.11111111111	0.7	1104.85714285714	1	957.6	0.5	1241.4	13	320068	2	320056	27	40	320095	-999999	320071	0	24	TrialsPROC	TO_018_TOOL18_BA.png	2	2	8	SessionSelectionList														nonlure	3	Tools	2-Back	7	80	6	0	0	0	1	39	51926	1	13	59	49887	-1	50768	1	881	3	3	2039	52	51939	-53	0																8												
WM080112	214423_fnca	2	1	1	1240935856	1	75.031	75.031	2.0.10.147	2.0.10.242	2.0.10.242	1.0.0.439	7	234	2	3	Verdana	1	80	0	0	0	WM Stimuli\	0.7	1132.85714285714	0.5	1378.2	0.9	1232.77777777778	0.7	1085.71428571429	0.9	1076.11111111111	0.7	1104.85714285714	1	957.6	0.5	1241.4	13	320068	2	320056	27	40	320095	-999999	320071	0	24	TrialsPROC	TO_017_TOOL17_BA.png	2	2	9	SessionSelectionList														nonlure	3	Tools	2-Back	8	80	7	0	0	0	2	40	54485	1	13	58	52445	-1	53361	1	916	3	3	2040	53	54498	-54	0																9												
WM080112	214423_fnca	2	1	1	1240935856	1	75.031	75.031	2.0.10.147	2.0.10.242	2.0.10.242	1.0.0.439	7	234	2	3	Verdana	1	80	0	0	0	WM Stimuli\	0.7	1132.85714285714	0.5	1378.2	0.9	1232.77777777778	0.7	1085.71428571429	0.9	1076.11111111111	0.7	1104.85714285714	1	957.6	0.5	1241.4	13	320068	2	320056	27	40	320095	-999999	320071	0	24	TrialsPROC	TO_018_TOOL18_BA.png	2	2	10	SessionSelectionList														target	2	Tools	2-Back	9	80	8	0	0	0	1	40	57044	2	13	59	55004	-1	55786	1	782	2	2	2040	53	57057	-54	0																10												
WM080112	214423_fnca	2	1	1	1240935856	1	75.031	75.031	2.0.10.147	2.0.10.242	2.0.10.242	1.0.0.439	7	234	2	3	Verdana	1	80	0	0	0	WM Stimuli\	0.7	1132.85714285714	0.5	1378.2	0.9	1232.77777777778	0.7	1085.71428571429	0.9	1076.11111111111	0.7	1104.85714285714	1	957.6	0.5	1241.4	13	320068	2	320056	27	40	320095	-999999	320071	0	24	TrialsPROC	TO_015_TOOL15_BA.png	2	2	11	SessionSelectionList														nonlure	3	Tools	2-Back	10	80	9	0	0	0	1	40	59603	1	13	59	57563	-1	58371	1	808	3	3	2040	53	59616	-54	0																11												
WM080112	214423_fnca	2	1	1	1240935856	1	75.031	75.031	2.0.10.147	2.0.10.242	2.0.10.242	1.0.0.439	7	234	2	3	Verdana	1	80	0	0	0	WM Stimuli\	0.7	1132.85714285714	0.5	1378.2	0.9	1232.77777777778	0.7	1085.71428571429	0.9	1076.11111111111	0.7	1104.85714285714	1	957.6	0.5	1241.4	13	320068	2	320056	27	40	320095	-999999	320071	0	24	TrialsPROC	TO_017_TOOL17_BA.png	2	2	12	SessionSelectionList														lure	3	Tools	2-Back	11	80	10	0	0	0	2	39	62161	2	14	59	60122	-1	61179	1	1057	3	3	2039	53	62175	-54	0																12												
WM080112	214423_fnca	2	1	1	1240935856	1	75.031	75.031	2.0.10.147	2.0.10.242	2.0.10.242	1.0.0.439	7	234	2	3	Verdana	1	80	0	0	0	WM Stimuli\	0.7	1132.85714285714	0.5	1378.2	0.9	1232.77777777778	0.7	1085.71428571429	0.9	1076.11111111111	0.7	1104.85714285714	1	957.6	0.5	1241.4	13	320068	2	320056	27	40	320095	-999999	320071	0	25	Cue0BackPROC	BP_013_BP7_BA.png	2	2	13	SessionSelectionList																																										19	62641	-20	0												13												
WM080112	214423_fnca	2	1	1	1240935856	1	75.031	75.031	2.0.10.147	2.0.10.242	2.0.10.242	1.0.0.439	7	234	2	3	Verdana	1	80	0	0	0	WM Stimuli\	0.7	1132.85714285714	0.5	1378.2	0.9	1232.77777777778	0.7	1085.71428571429	0.9	1076.11111111111	0.7	1104.85714285714	1	957.6	0.5	1241.4	13	320068	2	320056	27	40	320095	-999999	320071	0	26	TrialsPROC	BP_015_H10-T_BA.png	2	2	14	SessionSelectionList														nonlure	3	Body	0-Back	12	80	11	0	0	100	3	39	67213	1	13	52	65174	-1	66383	1	1209	3	3	2039	52	67226	-53	0																14												
WM080112	214423_fnca	2	1	1	1240935856	1	75.031	75.031	2.0.10.147	2.0.10.242	2.0.10.242	1.0.0.439	7	234	2	3	Verdana	1	80	0	0	0	WM Stimuli\	0.7	1132.85714285714	0.5	1378.2	0.9	1232.77777777778	0.7	1085.71428571429	0.9	1076.11111111111	0.7	1104.85714285714	1	957.6	0.5	1241.4	13	320068	2	320056	27	40	320095	-999999	320071	0	26	TrialsPROC	BP_018_H13-T_BA.png	2	2	15	SessionSelectionList														nonlure	3	Body	0-Back	13	80	12	0	0	50	1	39	69785	1	14	72	67746	-1	68546	0	800	2	3	2039	53	69799	-54	0																15												
WM080112	214423_fnca	2	1	1	1240935856	1	75.031	75.031	2.0.10.147	2.0.10.242	2.0.10.242	1.0.0.439	7	234	2	3	Verdana	1	80	0	0	0	WM Stimuli\	0.7	1132.85714285714	0.5	1378.2	0.9	1232.77777777778	0.7	1085.71428571429	0.9	1076.11111111111	0.7	1104.85714285714	1	957.6	0.5	1241.4	13	320068	2	320056	27	40	320095	-999999	320071	0	26	TrialsPROC	BP_014_BP9_BA.png	2	2	16	SessionSelectionList														nonlure	3	Body	0-Back	14	80	13	0	0	67	1	39	72344	2	14	59	70305	-1	71587	1	1282	3	3	2039	53	72358	-54	0																16												
WM080112	214423_fnca	2	1	1	1240935856	1	75.031	75.031	2.0.10.147	2.0.10.242	2.0.10.242	1.0.0.439	7	234	2	3	Verdana	1	80	0	0	0	WM Stimuli\	0.7	1132.85714285714	0.5	1378.2	0.9	1232.77777777778	0.7	1085.71428571429	0.9	1076.11111111111	0.7	1104.85714285714	1	957.6	0.5	1241.4	13	320068	2	320056	27	40	320095	-999999	320071	0	26	TrialsPROC	BP_018_H13-T_BA.png	2	2	17	SessionSelectionList														lure	3	Body	0-Back	15	80	14	0	0	50	1	39	74903	1	14	59	72864	-1	74166	0	1302	2	3	2039	53	74917	-54	0																17												
WM080112	214423_fnca	2	1	1	1240935856	1	75.031	75.031	2.0.10.147	2.0.10.242	2.0.10.242	1.0.0.439	7	234	2	3	Verdana	1	80	0	0	0	WM Stimuli\	0.7	1132.85714285714	0.5	1378.2	0.9	1232.77777777778	0.7	1085.71428571429	0.9	1076.11111111111	0.7	1104.85714285714	1	957.6	0.5	1241.4	13	320068	2	320056	27	40	320095	-999999	320071	0	26	TrialsPROC	BP_013_BP7_BA.png	2	2	18	SessionSelectionList														target	2	Body	0-Back	16	80	15	0	0	40	1	39	77462	1	14	59	75423	-1	76641	0	1218	3	2	2039	53	77476	-54	0																18												
WM080112	214423_fnca	2	1	1	1240935856	1	75.031	75.031	2.0.10.147	2.0.10.242	2.0.10.242	1.0.0.439	7	234	2	3	Verdana	1	80	0	0	0	WM Stimuli\	0.7	1132.85714285714	0.5	1378.2	0.9	1232.77777777778	0.7	1085.71428571429	0.9	1076.11111111111	0.7	1104.85714285714	1	957.6	0.5	1241.4	13	320068	2	320056	27	40	320095	-999999	320071	0	26	TrialsPROC	BP_015_H10-T_BA.png	2	2	19	SessionSelectionList														lure	3	Body	0-Back	17	80	16	0	0	33	1	39	80021	1	13	59	77982	-1	79408	0	1426	2	3	2039	52	80034	-53	0																19												
WM080112	214423_fnca	2	1	1	1240935856	1	75.031	75.031	2.0.10.147	2.0.10.242	2.0.10.242	1.0.0.439	7	234	2	3	Verdana	1	80	0	0	0	WM Stimuli\	0.7	1132.85714285714	0.5	1378.2	0.9	1232.77777777778	0.7	1085.71428571429	0.9	1076.11111111111	0.7	1104.85714285714	1	957.6	0.5	1241.4	13	320068	2	320056	27	40	320095	-999999	320071	0	26	TrialsPROC	BP_016_H11-T_BA.png	2	2	20	SessionSelectionList														nonlure	3	Body	0-Back	18	80	17	0	0	43	1	39	82593	1	14	72	80554	-1	81942	1	1388	3	3	2039	53	82607	-54	0																20												
WM080112	214423_fnca	2	1	1	1240935856	1	75.031	75.031	2.0.10.147	2.0.10.242	2.0.10.242	1.0.0.439	7	234	2	3	Verdana	1	80	0	0	0	WM Stimuli\	0.7	1132.85714285714	0.5	1378.2	0.9	1232.77777777778	0.7	1085.71428571429	0.9	1076.11111111111	0.7	1104.85714285714	1	957.6	0.5	1241.4	13	320068	2	320056	27	40	320095	-999999	320071	0	26	TrialsPROC	BP_013_BP7_BA.png	2	2	21	SessionSelectionList														target	2	Body	0-Back	19	80	18	0	0	38	2	39	85152	1	14	59	83113	-1	84723	0	1610	3	2	2039	53	85166	-54	0																21												
WM080112	214423_fnca	2	1	1	1240935856	1	75.031	75.031	2.0.10.147	2.0.10.242	2.0.10.242	1.0.0.439	7	234	2	3	Verdana	1	80	0	0	0	WM Stimuli\	0.7	1132.85714285714	0.5	1378.2	0.9	1232.77777777778	0.7	1085.71428571429	0.9	1076.11111111111	0.7	1104.85714285714	1	957.6	0.5	1241.4	13	320068	2	320056	27	40	320095	-999999	320071	0	26	TrialsPROC	BP_017_H12-T_BA.png	2	2	22	SessionSelectionList														nonlure	3	Body	0-Back	20	80	19	0	0	44	3	39	87711	1	14	59	85672	-1	87108	1	1436	3	3	2039	53	87725	-54	0																22												
WM080112	214423_fnca	2	1	1	1240935856	1	75.031	75.031	2.0.10.147	2.0.10.242	2.0.10.242	1.0.0.439	7	234	2	3	Verdana	1	80	0	0	0	WM Stimuli\	0.7	1132.85714285714	0.5	1378.2	0.9	1232.77777777778	0.7	1085.71428571429	0.9	1076.11111111111	0.7	1104.85714285714	1	957.6	0.5	1241.4	13	320068	2	320056	27	40	320095	-999999	320071	0	26	TrialsPROC	BP_014_BP9_BA.png	2	2	23	SessionSelectionList														lure	3	Body	0-Back	21	80	20	0	0	50	4	39	90270	1	14	59	88231	-1	89807	1	1576	3	3	2039	53	90284	-54	0																23												
WM080112	214423_fnca	2	1	1	1240935856	1	75.031	75.031	2.0.10.147	2.0.10.242	2.0.10.242	1.0.0.439	7	234	2	3	Verdana	1	80	0	0	0	WM Stimuli\	0.7	1132.85714285714	0.5	1378.2	0.9	1232.77777777778	0.7	1085.71428571429	0.9	1076.11111111111	0.7	1104.85714285714	1	957.6	0.5	1241.4	13	320068	2	320056	27	40	320095	-999999	320071	0	27	Fix15secPROC	""	2	2	24	SessionSelectionList																																															6	90737	-7	0							24												
WM080112	214423_fnca	2	1	1	1240935856	1	75.031	75.031	2.0.10.147	2.0.10.242	2.0.10.242	1.0.0.439	7	234	2	3	Verdana	1	80	0	0	0	WM Stimuli\	0.7	1132.85714285714	0.5	1378.2	0.9	1232.77777777778	0.7	1085.71428571429	0.9	1076.11111111111	0.7	1104.85714285714	1	957.6	0.5	1241.4	13	320068	2	320056	27	40	320095	-999999	320071	0	28	Cue2BackPROC	""	2	2	25	SessionSelectionList									12	105743	-13	0																																													25												
WM080112	214423_fnca	2	1	1	1240935856	1	75.031	75.031	2.0.10.147	2.0.10.242	2.0.10.242	1.0.0.439	7	234	2	3	Verdana	1	80	0	0	0	WM Stimuli\	0.7	1132.85714285714	0.5	1378.2	0.9	1232.77777777778	0.7	1085.71428571429	0.9	1076.11111111111	0.7	1104.85714285714	1	957.6	0.5	1241.4	13	320068	2	320056	27	40	320095	-999999	320071	0	29	TrialsPROC	FC_015_M8.png	2	2	26	SessionSelectionList														nonlure	3	Face	2-Back	22	80	21	0	0	50	5	40	110342	1	13	71	108302	-1	109757	1	1455	3	3	2040	53	110355	-54	0																26												
WM080112	214423_fnca	2	1	1	1240935856	1	75.031	75.031	2.0.10.147	2.0.10.242	2.0.10.242	1.0.0.439	7	234	2	3	Verdana	1	80	0	0	0	WM Stimuli\	0.7	1132.85714285714	0.5	1378.2	0.9	1232.77777777778	0.7	1085.71428571429	0.9	1076.11111111111	0.7	1104.85714285714	1	957.6	0.5	1241.4	13	320068	2	320056	27	40	320095	-999999	320071	0	29	TrialsPROC	FC_018_F9.png	2	2	27	SessionSelectionList														nonlure	3	Face	2-Back	23	80	22	0	0	50	6	39	112914	1	14	73	110875	-1	111920	1	1045	3	3	2039	53	112928	-54	0																27												
WM080112	214423_fnca	2	1	1	1240935856	1	75.031	75.031	2.0.10.147	2.0.10.242	2.0.10.242	1.0.0.439	7	234	2	3	Verdana	1	80	0	0	0	WM Stimuli\	0.7	1132.85714285714	0.5	1378.2	0.9	1232.77777777778	0.7	1085.71428571429	0.9	1076.11111111111	0.7	1104.85714285714	1	957.6	0.5	1241.4	13	320068	2	320056	27	40	320095	-999999	320071	0	29	TrialsPROC	FC_018_F9.png	2	2	28	SessionSelectionList														lure	3	Face	2-Back	24	80	23	0	0	50	7	39	115486	1	14	72	113447	-1	114678	1	1231	3	3	2039	53	115500	-54	0																28												
WM080112	214423_fnca	2	1	1	1240935856	1	75.031	75.031	2.0.10.147	2.0.10.242	2.0.10.242	1.0.0.439	7	234	2	3	Verdana	1	80	0	0	0	WM Stimuli\	0.7	1132.85714285714	0.5	1378.2	0.9	1232.77777777778	0.7	1085.71428571429	0.9	1076.11111111111	0.7	1104.85714285714	1	957.6	0.5	1241.4	13	320068	2	320056	27	40	320095	-999999	320071	0	29	TrialsPROC	FC_017_M9.png	2	2	29	SessionSelectionList														nonlure	3	Face	2-Back	25	80	24	0	0	50	8	39	118058	2	14	72	116019	-1	117054	1	1035	3	3	2039	53	118072	-54	0																29												
WM080112	214423_fnca	2	1	1	1240935856	1	75.031	75.031	2.0.10.147	2.0.10.242	2.0.10.242	1.0.0.439	7	234	2	3	Verdana	1	80	0	0	0	WM Stimuli\	0.7	1132.85714285714	0.5	1378.2	0.9	1232.77777777778	0.7	1085.71428571429	0.9	1076.11111111111	0.7	1104.85714285714	1	957.6	0.5	1241.4	13	320068	2	320056	27	40	320095	-999999	320071	0	29	TrialsPROC	FC_017_M9.png	2	2	30	SessionSelectionList														lure	3	Face	2-Back	26	80	25	0	0	50	9	40	120631	1	13	72	118591	-1	119874	1	1283	3	3	2040	53	120644	-54	0																30												
WM080112	214423_fnca	2	1	1	1240935856	1	75.031	75.031	2.0.10.147	2.0.10.242	2.0.10.242	1.0.0.439	7	234	2	3	Verdana	1	80	0	0	0	WM Stimuli\	0.7	1132.85714285714	0.5	1378.2	0.9	1232.77777777778	0.7	1085.71428571429	0.9	1076.11111111111	0.7	1104.85714285714	1	957.6	0.5	1241.4	13	320068	2	320056	27	40	320095	-999999	320071	0	29	TrialsPROC	FC_016_F8.png	2	2	31	SessionSelectionList														nonlure	3	Face	2-Back	27	80	26	0	0	50	10	39	123203	1	14	73	121164	-1	122379	1	1215	3	3	2039	53	123217	-54	0																31												
WM080112	214423_fnca	2	1	1	1240935856	1	75.031	75.031	2.0.10.147	2.0.10.242	2.0.10.242	1.0.0.439	7	234	2	3	Verdana	1	80	0	0	0	WM Stimuli\	0.7	1132.85714285714	0.5	1378.2	0.9	1232.77777777778	0.7	1085.71428571429	0.9	1076.11111111111	0.7	1104.85714285714	1	957.6	0.5	1241.4	13	320068	2	320056	27	40	320095	-999999	320071	0	29	TrialsPROC	FC_013_M7.png	2	2	32	SessionSelectionList														nonlure	3	Face	2-Back	28	80	27	0	0	50	11	39	125775	2	14	72	123736	-1	125073	1	1337	3	3	2039	53	125789	-54	0																32												
WM080112	214423_fnca	2	1	1	1240935856	1	75.031	75.031	2.0.10.147	2.0.10.242	2.0.10.242	1.0.0.439	7	234	2	3	Verdana	1	80	0	0	0	WM Stimuli\	0.7	1132.85714285714	0.5	1378.2	0.9	1232.77777777778	0.7	1085.71428571429	0.9	1076.11111111111	0.7	1104.85714285714	1	957.6	0.5	1241.4	13	320068	2	320056	27	40	320095	-999999	320071	0	29	TrialsPROC	FC_014_F7.png	2	2	33	SessionSelectionList														nonlure	3	Face	2-Back	29	80	27	0	1	50	11	39	128347	2	14	72	126308	-1	0	0	0	""	3	2039	53	128361	-54	0																33												
WM080112	214423_fnca	2	1	1	1240935856	1	75.031	75.031	2.0.10.147	2.0.10.242	2.0.10.242	1.0.0.439	7	234	2	3	Verdana	1	80	0	0	0	WM Stimuli\	0.7	1132.85714285714	0.5	1378.2	0.9	1232.77777777778	0.7	1085.71428571429	0.9	1076.11111111111	0.7	1104.85714285714	1	957.6	0.5	1241.4	13	320068	2	320056	27	40	320095	-999999	320071	0	29	TrialsPROC	FC_013_M7.png	2	2	34	SessionSelectionList														target	2	Face	2-Back	30	80	28	0	0	50	1	39	130920	1	13	73	128881	-1	130012	1	1131	2	2	2039	52	130933	-53	0																34												
WM080112	214423_fnca	2	1	1	1240935856	1	75.031	75.031	2.0.10.147	2.0.10.242	2.0.10.242	1.0.0.439	7	234	2	3	Verdana	1	80	0	0	0	WM Stimuli\	0.7	1132.85714285714	0.5	1378.2	0.9	1232.77777777778	0.7	1085.71428571429	0.9	1076.11111111111	0.7	1104.85714285714	1	957.6	0.5	1241.4	13	320068	2	320056	27	40	320095	-999999	320071	0	29	TrialsPROC	FC_014_F7.png	2	2	35	SessionSelectionList														target	2	Face	2-Back	31	80	29	0	0	50	2	39	133492	1	14	72	131453	-1	132816	1	1363	2	2	2039	53	133506	-54	0																35												
WM080112	214423_fnca	2	1	1	1240935856	1	75.031	75.031	2.0.10.147	2.0.10.242	2.0.10.242	1.0.0.439	7	234	2	3	Verdana	1	80	0	0	0	WM Stimuli\	0.7	1132.85714285714	0.5	1378.2	0.9	1232.77777777778	0.7	1085.71428571429	0.9	1076.11111111111	0.7	1104.85714285714	1	957.6	0.5	1241.4	13	320068	2	320056	27	40	320095	-999999	320071	0	30	Cue0BackPROC	TO_019_TOOL19_BA.png	2	2	36	SessionSelectionList																																										19	133972	-20	0												36												
WM080112	214423_fnca	2	1	1	1240935856	1	75.031	75.031	2.0.10.147	2.0.10.242	2.0.10.242	1.0.0.439	7	234	2	3	Verdana	1	80	0	0	0	WM Stimuli\	0.7	1132.85714285714	0.5	1378.2	0.9	1232.77777777778	0.7	1085.71428571429	0.9	1076.11111111111	0.7	1104.85714285714	1	957.6	0.5	1241.4	13	320068	2	320056	27	40	320095	-999999	320071	0	31	TrialsPROC	TO_019_TOOL19_BA.png	2	2	37	SessionSelectionList														target	2	Tools	0-Back	32	80	30	0	0	55	3	39	138543	2	14	51	136504	-1	137894	1	1390	2	2	2039	53	138557	-54	0																37												
WM080112	214423_fnca	2	1	1	1240935856	1	75.031	75.031	2.0.10.147	2.0.10.242	2.0.10.242	1.0.0.439	7	234	2	3	Verdana	1	80	0	0	0	WM Stimuli\	0.7	1132.85714285714	0.5	1378.2	0.9	1232.77777777778	0.7	1085.71428571429	0.9	1076.11111111111	0.7	1104.85714285714	1	957.6	0.5	1241.4	13	320068	2	320056	27	40	320095	-999999	320071	0	31	TrialsPROC	TO_024_TOOL24_BA.png	2	2	38	SessionSelectionList														nonlure	3	Tools	0-Back	33	80	31	0	0	58	1	39	141102	2	14	59	139063	-1	140445	1	1382	3	3	2039	53	141116	-54	0																38												
WM080112	214423_fnca	2	1	1	1240935856	1	75.031	75.031	2.0.10.147	2.0.10.242	2.0.10.242	1.0.0.439	7	234	2	3	Verdana	1	80	0	0	0	WM Stimuli\	0.7	1132.85714285714	0.5	1378.2	0.9	1232.77777777778	0.7	1085.71428571429	0.9	1076.11111111111	0.7	1104.85714285714	1	957.6	0.5	1241.4	13	320068	2	320056	27	40	320095	-999999	320071	0	31	TrialsPROC	TO_019_TOOL19_BA.png	2	2	39	SessionSelectionList														target	2	Tools	0-Back	34	80	32	0	0	54	2	39	143661	1	14	59	141622	-1	143116	0	1494	3	2	2039	53	143675	-54	0																39												
WM080112	214423_fnca	2	1	1	1240935856	1	75.031	75.031	2.0.10.147	2.0.10.242	2.0.10.242	1.0.0.439	7	234	2	3	Verdana	1	80	0	0	0	WM Stimuli\	0.7	1132.85714285714	0.5	1378.2	0.9	1232.77777777778	0.7	1085.71428571429	0.9	1076.11111111111	0.7	1104.85714285714	1	957.6	0.5	1241.4	13	320068	2	320056	27	40	320095	-999999	320071	0	31	TrialsPROC	TO_023_TOOL23_BA.png	2	2	40	SessionSelectionList														nonlure	3	Tools	0-Back	35	80	32	0	1	50	2	39	146220	1	14	59	144181	-1	0	0	0	""	3	2039	53	146234	-54	0																40												
WM080112	214423_fnca	2	1	1	1240935856	1	75.031	75.031	2.0.10.147	2.0.10.242	2.0.10.242	1.0.0.439	7	234	2	3	Verdana	1	80	0	0	0	WM Stimuli\	0.7	1132.85714285714	0.5	1378.2	0.9	1232.77777777778	0.7	1085.71428571429	0.9	1076.11111111111	0.7	1104.85714285714	1	957.6	0.5	1241.4	13	320068	2	320056	27	40	320095	-999999	320071	0	31	TrialsPROC	TO_020_TOOL20_BA.png	2	2	41	SessionSelectionList														nonlure	3	Tools	0-Back	36	80	33	0	0	53	1	39	148779	1	14	59	146740	-1	147976	1	1236	3	3	2039	53	148793	-54	0																41												
WM080112	214423_fnca	2	1	1	1240935856	1	75.031	75.031	2.0.10.147	2.0.10.242	2.0.10.242	1.0.0.439	7	234	2	3	Verdana	1	80	0	0	0	WM Stimuli\	0.7	1132.85714285714	0.5	1378.2	0.9	1232.77777777778	0.7	1085.71428571429	0.9	1076.11111111111	0.7	1104.85714285714	1	957.6	0.5	1241.4	13	320068	2	320056	27	40	320095	-999999	320071	0	31	TrialsPROC	TO_020_TOOL20_BA.png	2	2	42	SessionSelectionList														lure	3	Tools	0-Back	37	80	34	0	0	50	1	39	151338	1	14	59	149299	-1	150101	0	802	2	3	2039	53	151352	-54	0																42												
WM080112	214423_fnca	2	1	1	1240935856	1	75.031	75.031	2.0.10.147	2.0.10.242	2.0.10.242	1.0.0.439	7	234	2	3	Verdana	1	80	0	0	0	WM Stimuli\	0.7	1132.85714285714	0.5	1378.2	0.9	1232.77777777778	0.7	1085.71428571429	0.9	1076.11111111111	0.7	1104.85714285714	1	957.6	0.5	1241.4	13	320068	2	320056	27	40	320095	-999999	320071	0	31	TrialsPROC	TO_022_TOOL22_BA.png	2	2	43	SessionSelectionList														nonlure	3	Tools	0-Back	38	80	35	0	0	53	1	39	153897	1	14	59	151858	-1	153363	1	1505	3	3	2039	53	153911	-54	0																43												
WM080112	214423_fnca	2	1	1	1240935856	1	75.031	75.031	2.0.10.147	2.0.10.242	2.0.10.242	1.0.0.439	7	234	2	3	Verdana	1	80	0	0	0	WM Stimuli\	0.7	1132.85714285714	0.5	1378.2	0.9	1232.77777777778	0.7	1085.71428571429	0.9	1076.11111111111	0.7	1104.85714285714	1	957.6	0.5	1241.4	13	320068	2	320056	27	40	320095	-999999	320071	0	31	TrialsPROC	TO_022_TOOL22_BA.png	2	2	44	SessionSelectionList														lure	3	Tools	0-Back	39	80	36	0	0	50	1	39	156456	1	14	59	154417	-1	155183	0	766	2	3	2039	53	156470	-54	0																44												
WM080112	214423_fnca	2	1	1	1240935856	1	75.031	75.031	2.0.10.147	2.0.10.242	2.0.10.242	1.0.0.439	7	234	2	3	Verdana	1	80	0	0	0	WM Stimuli\	0.7	1132.85714285714	0.5	1378.2	0.9	1232.77777777778	0.7	1085.71428571429	0.9	1076.11111111111	0.7	1104.85714285714	1	957.6	0.5	1241.4	13	320068	2	320056	27	40	320095	-999999	320071	0	31	TrialsPROC	TO_021_TOOL21_BA.png	2	2	45	SessionSelectionList														nonlure	3	Tools	0-Back	40	80	37	0	0	53	1	39	159015	1	13	59	156976	-1	157670	1	694	3	3	2039	52	159028	-53	0																45												
WM080112	214423_fnca	2	1	1	1240935856	1	75.031	75.031	2.0.10.147	2.0.10.242	2.0.10.242	1.0.0.439	7	234	2	3	Verdana	1	80	0	0	0	WM Stimuli\	0.7	1132.85714285714	0.5	1378.2	0.9	1232.77777777778	0.7	1085.71428571429	0.9	1076.11111111111	0.7	1104.85714285714	1	957.6	0.5	1241.4	13	320068	2	320056	27	40	320095	-999999	320071	0	31	TrialsPROC	TO_021_TOOL21_BA.png	2	2	46	SessionSelectionList														lure	3	Tools	0-Back	41	80	38	0	0	50	1	39	161574	2	13	59	159535	-1	160392	0	857	2	3	2039	52	161587	-53	0																46												
WM080112	214423_fnca	2	1	1	1240935856	1	75.031	75.031	2.0.10.147	2.0.10.242	2.0.10.242	1.0.0.439	7	234	2	3	Verdana	1	80	0	0	0	WM Stimuli\	0.7	1132.85714285714	0.5	1378.2	0.9	1232.77777777778	0.7	1085.71428571429	0.9	1076.11111111111	0.7	1104.85714285714	1	957.6	0.5	1241.4	13	320068	2	320056	27	40	320095	-999999	320071	0	32	Fix15secPROC	""	2	2	47	SessionSelectionList																																															6	162041	-7	0							47												
WM080112	214423_fnca	2	1	1	1240935856	1	75.031	75.031	2.0.10.147	2.0.10.242	2.0.10.242	1.0.0.439	7	234	2	3	Verdana	1	80	0	0	0	WM Stimuli\	0.7	1132.85714285714	0.5	1378.2	0.9	1232.77777777778	0.7	1085.71428571429	0.9	1076.11111111111	0.7	1104.85714285714	1	957.6	0.5	1241.4	13	320068	2	320056	27	40	320095	-999999	320071	0	33	Cue2BackPROC	""	2	2	48	SessionSelectionList									12	177047	-13	0																																													48												
WM080112	214423_fnca	2	1	1	1240935856	1	75.031	75.031	2.0.10.147	2.0.10.242	2.0.10.242	1.0.0.439	7	234	2	3	Verdana	1	80	0	0	0	WM Stimuli\	0.7	1132.85714285714	0.5	1378.2	0.9	1232.77777777778	0.7	1085.71428571429	0.9	1076.11111111111	0.7	1104.85714285714	1	957.6	0.5	1241.4	13	320068	2	320056	27	40	320095	-999999	320071	0	34	TrialsPROC	BP_020_H17-T_BA.png	2	2	49	SessionSelectionList														nonlure	3	Body	2-Back	42	80	39	0	0	50	1	39	181645	2	14	71	179606	-1	180438	1	832	3	3	2039	53	181659	-54	0																49												
WM080112	214423_fnca	2	1	1	1240935856	1	75.031	75.031	2.0.10.147	2.0.10.242	2.0.10.242	1.0.0.439	7	234	2	3	Verdana	1	80	0	0	0	WM Stimuli\	0.7	1132.85714285714	0.5	1378.2	0.9	1232.77777777778	0.7	1085.71428571429	0.9	1076.11111111111	0.7	1104.85714285714	1	957.6	0.5	1241.4	13	320068	2	320056	27	40	320095	-999999	320071	0	34	TrialsPROC	BP_019_H14-T_BA.png	2	2	50	SessionSelectionList														nonlure	3	Body	2-Back	43	80	40	0	0	50	2	40	184218	1	13	72	182178	-1	183187	1	1009	3	3	2040	53	184231	-54	0																50												
WM080112	214423_fnca	2	1	1	1240935856	1	75.031	75.031	2.0.10.147	2.0.10.242	2.0.10.242	1.0.0.439	7	234	2	3	Verdana	1	80	0	0	0	WM Stimuli\	0.7	1132.85714285714	0.5	1378.2	0.9	1232.77777777778	0.7	1085.71428571429	0.9	1076.11111111111	0.7	1104.85714285714	1	957.6	0.5	1241.4	13	320068	2	320056	27	40	320095	-999999	320071	0	34	TrialsPROC	BP_020_H17-T_BA.png	2	2	51	SessionSelectionList														target	2	Body	2-Back	44	80	41	0	0	50	1	39	186777	1	13	60	184738	-1	185664	1	926	2	2	2039	52	186790	-53	0																51												
WM080112	214423_fnca	2	1	1	1240935856	1	75.031	75.031	2.0.10.147	2.0.10.242	2.0.10.242	1.0.0.439	7	234	2	3	Verdana	1	80	0	0	0	WM Stimuli\	0.7	1132.85714285714	0.5	1378.2	0.9	1232.77777777778	0.7	1085.71428571429	0.9	1076.11111111111	0.7	1104.85714285714	1	957.6	0.5	1241.4	13	320068	2	320056	27	40	320095	-999999	320071	0	34	TrialsPROC	BP_019_H14-T_BA.png	2	2	52	SessionSelectionList														target	2	Body	2-Back	45	80	42	0	0	50	1	39	189336	1	13	59	187297	-1	187986	0	689	3	2	2039	52	189349	-53	0																52												
WM080112	214423_fnca	2	1	1	1240935856	1	75.031	75.031	2.0.10.147	2.0.10.242	2.0.10.242	1.0.0.439	7	234	2	3	Verdana	1	80	0	0	0	WM Stimuli\	0.7	1132.85714285714	0.5	1378.2	0.9	1232.77777777778	0.7	1085.71428571429	0.9	1076.11111111111	0.7	1104.85714285714	1	957.6	0.5	1241.4	13	320068	2	320056	27	40	320095	-999999	320071	0	34	TrialsPROC	BP_024_H3-T_BA.png	2	2	53	SessionSelectionList														nonlure	3	Body	2-Back	46	80	42	0	1	50	1	39	191908	1	14	72	189869	-1	0	0	0	""	3	2039	53	191922	-54	0																53												
WM080112	214423_fnca	2	1	1	1240935856	1	75.031	75.031	2.0.10.147	2.0.10.242	2.0.10.242	1.0.0.439	7	234	2	3	Verdana	1	80	0	0	0	WM Stimuli\	0.7	1132.85714285714	0.5	1378.2	0.9	1232.77777777778	0.7	1085.71428571429	0.9	1076.11111111111	0.7	1104.85714285714	1	957.6	0.5	1241.4	13	320068	2	320056	27	40	320095	-999999	320071	0	34	TrialsPROC	BP_024_H3-T_BA.png	2	2	54	SessionSelectionList														lure	3	Body	2-Back	47	80	43	0	0	50	1	39	194467	1	13	59	192428	-1	193402	0	974	2	3	2039	52	194480	-53	0																54												
WM080112	214423_fnca	2	1	1	1240935856	1	75.031	75.031	2.0.10.147	2.0.10.242	2.0.10.242	1.0.0.439	7	234	2	3	Verdana	1	80	0	0	0	WM Stimuli\	0.7	1132.85714285714	0.5	1378.2	0.9	1232.77777777778	0.7	1085.71428571429	0.9	1076.11111111111	0.7	1104.85714285714	1	957.6	0.5	1241.4	13	320068	2	320056	27	40	320095	-999999	320071	0	34	TrialsPROC	BP_025_H5-T_BA.png	2	2	55	SessionSelectionList														nonlure	3	Body	2-Back	48	80	44	0	0	50	1	39	197026	1	13	59	194987	-1	196379	1	1392	3	3	2039	52	197039	-53	0																55												
WM080112	214423_fnca	2	1	1	1240935856	1	75.031	75.031	2.0.10.147	2.0.10.242	2.0.10.242	1.0.0.439	7	234	2	3	Verdana	1	80	0	0	0	WM Stimuli\	0.7	1132.85714285714	0.5	1378.2	0.9	1232.77777777778	0.7	1085.71428571429	0.9	1076.11111111111	0.7	1104.85714285714	1	957.6	0.5	1241.4	13	320068	2	320056	27	40	320095	-999999	320071	0	34	TrialsPROC	BP_023_H25-T_BA.png	2	2	56	SessionSelectionList														nonlure	3	Body	2-Back	49	80	45	0	0	50	2	39	199598	1	14	72	197559	-1	198918	1	1359	3	3	2039	53	199612	-54	0																56												
WM080112	214423_fnca	2	1	1	1240935856	1	75.031	75.031	2.0.10.147	2.0.10.242	2.0.10.242	1.0.0.439	7	234	2	3	Verdana	1	80	0	0	0	WM Stimuli\	0.7	1132.85714285714	0.5	1378.2	0.9	1232.77777777778	0.7	1085.71428571429	0.9	1076.11111111111	0.7	1104.85714285714	1	957.6	0.5	1241.4	13	320068	2	320056	27	40	320095	-999999	320071	0	34	TrialsPROC	BP_022_H24-T_BA.png	2	2	57	SessionSelectionList														nonlure	3	Body	2-Back	50	80	46	0	0	50	3	39	202157	1	14	59	200118	-1	201334	1	1216	3	3	2039	53	202171	-54	0																57												
WM080112	214423_fnca	2	1	1	1240935856	1	75.031	75.031	2.0.10.147	2.0.10.242	2.0.10.242	1.0.0.439	7	234	2	3	Verdana	1	80	0	0	0	WM Stimuli\	0.7	1132.85714285714	0.5	1378.2	0.9	1232.77777777778	0.7	1085.71428571429	0.9	1076.11111111111	0.7	1104.85714285714	1	957.6	0.5	1241.4	13	320068	2	320056	27	40	320095	-999999	320071	0	34	TrialsPROC	BP_022_H24-T_BA.png	2	2	58	SessionSelectionList														lure	3	Body	2-Back	51	80	47	0	0	50	4	39	204716	1	14	59	202677	-1	203873	1	1196	3	3	2039	53	204730	-54	0																58												
WM080112	214423_fnca	2	1	1	1240935856	1	75.031	75.031	2.0.10.147	2.0.10.242	2.0.10.242	1.0.0.439	7	234	2	3	Verdana	1	80	0	0	0	WM Stimuli\	0.7	1132.85714285714	0.5	1378.2	0.9	1232.77777777778	0.7	1085.71428571429	0.9	1076.11111111111	0.7	1104.85714285714	1	957.6	0.5	1241.4	13	320068	2	320056	27	40	320095	-999999	320071	0	35	Cue2BackPROC	""	2	2	59	SessionSelectionList									5	205182	-6	0																																													59												
WM080112	214423_fnca	2	1	1	1240935856	1	75.031	75.031	2.0.10.147	2.0.10.242	2.0.10.242	1.0.0.439	7	234	2	3	Verdana	1	80	0	0	0	WM Stimuli\	0.7	1132.85714285714	0.5	1378.2	0.9	1232.77777777778	0.7	1085.71428571429	0.9	1076.11111111111	0.7	1104.85714285714	1	957.6	0.5	1241.4	13	320068	2	320056	27	40	320095	-999999	320071	0	36	TrialsPROC	PL_019_SCENE_05.png	2	2	60	SessionSelectionList														nonlure	3	Place	2-Back	52	80	47	0	1	50	4	39	209780	2	14	64	207741	-1	0	0	0	""	3	2039	53	209794	-54	0																60												
WM080112	214423_fnca	2	1	1	1240935856	1	75.031	75.031	2.0.10.147	2.0.10.242	2.0.10.242	1.0.0.439	7	234	2	3	Verdana	1	80	0	0	0	WM Stimuli\	0.7	1132.85714285714	0.5	1378.2	0.9	1232.77777777778	0.7	1085.71428571429	0.9	1076.11111111111	0.7	1104.85714285714	1	957.6	0.5	1241.4	13	320068	2	320056	27	40	320095	-999999	320071	0	36	TrialsPROC	PL_017_SCENE_03.png	2	2	61	SessionSelectionList														nonlure	3	Place	2-Back	53	80	48	0	0	50	1	39	212353	1	13	73	210314	-1	211521	1	1207	3	3	2039	52	212366	-53	0																61												
WM080112	214423_fnca	2	1	1	1240935856	1	75.031	75.031	2.0.10.147	2.0.10.242	2.0.10.242	1.0.0.439	7	234	2	3	Verdana	1	80	0	0	0	WM Stimuli\	0.7	1132.85714285714	0.5	1378.2	0.9	1232.77777777778	0.7	1085.71428571429	0.9	1076.11111111111	0.7	1104.85714285714	1	957.6	0.5	1241.4	13	320068	2	320056	27	40	320095	-999999	320071	0	36	TrialsPROC	PL_017_SCENE_03.png	2	2	62	SessionSelectionList														lure	3	Place	2-Back	54	80	49	0	0	50	2	39	214925	1	14	72	212886	-1	213973	1	1087	3	3	2039	53	214939	-54	0																62												
WM080112	214423_fnca	2	1	1	1240935856	1	75.031	75.031	2.0.10.147	2.0.10.242	2.0.10.242	1.0.0.439	7	234	2	3	Verdana	1	80	0	0	0	WM Stimuli\	0.7	1132.85714285714	0.5	1378.2	0.9	1232.77777777778	0.7	1085.71428571429	0.9	1076.11111111111	0.7	1104.85714285714	1	957.6	0.5	1241.4	13	320068	2	320056	27	40	320095	-999999	320071	0	36	TrialsPROC	PL_016_SCENE_02.png	2	2	63	SessionSelectionList														nonlure	3	Place	2-Back	55	80	50	0	0	50	3	39	217497	2	14	72	215458	-1	216457	1	999	3	3	2039	53	217511	-54	0																63												
WM080112	214423_fnca	2	1	1	1240935856	1	75.031	75.031	2.0.10.147	2.0.10.242	2.0.10.242	1.0.0.439	7	234	2	3	Verdana	1	80	0	0	0	WM Stimuli\	0.7	1132.85714285714	0.5	1378.2	0.9	1232.77777777778	0.7	1085.71428571429	0.9	1076.11111111111	0.7	1104.85714285714	1	957.6	0.5	1241.4	13	320068	2	320056	27	40	320095	-999999	320071	0	36	TrialsPROC	PL_015_SCENE_01.png	2	2	64	SessionSelectionList														nonlure	3	Place	2-Back	56	80	51	0	0	50	4	39	220083	1	14	86	218044	-1	219086	1	1042	3	3	2039	53	220097	-54	0																64												
WM080112	214423_fnca	2	1	1	1240935856	1	75.031	75.031	2.0.10.147	2.0.10.242	2.0.10.242	1.0.0.439	7	234	2	3	Verdana	1	80	0	0	0	WM Stimuli\	0.7	1132.85714285714	0.5	1378.2	0.9	1232.77777777778	0.7	1085.71428571429	0.9	1076.11111111111	0.7	1104.85714285714	1	957.6	0.5	1241.4	13	320068	2	320056	27	40	320095	-999999	320071	0	36	TrialsPROC	PL_016_SCENE_02.png	2	2	65	SessionSelectionList														target	2	Place	2-Back	57	80	52	0	0	50	1	39	222655	2	14	72	220616	-1	221344	1	728	2	2	2039	53	222669	-54	0																65												
WM080112	214423_fnca	2	1	1	1240935856	1	75.031	75.031	2.0.10.147	2.0.10.242	2.0.10.242	1.0.0.439	7	234	2	3	Verdana	1	80	0	0	0	WM Stimuli\	0.7	1132.85714285714	0.5	1378.2	0.9	1232.77777777778	0.7	1085.71428571429	0.9	1076.11111111111	0.7	1104.85714285714	1	957.6	0.5	1241.4	13	320068	2	320056	27	40	320095	-999999	320071	0	36	TrialsPROC	PL_015_SCENE_01.png	2	2	66	SessionSelectionList														target	2	Place	2-Back	58	80	53	0	0	50	2	39	225227	3	14	72	223188	-1	224538	1	1350	2	2	2039	53	225241	-54	0																66												
WM080112	214423_fnca	2	1	1	1240935856	1	75.031	75.031	2.0.10.147	2.0.10.242	2.0.10.242	1.0.0.439	7	234	2	3	Verdana	1	80	0	0	0	WM Stimuli\	0.7	1132.85714285714	0.5	1378.2	0.9	1232.77777777778	0.7	1085.71428571429	0.9	1076.11111111111	0.7	1104.85714285714	1	957.6	0.5	1241.4	13	320068	2	320056	27	40	320095	-999999	320071	0	36	TrialsPROC	PL_020_SCENE_06.png	2	2	67	SessionSelectionList														nonlure	3	Place	2-Back	59	80	54	0	0	50	1	39	227813	1	14	86	225774	-1	226774	1	1000	3	3	2039	53	227827	-54	0																67												
WM080112	214423_fnca	2	1	1	1240935856	1	75.031	75.031	2.0.10.147	2.0.10.242	2.0.10.242	1.0.0.439	7	234	2	3	Verdana	1	80	0	0	0	WM Stimuli\	0.7	1132.85714285714	0.5	1378.2	0.9	1232.77777777778	0.7	1085.71428571429	0.9	1076.11111111111	0.7	1104.85714285714	1	957.6	0.5	1241.4	13	320068	2	320056	27	40	320095	-999999	320071	0	36	TrialsPROC	PL_020_SCENE_06.png	2	2	68	SessionSelectionList														lure	3	Place	2-Back	60	80	55	0	0	50	2	39	230385	2	14	72	228346	-1	229518	1	1172	3	3	2039	53	230399	-54	0																68												
WM080112	214423_fnca	2	1	1	1240935856	1	75.031	75.031	2.0.10.147	2.0.10.242	2.0.10.242	1.0.0.439	7	234	2	3	Verdana	1	80	0	0	0	WM Stimuli\	0.7	1132.85714285714	0.5	1378.2	0.9	1232.77777777778	0.7	1085.71428571429	0.9	1076.11111111111	0.7	1104.85714285714	1	957.6	0.5	1241.4	13	320068	2	320056	27	40	320095	-999999	320071	0	36	TrialsPROC	PL_018_SCENE_04.png	2	2	69	SessionSelectionList														nonlure	3	Place	2-Back	61	80	56	0	0	50	3	39	232971	1	14	86	230932	-1	232032	1	1100	3	3	2039	53	232985	-54	0																69												
WM080112	214423_fnca	2	1	1	1240935856	1	75.031	75.031	2.0.10.147	2.0.10.242	2.0.10.242	1.0.0.439	7	234	2	3	Verdana	1	80	0	0	0	WM Stimuli\	0.7	1132.85714285714	0.5	1378.2	0.9	1232.77777777778	0.7	1085.71428571429	0.9	1076.11111111111	0.7	1104.85714285714	1	957.6	0.5	1241.4	13	320068	2	320056	27	40	320095	-999999	320071	0	37	Fix15secPROC	""	2	2	70	SessionSelectionList																																															6	233438	-7	0							70												
WM080112	214423_fnca	2	1	1	1240935856	1	75.031	75.031	2.0.10.147	2.0.10.242	2.0.10.242	1.0.0.439	7	234	2	3	Verdana	1	80	0	0	0	WM Stimuli\	0.7	1132.85714285714	0.5	1378.2	0.9	1232.77777777778	0.7	1085.71428571429	0.9	1076.11111111111	0.7	1104.85714285714	1	957.6	0.5	1241.4	13	320068	2	320056	27	40	320095	-999999	320071	0	38	Cue0BackPROC	FC_020_F10.png	2	2	71	SessionSelectionList																																										39	248471	-40	0												71												
WM080112	214423_fnca	2	1	1	1240935856	1	75.031	75.031	2.0.10.147	2.0.10.242	2.0.10.242	1.0.0.439	7	234	2	3	Verdana	1	80	0	0	0	WM Stimuli\	0.7	1132.85714285714	0.5	1378.2	0.9	1232.77777777778	0.7	1085.71428571429	0.9	1076.11111111111	0.7	1104.85714285714	1	957.6	0.5	1241.4	13	320068	2	320056	27	40	320095	-999999	320071	0	39	TrialsPROC	FC_024_F12.png	2	2	72	SessionSelectionList														nonlure	3	Face	0-Back	62	80	57	0	0	52	4	39	253069	2	14	98	251030	-1	252197	1	1167	3	3	2039	53	253083	-54	0																72												
WM080112	214423_fnca	2	1	1	1240935856	1	75.031	75.031	2.0.10.147	2.0.10.242	2.0.10.242	1.0.0.439	7	234	2	3	Verdana	1	80	0	0	0	WM Stimuli\	0.7	1132.85714285714	0.5	1378.2	0.9	1232.77777777778	0.7	1085.71428571429	0.9	1076.11111111111	0.7	1104.85714285714	1	957.6	0.5	1241.4	13	320068	2	320056	27	40	320095	-999999	320071	0	39	TrialsPROC	FC_023_M12.png	2	2	73	SessionSelectionList														nonlure	3	Face	0-Back	63	80	58	0	0	55	5	39	255668	1	14	99	253629	-1	254376	1	747	3	3	2039	53	255682	-54	0																73												
WM080112	214423_fnca	2	1	1	1240935856	1	75.031	75.031	2.0.10.147	2.0.10.242	2.0.10.242	1.0.0.439	7	234	2	3	Verdana	1	80	0	0	0	WM Stimuli\	0.7	1132.85714285714	0.5	1378.2	0.9	1232.77777777778	0.7	1085.71428571429	0.9	1076.11111111111	0.7	1104.85714285714	1	957.6	0.5	1241.4	13	320068	2	320056	27	40	320095	-999999	320071	0	39	TrialsPROC	FC_020_F10.png	2	2	74	SessionSelectionList														target	2	Face	0-Back	64	80	59	0	0	52	6	39	258240	2	14	72	256201	-1	257283	0	1082	3	2	2039	53	258254	-54	0																74												
WM080112	214423_fnca	2	1	1	1240935856	1	75.031	75.031	2.0.10.147	2.0.10.242	2.0.10.242	1.0.0.439	7	234	2	3	Verdana	1	80	0	0	0	WM Stimuli\	0.7	1132.85714285714	0.5	1378.2	0.9	1232.77777777778	0.7	1085.71428571429	0.9	1076.11111111111	0.7	1104.85714285714	1	957.6	0.5	1241.4	13	320068	2	320056	27	40	320095	-999999	320071	0	39	TrialsPROC	FC_024_F12.png	2	2	75	SessionSelectionList														lure	3	Face	0-Back	65	80	60	0	0	54	7	40	260813	1	13	72	258773	-1	259856	1	1083	3	3	2040	53	260826	-54	0																75												
WM080112	214423_fnca	2	1	1	1240935856	1	75.031	75.031	2.0.10.147	2.0.10.242	2.0.10.242	1.0.0.439	7	234	2	3	Verdana	1	80	0	0	0	WM Stimuli\	0.7	1132.85714285714	0.5	1378.2	0.9	1232.77777777778	0.7	1085.71428571429	0.9	1076.11111111111	0.7	1104.85714285714	1	957.6	0.5	1241.4	13	320068	2	320056	27	40	320095	-999999	320071	0	39	TrialsPROC	FC_020_F10.png	2	2	76	SessionSelectionList														target	2	Face	0-Back	66	80	61	0	0	52	8	39	263385	1	14	73	261346	-1	263157	0	1811	3	2	2039	53	263399	-54	0																76												
WM080112	214423_fnca	2	1	1	1240935856	1	75.031	75.031	2.0.10.147	2.0.10.242	2.0.10.242	1.0.0.439	7	234	2	3	Verdana	1	80	0	0	0	WM Stimuli\	0.7	1132.85714285714	0.5	1378.2	0.9	1232.77777777778	0.7	1085.71428571429	0.9	1076.11111111111	0.7	1104.85714285714	1	957.6	0.5	1241.4	13	320068	2	320056	27	40	320095	-999999	320071	0	39	TrialsPROC	FC_022_F11.png	2	2	77	SessionSelectionList														nonlure	3	Face	0-Back	67	80	62	0	0	54	9	40	265971	1	13	85	263931	-1	265199	1	1268	3	3	2040	53	265984	-54	0																77												
WM080112	214423_fnca	2	1	1	1240935856	1	75.031	75.031	2.0.10.147	2.0.10.242	2.0.10.242	1.0.0.439	7	234	2	3	Verdana	1	80	0	0	0	WM Stimuli\	0.7	1132.85714285714	0.5	1378.2	0.9	1232.77777777778	0.7	1085.71428571429	0.9	1076.11111111111	0.7	1104.85714285714	1	957.6	0.5	1241.4	13	320068	2	320056	27	40	320095	-999999	320071	0	39	TrialsPROC	FC_023_M12.png	2	2	78	SessionSelectionList														lure	3	Face	0-Back	68	80	63	0	0	56	10	39	268543	1	14	73	266504	-1	267579	1	1075	3	3	2039	53	268557	-54	0																78												
WM080112	214423_fnca	2	1	1	1240935856	1	75.031	75.031	2.0.10.147	2.0.10.242	2.0.10.242	1.0.0.439	7	234	2	3	Verdana	1	80	0	0	0	WM Stimuli\	0.7	1132.85714285714	0.5	1378.2	0.9	1232.77777777778	0.7	1085.71428571429	0.9	1076.11111111111	0.7	1104.85714285714	1	957.6	0.5	1241.4	13	320068	2	320056	27	40	320095	-999999	320071	0	39	TrialsPROC	FC_021_M11.png	2	2	79	SessionSelectionList														nonlure	3	Face	0-Back	69	80	64	0	0	57	11	39	271128	2	14	85	269089	-1	270699	1	1610	3	3	2039	53	271142	-54	0																79												
WM080112	214423_fnca	2	1	1	1240935856	1	75.031	75.031	2.0.10.147	2.0.10.242	2.0.10.242	1.0.0.439	7	234	2	3	Verdana	1	80	0	0	0	WM Stimuli\	0.7	1132.85714285714	0.5	1378.2	0.9	1232.77777777778	0.7	1085.71428571429	0.9	1076.11111111111	0.7	1104.85714285714	1	957.6	0.5	1241.4	13	320068	2	320056	27	40	320095	-999999	320071	0	39	TrialsPROC	FC_021_M11.png	2	2	80	SessionSelectionList														lure	3	Face	0-Back	70	80	65	0	0	55	1	40	273701	1	13	72	271661	-1	272393	0	732	2	3	2040	53	273714	-54	0																80												
WM080112	214423_fnca	2	1	1	1240935856	1	75.031	75.031	2.0.10.147	2.0.10.242	2.0.10.242	1.0.0.439	7	234	2	3	Verdana	1	80	0	0	0	WM Stimuli\	0.7	1132.85714285714	0.5	1378.2	0.9	1232.77777777778	0.7	1085.71428571429	0.9	1076.11111111111	0.7	1104.85714285714	1	957.6	0.5	1241.4	13	320068	2	320056	27	40	320095	-999999	320071	0	39	TrialsPROC	FC_019_M10.png	2	2	81	SessionSelectionList														nonlure	3	Face	0-Back	71	80	66	0	0	57	1	39	276286	2	14	86	274247	-1	274897	1	650	3	3	2039	53	276300	-54	0																81												
WM080112	214423_fnca	2	1	1	1240935856	1	75.031	75.031	2.0.10.147	2.0.10.242	2.0.10.242	1.0.0.439	7	234	2	3	Verdana	1	80	0	0	0	WM Stimuli\	0.7	1132.85714285714	0.5	1378.2	0.9	1232.77777777778	0.7	1085.71428571429	0.9	1076.11111111111	0.7	1104.85714285714	1	957.6	0.5	1241.4	13	320068	2	320056	27	40	320095	-999999	320071	0	40	Cue0BackPROC	PL_021_SCENE_07.png	2	2	82	SessionSelectionList																																										46	276793	-47	0												82												
WM080112	214423_fnca	2	1	1	1240935856	1	75.031	75.031	2.0.10.147	2.0.10.242	2.0.10.242	1.0.0.439	7	234	2	3	Verdana	1	80	0	0	0	WM Stimuli\	0.7	1132.85714285714	0.5	1378.2	0.9	1232.77777777778	0.7	1085.71428571429	0.9	1076.11111111111	0.7	1104.85714285714	1	957.6	0.5	1241.4	13	320068	2	320056	27	40	320095	-999999	320071	0	41	TrialsPROC	PL_025_SCENE_18.png	2	2	83	SessionSelectionList														nonlure	3	Place	0-Back	72	80	67	0	0	58	2	39	281364	2	14	78	279325	-1	280467	1	1142	3	3	2039	53	281378	-54	0																83												
WM080112	214423_fnca	2	1	1	1240935856	1	75.031	75.031	2.0.10.147	2.0.10.242	2.0.10.242	1.0.0.439	7	234	2	3	Verdana	1	80	0	0	0	WM Stimuli\	0.7	1132.85714285714	0.5	1378.2	0.9	1232.77777777778	0.7	1085.71428571429	0.9	1076.11111111111	0.7	1104.85714285714	1	957.6	0.5	1241.4	13	320068	2	320056	27	40	320095	-999999	320071	0	41	TrialsPROC	PL_026_SCENE_24.png	2	2	84	SessionSelectionList														nonlure	3	Place	0-Back	73	80	68	0	0	59	3	39	283950	1	13	86	281911	-1	282818	1	907	3	3	2039	52	283963	-53	0																84												
WM080112	214423_fnca	2	1	1	1240935856	1	75.031	75.031	2.0.10.147	2.0.10.242	2.0.10.242	1.0.0.439	7	234	2	3	Verdana	1	80	0	0	0	WM Stimuli\	0.7	1132.85714285714	0.5	1378.2	0.9	1232.77777777778	0.7	1085.71428571429	0.9	1076.11111111111	0.7	1104.85714285714	1	957.6	0.5	1241.4	13	320068	2	320056	27	40	320095	-999999	320071	0	41	TrialsPROC	PL_025_SCENE_18.png	2	2	85	SessionSelectionList														lure	3	Place	0-Back	74	80	69	0	0	58	1	39	286522	1	14	72	284483	-1	285866	0	1383	2	3	2039	53	286536	-54	0																85												
WM080112	214423_fnca	2	1	1	1240935856	1	75.031	75.031	2.0.10.147	2.0.10.242	2.0.10.242	1.0.0.439	7	234	2	3	Verdana	1	80	0	0	0	WM Stimuli\	0.7	1132.85714285714	0.5	1378.2	0.9	1232.77777777778	0.7	1085.71428571429	0.9	1076.11111111111	0.7	1104.85714285714	1	957.6	0.5	1241.4	13	320068	2	320056	27	40	320095	-999999	320071	0	41	TrialsPROC	PL_022_SCENE_08.png	2	2	86	SessionSelectionList														nonlure	3	Place	0-Back	75	80	70	0	0	59	1	39	289121	1	14	99	287082	-1	289069	1	1987	3	3	2039	53	289135	-54	0																86												
WM080112	214423_fnca	2	1	1	1240935856	1	75.031	75.031	2.0.10.147	2.0.10.242	2.0.10.242	1.0.0.439	7	234	2	3	Verdana	1	80	0	0	0	WM Stimuli\	0.7	1132.85714285714	0.5	1378.2	0.9	1232.77777777778	0.7	1085.71428571429	0.9	1076.11111111111	0.7	1104.85714285714	1	957.6	0.5	1241.4	13	320068	2	320056	27	40	320095	-999999	320071	0	41	TrialsPROC	PL_026_SCENE_24.png	2	2	87	SessionSelectionList														lure	3	Place	0-Back	76	80	70	0	1	57	1	39	291693	2	14	72	289654	-1	0	0	0	""	3	2039	53	291707	-54	0																87												
WM080112	214423_fnca	2	1	1	1240935856	1	75.031	75.031	2.0.10.147	2.0.10.242	2.0.10.242	1.0.0.439	7	234	2	3	Verdana	1	80	0	0	0	WM Stimuli\	0.7	1132.85714285714	0.5	1378.2	0.9	1232.77777777778	0.7	1085.71428571429	0.9	1076.11111111111	0.7	1104.85714285714	1	957.6	0.5	1241.4	13	320068	2	320056	27	40	320095	-999999	320071	0	41	TrialsPROC	PL_021_SCENE_07.png	2	2	88	SessionSelectionList														target	2	Place	0-Back	77	80	71	0	0	56	1	39	294265	2	14	72	292226	-1	293891	0	1665	3	2	2039	53	294279	-54	0																88												
WM080112	214423_fnca	2	1	1	1240935856	1	75.031	75.031	2.0.10.147	2.0.10.242	2.0.10.242	1.0.0.439	7	234	2	3	Verdana	1	80	0	0	0	WM Stimuli\	0.7	1132.85714285714	0.5	1378.2	0.9	1232.77777777778	0.7	1085.71428571429	0.9	1076.11111111111	0.7	1104.85714285714	1	957.6	0.5	1241.4	13	320068	2	320056	27	40	320095	-999999	320071	0	41	TrialsPROC	PL_021_SCENE_07.png	2	2	89	SessionSelectionList														target	2	Place	0-Back	78	80	72	0	0	57	1	39	296838	1	13	73	294799	-1	295437	1	638	2	2	2039	52	296851	-53	0																89												
WM080112	214423_fnca	2	1	1	1240935856	1	75.031	75.031	2.0.10.147	2.0.10.242	2.0.10.242	1.0.0.439	7	234	2	3	Verdana	1	80	0	0	0	WM Stimuli\	0.7	1132.85714285714	0.5	1378.2	0.9	1232.77777777778	0.7	1085.71428571429	0.9	1076.11111111111	0.7	1104.85714285714	1	957.6	0.5	1241.4	13	320068	2	320056	27	40	320095	-999999	320071	0	41	TrialsPROC	PL_023_SCENE_09.png	2	2	90	SessionSelectionList														nonlure	3	Place	0-Back	79	80	73	0	0	58	1	39	299423	2	14	85	297384	-1	298295	1	911	3	3	2039	53	299437	-54	0																90												
WM080112	214423_fnca	2	1	1	1240935856	1	75.031	75.031	2.0.10.147	2.0.10.242	2.0.10.242	1.0.0.439	7	234	2	3	Verdana	1	80	0	0	0	WM Stimuli\	0.7	1132.85714285714	0.5	1378.2	0.9	1232.77777777778	0.7	1085.71428571429	0.9	1076.11111111111	0.7	1104.85714285714	1	957.6	0.5	1241.4	13	320068	2	320056	27	40	320095	-999999	320071	0	41	TrialsPROC	PL_024_SCENE_10.png	2	2	91	SessionSelectionList														nonlure	3	Place	0-Back	80	80	74	0	0	59	2	39	302022	2	14	99	299983	-1	300844	1	861	3	3	2039	53	302036	-54	0																91												
WM080112	214423_fnca	2	1	1	1240935856	1	75.031	75.031	2.0.10.147	2.0.10.242	2.0.10.242	1.0.0.439	7	234	2	3	Verdana	1	80	0	0	0	WM Stimuli\	0.7	1132.85714285714	0.5	1378.2	0.9	1232.77777777778	0.7	1085.71428571429	0.9	1076.11111111111	0.7	1104.85714285714	1	957.6	0.5	1241.4	13	320068	2	320056	27	40	320095	-999999	320071	0	41	TrialsPROC	PL_022_SCENE_08.png	2	2	92	SessionSelectionList														lure	3	Place	0-Back	80	80	75	0	0	60	3	40	304595	1	13	72	302555	-1	303843	1	1288	3	3	2040	53	304608	-54	0																92												
WM080112	214423_fnca	2	1	1	1240935856	1	75.031	75.031	2.0.10.147	2.0.10.242	2.0.10.242	1.0.0.439	7	234	2	3	Verdana	1	80	0	0	0	WM Stimuli\	0.7	1132.85714285714	0.5	1378.2	0.9	1232.77777777778	0.7	1085.71428571429	0.9	1076.11111111111	0.7	1104.85714285714	1	957.6	0.5	1241.4	13	320068	2	320056	27	40	320095	-999999	320071	0	42	Fix15secPROC	""	2	2	93	SessionSelectionList																																															6	305061	-7	0							93												
