ExperimentName	HCPID	RunNumber	Subject	Session	RandomSeed	Group	Laptop.RefreshRate	ScannerD2.RefreshRate	StudioVersion	RuntimeVersion	RuntimeVersionExpected	ExperimentVersion	triggercode	Allowed	Target	Nontarget	FontStyle	RunTrialNumber[Session]	TrialsPerRun[Session]	TotalRespGreater200[Session]	ConsecRTLess200[Session]	ConsecNonResp[Session]	StimuliDir	ACC_2_Back_Body	Avg_RT_For_Correct_Trials_2_Back_Body	ACC_0_Back_Body	Avg_RT_For_Correct_Trials_0_Back_Body	ACC_2_Back_Face	Avg_RT_For_Correct_Trials_2_Back_Face	ACC_0_Back_Face	Avg_RT_For_Correct_Trials_0_Back_Face	ACC_2_Back_Place	Avg_RT_For_Correct_Trials_2_Back_Place	ACC_0_Back_Place	Avg_RT_For_Correct_Trials_0_Back_Place	ACC_2_Back_Tools	Avg_RT_For_Correct_Trials_2_Back_Tools	ACC_0_Back_Tools	Avg_RT_For_Correct_Trials_0_Back_Tools	ExpInstrucFeelFreeToRest.OnsetDelay	ExpInstrucFeelFreeToRest.OnsetTime	ExpInstrucFeelFreeToRest.DurationError	ExpInstrucFeelFreeToRest.StartTime	ExpInstrucFeelFreeToRest.OnsetToOnsetTime	FeelFreeToRest.OnsetDelay	FeelFreeToRest.OnsetTime	FeelFreeToRest.DurationError	FeelFreeToRest.StartTime	FeelFreeToRest.OnsetToOnsetTime	SessionSelectionList	Procedure[Block]	Stimulus[Block]	RunNumberFilterValue	SessionSelectionList.Cycle	SessionSelectionList.Sample	Running[Block]	IntroButtonMap.OnsetDelay	IntroButtonMap.OnsetTime	IntroButtonMap.DurationError	IntroButtonMap.OnsetToOnsetTime	GetReady.OnsetDelay	GetReady.OnsetTime	GetReady.DurationError	GetReady.OnsetToOnsetTime	Cue2Back.OnsetDelay	Cue2Back.OnsetTime	Cue2Back.DurationError	Cue2Back.OnsetToOnsetTime	Run1Block1	TargetType	CorrectResponse	StimType	BlockType	RunTrialNumber[Block]	TrialsPerRun[Block]	TotalRespGreater200[Block]	ConsecRTLess200[Block]	ConsecNonResp[Block]	ControlAcc	ConsecSameResp	ExperimenterWindow.OnsetDelay	ExperimenterWindow.OnsetTime	ExperimenterWindow.DurationError	ExperimenterWindow.OnsetToOnsetTime	Stim.OnsetDelay	Stim.OnsetTime	Stim.DurationError	Stim.RTTime	Stim.ACC	Stim.RT	Stim.RESP	Stim.CRESP	Stim.OnsetToOnsetTime	Fix.OnsetDelay	Fix.OnsetTime	Fix.DurationError	Fix.OnsetToOnsetTime	CueTarget.OnsetDelay	CueTarget.OnsetTime	CueTarget.DurationError	CueTarget.OnsetToOnsetTime	Run1Block2	Fix15sec.OnsetDelay	Fix15sec.OnsetTime	Fix15sec.DurationError	Fix15sec.OnsetToOnsetTime	Run1Block3	Run1Block4	Run1Block5	Run1Block6	Run1Block7	Run1Block8	Block	Procedure[Trial]	Stimulus[Trial]	ReadyList	Running[Trial]	ReadyList.Cycle	ReadyList.Sample	SyncSlide.OnsetDelay	SyncSlide.OnsetTime	SyncSlide.DurationError	SyncSlide.FinishTime	SyncSlide.OnsetToOnsetTime	Trial
WM080112	211417_fnca	1	1	1	262615213	1	75.030	75.030	2.0.10.147	2.0.10.242	2.0.10.242	1.0.0.439	7	234	2	3	Verdana	1	80	0	0	0	WM Stimuli\	0.7	1016.85714285714	0.9	750.444444444444	0.9	920.333333333333	1	662.9	0.9	937	1	739.5	0.8	990.625	1	689.1	13	537532	3	537520	27	40	537559	-999999	537535	0	1	TRSyncPROC	""	1	2	1	SessionSelectionList	100	28669	-999999	0	40	231202	-999999	0																																																	1	InitialTR	4	1	ReadyList	1	1	19	244290	-20	246270	0	1
WM080112	211417_fnca	1	1	1	262615213	1	75.030	75.030	2.0.10.147	2.0.10.242	2.0.10.242	1.0.0.439	7	234	2	3	Verdana	1	80	0	0	0	WM Stimuli\	0.7	1016.85714285714	0.9	750.444444444444	0.9	920.333333333333	1	662.9	0.9	937	1	739.5	0.8	990.625	1	689.1	13	537532	3	537520	27	40	537559	-999999	537535	0	1	TRSyncPROC	""	1	2	1	SessionSelectionList	100	28669	-999999	0	40	231202	-999999	0																																																	1	InitialTR	3	2	ReadyList	1	2	18	246289	-19	248270	0	2
WM080112	211417_fnca	1	1	1	262615213	1	75.030	75.030	2.0.10.147	2.0.10.242	2.0.10.242	1.0.0.439	7	234	2	3	Verdana	1	80	0	0	0	WM Stimuli\	0.7	1016.85714285714	0.9	750.444444444444	0.9	920.333333333333	1	662.9	0.9	937	1	739.5	0.8	990.625	1	689.1	13	537532	3	537520	27	40	537559	-999999	537535	0	1	TRSyncPROC	""	1	2	1	SessionSelectionList	100	28669	-999999	0	40	231202	-999999	0																																																	1	InitialTR	2	3	ReadyList	1	3	4	248275	-5	250270	0	3
WM080112	211417_fnca	1	1	1	262615213	1	75.030	75.030	2.0.10.147	2.0.10.242	2.0.10.242	1.0.0.439	7	234	2	3	Verdana	1	80	0	0	0	WM Stimuli\	0.7	1016.85714285714	0.9	750.444444444444	0.9	920.333333333333	1	662.9	0.9	937	1	739.5	0.8	990.625	1	689.1	13	537532	3	537520	27	40	537559	-999999	537535	0	1	TRSyncPROC	""	1	2	1	SessionSelectionList	100	28669	-999999	0	40	231202	-999999	0																																																	1	InitialTR	1	4	ReadyList	1	4	16	250287	-17	252270	0	4
WM080112	211417_fnca	1	1	1	262615213	1	75.030	75.030	2.0.10.147	2.0.10.242	2.0.10.242	1.0.0.439	7	234	2	3	Verdana	1	80	0	0	0	WM Stimuli\	0.7	1016.85714285714	0.9	750.444444444444	0.9	920.333333333333	1	662.9	0.9	937	1	739.5	0.8	990.625	1	689.1	13	537532	3	537520	27	40	537559	-999999	537535	0	2	Cue2BackPROC	""	1	2	2	SessionSelectionList									15	252286	-16	0																																													2												
WM080112	211417_fnca	1	1	1	262615213	1	75.030	75.030	2.0.10.147	2.0.10.242	2.0.10.242	1.0.0.439	7	234	2	3	Verdana	1	80	0	0	0	WM Stimuli\	0.7	1016.85714285714	0.9	750.444444444444	0.9	920.333333333333	1	662.9	0.9	937	1	739.5	0.8	990.625	1	689.1	13	537532	3	537520	27	40	537559	-999999	537535	0	3	TrialsPROC	BP_002_BP10_BA.png	1	2	3	SessionSelectionList													1	nonlure	3	Body	2-Back	2	80	0	0	1	0	0	53	256898	3	14	74	254845	-1	0	0	0	""	3	2053	67	256912	-68	0																3												
WM080112	211417_fnca	1	1	1	262615213	1	75.030	75.030	2.0.10.147	2.0.10.242	2.0.10.242	1.0.0.439	7	234	2	3	Verdana	1	80	0	0	0	WM Stimuli\	0.7	1016.85714285714	0.9	750.444444444444	0.9	920.333333333333	1	662.9	0.9	937	1	739.5	0.8	990.625	1	689.1	13	537532	3	537520	27	40	537559	-999999	537535	0	3	TrialsPROC	BP_001_BP1_BA.png	1	2	4	SessionSelectionList													2	nonlure	3	Body	2-Back	3	80	0	0	2	0	0	39	259457	2	14	73	257418	-1	0	0	0	""	3	2039	53	259471	-54	0																4												
WM080112	211417_fnca	1	1	1	262615213	1	75.030	75.030	2.0.10.147	2.0.10.242	2.0.10.242	1.0.0.439	7	234	2	3	Verdana	1	80	0	0	0	WM Stimuli\	0.7	1016.85714285714	0.9	750.444444444444	0.9	920.333333333333	1	662.9	0.9	937	1	739.5	0.8	990.625	1	689.1	13	537532	3	537520	27	40	537559	-999999	537535	0	3	TrialsPROC	BP_006_BP2_BA.png	1	2	5	SessionSelectionList													3	nonlure	3	Body	2-Back	4	80	1	0	0	0	1	39	262016	1	14	59	259977	-1	260940	1	963	3	3	2039	53	262030	-54	0																5												
WM080112	211417_fnca	1	1	1	262615213	1	75.030	75.030	2.0.10.147	2.0.10.242	2.0.10.242	1.0.0.439	7	234	2	3	Verdana	1	80	0	0	0	WM Stimuli\	0.7	1016.85714285714	0.9	750.444444444444	0.9	920.333333333333	1	662.9	0.9	937	1	739.5	0.8	990.625	1	689.1	13	537532	3	537520	27	40	537559	-999999	537535	0	3	TrialsPROC	BP_001_BP1_BA.png	1	2	6	SessionSelectionList													4	target	2	Body	2-Back	5	80	2	0	0	0	1	39	264588	2	14	72	262549	-1	263604	1	1055	2	2	2039	53	264602	-54	0																6												
WM080112	211417_fnca	1	1	1	262615213	1	75.030	75.030	2.0.10.147	2.0.10.242	2.0.10.242	1.0.0.439	7	234	2	3	Verdana	1	80	0	0	0	WM Stimuli\	0.7	1016.85714285714	0.9	750.444444444444	0.9	920.333333333333	1	662.9	0.9	937	1	739.5	0.8	990.625	1	689.1	13	537532	3	537520	27	40	537559	-999999	537535	0	3	TrialsPROC	BP_005_BP19_BA.png	1	2	7	SessionSelectionList													5	nonlure	3	Body	2-Back	6	80	3	0	0	0	1	40	267161	1	13	72	265121	-1	266166	1	1045	3	3	2040	53	267174	-54	0																7												
WM080112	211417_fnca	1	1	1	262615213	1	75.030	75.030	2.0.10.147	2.0.10.242	2.0.10.242	1.0.0.439	7	234	2	3	Verdana	1	80	0	0	0	WM Stimuli\	0.7	1016.85714285714	0.9	750.444444444444	0.9	920.333333333333	1	662.9	0.9	937	1	739.5	0.8	990.625	1	689.1	13	537532	3	537520	27	40	537559	-999999	537535	0	3	TrialsPROC	BP_003_BP16_BA.png	1	2	8	SessionSelectionList													6	nonlure	3	Body	2-Back	7	80	4	0	0	0	2	40	269720	1	13	59	267680	-1	268554	1	874	3	3	2040	53	269733	-54	0																8												
WM080112	211417_fnca	1	1	1	262615213	1	75.030	75.030	2.0.10.147	2.0.10.242	2.0.10.242	1.0.0.439	7	234	2	3	Verdana	1	80	0	0	0	WM Stimuli\	0.7	1016.85714285714	0.9	750.444444444444	0.9	920.333333333333	1	662.9	0.9	937	1	739.5	0.8	990.625	1	689.1	13	537532	3	537520	27	40	537559	-999999	537535	0	3	TrialsPROC	BP_006_BP2_BA.png	1	2	9	SessionSelectionList													7	lure	3	Body	2-Back	8	80	5	0	0	0	3	39	272278	2	14	59	270239	-1	271343	1	1104	3	3	2039	53	272292	-54	0																9												
WM080112	211417_fnca	1	1	1	262615213	1	75.030	75.030	2.0.10.147	2.0.10.242	2.0.10.242	1.0.0.439	7	234	2	3	Verdana	1	80	0	0	0	WM Stimuli\	0.7	1016.85714285714	0.9	750.444444444444	0.9	920.333333333333	1	662.9	0.9	937	1	739.5	0.8	990.625	1	689.1	13	537532	3	537520	27	40	537559	-999999	537535	0	3	TrialsPROC	BP_004_BP18_BA.png	1	2	10	SessionSelectionList													8	nonlure	3	Body	2-Back	9	80	6	0	0	0	4	39	274837	2	14	59	272798	-1	273723	1	925	3	3	2039	53	274851	-54	0																10												
WM080112	211417_fnca	1	1	1	262615213	1	75.030	75.030	2.0.10.147	2.0.10.242	2.0.10.242	1.0.0.439	7	234	2	3	Verdana	1	80	0	0	0	WM Stimuli\	0.7	1016.85714285714	0.9	750.444444444444	0.9	920.333333333333	1	662.9	0.9	937	1	739.5	0.8	990.625	1	689.1	13	537532	3	537520	27	40	537559	-999999	537535	0	3	TrialsPROC	BP_005_BP19_BA.png	1	2	11	SessionSelectionList													9	lure	3	Body	2-Back	10	80	7	0	0	0	1	39	277396	2	14	59	275357	-1	276568	0	1211	2	3	2039	53	277410	-54	0																11												
WM080112	211417_fnca	1	1	1	262615213	1	75.030	75.030	2.0.10.147	2.0.10.242	2.0.10.242	1.0.0.439	7	234	2	3	Verdana	1	80	0	0	0	WM Stimuli\	0.7	1016.85714285714	0.9	750.444444444444	0.9	920.333333333333	1	662.9	0.9	937	1	739.5	0.8	990.625	1	689.1	13	537532	3	537520	27	40	537559	-999999	537535	0	3	TrialsPROC	BP_004_BP18_BA.png	1	2	12	SessionSelectionList													10	target	2	Body	2-Back	11	80	8	0	0	0	2	39	279955	2	14	59	277916	-1	279068	1	1152	2	2	2039	53	279969	-54	0																12												
WM080112	211417_fnca	1	1	1	262615213	1	75.030	75.030	2.0.10.147	2.0.10.242	2.0.10.242	1.0.0.439	7	234	2	3	Verdana	1	80	0	0	0	WM Stimuli\	0.7	1016.85714285714	0.9	750.444444444444	0.9	920.333333333333	1	662.9	0.9	937	1	739.5	0.8	990.625	1	689.1	13	537532	3	537520	27	40	537559	-999999	537535	0	4	Cue0BackPROC	FC_001_M1.png	1	2	13	SessionSelectionList																																										19	280435	-20	0												13												
WM080112	211417_fnca	1	1	1	262615213	1	75.030	75.030	2.0.10.147	2.0.10.242	2.0.10.242	1.0.0.439	7	234	2	3	Verdana	1	80	0	0	0	WM Stimuli\	0.7	1016.85714285714	0.9	750.444444444444	0.9	920.333333333333	1	662.9	0.9	937	1	739.5	0.8	990.625	1	689.1	13	537532	3	537520	27	40	537559	-999999	537535	0	5	TrialsPROC	FC_005_M3.png	1	2	14	SessionSelectionList														nonlure	3	Face	0-Back	12	80	9	0	0	100	1	39	285020	2	14	65	282981	-1	283658	1	677	3	3	2039	53	285034	-54	0					1											14												
WM080112	211417_fnca	1	1	1	262615213	1	75.030	75.030	2.0.10.147	2.0.10.242	2.0.10.242	1.0.0.439	7	234	2	3	Verdana	1	80	0	0	0	WM Stimuli\	0.7	1016.85714285714	0.9	750.444444444444	0.9	920.333333333333	1	662.9	0.9	937	1	739.5	0.8	990.625	1	689.1	13	537532	3	537520	27	40	537559	-999999	537535	0	5	TrialsPROC	FC_001_M1.png	1	2	15	SessionSelectionList														target	2	Face	0-Back	13	80	10	0	0	100	1	39	287592	2	14	72	285553	-1	286246	1	693	2	2	2039	53	287606	-54	0					2											15												
WM080112	211417_fnca	1	1	1	262615213	1	75.030	75.030	2.0.10.147	2.0.10.242	2.0.10.242	1.0.0.439	7	234	2	3	Verdana	1	80	0	0	0	WM Stimuli\	0.7	1016.85714285714	0.9	750.444444444444	0.9	920.333333333333	1	662.9	0.9	937	1	739.5	0.8	990.625	1	689.1	13	537532	3	537520	27	40	537559	-999999	537535	0	5	TrialsPROC	FC_003_M2.png	1	2	16	SessionSelectionList														nonlure	3	Face	0-Back	14	80	11	0	0	100	1	40	290165	1	13	72	288125	-1	288772	1	647	3	3	2040	53	290178	-54	0					3											16												
WM080112	211417_fnca	1	1	1	262615213	1	75.030	75.030	2.0.10.147	2.0.10.242	2.0.10.242	1.0.0.439	7	234	2	3	Verdana	1	80	0	0	0	WM Stimuli\	0.7	1016.85714285714	0.9	750.444444444444	0.9	920.333333333333	1	662.9	0.9	937	1	739.5	0.8	990.625	1	689.1	13	537532	3	537520	27	40	537559	-999999	537535	0	5	TrialsPROC	FC_004_F2.png	1	2	17	SessionSelectionList														nonlure	3	Face	0-Back	15	80	12	0	0	100	2	39	292737	1	14	73	290698	-1	291394	1	696	3	3	2039	53	292751	-54	0					4											17												
WM080112	211417_fnca	1	1	1	262615213	1	75.030	75.030	2.0.10.147	2.0.10.242	2.0.10.242	1.0.0.439	7	234	2	3	Verdana	1	80	0	0	0	WM Stimuli\	0.7	1016.85714285714	0.9	750.444444444444	0.9	920.333333333333	1	662.9	0.9	937	1	739.5	0.8	990.625	1	689.1	13	537532	3	537520	27	40	537559	-999999	537535	0	5	TrialsPROC	FC_004_F2.png	1	2	18	SessionSelectionList														lure	3	Face	0-Back	16	80	13	0	0	100	3	39	295309	2	14	72	293270	-1	293860	1	590	3	3	2039	53	295323	-54	0					5											18												
WM080112	211417_fnca	1	1	1	262615213	1	75.030	75.030	2.0.10.147	2.0.10.242	2.0.10.242	1.0.0.439	7	234	2	3	Verdana	1	80	0	0	0	WM Stimuli\	0.7	1016.85714285714	0.9	750.444444444444	0.9	920.333333333333	1	662.9	0.9	937	1	739.5	0.8	990.625	1	689.1	13	537532	3	537520	27	40	537559	-999999	537535	0	5	TrialsPROC	FC_001_M1.png	1	2	19	SessionSelectionList														target	2	Face	0-Back	17	80	14	0	0	100	1	40	297882	1	13	72	295842	-1	296395	1	553	2	2	2040	53	297895	-54	0					6											19												
WM080112	211417_fnca	1	1	1	262615213	1	75.030	75.030	2.0.10.147	2.0.10.242	2.0.10.242	1.0.0.439	7	234	2	3	Verdana	1	80	0	0	0	WM Stimuli\	0.7	1016.85714285714	0.9	750.444444444444	0.9	920.333333333333	1	662.9	0.9	937	1	739.5	0.8	990.625	1	689.1	13	537532	3	537520	27	40	537559	-999999	537535	0	5	TrialsPROC	FC_006_F3.png	1	2	20	SessionSelectionList														nonlure	3	Face	0-Back	18	80	15	0	0	100	1	39	300454	1	14	73	298415	-1	299024	1	609	3	3	2039	53	300468	-54	0					7											20												
WM080112	211417_fnca	1	1	1	262615213	1	75.030	75.030	2.0.10.147	2.0.10.242	2.0.10.242	1.0.0.439	7	234	2	3	Verdana	1	80	0	0	0	WM Stimuli\	0.7	1016.85714285714	0.9	750.444444444444	0.9	920.333333333333	1	662.9	0.9	937	1	739.5	0.8	990.625	1	689.1	13	537532	3	537520	27	40	537559	-999999	537535	0	5	TrialsPROC	FC_006_F3.png	1	2	21	SessionSelectionList														lure	3	Face	0-Back	19	80	16	0	0	100	2	39	303026	2	14	72	300987	-1	301770	1	783	3	3	2039	53	303040	-54	0					8											21												
WM080112	211417_fnca	1	1	1	262615213	1	75.030	75.030	2.0.10.147	2.0.10.242	2.0.10.242	1.0.0.439	7	234	2	3	Verdana	1	80	0	0	0	WM Stimuli\	0.7	1016.85714285714	0.9	750.444444444444	0.9	920.333333333333	1	662.9	0.9	937	1	739.5	0.8	990.625	1	689.1	13	537532	3	537520	27	40	537559	-999999	537535	0	5	TrialsPROC	FC_003_M2.png	1	2	22	SessionSelectionList														lure	3	Face	0-Back	20	80	17	0	0	100	3	39	305598	2	14	72	303559	-1	304305	1	746	3	3	2039	53	305612	-54	0					9											22												
WM080112	211417_fnca	1	1	1	262615213	1	75.030	75.030	2.0.10.147	2.0.10.242	2.0.10.242	1.0.0.439	7	234	2	3	Verdana	1	80	0	0	0	WM Stimuli\	0.7	1016.85714285714	0.9	750.444444444444	0.9	920.333333333333	1	662.9	0.9	937	1	739.5	0.8	990.625	1	689.1	13	537532	3	537520	27	40	537559	-999999	537535	0	5	TrialsPROC	FC_002_F1.png	1	2	23	SessionSelectionList														nonlure	3	Face	0-Back	21	80	18	0	0	100	4	39	308171	1	13	73	306132	-1	306767	1	635	3	3	2039	52	308184	-53	0					10											23												
WM080112	211417_fnca	1	1	1	262615213	1	75.030	75.030	2.0.10.147	2.0.10.242	2.0.10.242	1.0.0.439	7	234	2	3	Verdana	1	80	0	0	0	WM Stimuli\	0.7	1016.85714285714	0.9	750.444444444444	0.9	920.333333333333	1	662.9	0.9	937	1	739.5	0.8	990.625	1	689.1	13	537532	3	537520	27	40	537559	-999999	537535	0	6	Fix15secPROC	""	1	2	24	SessionSelectionList																																															6	308638	-7	0							24												
WM080112	211417_fnca	1	1	1	262615213	1	75.030	75.030	2.0.10.147	2.0.10.242	2.0.10.242	1.0.0.439	7	234	2	3	Verdana	1	80	0	0	0	WM Stimuli\	0.7	1016.85714285714	0.9	750.444444444444	0.9	920.333333333333	1	662.9	0.9	937	1	739.5	0.8	990.625	1	689.1	13	537532	3	537520	27	40	537559	-999999	537535	0	7	Cue2BackPROC	""	1	2	25	SessionSelectionList									13	323645	-14	0																																													25												
WM080112	211417_fnca	1	1	1	262615213	1	75.030	75.030	2.0.10.147	2.0.10.242	2.0.10.242	1.0.0.439	7	234	2	3	Verdana	1	80	0	0	0	WM Stimuli\	0.7	1016.85714285714	0.9	750.444444444444	0.9	920.333333333333	1	662.9	0.9	937	1	739.5	0.8	990.625	1	689.1	13	537532	3	537520	27	40	537559	-999999	537535	0	8	TrialsPROC	TO_001_TOOL1_BA.png	1	2	26	SessionSelectionList														nonlure	3	Tools	2-Back	22	80	18	0	1	100	4	39	328229	2	14	58	326190	-1	0	0	0	""	3	2039	53	328243	-54	0										1						26												
WM080112	211417_fnca	1	1	1	262615213	1	75.030	75.030	2.0.10.147	2.0.10.242	2.0.10.242	1.0.0.439	7	234	2	3	Verdana	1	80	0	0	0	WM Stimuli\	0.7	1016.85714285714	0.9	750.444444444444	0.9	920.333333333333	1	662.9	0.9	937	1	739.5	0.8	990.625	1	689.1	13	537532	3	537520	27	40	537559	-999999	537535	0	8	TrialsPROC	TO_002_TOOL2_BA.png	1	2	27	SessionSelectionList														nonlure	3	Tools	2-Back	23	80	19	0	0	100	1	39	330788	2	14	59	328749	-1	329709	1	960	3	3	2039	53	330802	-54	0										2						27												
WM080112	211417_fnca	1	1	1	262615213	1	75.030	75.030	2.0.10.147	2.0.10.242	2.0.10.242	1.0.0.439	7	234	2	3	Verdana	1	80	0	0	0	WM Stimuli\	0.7	1016.85714285714	0.9	750.444444444444	0.9	920.333333333333	1	662.9	0.9	937	1	739.5	0.8	990.625	1	689.1	13	537532	3	537520	27	40	537559	-999999	537535	0	8	TrialsPROC	TO_004_TOOL4_BA.png	1	2	28	SessionSelectionList														nonlure	3	Tools	2-Back	24	80	20	0	0	100	2	39	333347	2	14	59	331308	-1	332175	1	867	3	3	2039	53	333361	-54	0										3						28												
WM080112	211417_fnca	1	1	1	262615213	1	75.030	75.030	2.0.10.147	2.0.10.242	2.0.10.242	1.0.0.439	7	234	2	3	Verdana	1	80	0	0	0	WM Stimuli\	0.7	1016.85714285714	0.9	750.444444444444	0.9	920.333333333333	1	662.9	0.9	937	1	739.5	0.8	990.625	1	689.1	13	537532	3	537520	27	40	537559	-999999	537535	0	8	TrialsPROC	TO_002_TOOL2_BA.png	1	2	29	SessionSelectionList														target	2	Tools	2-Back	25	80	21	0	0	100	1	39	335906	2	14	59	333867	-1	334630	1	763	2	2	2039	53	335920	-54	0										4						29												
WM080112	211417_fnca	1	1	1	262615213	1	75.030	75.030	2.0.10.147	2.0.10.242	2.0.10.242	1.0.0.439	7	234	2	3	Verdana	1	80	0	0	0	WM Stimuli\	0.7	1016.85714285714	0.9	750.444444444444	0.9	920.333333333333	1	662.9	0.9	937	1	739.5	0.8	990.625	1	689.1	13	537532	3	537520	27	40	537559	-999999	537535	0	8	TrialsPROC	TO_001_TOOL1_BA.png	1	2	30	SessionSelectionList														lure	3	Tools	2-Back	26	80	22	0	0	100	1	39	338465	2	14	59	336426	-1	337568	1	1142	3	3	2039	53	338479	-54	0										5						30												
WM080112	211417_fnca	1	1	1	262615213	1	75.030	75.030	2.0.10.147	2.0.10.242	2.0.10.242	1.0.0.439	7	234	2	3	Verdana	1	80	0	0	0	WM Stimuli\	0.7	1016.85714285714	0.9	750.444444444444	0.9	920.333333333333	1	662.9	0.9	937	1	739.5	0.8	990.625	1	689.1	13	537532	3	537520	27	40	537559	-999999	537535	0	8	TrialsPROC	TO_004_TOOL4_BA.png	1	2	31	SessionSelectionList														lure	3	Tools	2-Back	27	80	23	0	0	100	2	39	341024	2	14	59	338985	-1	340058	1	1073	3	3	2039	53	341038	-54	0										6						31												
WM080112	211417_fnca	1	1	1	262615213	1	75.030	75.030	2.0.10.147	2.0.10.242	2.0.10.242	1.0.0.439	7	234	2	3	Verdana	1	80	0	0	0	WM Stimuli\	0.7	1016.85714285714	0.9	750.444444444444	0.9	920.333333333333	1	662.9	0.9	937	1	739.5	0.8	990.625	1	689.1	13	537532	3	537520	27	40	537559	-999999	537535	0	8	TrialsPROC	TO_006_TOOL6_BA.png	1	2	32	SessionSelectionList														nonlure	3	Tools	2-Back	28	80	24	0	0	100	3	39	343583	2	14	59	341544	-1	342689	1	1145	3	3	2039	53	343597	-54	0										7						32												
WM080112	211417_fnca	1	1	1	262615213	1	75.030	75.030	2.0.10.147	2.0.10.242	2.0.10.242	1.0.0.439	7	234	2	3	Verdana	1	80	0	0	0	WM Stimuli\	0.7	1016.85714285714	0.9	750.444444444444	0.9	920.333333333333	1	662.9	0.9	937	1	739.5	0.8	990.625	1	689.1	13	537532	3	537520	27	40	537559	-999999	537535	0	8	TrialsPROC	TO_005_TOOL5_BA.png	1	2	33	SessionSelectionList														nonlure	3	Tools	2-Back	29	80	25	0	0	100	4	39	346142	2	14	59	344103	-1	345127	1	1024	3	3	2039	53	346156	-54	0										8						33												
WM080112	211417_fnca	1	1	1	262615213	1	75.030	75.030	2.0.10.147	2.0.10.242	2.0.10.242	1.0.0.439	7	234	2	3	Verdana	1	80	0	0	0	WM Stimuli\	0.7	1016.85714285714	0.9	750.444444444444	0.9	920.333333333333	1	662.9	0.9	937	1	739.5	0.8	990.625	1	689.1	13	537532	3	537520	27	40	537559	-999999	537535	0	8	TrialsPROC	TO_006_TOOL6_BA.png	1	2	34	SessionSelectionList														target	2	Tools	2-Back	30	80	26	0	0	100	5	39	348701	2	14	59	346662	-1	347701	0	1039	3	2	2039	53	348715	-54	0										9						34												
WM080112	211417_fnca	1	1	1	262615213	1	75.030	75.030	2.0.10.147	2.0.10.242	2.0.10.242	1.0.0.439	7	234	2	3	Verdana	1	80	0	0	0	WM Stimuli\	0.7	1016.85714285714	0.9	750.444444444444	0.9	920.333333333333	1	662.9	0.9	937	1	739.5	0.8	990.625	1	689.1	13	537532	3	537520	27	40	537559	-999999	537535	0	8	TrialsPROC	TO_003_TOOL3_BA.png	1	2	35	SessionSelectionList														nonlure	3	Tools	2-Back	31	80	27	0	0	100	6	39	351260	2	14	59	349221	-1	350172	1	951	3	3	2039	53	351274	-54	0										10						35												
WM080112	211417_fnca	1	1	1	262615213	1	75.030	75.030	2.0.10.147	2.0.10.242	2.0.10.242	1.0.0.439	7	234	2	3	Verdana	1	80	0	0	0	WM Stimuli\	0.7	1016.85714285714	0.9	750.444444444444	0.9	920.333333333333	1	662.9	0.9	937	1	739.5	0.8	990.625	1	689.1	13	537532	3	537520	27	40	537559	-999999	537535	0	9	Cue0BackPROC	BP_007_BP20_BA.png	1	2	36	SessionSelectionList																																										19	351740	-20	0												36												
WM080112	211417_fnca	1	1	1	262615213	1	75.030	75.030	2.0.10.147	2.0.10.242	2.0.10.242	1.0.0.439	7	234	2	3	Verdana	1	80	0	0	0	WM Stimuli\	0.7	1016.85714285714	0.9	750.444444444444	0.9	920.333333333333	1	662.9	0.9	937	1	739.5	0.8	990.625	1	689.1	13	537532	3	537520	27	40	537559	-999999	537535	0	10	TrialsPROC	BP_007_BP20_BA.png	1	2	37	SessionSelectionList														target	2	Body	0-Back	32	80	28	0	0	91	7	40	356312	1	13	51	354272	-1	355174	0	902	3	2	2040	53	356325	-54	0											1					37												
WM080112	211417_fnca	1	1	1	262615213	1	75.030	75.030	2.0.10.147	2.0.10.242	2.0.10.242	1.0.0.439	7	234	2	3	Verdana	1	80	0	0	0	WM Stimuli\	0.7	1016.85714285714	0.9	750.444444444444	0.9	920.333333333333	1	662.9	0.9	937	1	739.5	0.8	990.625	1	689.1	13	537532	3	537520	27	40	537559	-999999	537535	0	10	TrialsPROC	BP_011_BP4_BA.png	1	2	38	SessionSelectionList														nonlure	3	Body	0-Back	33	80	29	0	0	92	8	39	358884	1	14	73	356845	-1	357496	1	651	3	3	2039	53	358898	-54	0											2					38												
WM080112	211417_fnca	1	1	1	262615213	1	75.030	75.030	2.0.10.147	2.0.10.242	2.0.10.242	1.0.0.439	7	234	2	3	Verdana	1	80	0	0	0	WM Stimuli\	0.7	1016.85714285714	0.9	750.444444444444	0.9	920.333333333333	1	662.9	0.9	937	1	739.5	0.8	990.625	1	689.1	13	537532	3	537520	27	40	537559	-999999	537535	0	10	TrialsPROC	BP_010_BP3_BA.png	1	2	39	SessionSelectionList														nonlure	3	Body	0-Back	34	80	30	0	0	92	9	39	361443	1	14	59	359404	-1	360191	1	787	3	3	2039	53	361457	-54	0											3					39												
WM080112	211417_fnca	1	1	1	262615213	1	75.030	75.030	2.0.10.147	2.0.10.242	2.0.10.242	1.0.0.439	7	234	2	3	Verdana	1	80	0	0	0	WM Stimuli\	0.7	1016.85714285714	0.9	750.444444444444	0.9	920.333333333333	1	662.9	0.9	937	1	739.5	0.8	990.625	1	689.1	13	537532	3	537520	27	40	537559	-999999	537535	0	10	TrialsPROC	BP_008_BP21_BA.png	1	2	40	SessionSelectionList														nonlure	3	Body	0-Back	35	80	31	0	0	93	10	39	364002	1	14	59	361963	-1	362743	1	780	3	3	2039	53	364016	-54	0											4					40												
WM080112	211417_fnca	1	1	1	262615213	1	75.030	75.030	2.0.10.147	2.0.10.242	2.0.10.242	1.0.0.439	7	234	2	3	Verdana	1	80	0	0	0	WM Stimuli\	0.7	1016.85714285714	0.9	750.444444444444	0.9	920.333333333333	1	662.9	0.9	937	1	739.5	0.8	990.625	1	689.1	13	537532	3	537520	27	40	537559	-999999	537535	0	10	TrialsPROC	BP_011_BP4_BA.png	1	2	41	SessionSelectionList														lure	3	Body	0-Back	36	80	32	0	0	93	11	39	366574	2	14	72	364535	-1	365228	1	693	3	3	2039	53	366588	-54	0											5					41												
WM080112	211417_fnca	1	1	1	262615213	1	75.030	75.030	2.0.10.147	2.0.10.242	2.0.10.242	1.0.0.439	7	234	2	3	Verdana	1	80	0	0	0	WM Stimuli\	0.7	1016.85714285714	0.9	750.444444444444	0.9	920.333333333333	1	662.9	0.9	937	1	739.5	0.8	990.625	1	689.1	13	537532	3	537520	27	40	537559	-999999	537535	0	10	TrialsPROC	BP_009_BP22_BA.png	1	2	42	SessionSelectionList														nonlure	3	Body	0-Back	37	80	33	0	0	94	12	39	369133	2	14	59	367094	-1	368049	1	955	3	3	2039	53	369147	-54	0											6					42												
WM080112	211417_fnca	1	1	1	262615213	1	75.030	75.030	2.0.10.147	2.0.10.242	2.0.10.242	1.0.0.439	7	234	2	3	Verdana	1	80	0	0	0	WM Stimuli\	0.7	1016.85714285714	0.9	750.444444444444	0.9	920.333333333333	1	662.9	0.9	937	1	739.5	0.8	990.625	1	689.1	13	537532	3	537520	27	40	537559	-999999	537535	0	10	TrialsPROC	BP_009_BP22_BA.png	1	2	43	SessionSelectionList														lure	3	Body	0-Back	38	80	34	0	0	94	13	39	371692	2	14	59	369653	-1	370280	1	627	3	3	2039	53	371706	-54	0											7					43												
WM080112	211417_fnca	1	1	1	262615213	1	75.030	75.030	2.0.10.147	2.0.10.242	2.0.10.242	1.0.0.439	7	234	2	3	Verdana	1	80	0	0	0	WM Stimuli\	0.7	1016.85714285714	0.9	750.444444444444	0.9	920.333333333333	1	662.9	0.9	937	1	739.5	0.8	990.625	1	689.1	13	537532	3	537520	27	40	537559	-999999	537535	0	10	TrialsPROC	BP_008_BP21_BA.png	1	2	44	SessionSelectionList														lure	3	Body	0-Back	39	80	35	0	0	94	14	39	374251	1	14	59	372212	-1	373016	1	804	3	3	2039	53	374265	-54	0											8					44												
WM080112	211417_fnca	1	1	1	262615213	1	75.030	75.030	2.0.10.147	2.0.10.242	2.0.10.242	1.0.0.439	7	234	2	3	Verdana	1	80	0	0	0	WM Stimuli\	0.7	1016.85714285714	0.9	750.444444444444	0.9	920.333333333333	1	662.9	0.9	937	1	739.5	0.8	990.625	1	689.1	13	537532	3	537520	27	40	537559	-999999	537535	0	10	TrialsPROC	BP_007_BP20_BA.png	1	2	45	SessionSelectionList														target	2	Body	0-Back	40	80	36	0	0	95	1	39	376810	1	14	59	374771	-1	375460	1	689	2	2	2039	53	376824	-54	0											9					45												
WM080112	211417_fnca	1	1	1	262615213	1	75.030	75.030	2.0.10.147	2.0.10.242	2.0.10.242	1.0.0.439	7	234	2	3	Verdana	1	80	0	0	0	WM Stimuli\	0.7	1016.85714285714	0.9	750.444444444444	0.9	920.333333333333	1	662.9	0.9	937	1	739.5	0.8	990.625	1	689.1	13	537532	3	537520	27	40	537559	-999999	537535	0	10	TrialsPROC	BP_012_BP5_BA.png	1	2	46	SessionSelectionList														nonlure	3	Body	0-Back	41	80	37	0	0	95	1	39	379369	1	14	59	377330	-1	378098	1	768	3	3	2039	53	379383	-54	0											10					46												
WM080112	211417_fnca	1	1	1	262615213	1	75.030	75.030	2.0.10.147	2.0.10.242	2.0.10.242	1.0.0.439	7	234	2	3	Verdana	1	80	0	0	0	WM Stimuli\	0.7	1016.85714285714	0.9	750.444444444444	0.9	920.333333333333	1	662.9	0.9	937	1	739.5	0.8	990.625	1	689.1	13	537532	3	537520	27	40	537559	-999999	537535	0	11	Fix15secPROC	""	1	2	47	SessionSelectionList																																															6	379836	-7	0							47												
WM080112	211417_fnca	1	1	1	262615213	1	75.030	75.030	2.0.10.147	2.0.10.242	2.0.10.242	1.0.0.439	7	234	2	3	Verdana	1	80	0	0	0	WM Stimuli\	0.7	1016.85714285714	0.9	750.444444444444	0.9	920.333333333333	1	662.9	0.9	937	1	739.5	0.8	990.625	1	689.1	13	537532	3	537520	27	40	537559	-999999	537535	0	12	Cue0BackPROC	PL_001_92012.png	1	2	48	SessionSelectionList																																										13	394843	-14	0												48												
WM080112	211417_fnca	1	1	1	262615213	1	75.030	75.030	2.0.10.147	2.0.10.242	2.0.10.242	1.0.0.439	7	234	2	3	Verdana	1	80	0	0	0	WM Stimuli\	0.7	1016.85714285714	0.9	750.444444444444	0.9	920.333333333333	1	662.9	0.9	937	1	739.5	0.8	990.625	1	689.1	13	537532	3	537520	27	40	537559	-999999	537535	0	13	TrialsPROC	PL_003_92016.png	1	2	49	SessionSelectionList														nonlure	3	Place	0-Back	42	80	38	0	0	95	2	39	399441	1	14	72	397402	-1	398142	1	740	3	3	2039	53	399455	-54	0												1				49												
WM080112	211417_fnca	1	1	1	262615213	1	75.030	75.030	2.0.10.147	2.0.10.242	2.0.10.242	1.0.0.439	7	234	2	3	Verdana	1	80	0	0	0	WM Stimuli\	0.7	1016.85714285714	0.9	750.444444444444	0.9	920.333333333333	1	662.9	0.9	937	1	739.5	0.8	990.625	1	689.1	13	537532	3	537520	27	40	537559	-999999	537535	0	13	TrialsPROC	PL_003_92016.png	1	2	50	SessionSelectionList														lure	3	Place	0-Back	43	80	39	0	0	95	3	39	402013	2	14	72	399974	-1	400633	1	659	3	3	2039	53	402027	-54	0												2				50												
WM080112	211417_fnca	1	1	1	262615213	1	75.030	75.030	2.0.10.147	2.0.10.242	2.0.10.242	1.0.0.439	7	234	2	3	Verdana	1	80	0	0	0	WM Stimuli\	0.7	1016.85714285714	0.9	750.444444444444	0.9	920.333333333333	1	662.9	0.9	937	1	739.5	0.8	990.625	1	689.1	13	537532	3	537520	27	40	537559	-999999	537535	0	13	TrialsPROC	PL_006_92025.png	1	2	51	SessionSelectionList														nonlure	3	Place	0-Back	44	80	40	0	0	96	4	40	404586	1	13	72	402546	-1	403165	1	619	3	3	2040	53	404599	-54	0												3				51												
WM080112	211417_fnca	1	1	1	262615213	1	75.030	75.030	2.0.10.147	2.0.10.242	2.0.10.242	1.0.0.439	7	234	2	3	Verdana	1	80	0	0	0	WM Stimuli\	0.7	1016.85714285714	0.9	750.444444444444	0.9	920.333333333333	1	662.9	0.9	937	1	739.5	0.8	990.625	1	689.1	13	537532	3	537520	27	40	537559	-999999	537535	0	13	TrialsPROC	PL_001_92012.png	1	2	52	SessionSelectionList														target	2	Place	0-Back	45	80	41	0	0	96	1	39	407158	2	14	73	405119	-1	406077	1	958	2	2	2039	53	407172	-54	0												4				52												
WM080112	211417_fnca	1	1	1	262615213	1	75.030	75.030	2.0.10.147	2.0.10.242	2.0.10.242	1.0.0.439	7	234	2	3	Verdana	1	80	0	0	0	WM Stimuli\	0.7	1016.85714285714	0.9	750.444444444444	0.9	920.333333333333	1	662.9	0.9	937	1	739.5	0.8	990.625	1	689.1	13	537532	3	537520	27	40	537559	-999999	537535	0	13	TrialsPROC	PL_004_92023.png	1	2	53	SessionSelectionList														nonlure	3	Place	0-Back	46	80	42	0	0	96	1	39	409730	2	14	72	407691	-1	408406	1	715	3	3	2039	53	409744	-54	0												5				53												
WM080112	211417_fnca	1	1	1	262615213	1	75.030	75.030	2.0.10.147	2.0.10.242	2.0.10.242	1.0.0.439	7	234	2	3	Verdana	1	80	0	0	0	WM Stimuli\	0.7	1016.85714285714	0.9	750.444444444444	0.9	920.333333333333	1	662.9	0.9	937	1	739.5	0.8	990.625	1	689.1	13	537532	3	537520	27	40	537559	-999999	537535	0	13	TrialsPROC	PL_005_92024.png	1	2	54	SessionSelectionList														nonlure	3	Place	0-Back	47	80	43	0	0	96	2	40	412303	1	13	72	410263	-1	410924	1	661	3	3	2040	53	412316	-54	0												6				54												
WM080112	211417_fnca	1	1	1	262615213	1	75.030	75.030	2.0.10.147	2.0.10.242	2.0.10.242	1.0.0.439	7	234	2	3	Verdana	1	80	0	0	0	WM Stimuli\	0.7	1016.85714285714	0.9	750.444444444444	0.9	920.333333333333	1	662.9	0.9	937	1	739.5	0.8	990.625	1	689.1	13	537532	3	537520	27	40	537559	-999999	537535	0	13	TrialsPROC	PL_001_92012.png	1	2	55	SessionSelectionList														target	2	Place	0-Back	48	80	44	0	0	96	1	39	414875	1	14	73	412836	-1	413908	1	1072	2	2	2039	53	414889	-54	0												7				55												
WM080112	211417_fnca	1	1	1	262615213	1	75.030	75.030	2.0.10.147	2.0.10.242	2.0.10.242	1.0.0.439	7	234	2	3	Verdana	1	80	0	0	0	WM Stimuli\	0.7	1016.85714285714	0.9	750.444444444444	0.9	920.333333333333	1	662.9	0.9	937	1	739.5	0.8	990.625	1	689.1	13	537532	3	537520	27	40	537559	-999999	537535	0	13	TrialsPROC	PL_002_92014.png	1	2	56	SessionSelectionList														nonlure	3	Place	0-Back	49	80	45	0	0	96	1	39	417447	2	14	72	415408	-1	416051	1	643	3	3	2039	53	417461	-54	0												8				56												
WM080112	211417_fnca	1	1	1	262615213	1	75.030	75.030	2.0.10.147	2.0.10.242	2.0.10.242	1.0.0.439	7	234	2	3	Verdana	1	80	0	0	0	WM Stimuli\	0.7	1016.85714285714	0.9	750.444444444444	0.9	920.333333333333	1	662.9	0.9	937	1	739.5	0.8	990.625	1	689.1	13	537532	3	537520	27	40	537559	-999999	537535	0	13	TrialsPROC	PL_004_92023.png	1	2	57	SessionSelectionList														lure	3	Place	0-Back	50	80	46	0	0	97	2	39	420019	3	14	72	417980	-1	418621	1	641	3	3	2039	53	420033	-54	0												9				57												
WM080112	211417_fnca	1	1	1	262615213	1	75.030	75.030	2.0.10.147	2.0.10.242	2.0.10.242	1.0.0.439	7	234	2	3	Verdana	1	80	0	0	0	WM Stimuli\	0.7	1016.85714285714	0.9	750.444444444444	0.9	920.333333333333	1	662.9	0.9	937	1	739.5	0.8	990.625	1	689.1	13	537532	3	537520	27	40	537559	-999999	537535	0	13	TrialsPROC	PL_006_92025.png	1	2	58	SessionSelectionList														lure	3	Place	0-Back	51	80	47	0	0	97	3	39	422592	1	13	73	420553	-1	421240	1	687	3	3	2039	52	422605	-53	0												10				58												
WM080112	211417_fnca	1	1	1	262615213	1	75.030	75.030	2.0.10.147	2.0.10.242	2.0.10.242	1.0.0.439	7	234	2	3	Verdana	1	80	0	0	0	WM Stimuli\	0.7	1016.85714285714	0.9	750.444444444444	0.9	920.333333333333	1	662.9	0.9	937	1	739.5	0.8	990.625	1	689.1	13	537532	3	537520	27	40	537559	-999999	537535	0	14	Cue2BackPROC	""	1	2	59	SessionSelectionList									5	423058	-6	0																																													59												
WM080112	211417_fnca	1	1	1	262615213	1	75.030	75.030	2.0.10.147	2.0.10.242	2.0.10.242	1.0.0.439	7	234	2	3	Verdana	1	80	0	0	0	WM Stimuli\	0.7	1016.85714285714	0.9	750.444444444444	0.9	920.333333333333	1	662.9	0.9	937	1	739.5	0.8	990.625	1	689.1	13	537532	3	537520	27	40	537559	-999999	537535	0	15	TrialsPROC	FC_010_F5.png	1	2	60	SessionSelectionList														nonlure	3	Face	2-Back	52	80	48	0	0	97	4	39	427656	2	14	64	425617	-1	426373	1	756	3	3	2039	53	427670	-54	0													1			60												
WM080112	211417_fnca	1	1	1	262615213	1	75.030	75.030	2.0.10.147	2.0.10.242	2.0.10.242	1.0.0.439	7	234	2	3	Verdana	1	80	0	0	0	WM Stimuli\	0.7	1016.85714285714	0.9	750.444444444444	0.9	920.333333333333	1	662.9	0.9	937	1	739.5	0.8	990.625	1	689.1	13	537532	3	537520	27	40	537559	-999999	537535	0	15	TrialsPROC	FC_012_F6.png	1	2	61	SessionSelectionList														nonlure	3	Face	2-Back	53	80	49	0	0	97	5	40	430229	1	13	72	428189	-1	429472	1	1283	3	3	2040	53	430242	-54	0													2			61												
WM080112	211417_fnca	1	1	1	262615213	1	75.030	75.030	2.0.10.147	2.0.10.242	2.0.10.242	1.0.0.439	7	234	2	3	Verdana	1	80	0	0	0	WM Stimuli\	0.7	1016.85714285714	0.9	750.444444444444	0.9	920.333333333333	1	662.9	0.9	937	1	739.5	0.8	990.625	1	689.1	13	537532	3	537520	27	40	537559	-999999	537535	0	15	TrialsPROC	FC_010_F5.png	1	2	62	SessionSelectionList														target	2	Face	2-Back	54	80	50	0	0	97	1	39	432801	1	14	73	430762	-1	431644	1	882	2	2	2039	53	432815	-54	0													3			62												
WM080112	211417_fnca	1	1	1	262615213	1	75.030	75.030	2.0.10.147	2.0.10.242	2.0.10.242	1.0.0.439	7	234	2	3	Verdana	1	80	0	0	0	WM Stimuli\	0.7	1016.85714285714	0.9	750.444444444444	0.9	920.333333333333	1	662.9	0.9	937	1	739.5	0.8	990.625	1	689.1	13	537532	3	537520	27	40	537559	-999999	537535	0	15	TrialsPROC	FC_008_F4.png	1	2	63	SessionSelectionList														nonlure	3	Face	2-Back	55	80	51	0	0	97	1	39	435373	3	14	72	433334	-1	434176	1	842	3	3	2039	53	435387	-54	0													4			63												
WM080112	211417_fnca	1	1	1	262615213	1	75.030	75.030	2.0.10.147	2.0.10.242	2.0.10.242	1.0.0.439	7	234	2	3	Verdana	1	80	0	0	0	WM Stimuli\	0.7	1016.85714285714	0.9	750.444444444444	0.9	920.333333333333	1	662.9	0.9	937	1	739.5	0.8	990.625	1	689.1	13	537532	3	537520	27	40	537559	-999999	537535	0	15	TrialsPROC	FC_012_F6.png	1	2	64	SessionSelectionList														lure	3	Face	2-Back	56	80	52	0	0	97	2	40	437946	1	13	72	435906	-1	436606	1	700	3	3	2040	53	437959	-54	0													5			64												
WM080112	211417_fnca	1	1	1	262615213	1	75.030	75.030	2.0.10.147	2.0.10.242	2.0.10.242	1.0.0.439	7	234	2	3	Verdana	1	80	0	0	0	WM Stimuli\	0.7	1016.85714285714	0.9	750.444444444444	0.9	920.333333333333	1	662.9	0.9	937	1	739.5	0.8	990.625	1	689.1	13	537532	3	537520	27	40	537559	-999999	537535	0	15	TrialsPROC	FC_008_F4.png	1	2	65	SessionSelectionList														target	2	Face	2-Back	57	80	53	0	0	97	1	39	440518	1	14	73	438479	-1	439528	1	1049	2	2	2039	53	440532	-54	0													6			65												
WM080112	211417_fnca	1	1	1	262615213	1	75.030	75.030	2.0.10.147	2.0.10.242	2.0.10.242	1.0.0.439	7	234	2	3	Verdana	1	80	0	0	0	WM Stimuli\	0.7	1016.85714285714	0.9	750.444444444444	0.9	920.333333333333	1	662.9	0.9	937	1	739.5	0.8	990.625	1	689.1	13	537532	3	537520	27	40	537559	-999999	537535	0	15	TrialsPROC	FC_007_M4.png	1	2	66	SessionSelectionList														nonlure	3	Face	2-Back	58	80	54	0	0	97	1	39	443090	2	14	72	441051	-1	441853	1	802	3	3	2039	53	443104	-54	0													7			66												
WM080112	211417_fnca	1	1	1	262615213	1	75.030	75.030	2.0.10.147	2.0.10.242	2.0.10.242	1.0.0.439	7	234	2	3	Verdana	1	80	0	0	0	WM Stimuli\	0.7	1016.85714285714	0.9	750.444444444444	0.9	920.333333333333	1	662.9	0.9	937	1	739.5	0.8	990.625	1	689.1	13	537532	3	537520	27	40	537559	-999999	537535	0	15	TrialsPROC	FC_007_M4.png	1	2	67	SessionSelectionList														lure	3	Face	2-Back	59	80	55	0	0	97	2	40	445663	1	13	72	443623	-1	444511	1	888	3	3	2040	53	445676	-54	0													8			67												
WM080112	211417_fnca	1	1	1	262615213	1	75.030	75.030	2.0.10.147	2.0.10.242	2.0.10.242	1.0.0.439	7	234	2	3	Verdana	1	80	0	0	0	WM Stimuli\	0.7	1016.85714285714	0.9	750.444444444444	0.9	920.333333333333	1	662.9	0.9	937	1	739.5	0.8	990.625	1	689.1	13	537532	3	537520	27	40	537559	-999999	537535	0	15	TrialsPROC	FC_009_M5.png	1	2	68	SessionSelectionList														nonlure	3	Face	2-Back	60	80	56	0	0	97	3	39	448235	1	14	73	446196	-1	447277	1	1081	3	3	2039	53	448249	-54	0													9			68												
WM080112	211417_fnca	1	1	1	262615213	1	75.030	75.030	2.0.10.147	2.0.10.242	2.0.10.242	1.0.0.439	7	234	2	3	Verdana	1	80	0	0	0	WM Stimuli\	0.7	1016.85714285714	0.9	750.444444444444	0.9	920.333333333333	1	662.9	0.9	937	1	739.5	0.8	990.625	1	689.1	13	537532	3	537520	27	40	537559	-999999	537535	0	15	TrialsPROC	FC_011_M6.png	1	2	69	SessionSelectionList														nonlure	3	Face	2-Back	61	80	57	0	0	97	1	39	450807	2	14	72	448768	-1	450008	0	1240	2	3	2039	53	450821	-54	0													10			69												
WM080112	211417_fnca	1	1	1	262615213	1	75.030	75.030	2.0.10.147	2.0.10.242	2.0.10.242	1.0.0.439	7	234	2	3	Verdana	1	80	0	0	0	WM Stimuli\	0.7	1016.85714285714	0.9	750.444444444444	0.9	920.333333333333	1	662.9	0.9	937	1	739.5	0.8	990.625	1	689.1	13	537532	3	537520	27	40	537559	-999999	537535	0	16	Fix15secPROC	""	1	2	70	SessionSelectionList																																															6	451274	-7	0							70												
WM080112	211417_fnca	1	1	1	262615213	1	75.030	75.030	2.0.10.147	2.0.10.242	2.0.10.242	1.0.0.439	7	234	2	3	Verdana	1	80	0	0	0	WM Stimuli\	0.7	1016.85714285714	0.9	750.444444444444	0.9	920.333333333333	1	662.9	0.9	937	1	739.5	0.8	990.625	1	689.1	13	537532	3	537520	27	40	537559	-999999	537535	0	17	Cue0BackPROC	TO_007_TOOL7_BA.png	1	2	71	SessionSelectionList																																										13	466281	-14	0												71												
WM080112	211417_fnca	1	1	1	262615213	1	75.030	75.030	2.0.10.147	2.0.10.242	2.0.10.242	1.0.0.439	7	234	2	3	Verdana	1	80	0	0	0	WM Stimuli\	0.7	1016.85714285714	0.9	750.444444444444	0.9	920.333333333333	1	662.9	0.9	937	1	739.5	0.8	990.625	1	689.1	13	537532	3	537520	27	40	537559	-999999	537535	0	18	TrialsPROC	TO_010_TOOL10_BA.png	1	2	72	SessionSelectionList														nonlure	3	Tools	0-Back	62	80	58	0	0	97	1	39	470866	1	13	59	468827	-1	469778	1	951	3	3	2039	52	470879	-53	0														1		72												
WM080112	211417_fnca	1	1	1	262615213	1	75.030	75.030	2.0.10.147	2.0.10.242	2.0.10.242	1.0.0.439	7	234	2	3	Verdana	1	80	0	0	0	WM Stimuli\	0.7	1016.85714285714	0.9	750.444444444444	0.9	920.333333333333	1	662.9	0.9	937	1	739.5	0.8	990.625	1	689.1	13	537532	3	537520	27	40	537559	-999999	537535	0	18	TrialsPROC	TO_009_TOOL9_BA.png	1	2	73	SessionSelectionList														nonlure	3	Tools	0-Back	63	80	59	0	0	97	2	39	473425	2	13	59	471386	-1	472143	1	757	3	3	2039	52	473438	-53	0														2		73												
WM080112	211417_fnca	1	1	1	262615213	1	75.030	75.030	2.0.10.147	2.0.10.242	2.0.10.242	1.0.0.439	7	234	2	3	Verdana	1	80	0	0	0	WM Stimuli\	0.7	1016.85714285714	0.9	750.444444444444	0.9	920.333333333333	1	662.9	0.9	937	1	739.5	0.8	990.625	1	689.1	13	537532	3	537520	27	40	537559	-999999	537535	0	18	TrialsPROC	TO_009_TOOL9_BA.png	1	2	74	SessionSelectionList														lure	3	Tools	0-Back	64	80	60	0	0	97	3	39	475984	1	13	59	473945	-1	474518	1	573	3	3	2039	52	475997	-53	0														3		74												
WM080112	211417_fnca	1	1	1	262615213	1	75.030	75.030	2.0.10.147	2.0.10.242	2.0.10.242	1.0.0.439	7	234	2	3	Verdana	1	80	0	0	0	WM Stimuli\	0.7	1016.85714285714	0.9	750.444444444444	0.9	920.333333333333	1	662.9	0.9	937	1	739.5	0.8	990.625	1	689.1	13	537532	3	537520	27	40	537559	-999999	537535	0	18	TrialsPROC	TO_008_TOOL8_BA.png	1	2	75	SessionSelectionList														nonlure	3	Tools	0-Back	65	80	61	0	0	97	4	39	478543	1	13	59	476504	-1	477168	1	664	3	3	2039	52	478556	-53	0														4		75												
WM080112	211417_fnca	1	1	1	262615213	1	75.030	75.030	2.0.10.147	2.0.10.242	2.0.10.242	1.0.0.439	7	234	2	3	Verdana	1	80	0	0	0	WM Stimuli\	0.7	1016.85714285714	0.9	750.444444444444	0.9	920.333333333333	1	662.9	0.9	937	1	739.5	0.8	990.625	1	689.1	13	537532	3	537520	27	40	537559	-999999	537535	0	18	TrialsPROC	TO_011_TOOL11_BA.png	1	2	76	SessionSelectionList														nonlure	3	Tools	0-Back	66	80	62	0	0	97	5	40	481102	1	13	58	479062	-1	479678	1	616	3	3	2040	53	481115	-54	0														5		76												
WM080112	211417_fnca	1	1	1	262615213	1	75.030	75.030	2.0.10.147	2.0.10.242	2.0.10.242	1.0.0.439	7	234	2	3	Verdana	1	80	0	0	0	WM Stimuli\	0.7	1016.85714285714	0.9	750.444444444444	0.9	920.333333333333	1	662.9	0.9	937	1	739.5	0.8	990.625	1	689.1	13	537532	3	537520	27	40	537559	-999999	537535	0	18	TrialsPROC	TO_012_TOOL12_BA.png	1	2	77	SessionSelectionList														nonlure	3	Tools	0-Back	67	80	63	0	0	97	6	40	483661	1	13	59	481621	-1	482240	1	619	3	3	2040	53	483674	-54	0														6		77												
WM080112	211417_fnca	1	1	1	262615213	1	75.030	75.030	2.0.10.147	2.0.10.242	2.0.10.242	1.0.0.439	7	234	2	3	Verdana	1	80	0	0	0	WM Stimuli\	0.7	1016.85714285714	0.9	750.444444444444	0.9	920.333333333333	1	662.9	0.9	937	1	739.5	0.8	990.625	1	689.1	13	537532	3	537520	27	40	537559	-999999	537535	0	18	TrialsPROC	TO_010_TOOL10_BA.png	1	2	78	SessionSelectionList														lure	3	Tools	0-Back	68	80	64	0	0	97	7	40	486220	1	13	59	484180	-1	484845	1	665	3	3	2040	53	486233	-54	0														7		78												
WM080112	211417_fnca	1	1	1	262615213	1	75.030	75.030	2.0.10.147	2.0.10.242	2.0.10.242	1.0.0.439	7	234	2	3	Verdana	1	80	0	0	0	WM Stimuli\	0.7	1016.85714285714	0.9	750.444444444444	0.9	920.333333333333	1	662.9	0.9	937	1	739.5	0.8	990.625	1	689.1	13	537532	3	537520	27	40	537559	-999999	537535	0	18	TrialsPROC	TO_007_TOOL7_BA.png	1	2	79	SessionSelectionList														target	2	Tools	0-Back	69	80	65	0	0	97	1	40	488779	1	13	59	486739	-1	487430	1	691	2	2	2040	53	488792	-54	0														8		79												
WM080112	211417_fnca	1	1	1	262615213	1	75.030	75.030	2.0.10.147	2.0.10.242	2.0.10.242	1.0.0.439	7	234	2	3	Verdana	1	80	0	0	0	WM Stimuli\	0.7	1016.85714285714	0.9	750.444444444444	0.9	920.333333333333	1	662.9	0.9	937	1	739.5	0.8	990.625	1	689.1	13	537532	3	537520	27	40	537559	-999999	537535	0	18	TrialsPROC	TO_008_TOOL8_BA.png	1	2	80	SessionSelectionList														lure	3	Tools	0-Back	70	80	66	0	0	97	1	40	491338	1	13	59	489298	-1	490013	1	715	3	3	2040	53	491351	-54	0														9		80												
WM080112	211417_fnca	1	1	1	262615213	1	75.030	75.030	2.0.10.147	2.0.10.242	2.0.10.242	1.0.0.439	7	234	2	3	Verdana	1	80	0	0	0	WM Stimuli\	0.7	1016.85714285714	0.9	750.444444444444	0.9	920.333333333333	1	662.9	0.9	937	1	739.5	0.8	990.625	1	689.1	13	537532	3	537520	27	40	537559	-999999	537535	0	18	TrialsPROC	TO_007_TOOL7_BA.png	1	2	81	SessionSelectionList														target	2	Tools	0-Back	71	80	67	0	0	98	1	40	493897	1	13	59	491857	-1	492497	1	640	2	2	2040	53	493910	-54	0														10		81												
WM080112	211417_fnca	1	1	1	262615213	1	75.030	75.030	2.0.10.147	2.0.10.242	2.0.10.242	1.0.0.439	7	234	2	3	Verdana	1	80	0	0	0	WM Stimuli\	0.7	1016.85714285714	0.9	750.444444444444	0.9	920.333333333333	1	662.9	0.9	937	1	739.5	0.8	990.625	1	689.1	13	537532	3	537520	27	40	537559	-999999	537535	0	19	Cue2BackPROC	""	1	2	82	SessionSelectionList									6	494363	-7	0																																													82												
WM080112	211417_fnca	1	1	1	262615213	1	75.030	75.030	2.0.10.147	2.0.10.242	2.0.10.242	1.0.0.439	7	234	2	3	Verdana	1	80	0	0	0	WM Stimuli\	0.7	1016.85714285714	0.9	750.444444444444	0.9	920.333333333333	1	662.9	0.9	937	1	739.5	0.8	990.625	1	689.1	13	537532	3	537520	27	40	537559	-999999	537535	0	20	TrialsPROC	PL_007_92026.png	1	2	83	SessionSelectionList														nonlure	3	Place	2-Back	72	80	68	0	0	98	1	39	498948	1	14	52	496909	-1	497498	1	589	3	3	2039	53	498962	-54	0															1	83												
WM080112	211417_fnca	1	1	1	262615213	1	75.030	75.030	2.0.10.147	2.0.10.242	2.0.10.242	1.0.0.439	7	234	2	3	Verdana	1	80	0	0	0	WM Stimuli\	0.7	1016.85714285714	0.9	750.444444444444	0.9	920.333333333333	1	662.9	0.9	937	1	739.5	0.8	990.625	1	689.1	13	537532	3	537520	27	40	537559	-999999	537535	0	20	TrialsPROC	PL_007_92026.png	1	2	84	SessionSelectionList														lure	3	Place	2-Back	73	80	69	0	0	98	2	39	501520	2	14	72	499481	-1	500520	1	1039	3	3	2039	53	501534	-54	0															2	84												
WM080112	211417_fnca	1	1	1	262615213	1	75.030	75.030	2.0.10.147	2.0.10.242	2.0.10.242	1.0.0.439	7	234	2	3	Verdana	1	80	0	0	0	WM Stimuli\	0.7	1016.85714285714	0.9	750.444444444444	0.9	920.333333333333	1	662.9	0.9	937	1	739.5	0.8	990.625	1	689.1	13	537532	3	537520	27	40	537559	-999999	537535	0	20	TrialsPROC	PL_010_92038.png	1	2	85	SessionSelectionList														nonlure	3	Place	2-Back	74	80	70	0	0	98	3	39	504079	2	14	59	502040	-1	503015	1	975	3	3	2039	53	504093	-54	0															3	85												
WM080112	211417_fnca	1	1	1	262615213	1	75.030	75.030	2.0.10.147	2.0.10.242	2.0.10.242	1.0.0.439	7	234	2	3	Verdana	1	80	0	0	0	WM Stimuli\	0.7	1016.85714285714	0.9	750.444444444444	0.9	920.333333333333	1	662.9	0.9	937	1	739.5	0.8	990.625	1	689.1	13	537532	3	537520	27	40	537559	-999999	537535	0	20	TrialsPROC	PL_009_92037.png	1	2	86	SessionSelectionList														nonlure	3	Place	2-Back	75	80	71	0	0	98	4	39	506638	2	14	59	504599	-1	505408	1	809	3	3	2039	53	506652	-54	0															4	86												
WM080112	211417_fnca	1	1	1	262615213	1	75.030	75.030	2.0.10.147	2.0.10.242	2.0.10.242	1.0.0.439	7	234	2	3	Verdana	1	80	0	0	0	WM Stimuli\	0.7	1016.85714285714	0.9	750.444444444444	0.9	920.333333333333	1	662.9	0.9	937	1	739.5	0.8	990.625	1	689.1	13	537532	3	537520	27	40	537559	-999999	537535	0	20	TrialsPROC	PL_010_92038.png	1	2	87	SessionSelectionList														target	2	Place	2-Back	76	80	72	0	0	98	1	39	509210	2	14	72	507171	-1	508193	1	1022	2	2	2039	53	509224	-54	0															5	87												
WM080112	211417_fnca	1	1	1	262615213	1	75.030	75.030	2.0.10.147	2.0.10.242	2.0.10.242	1.0.0.439	7	234	2	3	Verdana	1	80	0	0	0	WM Stimuli\	0.7	1016.85714285714	0.9	750.444444444444	0.9	920.333333333333	1	662.9	0.9	937	1	739.5	0.8	990.625	1	689.1	13	537532	3	537520	27	40	537559	-999999	537535	0	20	TrialsPROC	PL_009_92037.png	1	2	88	SessionSelectionList														target	2	Place	2-Back	77	80	73	0	0	98	1	39	511769	2	14	59	509730	-1	510895	0	1165	3	2	2039	53	511783	-54	0															6	88												
WM080112	211417_fnca	1	1	1	262615213	1	75.030	75.030	2.0.10.147	2.0.10.242	2.0.10.242	1.0.0.439	7	234	2	3	Verdana	1	80	0	0	0	WM Stimuli\	0.7	1016.85714285714	0.9	750.444444444444	0.9	920.333333333333	1	662.9	0.9	937	1	739.5	0.8	990.625	1	689.1	13	537532	3	537520	27	40	537559	-999999	537535	0	20	TrialsPROC	PL_008_92033.png	1	2	89	SessionSelectionList														nonlure	3	Place	2-Back	78	80	74	0	0	98	2	39	514342	1	13	73	512303	-1	513084	1	781	3	3	2039	52	514355	-53	0															7	89												
WM080112	211417_fnca	1	1	1	262615213	1	75.030	75.030	2.0.10.147	2.0.10.242	2.0.10.242	1.0.0.439	7	234	2	3	Verdana	1	80	0	0	0	WM Stimuli\	0.7	1016.85714285714	0.9	750.444444444444	0.9	920.333333333333	1	662.9	0.9	937	1	739.5	0.8	990.625	1	689.1	13	537532	3	537520	27	40	537559	-999999	537535	0	20	TrialsPROC	PL_012_92047.png	1	2	90	SessionSelectionList														nonlure	3	Place	2-Back	79	80	75	0	0	98	3	39	516914	2	14	72	514875	-1	515748	1	873	3	3	2039	53	516928	-54	0															8	90												
WM080112	211417_fnca	1	1	1	262615213	1	75.030	75.030	2.0.10.147	2.0.10.242	2.0.10.242	1.0.0.439	7	234	2	3	Verdana	1	80	0	0	0	WM Stimuli\	0.7	1016.85714285714	0.9	750.444444444444	0.9	920.333333333333	1	662.9	0.9	937	1	739.5	0.8	990.625	1	689.1	13	537532	3	537520	27	40	537559	-999999	537535	0	20	TrialsPROC	PL_012_92047.png	1	2	91	SessionSelectionList														lure	3	Place	2-Back	80	80	76	0	0	98	4	39	519486	2	14	72	517447	-1	518700	1	1253	3	3	2039	53	519500	-54	0															9	91												
WM080112	211417_fnca	1	1	1	262615213	1	75.030	75.030	2.0.10.147	2.0.10.242	2.0.10.242	1.0.0.439	7	234	2	3	Verdana	1	80	0	0	0	WM Stimuli\	0.7	1016.85714285714	0.9	750.444444444444	0.9	920.333333333333	1	662.9	0.9	937	1	739.5	0.8	990.625	1	689.1	13	537532	3	537520	27	40	537559	-999999	537535	0	20	TrialsPROC	PL_011_92044.png	1	2	92	SessionSelectionList														nonlure	3	Place	2-Back	80	80	77	0	0	98	5	40	522059	1	13	72	520019	-1	521111	1	1092	3	3	2040	53	522072	-54	0															10	92												
WM080112	211417_fnca	1	1	1	262615213	1	75.030	75.030	2.0.10.147	2.0.10.242	2.0.10.242	1.0.0.439	7	234	2	3	Verdana	1	80	0	0	0	WM Stimuli\	0.7	1016.85714285714	0.9	750.444444444444	0.9	920.333333333333	1	662.9	0.9	937	1	739.5	0.8	990.625	1	689.1	13	537532	3	537520	27	40	537559	-999999	537535	0	21	Fix15secPROC	""	1	2	93	SessionSelectionList																																															6	522525	-7	0							93												
