ExperimentName	HCPID	RunNumber	Subject	Session	RandomSeed	Group	Laptop.RefreshRate	ScannerD2.RefreshRate	StudioVersion	RuntimeVersion	RuntimeVersionExpected	ExperimentVersion	triggercode	Allowed	Target	Nontarget	FontStyle	RunTrialNumber[Session]	TrialsPerRun[Session]	TotalRespGreater200[Session]	ConsecRTLess200[Session]	ConsecNonResp[Session]	StimuliDir	ACC_2_Back_Body	Avg_RT_For_Correct_Trials_2_Back_Body	ACC_0_Back_Body	Avg_RT_For_Correct_Trials_0_Back_Body	ACC_2_Back_Face	Avg_RT_For_Correct_Trials_2_Back_Face	ACC_0_Back_Face	Avg_RT_For_Correct_Trials_0_Back_Face	ACC_2_Back_Place	Avg_RT_For_Correct_Trials_2_Back_Place	ACC_0_Back_Place	Avg_RT_For_Correct_Trials_0_Back_Place	ACC_2_Back_Tools	Avg_RT_For_Correct_Trials_2_Back_Tools	ACC_0_Back_Tools	Avg_RT_For_Correct_Trials_0_Back_Tools	ExpInstrucFeelFreeToRest.OnsetDelay	ExpInstrucFeelFreeToRest.OnsetTime	ExpInstrucFeelFreeToRest.DurationError	ExpInstrucFeelFreeToRest.StartTime	ExpInstrucFeelFreeToRest.OnsetToOnsetTime	FeelFreeToRest.OnsetDelay	FeelFreeToRest.OnsetTime	FeelFreeToRest.DurationError	FeelFreeToRest.StartTime	FeelFreeToRest.OnsetToOnsetTime	SessionSelectionList	Procedure[Block]	Stimulus[Block]	RunNumberFilterValue	SessionSelectionList.Cycle	SessionSelectionList.Sample	Running[Block]	IntroButtonMap.OnsetDelay	IntroButtonMap.OnsetTime	IntroButtonMap.DurationError	IntroButtonMap.OnsetToOnsetTime	GetReady.OnsetDelay	GetReady.OnsetTime	GetReady.DurationError	GetReady.OnsetToOnsetTime	Cue2Back.OnsetDelay	Cue2Back.OnsetTime	Cue2Back.DurationError	Cue2Back.OnsetToOnsetTime	Run1Block1	TargetType	CorrectResponse	StimType	BlockType	RunTrialNumber[Block]	TrialsPerRun[Block]	TotalRespGreater200[Block]	ConsecRTLess200[Block]	ConsecNonResp[Block]	ControlAcc	ConsecSameResp	ExperimenterWindow.OnsetDelay	ExperimenterWindow.OnsetTime	ExperimenterWindow.DurationError	ExperimenterWindow.OnsetToOnsetTime	Stim.OnsetDelay	Stim.OnsetTime	Stim.DurationError	Stim.RTTime	Stim.ACC	Stim.RT	Stim.RESP	Stim.CRESP	Stim.OnsetToOnsetTime	Fix.OnsetDelay	Fix.OnsetTime	Fix.DurationError	Fix.OnsetToOnsetTime	CueTarget.OnsetDelay	CueTarget.OnsetTime	CueTarget.DurationError	CueTarget.OnsetToOnsetTime	Run1Block2	Fix15sec.OnsetDelay	Fix15sec.OnsetTime	Fix15sec.DurationError	Fix15sec.OnsetToOnsetTime	Run1Block3	Run1Block4	Run1Block5	Run1Block6	Run1Block7	Run1Block8	Block	Procedure[Trial]	Stimulus[Trial]	ReadyList	Running[Trial]	ReadyList.Cycle	ReadyList.Sample	SyncSlide.OnsetDelay	SyncSlide.OnsetTime	SyncSlide.DurationError	SyncSlide.FinishTime	SyncSlide.OnsetToOnsetTime	Trial
WM080112	239944_fnca	1	1	1	823810839	1	75.031	75.031	2.0.10.147	2.0.10.242	2.0.10.242	1.0.0.439	7	234	2	3	Verdana	1	80	0	0	0	WM Stimuli\	0.5	1144.2	0.9	739.888888888889	0.5	1153.2	0.9	770.111111111111	0.6	1307.33333333333	1	789.4	0.6	1155	1	740.4	13	413712	2	413700	26	39	413738	-999999	413715	0	1	TRSyncPROC	""	1	2	1	SessionSelectionList	115	27671	-999999	0	35	105066	-999999	0																																																	1	InitialTR	4	1	ReadyList	1	1	10	119459	-11	121448	0	1
WM080112	239944_fnca	1	1	1	823810839	1	75.031	75.031	2.0.10.147	2.0.10.242	2.0.10.242	1.0.0.439	7	234	2	3	Verdana	1	80	0	0	0	WM Stimuli\	0.5	1144.2	0.9	739.888888888889	0.5	1153.2	0.9	770.111111111111	0.6	1307.33333333333	1	789.4	0.6	1155	1	740.4	13	413712	2	413700	26	39	413738	-999999	413715	0	1	TRSyncPROC	""	1	2	1	SessionSelectionList	115	27671	-999999	0	35	105066	-999999	0																																																	1	InitialTR	3	2	ReadyList	1	2	10	121459	-11	123448	0	2
WM080112	239944_fnca	1	1	1	823810839	1	75.031	75.031	2.0.10.147	2.0.10.242	2.0.10.242	1.0.0.439	7	234	2	3	Verdana	1	80	0	0	0	WM Stimuli\	0.5	1144.2	0.9	739.888888888889	0.5	1153.2	0.9	770.111111111111	0.6	1307.33333333333	1	789.4	0.6	1155	1	740.4	13	413712	2	413700	26	39	413738	-999999	413715	0	1	TRSyncPROC	""	1	2	1	SessionSelectionList	115	27671	-999999	0	35	105066	-999999	0																																																	1	InitialTR	2	3	ReadyList	1	3	9	123458	-10	125448	0	3
WM080112	239944_fnca	1	1	1	823810839	1	75.031	75.031	2.0.10.147	2.0.10.242	2.0.10.242	1.0.0.439	7	234	2	3	Verdana	1	80	0	0	0	WM Stimuli\	0.5	1144.2	0.9	739.888888888889	0.5	1153.2	0.9	770.111111111111	0.6	1307.33333333333	1	789.4	0.6	1155	1	740.4	13	413712	2	413700	26	39	413738	-999999	413715	0	1	TRSyncPROC	""	1	2	1	SessionSelectionList	115	27671	-999999	0	35	105066	-999999	0																																																	1	InitialTR	1	4	ReadyList	1	4	8	125457	-9	127448	0	4
WM080112	239944_fnca	1	1	1	823810839	1	75.031	75.031	2.0.10.147	2.0.10.242	2.0.10.242	1.0.0.439	7	234	2	3	Verdana	1	80	0	0	0	WM Stimuli\	0.5	1144.2	0.9	739.888888888889	0.5	1153.2	0.9	770.111111111111	0.6	1307.33333333333	1	789.4	0.6	1155	1	740.4	13	413712	2	413700	26	39	413738	-999999	413715	0	2	Cue2BackPROC	""	1	2	2	SessionSelectionList									7	127456	-8	0																																													2												
WM080112	239944_fnca	1	1	1	823810839	1	75.031	75.031	2.0.10.147	2.0.10.242	2.0.10.242	1.0.0.439	7	234	2	3	Verdana	1	80	0	0	0	WM Stimuli\	0.5	1144.2	0.9	739.888888888889	0.5	1153.2	0.9	770.111111111111	0.6	1307.33333333333	1	789.4	0.6	1155	1	740.4	13	413712	2	413700	26	39	413738	-999999	413715	0	3	TrialsPROC	BP_002_BP10_BA.png	1	2	3	SessionSelectionList													1	nonlure	3	Body	2-Back	2	80	0	0	1	0	0	53	132108	2	13	106	130055	-1	0	0	0	""	3	2053	66	132121	-67	0																3												
WM080112	239944_fnca	1	1	1	823810839	1	75.031	75.031	2.0.10.147	2.0.10.242	2.0.10.242	1.0.0.439	7	234	2	3	Verdana	1	80	0	0	0	WM Stimuli\	0.5	1144.2	0.9	739.888888888889	0.5	1153.2	0.9	770.111111111111	0.6	1307.33333333333	1	789.4	0.6	1155	1	740.4	13	413712	2	413700	26	39	413738	-999999	413715	0	3	TrialsPROC	BP_001_BP1_BA.png	1	2	4	SessionSelectionList													2	nonlure	3	Body	2-Back	3	80	0	0	2	0	0	39	134680	1	13	86	132641	-1	0	0	0	""	3	2039	52	134693	-53	0																4												
WM080112	239944_fnca	1	1	1	823810839	1	75.031	75.031	2.0.10.147	2.0.10.242	2.0.10.242	1.0.0.439	7	234	2	3	Verdana	1	80	0	0	0	WM Stimuli\	0.5	1144.2	0.9	739.888888888889	0.5	1153.2	0.9	770.111111111111	0.6	1307.33333333333	1	789.4	0.6	1155	1	740.4	13	413712	2	413700	26	39	413738	-999999	413715	0	3	TrialsPROC	BP_006_BP2_BA.png	1	2	5	SessionSelectionList													3	nonlure	3	Body	2-Back	4	80	0	0	3	0	0	39	137265	2	14	85	135226	-1	0	0	0	""	3	2039	53	137279	-54	0																5												
WM080112	239944_fnca	1	1	1	823810839	1	75.031	75.031	2.0.10.147	2.0.10.242	2.0.10.242	1.0.0.439	7	234	2	3	Verdana	1	80	0	0	0	WM Stimuli\	0.5	1144.2	0.9	739.888888888889	0.5	1153.2	0.9	770.111111111111	0.6	1307.33333333333	1	789.4	0.6	1155	1	740.4	13	413712	2	413700	26	39	413738	-999999	413715	0	3	TrialsPROC	BP_001_BP1_BA.png	1	2	6	SessionSelectionList													4	target	2	Body	2-Back	5	80	1	0	0	0	1	39	139838	1	13	73	137799	-1	139552	1	1753	2	2	2039	52	139851	-53	0																6												
WM080112	239944_fnca	1	1	1	823810839	1	75.031	75.031	2.0.10.147	2.0.10.242	2.0.10.242	1.0.0.439	7	234	2	3	Verdana	1	80	0	0	0	WM Stimuli\	0.5	1144.2	0.9	739.888888888889	0.5	1153.2	0.9	770.111111111111	0.6	1307.33333333333	1	789.4	0.6	1155	1	740.4	13	413712	2	413700	26	39	413738	-999999	413715	0	3	TrialsPROC	BP_005_BP19_BA.png	1	2	7	SessionSelectionList													5	nonlure	3	Body	2-Back	6	80	2	0	0	0	1	39	142423	2	14	85	140384	-1	141439	1	1055	3	3	2039	53	142437	-54	0																7												
WM080112	239944_fnca	1	1	1	823810839	1	75.031	75.031	2.0.10.147	2.0.10.242	2.0.10.242	1.0.0.439	7	234	2	3	Verdana	1	80	0	0	0	WM Stimuli\	0.5	1144.2	0.9	739.888888888889	0.5	1153.2	0.9	770.111111111111	0.6	1307.33333333333	1	789.4	0.6	1155	1	740.4	13	413712	2	413700	26	39	413738	-999999	413715	0	3	TrialsPROC	BP_003_BP16_BA.png	1	2	8	SessionSelectionList													6	nonlure	3	Body	2-Back	7	80	3	0	0	0	2	39	145009	1	13	86	142970	-1	143856	1	886	3	3	2039	52	145022	-53	0																8												
WM080112	239944_fnca	1	1	1	823810839	1	75.031	75.031	2.0.10.147	2.0.10.242	2.0.10.242	1.0.0.439	7	234	2	3	Verdana	1	80	0	0	0	WM Stimuli\	0.5	1144.2	0.9	739.888888888889	0.5	1153.2	0.9	770.111111111111	0.6	1307.33333333333	1	789.4	0.6	1155	1	740.4	13	413712	2	413700	26	39	413738	-999999	413715	0	3	TrialsPROC	BP_006_BP2_BA.png	1	2	9	SessionSelectionList													7	lure	3	Body	2-Back	8	80	3	0	1	0	2	39	147568	1	13	59	145529	-1	0	0	0	""	3	2039	52	147581	-53	0																9												
WM080112	239944_fnca	1	1	1	823810839	1	75.031	75.031	2.0.10.147	2.0.10.242	2.0.10.242	1.0.0.439	7	234	2	3	Verdana	1	80	0	0	0	WM Stimuli\	0.5	1144.2	0.9	739.888888888889	0.5	1153.2	0.9	770.111111111111	0.6	1307.33333333333	1	789.4	0.6	1155	1	740.4	13	413712	2	413700	26	39	413738	-999999	413715	0	3	TrialsPROC	BP_004_BP18_BA.png	1	2	10	SessionSelectionList													8	nonlure	3	Body	2-Back	9	80	4	0	0	0	1	39	150153	2	14	85	148114	-1	149205	1	1091	3	3	2039	53	150167	-54	0																10												
WM080112	239944_fnca	1	1	1	823810839	1	75.031	75.031	2.0.10.147	2.0.10.242	2.0.10.242	1.0.0.439	7	234	2	3	Verdana	1	80	0	0	0	WM Stimuli\	0.5	1144.2	0.9	739.888888888889	0.5	1153.2	0.9	770.111111111111	0.6	1307.33333333333	1	789.4	0.6	1155	1	740.4	13	413712	2	413700	26	39	413738	-999999	413715	0	3	TrialsPROC	BP_005_BP19_BA.png	1	2	11	SessionSelectionList													9	lure	3	Body	2-Back	10	80	5	0	0	0	2	39	152712	2	14	59	150673	-1	151609	1	936	3	3	2039	53	152726	-54	0																11												
WM080112	239944_fnca	1	1	1	823810839	1	75.031	75.031	2.0.10.147	2.0.10.242	2.0.10.242	1.0.0.439	7	234	2	3	Verdana	1	80	0	0	0	WM Stimuli\	0.5	1144.2	0.9	739.888888888889	0.5	1153.2	0.9	770.111111111111	0.6	1307.33333333333	1	789.4	0.6	1155	1	740.4	13	413712	2	413700	26	39	413738	-999999	413715	0	3	TrialsPROC	BP_004_BP18_BA.png	1	2	12	SessionSelectionList													10	target	2	Body	2-Back	11	80	6	0	0	0	3	39	155271	2	14	59	153232	-1	154687	0	1455	3	2	2039	53	155285	-54	0																12												
WM080112	239944_fnca	1	1	1	823810839	1	75.031	75.031	2.0.10.147	2.0.10.242	2.0.10.242	1.0.0.439	7	234	2	3	Verdana	1	80	0	0	0	WM Stimuli\	0.5	1144.2	0.9	739.888888888889	0.5	1153.2	0.9	770.111111111111	0.6	1307.33333333333	1	789.4	0.6	1155	1	740.4	13	413712	2	413700	26	39	413738	-999999	413715	0	4	Cue0BackPROC	FC_001_M1.png	1	2	13	SessionSelectionList																																										59	155791	-60	0												13												
WM080112	239944_fnca	1	1	1	823810839	1	75.031	75.031	2.0.10.147	2.0.10.242	2.0.10.242	1.0.0.439	7	234	2	3	Verdana	1	80	0	0	0	WM Stimuli\	0.5	1144.2	0.9	739.888888888889	0.5	1153.2	0.9	770.111111111111	0.6	1307.33333333333	1	789.4	0.6	1155	1	740.4	13	413712	2	413700	26	39	413738	-999999	413715	0	5	TrialsPROC	FC_005_M3.png	1	2	14	SessionSelectionList														nonlure	3	Face	0-Back	12	80	7	0	0	100	4	39	160349	2	14	78	158310	-1	159248	1	938	3	3	2039	53	160363	-54	0					1											14												
WM080112	239944_fnca	1	1	1	823810839	1	75.031	75.031	2.0.10.147	2.0.10.242	2.0.10.242	1.0.0.439	7	234	2	3	Verdana	1	80	0	0	0	WM Stimuli\	0.5	1144.2	0.9	739.888888888889	0.5	1153.2	0.9	770.111111111111	0.6	1307.33333333333	1	789.4	0.6	1155	1	740.4	13	413712	2	413700	26	39	413738	-999999	413715	0	5	TrialsPROC	FC_001_M1.png	1	2	15	SessionSelectionList														target	2	Face	0-Back	13	80	8	0	0	100	1	40	162922	1	13	72	160882	-1	161563	1	681	2	2	2040	53	162935	-54	0					2											15												
WM080112	239944_fnca	1	1	1	823810839	1	75.031	75.031	2.0.10.147	2.0.10.242	2.0.10.242	1.0.0.439	7	234	2	3	Verdana	1	80	0	0	0	WM Stimuli\	0.5	1144.2	0.9	739.888888888889	0.5	1153.2	0.9	770.111111111111	0.6	1307.33333333333	1	789.4	0.6	1155	1	740.4	13	413712	2	413700	26	39	413738	-999999	413715	0	5	TrialsPROC	FC_003_M2.png	1	2	16	SessionSelectionList														nonlure	3	Face	0-Back	14	80	9	0	0	100	1	39	165520	2	14	99	163481	-1	164041	1	560	3	3	2039	53	165534	-54	0					3											16												
WM080112	239944_fnca	1	1	1	823810839	1	75.031	75.031	2.0.10.147	2.0.10.242	2.0.10.242	1.0.0.439	7	234	2	3	Verdana	1	80	0	0	0	WM Stimuli\	0.5	1144.2	0.9	739.888888888889	0.5	1153.2	0.9	770.111111111111	0.6	1307.33333333333	1	789.4	0.6	1155	1	740.4	13	413712	2	413700	26	39	413738	-999999	413715	0	5	TrialsPROC	FC_004_F2.png	1	2	17	SessionSelectionList														nonlure	3	Face	0-Back	15	80	10	0	0	100	2	39	168119	2	14	99	166080	-1	166883	1	803	3	3	2039	53	168133	-54	0					4											17												
WM080112	239944_fnca	1	1	1	823810839	1	75.031	75.031	2.0.10.147	2.0.10.242	2.0.10.242	1.0.0.439	7	234	2	3	Verdana	1	80	0	0	0	WM Stimuli\	0.5	1144.2	0.9	739.888888888889	0.5	1153.2	0.9	770.111111111111	0.6	1307.33333333333	1	789.4	0.6	1155	1	740.4	13	413712	2	413700	26	39	413738	-999999	413715	0	5	TrialsPROC	FC_004_F2.png	1	2	18	SessionSelectionList														lure	3	Face	0-Back	16	80	10	0	1	80	2	39	170692	1	13	73	168653	-1	0	0	0	""	3	2039	52	170705	-53	0					5											18												
WM080112	239944_fnca	1	1	1	823810839	1	75.031	75.031	2.0.10.147	2.0.10.242	2.0.10.242	1.0.0.439	7	234	2	3	Verdana	1	80	0	0	0	WM Stimuli\	0.5	1144.2	0.9	739.888888888889	0.5	1153.2	0.9	770.111111111111	0.6	1307.33333333333	1	789.4	0.6	1155	1	740.4	13	413712	2	413700	26	39	413738	-999999	413715	0	5	TrialsPROC	FC_001_M1.png	1	2	19	SessionSelectionList														target	2	Face	0-Back	17	80	11	0	0	83	1	39	173264	1	13	72	171225	-1	171934	1	709	2	2	2039	52	173277	-53	0					6											19												
WM080112	239944_fnca	1	1	1	823810839	1	75.031	75.031	2.0.10.147	2.0.10.242	2.0.10.242	1.0.0.439	7	234	2	3	Verdana	1	80	0	0	0	WM Stimuli\	0.5	1144.2	0.9	739.888888888889	0.5	1153.2	0.9	770.111111111111	0.6	1307.33333333333	1	789.4	0.6	1155	1	740.4	13	413712	2	413700	26	39	413738	-999999	413715	0	5	TrialsPROC	FC_006_F3.png	1	2	20	SessionSelectionList														nonlure	3	Face	0-Back	18	80	12	0	0	86	1	39	175863	1	13	99	173824	-1	174430	1	606	3	3	2039	52	175876	-53	0					7											20												
WM080112	239944_fnca	1	1	1	823810839	1	75.031	75.031	2.0.10.147	2.0.10.242	2.0.10.242	1.0.0.439	7	234	2	3	Verdana	1	80	0	0	0	WM Stimuli\	0.5	1144.2	0.9	739.888888888889	0.5	1153.2	0.9	770.111111111111	0.6	1307.33333333333	1	789.4	0.6	1155	1	740.4	13	413712	2	413700	26	39	413738	-999999	413715	0	5	TrialsPROC	FC_006_F3.png	1	2	21	SessionSelectionList														lure	3	Face	0-Back	19	80	13	0	0	88	2	39	178435	2	14	72	176396	-1	177187	1	791	3	3	2039	53	178449	-54	0					8											21												
WM080112	239944_fnca	1	1	1	823810839	1	75.031	75.031	2.0.10.147	2.0.10.242	2.0.10.242	1.0.0.439	7	234	2	3	Verdana	1	80	0	0	0	WM Stimuli\	0.5	1144.2	0.9	739.888888888889	0.5	1153.2	0.9	770.111111111111	0.6	1307.33333333333	1	789.4	0.6	1155	1	740.4	13	413712	2	413700	26	39	413738	-999999	413715	0	5	TrialsPROC	FC_003_M2.png	1	2	22	SessionSelectionList														lure	3	Face	0-Back	20	80	14	0	0	89	3	39	181007	2	14	72	178968	-1	180005	1	1037	3	3	2039	53	181021	-54	0					9											22												
WM080112	239944_fnca	1	1	1	823810839	1	75.031	75.031	2.0.10.147	2.0.10.242	2.0.10.242	1.0.0.439	7	234	2	3	Verdana	1	80	0	0	0	WM Stimuli\	0.5	1144.2	0.9	739.888888888889	0.5	1153.2	0.9	770.111111111111	0.6	1307.33333333333	1	789.4	0.6	1155	1	740.4	13	413712	2	413700	26	39	413738	-999999	413715	0	5	TrialsPROC	FC_002_F1.png	1	2	23	SessionSelectionList														nonlure	3	Face	0-Back	21	80	15	0	0	90	4	39	183606	2	14	99	181567	-1	182373	1	806	3	3	2039	53	183620	-54	0					10											23												
WM080112	239944_fnca	1	1	1	823810839	1	75.031	75.031	2.0.10.147	2.0.10.242	2.0.10.242	1.0.0.439	7	234	2	3	Verdana	1	80	0	0	0	WM Stimuli\	0.5	1144.2	0.9	739.888888888889	0.5	1153.2	0.9	770.111111111111	0.6	1307.33333333333	1	789.4	0.6	1155	1	740.4	13	413712	2	413700	26	39	413738	-999999	413715	0	6	Fix15secPROC	""	1	2	24	SessionSelectionList																																															6	184073	-7	0							24												
WM080112	239944_fnca	1	1	1	823810839	1	75.031	75.031	2.0.10.147	2.0.10.242	2.0.10.242	1.0.0.439	7	234	2	3	Verdana	1	80	0	0	0	WM Stimuli\	0.5	1144.2	0.9	739.888888888889	0.5	1153.2	0.9	770.111111111111	0.6	1307.33333333333	1	789.4	0.6	1155	1	740.4	13	413712	2	413700	26	39	413738	-999999	413715	0	7	Cue2BackPROC	""	1	2	25	SessionSelectionList									13	199080	-14	0																																													25												
WM080112	239944_fnca	1	1	1	823810839	1	75.031	75.031	2.0.10.147	2.0.10.242	2.0.10.242	1.0.0.439	7	234	2	3	Verdana	1	80	0	0	0	WM Stimuli\	0.5	1144.2	0.9	739.888888888889	0.5	1153.2	0.9	770.111111111111	0.6	1307.33333333333	1	789.4	0.6	1155	1	740.4	13	413712	2	413700	26	39	413738	-999999	413715	0	8	TrialsPROC	TO_001_TOOL1_BA.png	1	2	26	SessionSelectionList														nonlure	3	Tools	2-Back	22	80	15	0	1	90	4	39	203691	2	14	85	201652	-1	0	0	0	""	3	2039	53	203705	-54	0										1						26												
WM080112	239944_fnca	1	1	1	823810839	1	75.031	75.031	2.0.10.147	2.0.10.242	2.0.10.242	1.0.0.439	7	234	2	3	Verdana	1	80	0	0	0	WM Stimuli\	0.5	1144.2	0.9	739.888888888889	0.5	1153.2	0.9	770.111111111111	0.6	1307.33333333333	1	789.4	0.6	1155	1	740.4	13	413712	2	413700	26	39	413738	-999999	413715	0	8	TrialsPROC	TO_002_TOOL2_BA.png	1	2	27	SessionSelectionList														nonlure	3	Tools	2-Back	23	80	15	0	2	90	4	39	206290	2	14	99	204251	-1	0	0	0	""	3	2039	53	206304	-54	0										2						27												
WM080112	239944_fnca	1	1	1	823810839	1	75.031	75.031	2.0.10.147	2.0.10.242	2.0.10.242	1.0.0.439	7	234	2	3	Verdana	1	80	0	0	0	WM Stimuli\	0.5	1144.2	0.9	739.888888888889	0.5	1153.2	0.9	770.111111111111	0.6	1307.33333333333	1	789.4	0.6	1155	1	740.4	13	413712	2	413700	26	39	413738	-999999	413715	0	8	TrialsPROC	TO_004_TOOL4_BA.png	1	2	28	SessionSelectionList														nonlure	3	Tools	2-Back	24	80	16	0	0	90	1	39	208876	1	13	86	206837	-1	208047	1	1210	3	3	2039	52	208889	-53	0										3						28												
WM080112	239944_fnca	1	1	1	823810839	1	75.031	75.031	2.0.10.147	2.0.10.242	2.0.10.242	1.0.0.439	7	234	2	3	Verdana	1	80	0	0	0	WM Stimuli\	0.5	1144.2	0.9	739.888888888889	0.5	1153.2	0.9	770.111111111111	0.6	1307.33333333333	1	789.4	0.6	1155	1	740.4	13	413712	2	413700	26	39	413738	-999999	413715	0	8	TrialsPROC	TO_002_TOOL2_BA.png	1	2	29	SessionSelectionList														target	2	Tools	2-Back	25	80	17	0	0	90	2	39	211435	1	13	59	209396	-1	210472	0	1076	3	2	2039	52	211448	-53	0										4						29												
WM080112	239944_fnca	1	1	1	823810839	1	75.031	75.031	2.0.10.147	2.0.10.242	2.0.10.242	1.0.0.439	7	234	2	3	Verdana	1	80	0	0	0	WM Stimuli\	0.5	1144.2	0.9	739.888888888889	0.5	1153.2	0.9	770.111111111111	0.6	1307.33333333333	1	789.4	0.6	1155	1	740.4	13	413712	2	413700	26	39	413738	-999999	413715	0	8	TrialsPROC	TO_001_TOOL1_BA.png	1	2	30	SessionSelectionList														lure	3	Tools	2-Back	26	80	18	0	0	90	1	39	213994	1	13	59	211955	-1	212921	0	966	2	3	2039	52	214007	-53	0										5						30												
WM080112	239944_fnca	1	1	1	823810839	1	75.031	75.031	2.0.10.147	2.0.10.242	2.0.10.242	1.0.0.439	7	234	2	3	Verdana	1	80	0	0	0	WM Stimuli\	0.5	1144.2	0.9	739.888888888889	0.5	1153.2	0.9	770.111111111111	0.6	1307.33333333333	1	789.4	0.6	1155	1	740.4	13	413712	2	413700	26	39	413738	-999999	413715	0	8	TrialsPROC	TO_004_TOOL4_BA.png	1	2	31	SessionSelectionList														lure	3	Tools	2-Back	27	80	19	0	0	90	1	39	216553	1	13	59	214514	-1	215918	1	1404	3	3	2039	52	216566	-53	0										6						31												
WM080112	239944_fnca	1	1	1	823810839	1	75.031	75.031	2.0.10.147	2.0.10.242	2.0.10.242	1.0.0.439	7	234	2	3	Verdana	1	80	0	0	0	WM Stimuli\	0.5	1144.2	0.9	739.888888888889	0.5	1153.2	0.9	770.111111111111	0.6	1307.33333333333	1	789.4	0.6	1155	1	740.4	13	413712	2	413700	26	39	413738	-999999	413715	0	8	TrialsPROC	TO_006_TOOL6_BA.png	1	2	32	SessionSelectionList														nonlure	3	Tools	2-Back	28	80	20	0	0	90	2	39	219138	2	14	85	217099	-1	218059	1	960	3	3	2039	53	219152	-54	0										7						32												
WM080112	239944_fnca	1	1	1	823810839	1	75.031	75.031	2.0.10.147	2.0.10.242	2.0.10.242	1.0.0.439	7	234	2	3	Verdana	1	80	0	0	0	WM Stimuli\	0.5	1144.2	0.9	739.888888888889	0.5	1153.2	0.9	770.111111111111	0.6	1307.33333333333	1	789.4	0.6	1155	1	740.4	13	413712	2	413700	26	39	413738	-999999	413715	0	8	TrialsPROC	TO_005_TOOL5_BA.png	1	2	33	SessionSelectionList														nonlure	3	Tools	2-Back	29	80	21	0	0	90	3	39	221724	1	13	86	219685	-1	220820	1	1135	3	3	2039	52	221737	-53	0										8						33												
WM080112	239944_fnca	1	1	1	823810839	1	75.031	75.031	2.0.10.147	2.0.10.242	2.0.10.242	1.0.0.439	7	234	2	3	Verdana	1	80	0	0	0	WM Stimuli\	0.5	1144.2	0.9	739.888888888889	0.5	1153.2	0.9	770.111111111111	0.6	1307.33333333333	1	789.4	0.6	1155	1	740.4	13	413712	2	413700	26	39	413738	-999999	413715	0	8	TrialsPROC	TO_006_TOOL6_BA.png	1	2	34	SessionSelectionList														target	2	Tools	2-Back	30	80	22	0	0	90	1	39	224283	1	13	59	222244	-1	223117	1	873	2	2	2039	52	224296	-53	0										9						34												
WM080112	239944_fnca	1	1	1	823810839	1	75.031	75.031	2.0.10.147	2.0.10.242	2.0.10.242	1.0.0.439	7	234	2	3	Verdana	1	80	0	0	0	WM Stimuli\	0.5	1144.2	0.9	739.888888888889	0.5	1153.2	0.9	770.111111111111	0.6	1307.33333333333	1	789.4	0.6	1155	1	740.4	13	413712	2	413700	26	39	413738	-999999	413715	0	8	TrialsPROC	TO_003_TOOL3_BA.png	1	2	35	SessionSelectionList														nonlure	3	Tools	2-Back	31	80	23	0	0	90	1	40	226869	1	13	85	224829	-1	226177	1	1348	3	3	2040	53	226882	-54	0										10						35												
WM080112	239944_fnca	1	1	1	823810839	1	75.031	75.031	2.0.10.147	2.0.10.242	2.0.10.242	1.0.0.439	7	234	2	3	Verdana	1	80	0	0	0	WM Stimuli\	0.5	1144.2	0.9	739.888888888889	0.5	1153.2	0.9	770.111111111111	0.6	1307.33333333333	1	789.4	0.6	1155	1	740.4	13	413712	2	413700	26	39	413738	-999999	413715	0	9	Cue0BackPROC	BP_007_BP20_BA.png	1	2	36	SessionSelectionList																																										46	227375	-47	0												36												
WM080112	239944_fnca	1	1	1	823810839	1	75.031	75.031	2.0.10.147	2.0.10.242	2.0.10.242	1.0.0.439	7	234	2	3	Verdana	1	80	0	0	0	WM Stimuli\	0.5	1144.2	0.9	739.888888888889	0.5	1153.2	0.9	770.111111111111	0.6	1307.33333333333	1	789.4	0.6	1155	1	740.4	13	413712	2	413700	26	39	413738	-999999	413715	0	10	TrialsPROC	BP_007_BP20_BA.png	1	2	37	SessionSelectionList														target	2	Body	0-Back	32	80	23	0	1	82	1	39	231920	1	13	52	229881	-1	0	0	0	""	2	2039	52	231933	-53	0											1					37												
WM080112	239944_fnca	1	1	1	823810839	1	75.031	75.031	2.0.10.147	2.0.10.242	2.0.10.242	1.0.0.439	7	234	2	3	Verdana	1	80	0	0	0	WM Stimuli\	0.5	1144.2	0.9	739.888888888889	0.5	1153.2	0.9	770.111111111111	0.6	1307.33333333333	1	789.4	0.6	1155	1	740.4	13	413712	2	413700	26	39	413738	-999999	413715	0	10	TrialsPROC	BP_011_BP4_BA.png	1	2	38	SessionSelectionList														nonlure	3	Body	0-Back	33	80	24	0	0	83	1	39	234519	1	13	99	232480	-1	233238	1	758	3	3	2039	52	234532	-53	0											2					38												
WM080112	239944_fnca	1	1	1	823810839	1	75.031	75.031	2.0.10.147	2.0.10.242	2.0.10.242	1.0.0.439	7	234	2	3	Verdana	1	80	0	0	0	WM Stimuli\	0.5	1144.2	0.9	739.888888888889	0.5	1153.2	0.9	770.111111111111	0.6	1307.33333333333	1	789.4	0.6	1155	1	740.4	13	413712	2	413700	26	39	413738	-999999	413715	0	10	TrialsPROC	BP_010_BP3_BA.png	1	2	39	SessionSelectionList														nonlure	3	Body	0-Back	34	80	25	0	0	85	2	40	237118	1	13	98	235078	-1	235770	1	692	3	3	2040	53	237131	-54	0											3					39												
WM080112	239944_fnca	1	1	1	823810839	1	75.031	75.031	2.0.10.147	2.0.10.242	2.0.10.242	1.0.0.439	7	234	2	3	Verdana	1	80	0	0	0	WM Stimuli\	0.5	1144.2	0.9	739.888888888889	0.5	1153.2	0.9	770.111111111111	0.6	1307.33333333333	1	789.4	0.6	1155	1	740.4	13	413712	2	413700	26	39	413738	-999999	413715	0	10	TrialsPROC	BP_008_BP21_BA.png	1	2	40	SessionSelectionList														nonlure	3	Body	0-Back	35	80	26	0	0	86	3	39	239703	2	14	86	237664	-1	238725	1	1061	3	3	2039	53	239717	-54	0											4					40												
WM080112	239944_fnca	1	1	1	823810839	1	75.031	75.031	2.0.10.147	2.0.10.242	2.0.10.242	1.0.0.439	7	234	2	3	Verdana	1	80	0	0	0	WM Stimuli\	0.5	1144.2	0.9	739.888888888889	0.5	1153.2	0.9	770.111111111111	0.6	1307.33333333333	1	789.4	0.6	1155	1	740.4	13	413712	2	413700	26	39	413738	-999999	413715	0	10	TrialsPROC	BP_011_BP4_BA.png	1	2	41	SessionSelectionList														lure	3	Body	0-Back	36	80	27	0	0	87	4	38	242262	2	14	60	240224	-1	241032	1	808	3	3	2038	52	242276	-53	0											5					41												
WM080112	239944_fnca	1	1	1	823810839	1	75.031	75.031	2.0.10.147	2.0.10.242	2.0.10.242	1.0.0.439	7	234	2	3	Verdana	1	80	0	0	0	WM Stimuli\	0.5	1144.2	0.9	739.888888888889	0.5	1153.2	0.9	770.111111111111	0.6	1307.33333333333	1	789.4	0.6	1155	1	740.4	13	413712	2	413700	26	39	413738	-999999	413715	0	10	TrialsPROC	BP_009_BP22_BA.png	1	2	42	SessionSelectionList														nonlure	3	Body	0-Back	37	80	28	0	0	88	5	39	244848	1	13	85	242809	-1	243552	1	743	3	3	2039	52	244861	-53	0											6					42												
WM080112	239944_fnca	1	1	1	823810839	1	75.031	75.031	2.0.10.147	2.0.10.242	2.0.10.242	1.0.0.439	7	234	2	3	Verdana	1	80	0	0	0	WM Stimuli\	0.5	1144.2	0.9	739.888888888889	0.5	1153.2	0.9	770.111111111111	0.6	1307.33333333333	1	789.4	0.6	1155	1	740.4	13	413712	2	413700	26	39	413738	-999999	413715	0	10	TrialsPROC	BP_009_BP22_BA.png	1	2	43	SessionSelectionList														lure	3	Body	0-Back	38	80	29	0	0	88	6	39	247407	1	13	59	245368	-1	245997	1	629	3	3	2039	52	247420	-53	0											7					43												
WM080112	239944_fnca	1	1	1	823810839	1	75.031	75.031	2.0.10.147	2.0.10.242	2.0.10.242	1.0.0.439	7	234	2	3	Verdana	1	80	0	0	0	WM Stimuli\	0.5	1144.2	0.9	739.888888888889	0.5	1153.2	0.9	770.111111111111	0.6	1307.33333333333	1	789.4	0.6	1155	1	740.4	13	413712	2	413700	26	39	413738	-999999	413715	0	10	TrialsPROC	BP_008_BP21_BA.png	1	2	44	SessionSelectionList														lure	3	Body	0-Back	39	80	30	0	0	89	7	39	249966	2	13	59	247927	-1	248691	1	764	3	3	2039	52	249979	-53	0											8					44												
WM080112	239944_fnca	1	1	1	823810839	1	75.031	75.031	2.0.10.147	2.0.10.242	2.0.10.242	1.0.0.439	7	234	2	3	Verdana	1	80	0	0	0	WM Stimuli\	0.5	1144.2	0.9	739.888888888889	0.5	1153.2	0.9	770.111111111111	0.6	1307.33333333333	1	789.4	0.6	1155	1	740.4	13	413712	2	413700	26	39	413738	-999999	413715	0	10	TrialsPROC	BP_007_BP20_BA.png	1	2	45	SessionSelectionList														target	2	Body	0-Back	40	80	31	0	0	89	1	39	252525	1	13	59	250486	-1	251136	1	650	2	2	2039	52	252538	-53	0											9					45												
WM080112	239944_fnca	1	1	1	823810839	1	75.031	75.031	2.0.10.147	2.0.10.242	2.0.10.242	1.0.0.439	7	234	2	3	Verdana	1	80	0	0	0	WM Stimuli\	0.5	1144.2	0.9	739.888888888889	0.5	1153.2	0.9	770.111111111111	0.6	1307.33333333333	1	789.4	0.6	1155	1	740.4	13	413712	2	413700	26	39	413738	-999999	413715	0	10	TrialsPROC	BP_012_BP5_BA.png	1	2	46	SessionSelectionList														nonlure	3	Body	0-Back	41	80	32	0	0	90	1	40	255124	2	13	98	253084	-1	253638	1	554	3	3	2040	53	255137	-54	0											10					46												
WM080112	239944_fnca	1	1	1	823810839	1	75.031	75.031	2.0.10.147	2.0.10.242	2.0.10.242	1.0.0.439	7	234	2	3	Verdana	1	80	0	0	0	WM Stimuli\	0.5	1144.2	0.9	739.888888888889	0.5	1153.2	0.9	770.111111111111	0.6	1307.33333333333	1	789.4	0.6	1155	1	740.4	13	413712	2	413700	26	39	413738	-999999	413715	0	11	Fix15secPROC	""	1	2	47	SessionSelectionList																																															6	255590	-7	0							47												
WM080112	239944_fnca	1	1	1	823810839	1	75.031	75.031	2.0.10.147	2.0.10.242	2.0.10.242	1.0.0.439	7	234	2	3	Verdana	1	80	0	0	0	WM Stimuli\	0.5	1144.2	0.9	739.888888888889	0.5	1153.2	0.9	770.111111111111	0.6	1307.33333333333	1	789.4	0.6	1155	1	740.4	13	413712	2	413700	26	39	413738	-999999	413715	0	12	Cue0BackPROC	PL_001_92012.png	1	2	48	SessionSelectionList																																										40	270624	-41	0												48												
WM080112	239944_fnca	1	1	1	823810839	1	75.031	75.031	2.0.10.147	2.0.10.242	2.0.10.242	1.0.0.439	7	234	2	3	Verdana	1	80	0	0	0	WM Stimuli\	0.5	1144.2	0.9	739.888888888889	0.5	1153.2	0.9	770.111111111111	0.6	1307.33333333333	1	789.4	0.6	1155	1	740.4	13	413712	2	413700	26	39	413738	-999999	413715	0	13	TrialsPROC	PL_003_92016.png	1	2	49	SessionSelectionList														nonlure	3	Place	0-Back	42	80	33	0	0	90	2	40	275209	1	13	85	273169	-1	273998	1	829	3	3	2040	53	275222	-54	0												1				49												
WM080112	239944_fnca	1	1	1	823810839	1	75.031	75.031	2.0.10.147	2.0.10.242	2.0.10.242	1.0.0.439	7	234	2	3	Verdana	1	80	0	0	0	WM Stimuli\	0.5	1144.2	0.9	739.888888888889	0.5	1153.2	0.9	770.111111111111	0.6	1307.33333333333	1	789.4	0.6	1155	1	740.4	13	413712	2	413700	26	39	413738	-999999	413715	0	13	TrialsPROC	PL_003_92016.png	1	2	50	SessionSelectionList														lure	3	Place	0-Back	43	80	34	0	0	91	3	39	277781	1	13	73	275742	-1	276667	1	925	3	3	2039	52	277794	-53	0												2				50												
WM080112	239944_fnca	1	1	1	823810839	1	75.031	75.031	2.0.10.147	2.0.10.242	2.0.10.242	1.0.0.439	7	234	2	3	Verdana	1	80	0	0	0	WM Stimuli\	0.5	1144.2	0.9	739.888888888889	0.5	1153.2	0.9	770.111111111111	0.6	1307.33333333333	1	789.4	0.6	1155	1	740.4	13	413712	2	413700	26	39	413738	-999999	413715	0	13	TrialsPROC	PL_006_92025.png	1	2	51	SessionSelectionList														nonlure	3	Place	0-Back	44	80	35	0	0	91	4	40	280367	1	13	85	278327	-1	279187	1	860	3	3	2040	53	280380	-54	0												3				51												
WM080112	239944_fnca	1	1	1	823810839	1	75.031	75.031	2.0.10.147	2.0.10.242	2.0.10.242	1.0.0.439	7	234	2	3	Verdana	1	80	0	0	0	WM Stimuli\	0.5	1144.2	0.9	739.888888888889	0.5	1153.2	0.9	770.111111111111	0.6	1307.33333333333	1	789.4	0.6	1155	1	740.4	13	413712	2	413700	26	39	413738	-999999	413715	0	13	TrialsPROC	PL_001_92012.png	1	2	52	SessionSelectionList														target	2	Place	0-Back	45	80	36	0	0	92	1	39	282939	1	13	73	280900	-1	281809	1	909	2	2	2039	52	282952	-53	0												4				52												
WM080112	239944_fnca	1	1	1	823810839	1	75.031	75.031	2.0.10.147	2.0.10.242	2.0.10.242	1.0.0.439	7	234	2	3	Verdana	1	80	0	0	0	WM Stimuli\	0.5	1144.2	0.9	739.888888888889	0.5	1153.2	0.9	770.111111111111	0.6	1307.33333333333	1	789.4	0.6	1155	1	740.4	13	413712	2	413700	26	39	413738	-999999	413715	0	13	TrialsPROC	PL_004_92023.png	1	2	53	SessionSelectionList														nonlure	3	Place	0-Back	46	80	37	0	0	92	1	39	285524	2	14	85	283485	-1	284107	1	622	3	3	2039	53	285538	-54	0												5				53												
WM080112	239944_fnca	1	1	1	823810839	1	75.031	75.031	2.0.10.147	2.0.10.242	2.0.10.242	1.0.0.439	7	234	2	3	Verdana	1	80	0	0	0	WM Stimuli\	0.5	1144.2	0.9	739.888888888889	0.5	1153.2	0.9	770.111111111111	0.6	1307.33333333333	1	789.4	0.6	1155	1	740.4	13	413712	2	413700	26	39	413738	-999999	413715	0	13	TrialsPROC	PL_005_92024.png	1	2	54	SessionSelectionList														nonlure	3	Place	0-Back	47	80	38	0	0	92	2	39	288110	1	13	86	286071	-1	286864	1	793	3	3	2039	52	288123	-53	0												6				54												
WM080112	239944_fnca	1	1	1	823810839	1	75.031	75.031	2.0.10.147	2.0.10.242	2.0.10.242	1.0.0.439	7	234	2	3	Verdana	1	80	0	0	0	WM Stimuli\	0.5	1144.2	0.9	739.888888888889	0.5	1153.2	0.9	770.111111111111	0.6	1307.33333333333	1	789.4	0.6	1155	1	740.4	13	413712	2	413700	26	39	413738	-999999	413715	0	13	TrialsPROC	PL_001_92012.png	1	2	55	SessionSelectionList														target	2	Place	0-Back	48	80	39	0	0	93	1	39	290682	2	14	72	288643	-1	289385	1	742	2	2	2039	53	290696	-54	0												7				55												
WM080112	239944_fnca	1	1	1	823810839	1	75.031	75.031	2.0.10.147	2.0.10.242	2.0.10.242	1.0.0.439	7	234	2	3	Verdana	1	80	0	0	0	WM Stimuli\	0.5	1144.2	0.9	739.888888888889	0.5	1153.2	0.9	770.111111111111	0.6	1307.33333333333	1	789.4	0.6	1155	1	740.4	13	413712	2	413700	26	39	413738	-999999	413715	0	13	TrialsPROC	PL_002_92014.png	1	2	56	SessionSelectionList														nonlure	3	Place	0-Back	49	80	40	0	0	93	1	39	293268	1	13	86	291229	-1	291908	1	679	3	3	2039	52	293281	-53	0												8				56												
WM080112	239944_fnca	1	1	1	823810839	1	75.031	75.031	2.0.10.147	2.0.10.242	2.0.10.242	1.0.0.439	7	234	2	3	Verdana	1	80	0	0	0	WM Stimuli\	0.5	1144.2	0.9	739.888888888889	0.5	1153.2	0.9	770.111111111111	0.6	1307.33333333333	1	789.4	0.6	1155	1	740.4	13	413712	2	413700	26	39	413738	-999999	413715	0	13	TrialsPROC	PL_004_92023.png	1	2	57	SessionSelectionList														lure	3	Place	0-Back	50	80	41	0	0	93	2	39	295840	2	14	72	293801	-1	294499	1	698	3	3	2039	53	295854	-54	0												9				57												
WM080112	239944_fnca	1	1	1	823810839	1	75.031	75.031	2.0.10.147	2.0.10.242	2.0.10.242	1.0.0.439	7	234	2	3	Verdana	1	80	0	0	0	WM Stimuli\	0.5	1144.2	0.9	739.888888888889	0.5	1153.2	0.9	770.111111111111	0.6	1307.33333333333	1	789.4	0.6	1155	1	740.4	13	413712	2	413700	26	39	413738	-999999	413715	0	13	TrialsPROC	PL_006_92025.png	1	2	58	SessionSelectionList														lure	3	Place	0-Back	51	80	42	0	0	93	3	39	298412	2	14	72	296373	-1	297210	1	837	3	3	2039	53	298426	-54	0												10				58												
WM080112	239944_fnca	1	1	1	823810839	1	75.031	75.031	2.0.10.147	2.0.10.242	2.0.10.242	1.0.0.439	7	234	2	3	Verdana	1	80	0	0	0	WM Stimuli\	0.5	1144.2	0.9	739.888888888889	0.5	1153.2	0.9	770.111111111111	0.6	1307.33333333333	1	789.4	0.6	1155	1	740.4	13	413712	2	413700	26	39	413738	-999999	413715	0	14	Cue2BackPROC	""	1	2	59	SessionSelectionList									6	298879	-7	0																																													59												
WM080112	239944_fnca	1	1	1	823810839	1	75.031	75.031	2.0.10.147	2.0.10.242	2.0.10.242	1.0.0.439	7	234	2	3	Verdana	1	80	0	0	0	WM Stimuli\	0.5	1144.2	0.9	739.888888888889	0.5	1153.2	0.9	770.111111111111	0.6	1307.33333333333	1	789.4	0.6	1155	1	740.4	13	413712	2	413700	26	39	413738	-999999	413715	0	15	TrialsPROC	FC_010_F5.png	1	2	60	SessionSelectionList														nonlure	3	Face	2-Back	52	80	42	0	1	93	3	39	303504	1	13	92	301465	-1	0	0	0	""	3	2039	52	303517	-53	0													1			60												
WM080112	239944_fnca	1	1	1	823810839	1	75.031	75.031	2.0.10.147	2.0.10.242	2.0.10.242	1.0.0.439	7	234	2	3	Verdana	1	80	0	0	0	WM Stimuli\	0.5	1144.2	0.9	739.888888888889	0.5	1153.2	0.9	770.111111111111	0.6	1307.33333333333	1	789.4	0.6	1155	1	740.4	13	413712	2	413700	26	39	413738	-999999	413715	0	15	TrialsPROC	FC_012_F6.png	1	2	61	SessionSelectionList														nonlure	3	Face	2-Back	53	80	42	0	2	93	3	40	306103	1	13	98	304063	-1	0	0	0	""	3	2040	53	306116	-54	0													2			61												
WM080112	239944_fnca	1	1	1	823810839	1	75.031	75.031	2.0.10.147	2.0.10.242	2.0.10.242	1.0.0.439	7	234	2	3	Verdana	1	80	0	0	0	WM Stimuli\	0.5	1144.2	0.9	739.888888888889	0.5	1153.2	0.9	770.111111111111	0.6	1307.33333333333	1	789.4	0.6	1155	1	740.4	13	413712	2	413700	26	39	413738	-999999	413715	0	15	TrialsPROC	FC_010_F5.png	1	2	62	SessionSelectionList														target	2	Face	2-Back	54	80	43	0	0	93	1	39	308675	1	13	73	306636	-1	308200	0	1564	3	2	2039	52	308688	-53	0													3			62												
WM080112	239944_fnca	1	1	1	823810839	1	75.031	75.031	2.0.10.147	2.0.10.242	2.0.10.242	1.0.0.439	7	234	2	3	Verdana	1	80	0	0	0	WM Stimuli\	0.5	1144.2	0.9	739.888888888889	0.5	1153.2	0.9	770.111111111111	0.6	1307.33333333333	1	789.4	0.6	1155	1	740.4	13	413712	2	413700	26	39	413738	-999999	413715	0	15	TrialsPROC	FC_008_F4.png	1	2	63	SessionSelectionList														nonlure	3	Face	2-Back	55	80	44	0	0	93	2	39	311274	1	13	99	309235	-1	310295	1	1060	3	3	2039	52	311287	-53	0													4			63												
WM080112	239944_fnca	1	1	1	823810839	1	75.031	75.031	2.0.10.147	2.0.10.242	2.0.10.242	1.0.0.439	7	234	2	3	Verdana	1	80	0	0	0	WM Stimuli\	0.5	1144.2	0.9	739.888888888889	0.5	1153.2	0.9	770.111111111111	0.6	1307.33333333333	1	789.4	0.6	1155	1	740.4	13	413712	2	413700	26	39	413738	-999999	413715	0	15	TrialsPROC	FC_012_F6.png	1	2	64	SessionSelectionList														lure	3	Face	2-Back	56	80	45	0	0	93	1	39	313846	1	14	72	311807	-1	313120	0	1313	2	3	2039	53	313860	-54	0													5			64												
WM080112	239944_fnca	1	1	1	823810839	1	75.031	75.031	2.0.10.147	2.0.10.242	2.0.10.242	1.0.0.439	7	234	2	3	Verdana	1	80	0	0	0	WM Stimuli\	0.5	1144.2	0.9	739.888888888889	0.5	1153.2	0.9	770.111111111111	0.6	1307.33333333333	1	789.4	0.6	1155	1	740.4	13	413712	2	413700	26	39	413738	-999999	413715	0	15	TrialsPROC	FC_008_F4.png	1	2	65	SessionSelectionList														target	2	Face	2-Back	57	80	45	0	1	93	1	39	316418	2	14	72	314379	-1	0	0	0	""	2	2039	53	316432	-54	0													6			65												
WM080112	239944_fnca	1	1	1	823810839	1	75.031	75.031	2.0.10.147	2.0.10.242	2.0.10.242	1.0.0.439	7	234	2	3	Verdana	1	80	0	0	0	WM Stimuli\	0.5	1144.2	0.9	739.888888888889	0.5	1153.2	0.9	770.111111111111	0.6	1307.33333333333	1	789.4	0.6	1155	1	740.4	13	413712	2	413700	26	39	413738	-999999	413715	0	15	TrialsPROC	FC_007_M4.png	1	2	66	SessionSelectionList														nonlure	3	Face	2-Back	58	80	46	0	0	93	1	39	319017	2	14	99	316978	-1	318006	1	1028	3	3	2039	53	319031	-54	0													7			66												
WM080112	239944_fnca	1	1	1	823810839	1	75.031	75.031	2.0.10.147	2.0.10.242	2.0.10.242	1.0.0.439	7	234	2	3	Verdana	1	80	0	0	0	WM Stimuli\	0.5	1144.2	0.9	739.888888888889	0.5	1153.2	0.9	770.111111111111	0.6	1307.33333333333	1	789.4	0.6	1155	1	740.4	13	413712	2	413700	26	39	413738	-999999	413715	0	15	TrialsPROC	FC_007_M4.png	1	2	67	SessionSelectionList														lure	3	Face	2-Back	59	80	47	0	0	93	2	40	321590	1	13	72	319550	-1	320977	1	1427	3	3	2040	53	321603	-54	0													8			67												
WM080112	239944_fnca	1	1	1	823810839	1	75.031	75.031	2.0.10.147	2.0.10.242	2.0.10.242	1.0.0.439	7	234	2	3	Verdana	1	80	0	0	0	WM Stimuli\	0.5	1144.2	0.9	739.888888888889	0.5	1153.2	0.9	770.111111111111	0.6	1307.33333333333	1	789.4	0.6	1155	1	740.4	13	413712	2	413700	26	39	413738	-999999	413715	0	15	TrialsPROC	FC_009_M5.png	1	2	68	SessionSelectionList														nonlure	3	Face	2-Back	60	80	48	0	0	93	3	39	324188	2	14	99	322149	-1	323357	1	1208	3	3	2039	53	324202	-54	0													9			68												
WM080112	239944_fnca	1	1	1	823810839	1	75.031	75.031	2.0.10.147	2.0.10.242	2.0.10.242	1.0.0.439	7	234	2	3	Verdana	1	80	0	0	0	WM Stimuli\	0.5	1144.2	0.9	739.888888888889	0.5	1153.2	0.9	770.111111111111	0.6	1307.33333333333	1	789.4	0.6	1155	1	740.4	13	413712	2	413700	26	39	413738	-999999	413715	0	15	TrialsPROC	FC_011_M6.png	1	2	69	SessionSelectionList														nonlure	3	Face	2-Back	61	80	49	0	0	93	4	39	326761	1	13	73	324722	-1	325765	1	1043	3	3	2039	52	326774	-53	0													10			69												
WM080112	239944_fnca	1	1	1	823810839	1	75.031	75.031	2.0.10.147	2.0.10.242	2.0.10.242	1.0.0.439	7	234	2	3	Verdana	1	80	0	0	0	WM Stimuli\	0.5	1144.2	0.9	739.888888888889	0.5	1153.2	0.9	770.111111111111	0.6	1307.33333333333	1	789.4	0.6	1155	1	740.4	13	413712	2	413700	26	39	413738	-999999	413715	0	16	Fix15secPROC	""	1	2	70	SessionSelectionList																																															5	327227	-6	0							70												
WM080112	239944_fnca	1	1	1	823810839	1	75.031	75.031	2.0.10.147	2.0.10.242	2.0.10.242	1.0.0.439	7	234	2	3	Verdana	1	80	0	0	0	WM Stimuli\	0.5	1144.2	0.9	739.888888888889	0.5	1153.2	0.9	770.111111111111	0.6	1307.33333333333	1	789.4	0.6	1155	1	740.4	13	413712	2	413700	26	39	413738	-999999	413715	0	17	Cue0BackPROC	TO_007_TOOL7_BA.png	1	2	71	SessionSelectionList																																										39	342261	-40	0												71												
WM080112	239944_fnca	1	1	1	823810839	1	75.031	75.031	2.0.10.147	2.0.10.242	2.0.10.242	1.0.0.439	7	234	2	3	Verdana	1	80	0	0	0	WM Stimuli\	0.5	1144.2	0.9	739.888888888889	0.5	1153.2	0.9	770.111111111111	0.6	1307.33333333333	1	789.4	0.6	1155	1	740.4	13	413712	2	413700	26	39	413738	-999999	413715	0	18	TrialsPROC	TO_010_TOOL10_BA.png	1	2	72	SessionSelectionList														nonlure	3	Tools	0-Back	62	80	50	0	0	94	5	39	346846	1	13	85	344807	-1	345544	1	737	3	3	2039	52	346859	-53	0														1		72												
WM080112	239944_fnca	1	1	1	823810839	1	75.031	75.031	2.0.10.147	2.0.10.242	2.0.10.242	1.0.0.439	7	234	2	3	Verdana	1	80	0	0	0	WM Stimuli\	0.5	1144.2	0.9	739.888888888889	0.5	1153.2	0.9	770.111111111111	0.6	1307.33333333333	1	789.4	0.6	1155	1	740.4	13	413712	2	413700	26	39	413738	-999999	413715	0	18	TrialsPROC	TO_009_TOOL9_BA.png	1	2	73	SessionSelectionList														nonlure	3	Tools	0-Back	63	80	51	0	0	94	6	39	349431	2	14	85	347392	-1	348086	1	694	3	3	2039	53	349445	-54	0														2		73												
WM080112	239944_fnca	1	1	1	823810839	1	75.031	75.031	2.0.10.147	2.0.10.242	2.0.10.242	1.0.0.439	7	234	2	3	Verdana	1	80	0	0	0	WM Stimuli\	0.5	1144.2	0.9	739.888888888889	0.5	1153.2	0.9	770.111111111111	0.6	1307.33333333333	1	789.4	0.6	1155	1	740.4	13	413712	2	413700	26	39	413738	-999999	413715	0	18	TrialsPROC	TO_009_TOOL9_BA.png	1	2	74	SessionSelectionList														lure	3	Tools	0-Back	64	80	52	0	0	94	7	39	351990	3	14	59	349951	-1	350982	1	1031	3	3	2039	53	352004	-54	0														3		74												
WM080112	239944_fnca	1	1	1	823810839	1	75.031	75.031	2.0.10.147	2.0.10.242	2.0.10.242	1.0.0.439	7	234	2	3	Verdana	1	80	0	0	0	WM Stimuli\	0.5	1144.2	0.9	739.888888888889	0.5	1153.2	0.9	770.111111111111	0.6	1307.33333333333	1	789.4	0.6	1155	1	740.4	13	413712	2	413700	26	39	413738	-999999	413715	0	18	TrialsPROC	TO_008_TOOL8_BA.png	1	2	75	SessionSelectionList														nonlure	3	Tools	0-Back	65	80	53	0	0	94	8	39	354576	1	13	86	352537	-1	353833	1	1296	3	3	2039	52	354589	-53	0														4		75												
WM080112	239944_fnca	1	1	1	823810839	1	75.031	75.031	2.0.10.147	2.0.10.242	2.0.10.242	1.0.0.439	7	234	2	3	Verdana	1	80	0	0	0	WM Stimuli\	0.5	1144.2	0.9	739.888888888889	0.5	1153.2	0.9	770.111111111111	0.6	1307.33333333333	1	789.4	0.6	1155	1	740.4	13	413712	2	413700	26	39	413738	-999999	413715	0	18	TrialsPROC	TO_011_TOOL11_BA.png	1	2	76	SessionSelectionList														nonlure	3	Tools	0-Back	66	80	54	0	0	94	9	40	357162	1	13	85	355122	-1	355700	1	578	3	3	2040	53	357175	-54	0														5		76												
WM080112	239944_fnca	1	1	1	823810839	1	75.031	75.031	2.0.10.147	2.0.10.242	2.0.10.242	1.0.0.439	7	234	2	3	Verdana	1	80	0	0	0	WM Stimuli\	0.5	1144.2	0.9	739.888888888889	0.5	1153.2	0.9	770.111111111111	0.6	1307.33333333333	1	789.4	0.6	1155	1	740.4	13	413712	2	413700	26	39	413738	-999999	413715	0	18	TrialsPROC	TO_012_TOOL12_BA.png	1	2	77	SessionSelectionList														nonlure	3	Tools	0-Back	67	80	55	0	0	94	10	39	359747	2	14	86	357708	-1	358291	1	583	3	3	2039	53	359761	-54	0														6		77												
WM080112	239944_fnca	1	1	1	823810839	1	75.031	75.031	2.0.10.147	2.0.10.242	2.0.10.242	1.0.0.439	7	234	2	3	Verdana	1	80	0	0	0	WM Stimuli\	0.5	1144.2	0.9	739.888888888889	0.5	1153.2	0.9	770.111111111111	0.6	1307.33333333333	1	789.4	0.6	1155	1	740.4	13	413712	2	413700	26	39	413738	-999999	413715	0	18	TrialsPROC	TO_010_TOOL10_BA.png	1	2	78	SessionSelectionList														lure	3	Tools	0-Back	68	80	56	0	0	95	11	39	362306	2	14	59	360267	-1	360945	1	678	3	3	2039	53	362320	-54	0														7		78												
WM080112	239944_fnca	1	1	1	823810839	1	75.031	75.031	2.0.10.147	2.0.10.242	2.0.10.242	1.0.0.439	7	234	2	3	Verdana	1	80	0	0	0	WM Stimuli\	0.5	1144.2	0.9	739.888888888889	0.5	1153.2	0.9	770.111111111111	0.6	1307.33333333333	1	789.4	0.6	1155	1	740.4	13	413712	2	413700	26	39	413738	-999999	413715	0	18	TrialsPROC	TO_007_TOOL7_BA.png	1	2	79	SessionSelectionList														target	2	Tools	0-Back	69	80	57	0	0	95	1	39	364865	1	13	59	362826	-1	363469	1	643	2	2	2039	52	364878	-53	0														8		79												
WM080112	239944_fnca	1	1	1	823810839	1	75.031	75.031	2.0.10.147	2.0.10.242	2.0.10.242	1.0.0.439	7	234	2	3	Verdana	1	80	0	0	0	WM Stimuli\	0.5	1144.2	0.9	739.888888888889	0.5	1153.2	0.9	770.111111111111	0.6	1307.33333333333	1	789.4	0.6	1155	1	740.4	13	413712	2	413700	26	39	413738	-999999	413715	0	18	TrialsPROC	TO_008_TOOL8_BA.png	1	2	80	SessionSelectionList														lure	3	Tools	0-Back	70	80	58	0	0	95	1	39	367424	1	13	59	365385	-1	365912	1	527	3	3	2039	52	367437	-53	0														9		80												
WM080112	239944_fnca	1	1	1	823810839	1	75.031	75.031	2.0.10.147	2.0.10.242	2.0.10.242	1.0.0.439	7	234	2	3	Verdana	1	80	0	0	0	WM Stimuli\	0.5	1144.2	0.9	739.888888888889	0.5	1153.2	0.9	770.111111111111	0.6	1307.33333333333	1	789.4	0.6	1155	1	740.4	13	413712	2	413700	26	39	413738	-999999	413715	0	18	TrialsPROC	TO_007_TOOL7_BA.png	1	2	81	SessionSelectionList														target	2	Tools	0-Back	71	80	59	0	0	95	1	39	369983	1	13	59	367944	-1	368581	1	637	2	2	2039	52	369996	-53	0														10		81												
WM080112	239944_fnca	1	1	1	823810839	1	75.031	75.031	2.0.10.147	2.0.10.242	2.0.10.242	1.0.0.439	7	234	2	3	Verdana	1	80	0	0	0	WM Stimuli\	0.5	1144.2	0.9	739.888888888889	0.5	1153.2	0.9	770.111111111111	0.6	1307.33333333333	1	789.4	0.6	1155	1	740.4	13	413712	2	413700	26	39	413738	-999999	413715	0	19	Cue2BackPROC	""	1	2	82	SessionSelectionList									5	370449	-6	0																																													82												
WM080112	239944_fnca	1	1	1	823810839	1	75.031	75.031	2.0.10.147	2.0.10.242	2.0.10.242	1.0.0.439	7	234	2	3	Verdana	1	80	0	0	0	WM Stimuli\	0.5	1144.2	0.9	739.888888888889	0.5	1153.2	0.9	770.111111111111	0.6	1307.33333333333	1	789.4	0.6	1155	1	740.4	13	413712	2	413700	26	39	413738	-999999	413715	0	20	TrialsPROC	PL_007_92026.png	1	2	83	SessionSelectionList														nonlure	3	Place	2-Back	72	80	59	0	1	95	1	39	375074	2	14	91	373035	-1	0	0	0	""	3	2039	53	375088	-54	0															1	83												
WM080112	239944_fnca	1	1	1	823810839	1	75.031	75.031	2.0.10.147	2.0.10.242	2.0.10.242	1.0.0.439	7	234	2	3	Verdana	1	80	0	0	0	WM Stimuli\	0.5	1144.2	0.9	739.888888888889	0.5	1153.2	0.9	770.111111111111	0.6	1307.33333333333	1	789.4	0.6	1155	1	740.4	13	413712	2	413700	26	39	413738	-999999	413715	0	20	TrialsPROC	PL_007_92026.png	1	2	84	SessionSelectionList														lure	3	Place	2-Back	73	80	59	0	2	95	1	39	377646	2	14	72	375607	-1	0	0	0	""	3	2039	53	377660	-54	0															2	84												
WM080112	239944_fnca	1	1	1	823810839	1	75.031	75.031	2.0.10.147	2.0.10.242	2.0.10.242	1.0.0.439	7	234	2	3	Verdana	1	80	0	0	0	WM Stimuli\	0.5	1144.2	0.9	739.888888888889	0.5	1153.2	0.9	770.111111111111	0.6	1307.33333333333	1	789.4	0.6	1155	1	740.4	13	413712	2	413700	26	39	413738	-999999	413715	0	20	TrialsPROC	PL_010_92038.png	1	2	85	SessionSelectionList														nonlure	3	Place	2-Back	74	80	59	0	3	95	1	39	380245	2	14	99	378206	-1	0	0	0	""	3	2039	53	380259	-54	0															3	85												
WM080112	239944_fnca	1	1	1	823810839	1	75.031	75.031	2.0.10.147	2.0.10.242	2.0.10.242	1.0.0.439	7	234	2	3	Verdana	1	80	0	0	0	WM Stimuli\	0.5	1144.2	0.9	739.888888888889	0.5	1153.2	0.9	770.111111111111	0.6	1307.33333333333	1	789.4	0.6	1155	1	740.4	13	413712	2	413700	26	39	413738	-999999	413715	0	20	TrialsPROC	PL_009_92037.png	1	2	86	SessionSelectionList														nonlure	3	Place	2-Back	75	80	60	0	0	95	1	39	382831	1	13	86	380792	-1	381678	1	886	3	3	2039	52	382844	-53	0															4	86												
WM080112	239944_fnca	1	1	1	823810839	1	75.031	75.031	2.0.10.147	2.0.10.242	2.0.10.242	1.0.0.439	7	234	2	3	Verdana	1	80	0	0	0	WM Stimuli\	0.5	1144.2	0.9	739.888888888889	0.5	1153.2	0.9	770.111111111111	0.6	1307.33333333333	1	789.4	0.6	1155	1	740.4	13	413712	2	413700	26	39	413738	-999999	413715	0	20	TrialsPROC	PL_010_92038.png	1	2	87	SessionSelectionList														target	2	Place	2-Back	76	80	61	0	0	95	1	39	385390	1	13	59	383351	-1	384317	1	966	2	2	2039	52	385403	-53	0															5	87												
WM080112	239944_fnca	1	1	1	823810839	1	75.031	75.031	2.0.10.147	2.0.10.242	2.0.10.242	1.0.0.439	7	234	2	3	Verdana	1	80	0	0	0	WM Stimuli\	0.5	1144.2	0.9	739.888888888889	0.5	1153.2	0.9	770.111111111111	0.6	1307.33333333333	1	789.4	0.6	1155	1	740.4	13	413712	2	413700	26	39	413738	-999999	413715	0	20	TrialsPROC	PL_009_92037.png	1	2	88	SessionSelectionList														target	2	Place	2-Back	77	80	62	0	0	95	1	39	387949	1	13	59	385910	-1	387441	0	1531	3	2	2039	52	387962	-53	0															6	88												
WM080112	239944_fnca	1	1	1	823810839	1	75.031	75.031	2.0.10.147	2.0.10.242	2.0.10.242	1.0.0.439	7	234	2	3	Verdana	1	80	0	0	0	WM Stimuli\	0.5	1144.2	0.9	739.888888888889	0.5	1153.2	0.9	770.111111111111	0.6	1307.33333333333	1	789.4	0.6	1155	1	740.4	13	413712	2	413700	26	39	413738	-999999	413715	0	20	TrialsPROC	PL_008_92033.png	1	2	89	SessionSelectionList														nonlure	3	Place	2-Back	78	80	63	0	0	95	2	39	390521	2	14	72	388482	-1	389723	1	1241	3	3	2039	53	390535	-54	0															7	89												
WM080112	239944_fnca	1	1	1	823810839	1	75.031	75.031	2.0.10.147	2.0.10.242	2.0.10.242	1.0.0.439	7	234	2	3	Verdana	1	80	0	0	0	WM Stimuli\	0.5	1144.2	0.9	739.888888888889	0.5	1153.2	0.9	770.111111111111	0.6	1307.33333333333	1	789.4	0.6	1155	1	740.4	13	413712	2	413700	26	39	413738	-999999	413715	0	20	TrialsPROC	PL_012_92047.png	1	2	90	SessionSelectionList														nonlure	3	Place	2-Back	79	80	64	0	0	95	3	39	393093	2	14	72	391054	-1	392535	1	1481	3	3	2039	53	393107	-54	0															8	90												
WM080112	239944_fnca	1	1	1	823810839	1	75.031	75.031	2.0.10.147	2.0.10.242	2.0.10.242	1.0.0.439	7	234	2	3	Verdana	1	80	0	0	0	WM Stimuli\	0.5	1144.2	0.9	739.888888888889	0.5	1153.2	0.9	770.111111111111	0.6	1307.33333333333	1	789.4	0.6	1155	1	740.4	13	413712	2	413700	26	39	413738	-999999	413715	0	20	TrialsPROC	PL_012_92047.png	1	2	91	SessionSelectionList														lure	3	Place	2-Back	80	80	65	0	0	95	4	39	395666	1	13	73	393627	-1	395475	1	1848	3	3	2039	52	395679	-53	0															9	91												
WM080112	239944_fnca	1	1	1	823810839	1	75.031	75.031	2.0.10.147	2.0.10.242	2.0.10.242	1.0.0.439	7	234	2	3	Verdana	1	80	0	0	0	WM Stimuli\	0.5	1144.2	0.9	739.888888888889	0.5	1153.2	0.9	770.111111111111	0.6	1307.33333333333	1	789.4	0.6	1155	1	740.4	13	413712	2	413700	26	39	413738	-999999	413715	0	20	TrialsPROC	PL_011_92044.png	1	2	92	SessionSelectionList														nonlure	3	Place	2-Back	80	80	66	0	0	95	5	39	398238	1	13	72	396199	-1	397621	1	1422	3	3	2039	52	398251	-53	0															10	92												
WM080112	239944_fnca	1	1	1	823810839	1	75.031	75.031	2.0.10.147	2.0.10.242	2.0.10.242	1.0.0.439	7	234	2	3	Verdana	1	80	0	0	0	WM Stimuli\	0.5	1144.2	0.9	739.888888888889	0.5	1153.2	0.9	770.111111111111	0.6	1307.33333333333	1	789.4	0.6	1155	1	740.4	13	413712	2	413700	26	39	413738	-999999	413715	0	21	Fix15secPROC	""	1	2	93	SessionSelectionList																																															6	398705	-7	0							93												
