ExperimentName	HCPID	RunNumber	Subject	Session	RandomSeed	Group	Laptop.RefreshRate	ScannerD2.RefreshRate	StudioVersion	RuntimeVersion	RuntimeVersionExpected	ExperimentVersion	triggercode	Allowed	Target	Nontarget	FontStyle	RunTrialNumber[Session]	TrialsPerRun[Session]	TotalRespGreater200[Session]	ConsecRTLess200[Session]	ConsecNonResp[Session]	StimuliDir	ACC_2_Back_Body	Avg_RT_For_Correct_Trials_2_Back_Body	ACC_0_Back_Body	Avg_RT_For_Correct_Trials_0_Back_Body	ACC_2_Back_Face	Avg_RT_For_Correct_Trials_2_Back_Face	ACC_0_Back_Face	Avg_RT_For_Correct_Trials_0_Back_Face	ACC_2_Back_Place	Avg_RT_For_Correct_Trials_2_Back_Place	ACC_0_Back_Place	Avg_RT_For_Correct_Trials_0_Back_Place	ACC_2_Back_Tools	Avg_RT_For_Correct_Trials_2_Back_Tools	ACC_0_Back_Tools	Avg_RT_For_Correct_Trials_0_Back_Tools	ExpInstrucFeelFreeToRest.OnsetDelay	ExpInstrucFeelFreeToRest.OnsetTime	ExpInstrucFeelFreeToRest.DurationError	ExpInstrucFeelFreeToRest.StartTime	ExpInstrucFeelFreeToRest.OnsetToOnsetTime	FeelFreeToRest.OnsetDelay	FeelFreeToRest.OnsetTime	FeelFreeToRest.DurationError	FeelFreeToRest.StartTime	FeelFreeToRest.OnsetToOnsetTime	SessionSelectionList	Procedure[Block]	Stimulus[Block]	RunNumberFilterValue	SessionSelectionList.Cycle	SessionSelectionList.Sample	Running[Block]	IntroButtonMap.OnsetDelay	IntroButtonMap.OnsetTime	IntroButtonMap.DurationError	IntroButtonMap.OnsetToOnsetTime	GetReady.OnsetDelay	GetReady.OnsetTime	GetReady.DurationError	GetReady.OnsetToOnsetTime	Cue2Back.OnsetDelay	Cue2Back.OnsetTime	Cue2Back.DurationError	Cue2Back.OnsetToOnsetTime	Run1Block1	TargetType	CorrectResponse	StimType	BlockType	RunTrialNumber[Block]	TrialsPerRun[Block]	TotalRespGreater200[Block]	ConsecRTLess200[Block]	ConsecNonResp[Block]	ControlAcc	ConsecSameResp	ExperimenterWindow.OnsetDelay	ExperimenterWindow.OnsetTime	ExperimenterWindow.DurationError	ExperimenterWindow.OnsetToOnsetTime	Stim.OnsetDelay	Stim.OnsetTime	Stim.DurationError	Stim.RTTime	Stim.ACC	Stim.RT	Stim.RESP	Stim.CRESP	Stim.OnsetToOnsetTime	Fix.OnsetDelay	Fix.OnsetTime	Fix.DurationError	Fix.OnsetToOnsetTime	CueTarget.OnsetDelay	CueTarget.OnsetTime	CueTarget.DurationError	CueTarget.OnsetToOnsetTime	Run1Block2	Fix15sec.OnsetDelay	Fix15sec.OnsetTime	Fix15sec.DurationError	Fix15sec.OnsetToOnsetTime	Run1Block3	Run1Block4	Run1Block5	Run1Block6	Run1Block7	Run1Block8	Block	Procedure[Trial]	Stimulus[Trial]	ReadyList	Running[Trial]	ReadyList.Cycle	ReadyList.Sample	SyncSlide.OnsetDelay	SyncSlide.OnsetTime	SyncSlide.DurationError	SyncSlide.FinishTime	SyncSlide.OnsetToOnsetTime	Trial
WM080112	221319_fnca	1	1	1	-586879606	1	75.030	75.030	2.0.10.147	2.0.10.242	2.0.10.242	1.0.0.439	7	234	2	3	Verdana	1	80	0	0	0	WM Stimuli\	0.4	1576.25	0.7	1491.14285714286	0.7	1625.57142857143	0.7	1639	0.8	1533.125	0.7	1595.14285714286	0.8	1459.25	0.8	1548.875	13	453114	2	453102	27	40	453141	-999999	453117	0	1	TRSyncPROC	""	1	2	1	SessionSelectionList	117	15970	-999999	0	39	145491	-999999	0																																																	1	InitialTR	4	1	ReadyList	1	1	16	159512	-17	161495	0	1
WM080112	221319_fnca	1	1	1	-586879606	1	75.030	75.030	2.0.10.147	2.0.10.242	2.0.10.242	1.0.0.439	7	234	2	3	Verdana	1	80	0	0	0	WM Stimuli\	0.4	1576.25	0.7	1491.14285714286	0.7	1625.57142857143	0.7	1639	0.8	1533.125	0.7	1595.14285714286	0.8	1459.25	0.8	1548.875	13	453114	2	453102	27	40	453141	-999999	453117	0	1	TRSyncPROC	""	1	2	1	SessionSelectionList	117	15970	-999999	0	39	145491	-999999	0																																																	1	InitialTR	3	2	ReadyList	1	2	15	161511	-16	163495	0	2
WM080112	221319_fnca	1	1	1	-586879606	1	75.030	75.030	2.0.10.147	2.0.10.242	2.0.10.242	1.0.0.439	7	234	2	3	Verdana	1	80	0	0	0	WM Stimuli\	0.4	1576.25	0.7	1491.14285714286	0.7	1625.57142857143	0.7	1639	0.8	1533.125	0.7	1595.14285714286	0.8	1459.25	0.8	1548.875	13	453114	2	453102	27	40	453141	-999999	453117	0	1	TRSyncPROC	""	1	2	1	SessionSelectionList	117	15970	-999999	0	39	145491	-999999	0																																																	1	InitialTR	2	3	ReadyList	1	3	14	163510	-15	165495	0	3
WM080112	221319_fnca	1	1	1	-586879606	1	75.030	75.030	2.0.10.147	2.0.10.242	2.0.10.242	1.0.0.439	7	234	2	3	Verdana	1	80	0	0	0	WM Stimuli\	0.4	1576.25	0.7	1491.14285714286	0.7	1625.57142857143	0.7	1639	0.8	1533.125	0.7	1595.14285714286	0.8	1459.25	0.8	1548.875	13	453114	2	453102	27	40	453141	-999999	453117	0	1	TRSyncPROC	""	1	2	1	SessionSelectionList	117	15970	-999999	0	39	145491	-999999	0																																																	1	InitialTR	1	4	ReadyList	1	4	14	165510	-15	167495	0	4
WM080112	221319_fnca	1	1	1	-586879606	1	75.030	75.030	2.0.10.147	2.0.10.242	2.0.10.242	1.0.0.439	7	234	2	3	Verdana	1	80	0	0	0	WM Stimuli\	0.4	1576.25	0.7	1491.14285714286	0.7	1625.57142857143	0.7	1639	0.8	1533.125	0.7	1595.14285714286	0.8	1459.25	0.8	1548.875	13	453114	2	453102	27	40	453141	-999999	453117	0	2	Cue2BackPROC	""	1	2	2	SessionSelectionList									13	167509	-14	0																																													2												
WM080112	221319_fnca	1	1	1	-586879606	1	75.030	75.030	2.0.10.147	2.0.10.242	2.0.10.242	1.0.0.439	7	234	2	3	Verdana	1	80	0	0	0	WM Stimuli\	0.4	1576.25	0.7	1491.14285714286	0.7	1625.57142857143	0.7	1639	0.8	1533.125	0.7	1595.14285714286	0.8	1459.25	0.8	1548.875	13	453114	2	453102	27	40	453141	-999999	453117	0	3	TrialsPROC	BP_002_BP10_BA.png	1	2	3	SessionSelectionList													1	nonlure	3	Body	2-Back	2	80	1	0	0	0	1	53	172134	2	13	85	170081	-1	172018	1	1937	3	3	2053	66	172147	-67	0																3												
WM080112	221319_fnca	1	1	1	-586879606	1	75.030	75.030	2.0.10.147	2.0.10.242	2.0.10.242	1.0.0.439	7	234	2	3	Verdana	1	80	0	0	0	WM Stimuli\	0.4	1576.25	0.7	1491.14285714286	0.7	1625.57142857143	0.7	1639	0.8	1533.125	0.7	1595.14285714286	0.8	1459.25	0.8	1548.875	13	453114	2	453102	27	40	453141	-999999	453117	0	3	TrialsPROC	BP_001_BP1_BA.png	1	2	4	SessionSelectionList													2	nonlure	3	Body	2-Back	3	80	2	0	0	0	2	39	174692	3	14	72	172653	-1	174534	1	1881	3	3	2039	53	174706	-54	0																4												
WM080112	221319_fnca	1	1	1	-586879606	1	75.030	75.030	2.0.10.147	2.0.10.242	2.0.10.242	1.0.0.439	7	234	2	3	Verdana	1	80	0	0	0	WM Stimuli\	0.4	1576.25	0.7	1491.14285714286	0.7	1625.57142857143	0.7	1639	0.8	1533.125	0.7	1595.14285714286	0.8	1459.25	0.8	1548.875	13	453114	2	453102	27	40	453141	-999999	453117	0	3	TrialsPROC	BP_006_BP2_BA.png	1	2	5	SessionSelectionList													3	nonlure	3	Body	2-Back	4	80	2	0	1	0	2	39	177251	2	14	59	175212	-1	0	0	0	""	3	2039	53	177265	-54	0																5												
WM080112	221319_fnca	1	1	1	-586879606	1	75.030	75.030	2.0.10.147	2.0.10.242	2.0.10.242	1.0.0.439	7	234	2	3	Verdana	1	80	0	0	0	WM Stimuli\	0.4	1576.25	0.7	1491.14285714286	0.7	1625.57142857143	0.7	1639	0.8	1533.125	0.7	1595.14285714286	0.8	1459.25	0.8	1548.875	13	453114	2	453102	27	40	453141	-999999	453117	0	3	TrialsPROC	BP_001_BP1_BA.png	1	2	6	SessionSelectionList													4	target	2	Body	2-Back	5	80	2	1	0	0	1	39	179824	1	13	73	177785	-1	177902	0	117	3	2	2039	52	179837	-53	0																6												
WM080112	221319_fnca	1	1	1	-586879606	1	75.030	75.030	2.0.10.147	2.0.10.242	2.0.10.242	1.0.0.439	7	234	2	3	Verdana	1	80	0	0	0	WM Stimuli\	0.4	1576.25	0.7	1491.14285714286	0.7	1625.57142857143	0.7	1639	0.8	1533.125	0.7	1595.14285714286	0.8	1459.25	0.8	1548.875	13	453114	2	453102	27	40	453141	-999999	453117	0	3	TrialsPROC	BP_005_BP19_BA.png	1	2	7	SessionSelectionList													5	nonlure	3	Body	2-Back	6	80	3	0	0	0	2	39	182383	2	13	59	180344	-1	181767	1	1423	3	3	2039	52	182396	-53	0																7												
WM080112	221319_fnca	1	1	1	-586879606	1	75.030	75.030	2.0.10.147	2.0.10.242	2.0.10.242	1.0.0.439	7	234	2	3	Verdana	1	80	0	0	0	WM Stimuli\	0.4	1576.25	0.7	1491.14285714286	0.7	1625.57142857143	0.7	1639	0.8	1533.125	0.7	1595.14285714286	0.8	1459.25	0.8	1548.875	13	453114	2	453102	27	40	453141	-999999	453117	0	3	TrialsPROC	BP_003_BP16_BA.png	1	2	8	SessionSelectionList													6	nonlure	3	Body	2-Back	7	80	3	0	1	0	2	40	184942	2	13	58	182902	-1	0	0	0	""	3	2040	53	184955	-54	0																8												
WM080112	221319_fnca	1	1	1	-586879606	1	75.030	75.030	2.0.10.147	2.0.10.242	2.0.10.242	1.0.0.439	7	234	2	3	Verdana	1	80	0	0	0	WM Stimuli\	0.4	1576.25	0.7	1491.14285714286	0.7	1625.57142857143	0.7	1639	0.8	1533.125	0.7	1595.14285714286	0.8	1459.25	0.8	1548.875	13	453114	2	453102	27	40	453141	-999999	453117	0	3	TrialsPROC	BP_006_BP2_BA.png	1	2	9	SessionSelectionList													7	lure	3	Body	2-Back	8	80	4	0	0	0	1	40	187501	1	13	59	185461	-1	186525	1	1064	3	3	2040	53	187514	-54	0																9												
WM080112	221319_fnca	1	1	1	-586879606	1	75.030	75.030	2.0.10.147	2.0.10.242	2.0.10.242	1.0.0.439	7	234	2	3	Verdana	1	80	0	0	0	WM Stimuli\	0.4	1576.25	0.7	1491.14285714286	0.7	1625.57142857143	0.7	1639	0.8	1533.125	0.7	1595.14285714286	0.8	1459.25	0.8	1548.875	13	453114	2	453102	27	40	453141	-999999	453117	0	3	TrialsPROC	BP_004_BP18_BA.png	1	2	10	SessionSelectionList													8	nonlure	3	Body	2-Back	9	80	4	0	1	0	1	40	190060	1	13	59	188020	-1	0	0	0	""	3	2040	53	190073	-54	0																10												
WM080112	221319_fnca	1	1	1	-586879606	1	75.030	75.030	2.0.10.147	2.0.10.242	2.0.10.242	1.0.0.439	7	234	2	3	Verdana	1	80	0	0	0	WM Stimuli\	0.4	1576.25	0.7	1491.14285714286	0.7	1625.57142857143	0.7	1639	0.8	1533.125	0.7	1595.14285714286	0.8	1459.25	0.8	1548.875	13	453114	2	453102	27	40	453141	-999999	453117	0	3	TrialsPROC	BP_005_BP19_BA.png	1	2	11	SessionSelectionList													9	lure	3	Body	2-Back	10	80	5	0	0	0	1	39	192619	2	13	60	190580	-1	192097	0	1517	2	3	2039	52	192632	-53	0																11												
WM080112	221319_fnca	1	1	1	-586879606	1	75.030	75.030	2.0.10.147	2.0.10.242	2.0.10.242	1.0.0.439	7	234	2	3	Verdana	1	80	0	0	0	WM Stimuli\	0.4	1576.25	0.7	1491.14285714286	0.7	1625.57142857143	0.7	1639	0.8	1533.125	0.7	1595.14285714286	0.8	1459.25	0.8	1548.875	13	453114	2	453102	27	40	453141	-999999	453117	0	3	TrialsPROC	BP_004_BP18_BA.png	1	2	12	SessionSelectionList													10	target	2	Body	2-Back	11	80	6	0	0	0	1	40	195178	1	13	58	193138	-1	194731	0	1593	3	2	2040	53	195191	-54	0																12												
WM080112	221319_fnca	1	1	1	-586879606	1	75.030	75.030	2.0.10.147	2.0.10.242	2.0.10.242	1.0.0.439	7	234	2	3	Verdana	1	80	0	0	0	WM Stimuli\	0.4	1576.25	0.7	1491.14285714286	0.7	1625.57142857143	0.7	1639	0.8	1533.125	0.7	1595.14285714286	0.8	1459.25	0.8	1548.875	13	453114	2	453102	27	40	453141	-999999	453117	0	4	Cue0BackPROC	FC_001_M1.png	1	2	13	SessionSelectionList																																										19	195657	-20	0												13												
WM080112	221319_fnca	1	1	1	-586879606	1	75.030	75.030	2.0.10.147	2.0.10.242	2.0.10.242	1.0.0.439	7	234	2	3	Verdana	1	80	0	0	0	WM Stimuli\	0.4	1576.25	0.7	1491.14285714286	0.7	1625.57142857143	0.7	1639	0.8	1533.125	0.7	1595.14285714286	0.8	1459.25	0.8	1548.875	13	453114	2	453102	27	40	453141	-999999	453117	0	5	TrialsPROC	FC_005_M3.png	1	2	14	SessionSelectionList														nonlure	3	Face	0-Back	12	80	7	0	0	100	2	39	200242	2	14	65	198203	-1	199721	1	1518	3	3	2039	53	200256	-54	0					1											14												
WM080112	221319_fnca	1	1	1	-586879606	1	75.030	75.030	2.0.10.147	2.0.10.242	2.0.10.242	1.0.0.439	7	234	2	3	Verdana	1	80	0	0	0	WM Stimuli\	0.4	1576.25	0.7	1491.14285714286	0.7	1625.57142857143	0.7	1639	0.8	1533.125	0.7	1595.14285714286	0.8	1459.25	0.8	1548.875	13	453114	2	453102	27	40	453141	-999999	453117	0	5	TrialsPROC	FC_001_M1.png	1	2	15	SessionSelectionList														target	2	Face	0-Back	13	80	8	0	0	100	1	39	202814	2	14	72	200775	-1	202165	1	1390	2	2	2039	53	202828	-54	0					2											15												
WM080112	221319_fnca	1	1	1	-586879606	1	75.030	75.030	2.0.10.147	2.0.10.242	2.0.10.242	1.0.0.439	7	234	2	3	Verdana	1	80	0	0	0	WM Stimuli\	0.4	1576.25	0.7	1491.14285714286	0.7	1625.57142857143	0.7	1639	0.8	1533.125	0.7	1595.14285714286	0.8	1459.25	0.8	1548.875	13	453114	2	453102	27	40	453141	-999999	453117	0	5	TrialsPROC	FC_003_M2.png	1	2	16	SessionSelectionList														nonlure	3	Face	0-Back	14	80	9	0	0	100	1	39	205387	2	14	73	203348	-1	205115	1	1767	3	3	2039	53	205401	-54	0					3											16												
WM080112	221319_fnca	1	1	1	-586879606	1	75.030	75.030	2.0.10.147	2.0.10.242	2.0.10.242	1.0.0.439	7	234	2	3	Verdana	1	80	0	0	0	WM Stimuli\	0.4	1576.25	0.7	1491.14285714286	0.7	1625.57142857143	0.7	1639	0.8	1533.125	0.7	1595.14285714286	0.8	1459.25	0.8	1548.875	13	453114	2	453102	27	40	453141	-999999	453117	0	5	TrialsPROC	FC_004_F2.png	1	2	17	SessionSelectionList														nonlure	3	Face	0-Back	15	80	10	0	0	100	2	39	207959	3	14	72	205920	-1	207455	1	1535	3	3	2039	53	207973	-54	0					4											17												
WM080112	221319_fnca	1	1	1	-586879606	1	75.030	75.030	2.0.10.147	2.0.10.242	2.0.10.242	1.0.0.439	7	234	2	3	Verdana	1	80	0	0	0	WM Stimuli\	0.4	1576.25	0.7	1491.14285714286	0.7	1625.57142857143	0.7	1639	0.8	1533.125	0.7	1595.14285714286	0.8	1459.25	0.8	1548.875	13	453114	2	453102	27	40	453141	-999999	453117	0	5	TrialsPROC	FC_004_F2.png	1	2	18	SessionSelectionList														lure	3	Face	0-Back	16	80	11	0	0	80	1	39	210531	3	14	72	208492	-1	209764	0	1272	2	3	2039	53	210545	-54	0					5											18												
WM080112	221319_fnca	1	1	1	-586879606	1	75.030	75.030	2.0.10.147	2.0.10.242	2.0.10.242	1.0.0.439	7	234	2	3	Verdana	1	80	0	0	0	WM Stimuli\	0.4	1576.25	0.7	1491.14285714286	0.7	1625.57142857143	0.7	1639	0.8	1533.125	0.7	1595.14285714286	0.8	1459.25	0.8	1548.875	13	453114	2	453102	27	40	453141	-999999	453117	0	5	TrialsPROC	FC_001_M1.png	1	2	19	SessionSelectionList														target	2	Face	0-Back	17	80	12	0	0	67	1	40	213104	2	13	72	211064	-1	212326	0	1262	3	2	2040	53	213117	-54	0					6											19												
WM080112	221319_fnca	1	1	1	-586879606	1	75.030	75.030	2.0.10.147	2.0.10.242	2.0.10.242	1.0.0.439	7	234	2	3	Verdana	1	80	0	0	0	WM Stimuli\	0.4	1576.25	0.7	1491.14285714286	0.7	1625.57142857143	0.7	1639	0.8	1533.125	0.7	1595.14285714286	0.8	1459.25	0.8	1548.875	13	453114	2	453102	27	40	453141	-999999	453117	0	5	TrialsPROC	FC_006_F3.png	1	2	20	SessionSelectionList														nonlure	3	Face	0-Back	18	80	13	0	0	71	2	39	215676	2	14	73	213637	-1	215514	1	1877	3	3	2039	53	215690	-54	0					7											20												
WM080112	221319_fnca	1	1	1	-586879606	1	75.030	75.030	2.0.10.147	2.0.10.242	2.0.10.242	1.0.0.439	7	234	2	3	Verdana	1	80	0	0	0	WM Stimuli\	0.4	1576.25	0.7	1491.14285714286	0.7	1625.57142857143	0.7	1639	0.8	1533.125	0.7	1595.14285714286	0.8	1459.25	0.8	1548.875	13	453114	2	453102	27	40	453141	-999999	453117	0	5	TrialsPROC	FC_006_F3.png	1	2	21	SessionSelectionList														lure	3	Face	0-Back	19	80	14	0	0	75	3	39	218248	3	14	72	216209	-1	218124	1	1915	3	3	2039	53	218262	-54	0					8											21												
WM080112	221319_fnca	1	1	1	-586879606	1	75.030	75.030	2.0.10.147	2.0.10.242	2.0.10.242	1.0.0.439	7	234	2	3	Verdana	1	80	0	0	0	WM Stimuli\	0.4	1576.25	0.7	1491.14285714286	0.7	1625.57142857143	0.7	1639	0.8	1533.125	0.7	1595.14285714286	0.8	1459.25	0.8	1548.875	13	453114	2	453102	27	40	453141	-999999	453117	0	5	TrialsPROC	FC_003_M2.png	1	2	22	SessionSelectionList														lure	3	Face	0-Back	20	80	15	0	0	67	1	40	220821	1	13	72	218781	-1	220765	0	1984	2	3	2040	53	220834	-54	0					9											22												
WM080112	221319_fnca	1	1	1	-586879606	1	75.030	75.030	2.0.10.147	2.0.10.242	2.0.10.242	1.0.0.439	7	234	2	3	Verdana	1	80	0	0	0	WM Stimuli\	0.4	1576.25	0.7	1491.14285714286	0.7	1625.57142857143	0.7	1639	0.8	1533.125	0.7	1595.14285714286	0.8	1459.25	0.8	1548.875	13	453114	2	453102	27	40	453141	-999999	453117	0	5	TrialsPROC	FC_002_F1.png	1	2	23	SessionSelectionList														nonlure	3	Face	0-Back	21	80	16	0	0	70	1	39	223393	2	14	73	221354	-1	222825	1	1471	3	3	2039	53	223407	-54	0					10											23												
WM080112	221319_fnca	1	1	1	-586879606	1	75.030	75.030	2.0.10.147	2.0.10.242	2.0.10.242	1.0.0.439	7	234	2	3	Verdana	1	80	0	0	0	WM Stimuli\	0.4	1576.25	0.7	1491.14285714286	0.7	1625.57142857143	0.7	1639	0.8	1533.125	0.7	1595.14285714286	0.8	1459.25	0.8	1548.875	13	453114	2	453102	27	40	453141	-999999	453117	0	6	Fix15secPROC	""	1	2	24	SessionSelectionList																																															6	223860	-7	0							24												
WM080112	221319_fnca	1	1	1	-586879606	1	75.030	75.030	2.0.10.147	2.0.10.242	2.0.10.242	1.0.0.439	7	234	2	3	Verdana	1	80	0	0	0	WM Stimuli\	0.4	1576.25	0.7	1491.14285714286	0.7	1625.57142857143	0.7	1639	0.8	1533.125	0.7	1595.14285714286	0.8	1459.25	0.8	1548.875	13	453114	2	453102	27	40	453141	-999999	453117	0	7	Cue2BackPROC	""	1	2	25	SessionSelectionList									13	238867	-14	0																																													25												
WM080112	221319_fnca	1	1	1	-586879606	1	75.030	75.030	2.0.10.147	2.0.10.242	2.0.10.242	1.0.0.439	7	234	2	3	Verdana	1	80	0	0	0	WM Stimuli\	0.4	1576.25	0.7	1491.14285714286	0.7	1625.57142857143	0.7	1639	0.8	1533.125	0.7	1595.14285714286	0.8	1459.25	0.8	1548.875	13	453114	2	453102	27	40	453141	-999999	453117	0	8	TrialsPROC	TO_001_TOOL1_BA.png	1	2	26	SessionSelectionList														nonlure	3	Tools	2-Back	22	80	16	0	1	70	1	39	243451	2	14	58	241412	-1	0	0	0	""	3	2039	53	243465	-54	0										1						26												
WM080112	221319_fnca	1	1	1	-586879606	1	75.030	75.030	2.0.10.147	2.0.10.242	2.0.10.242	1.0.0.439	7	234	2	3	Verdana	1	80	0	0	0	WM Stimuli\	0.4	1576.25	0.7	1491.14285714286	0.7	1625.57142857143	0.7	1639	0.8	1533.125	0.7	1595.14285714286	0.8	1459.25	0.8	1548.875	13	453114	2	453102	27	40	453141	-999999	453117	0	8	TrialsPROC	TO_002_TOOL2_BA.png	1	2	27	SessionSelectionList														nonlure	3	Tools	2-Back	23	80	17	0	0	70	1	39	246010	3	14	59	243971	-1	245663	1	1692	3	3	2039	53	246024	-54	0										2						27												
WM080112	221319_fnca	1	1	1	-586879606	1	75.030	75.030	2.0.10.147	2.0.10.242	2.0.10.242	1.0.0.439	7	234	2	3	Verdana	1	80	0	0	0	WM Stimuli\	0.4	1576.25	0.7	1491.14285714286	0.7	1625.57142857143	0.7	1639	0.8	1533.125	0.7	1595.14285714286	0.8	1459.25	0.8	1548.875	13	453114	2	453102	27	40	453141	-999999	453117	0	8	TrialsPROC	TO_004_TOOL4_BA.png	1	2	28	SessionSelectionList														nonlure	3	Tools	2-Back	24	80	18	0	0	70	2	38	248569	3	14	60	246531	-1	247981	1	1450	3	3	2038	52	248583	-53	0										3						28												
WM080112	221319_fnca	1	1	1	-586879606	1	75.030	75.030	2.0.10.147	2.0.10.242	2.0.10.242	1.0.0.439	7	234	2	3	Verdana	1	80	0	0	0	WM Stimuli\	0.4	1576.25	0.7	1491.14285714286	0.7	1625.57142857143	0.7	1639	0.8	1533.125	0.7	1595.14285714286	0.8	1459.25	0.8	1548.875	13	453114	2	453102	27	40	453141	-999999	453117	0	8	TrialsPROC	TO_002_TOOL2_BA.png	1	2	29	SessionSelectionList														target	2	Tools	2-Back	25	80	19	0	0	70	1	39	251128	3	14	58	249089	-1	250581	1	1492	2	2	2039	53	251142	-54	0										4						29												
WM080112	221319_fnca	1	1	1	-586879606	1	75.030	75.030	2.0.10.147	2.0.10.242	2.0.10.242	1.0.0.439	7	234	2	3	Verdana	1	80	0	0	0	WM Stimuli\	0.4	1576.25	0.7	1491.14285714286	0.7	1625.57142857143	0.7	1639	0.8	1533.125	0.7	1595.14285714286	0.8	1459.25	0.8	1548.875	13	453114	2	453102	27	40	453141	-999999	453117	0	8	TrialsPROC	TO_001_TOOL1_BA.png	1	2	30	SessionSelectionList														lure	3	Tools	2-Back	26	80	20	0	0	70	1	39	253687	3	14	59	251648	-1	253043	1	1395	3	3	2039	53	253701	-54	0										5						30												
WM080112	221319_fnca	1	1	1	-586879606	1	75.030	75.030	2.0.10.147	2.0.10.242	2.0.10.242	1.0.0.439	7	234	2	3	Verdana	1	80	0	0	0	WM Stimuli\	0.4	1576.25	0.7	1491.14285714286	0.7	1625.57142857143	0.7	1639	0.8	1533.125	0.7	1595.14285714286	0.8	1459.25	0.8	1548.875	13	453114	2	453102	27	40	453141	-999999	453117	0	8	TrialsPROC	TO_004_TOOL4_BA.png	1	2	31	SessionSelectionList														lure	3	Tools	2-Back	27	80	21	0	0	70	1	39	256246	3	14	59	254207	-1	255694	0	1487	2	3	2039	53	256260	-54	0										6						31												
WM080112	221319_fnca	1	1	1	-586879606	1	75.030	75.030	2.0.10.147	2.0.10.242	2.0.10.242	1.0.0.439	7	234	2	3	Verdana	1	80	0	0	0	WM Stimuli\	0.4	1576.25	0.7	1491.14285714286	0.7	1625.57142857143	0.7	1639	0.8	1533.125	0.7	1595.14285714286	0.8	1459.25	0.8	1548.875	13	453114	2	453102	27	40	453141	-999999	453117	0	8	TrialsPROC	TO_006_TOOL6_BA.png	1	2	32	SessionSelectionList														nonlure	3	Tools	2-Back	28	80	22	0	0	70	1	39	258805	2	14	59	256766	-1	258057	1	1291	3	3	2039	53	258819	-54	0										7						32												
WM080112	221319_fnca	1	1	1	-586879606	1	75.030	75.030	2.0.10.147	2.0.10.242	2.0.10.242	1.0.0.439	7	234	2	3	Verdana	1	80	0	0	0	WM Stimuli\	0.4	1576.25	0.7	1491.14285714286	0.7	1625.57142857143	0.7	1639	0.8	1533.125	0.7	1595.14285714286	0.8	1459.25	0.8	1548.875	13	453114	2	453102	27	40	453141	-999999	453117	0	8	TrialsPROC	TO_005_TOOL5_BA.png	1	2	33	SessionSelectionList														nonlure	3	Tools	2-Back	29	80	23	0	0	70	2	39	261364	2	14	59	259325	-1	260644	1	1319	3	3	2039	53	261378	-54	0										8						33												
WM080112	221319_fnca	1	1	1	-586879606	1	75.030	75.030	2.0.10.147	2.0.10.242	2.0.10.242	1.0.0.439	7	234	2	3	Verdana	1	80	0	0	0	WM Stimuli\	0.4	1576.25	0.7	1491.14285714286	0.7	1625.57142857143	0.7	1639	0.8	1533.125	0.7	1595.14285714286	0.8	1459.25	0.8	1548.875	13	453114	2	453102	27	40	453141	-999999	453117	0	8	TrialsPROC	TO_006_TOOL6_BA.png	1	2	34	SessionSelectionList														target	2	Tools	2-Back	30	80	24	0	0	70	1	39	263923	3	14	59	261884	-1	263495	1	1611	2	2	2039	53	263937	-54	0										9						34												
WM080112	221319_fnca	1	1	1	-586879606	1	75.030	75.030	2.0.10.147	2.0.10.242	2.0.10.242	1.0.0.439	7	234	2	3	Verdana	1	80	0	0	0	WM Stimuli\	0.4	1576.25	0.7	1491.14285714286	0.7	1625.57142857143	0.7	1639	0.8	1533.125	0.7	1595.14285714286	0.8	1459.25	0.8	1548.875	13	453114	2	453102	27	40	453141	-999999	453117	0	8	TrialsPROC	TO_003_TOOL3_BA.png	1	2	35	SessionSelectionList														nonlure	3	Tools	2-Back	31	80	25	0	0	70	1	39	266482	2	14	59	264443	-1	265867	1	1424	3	3	2039	53	266496	-54	0										10						35												
WM080112	221319_fnca	1	1	1	-586879606	1	75.030	75.030	2.0.10.147	2.0.10.242	2.0.10.242	1.0.0.439	7	234	2	3	Verdana	1	80	0	0	0	WM Stimuli\	0.4	1576.25	0.7	1491.14285714286	0.7	1625.57142857143	0.7	1639	0.8	1533.125	0.7	1595.14285714286	0.8	1459.25	0.8	1548.875	13	453114	2	453102	27	40	453141	-999999	453117	0	9	Cue0BackPROC	BP_007_BP20_BA.png	1	2	36	SessionSelectionList																																										19	266962	-20	0												36												
WM080112	221319_fnca	1	1	1	-586879606	1	75.030	75.030	2.0.10.147	2.0.10.242	2.0.10.242	1.0.0.439	7	234	2	3	Verdana	1	80	0	0	0	WM Stimuli\	0.4	1576.25	0.7	1491.14285714286	0.7	1625.57142857143	0.7	1639	0.8	1533.125	0.7	1595.14285714286	0.8	1459.25	0.8	1548.875	13	453114	2	453102	27	40	453141	-999999	453117	0	10	TrialsPROC	BP_007_BP20_BA.png	1	2	37	SessionSelectionList														target	2	Body	0-Back	32	80	26	0	0	73	1	39	271533	3	14	51	269494	-1	271116	1	1622	2	2	2039	53	271547	-54	0											1					37												
WM080112	221319_fnca	1	1	1	-586879606	1	75.030	75.030	2.0.10.147	2.0.10.242	2.0.10.242	1.0.0.439	7	234	2	3	Verdana	1	80	0	0	0	WM Stimuli\	0.4	1576.25	0.7	1491.14285714286	0.7	1625.57142857143	0.7	1639	0.8	1533.125	0.7	1595.14285714286	0.8	1459.25	0.8	1548.875	13	453114	2	453102	27	40	453141	-999999	453117	0	10	TrialsPROC	BP_011_BP4_BA.png	1	2	38	SessionSelectionList														nonlure	3	Body	0-Back	33	80	27	0	0	75	1	39	274106	1	14	73	272067	-1	273332	1	1265	3	3	2039	53	274120	-54	0											2					38												
WM080112	221319_fnca	1	1	1	-586879606	1	75.030	75.030	2.0.10.147	2.0.10.242	2.0.10.242	1.0.0.439	7	234	2	3	Verdana	1	80	0	0	0	WM Stimuli\	0.4	1576.25	0.7	1491.14285714286	0.7	1625.57142857143	0.7	1639	0.8	1533.125	0.7	1595.14285714286	0.8	1459.25	0.8	1548.875	13	453114	2	453102	27	40	453141	-999999	453117	0	10	TrialsPROC	BP_010_BP3_BA.png	1	2	39	SessionSelectionList														nonlure	3	Body	0-Back	34	80	28	0	0	77	2	39	276665	1	13	59	274626	-1	276225	1	1599	3	3	2039	52	276678	-53	0											3					39												
WM080112	221319_fnca	1	1	1	-586879606	1	75.030	75.030	2.0.10.147	2.0.10.242	2.0.10.242	1.0.0.439	7	234	2	3	Verdana	1	80	0	0	0	WM Stimuli\	0.4	1576.25	0.7	1491.14285714286	0.7	1625.57142857143	0.7	1639	0.8	1533.125	0.7	1595.14285714286	0.8	1459.25	0.8	1548.875	13	453114	2	453102	27	40	453141	-999999	453117	0	10	TrialsPROC	BP_008_BP21_BA.png	1	2	40	SessionSelectionList														nonlure	3	Body	0-Back	35	80	29	0	0	79	3	39	279224	1	13	59	277185	-1	278792	1	1607	3	3	2039	52	279237	-53	0											4					40												
WM080112	221319_fnca	1	1	1	-586879606	1	75.030	75.030	2.0.10.147	2.0.10.242	2.0.10.242	1.0.0.439	7	234	2	3	Verdana	1	80	0	0	0	WM Stimuli\	0.4	1576.25	0.7	1491.14285714286	0.7	1625.57142857143	0.7	1639	0.8	1533.125	0.7	1595.14285714286	0.8	1459.25	0.8	1548.875	13	453114	2	453102	27	40	453141	-999999	453117	0	10	TrialsPROC	BP_011_BP4_BA.png	1	2	41	SessionSelectionList														lure	3	Body	0-Back	36	80	30	0	0	73	1	39	281796	2	14	72	279757	-1	281221	0	1464	2	3	2039	53	281810	-54	0											5					41												
WM080112	221319_fnca	1	1	1	-586879606	1	75.030	75.030	2.0.10.147	2.0.10.242	2.0.10.242	1.0.0.439	7	234	2	3	Verdana	1	80	0	0	0	WM Stimuli\	0.4	1576.25	0.7	1491.14285714286	0.7	1625.57142857143	0.7	1639	0.8	1533.125	0.7	1595.14285714286	0.8	1459.25	0.8	1548.875	13	453114	2	453102	27	40	453141	-999999	453117	0	10	TrialsPROC	BP_009_BP22_BA.png	1	2	42	SessionSelectionList														nonlure	3	Body	0-Back	37	80	31	0	0	75	1	39	284355	2	14	59	282316	-1	283652	1	1336	3	3	2039	53	284369	-54	0											6					42												
WM080112	221319_fnca	1	1	1	-586879606	1	75.030	75.030	2.0.10.147	2.0.10.242	2.0.10.242	1.0.0.439	7	234	2	3	Verdana	1	80	0	0	0	WM Stimuli\	0.4	1576.25	0.7	1491.14285714286	0.7	1625.57142857143	0.7	1639	0.8	1533.125	0.7	1595.14285714286	0.8	1459.25	0.8	1548.875	13	453114	2	453102	27	40	453141	-999999	453117	0	10	TrialsPROC	BP_009_BP22_BA.png	1	2	43	SessionSelectionList														lure	3	Body	0-Back	38	80	32	0	0	71	1	39	286914	2	14	59	284875	-1	286273	0	1398	2	3	2039	53	286928	-54	0											7					43												
WM080112	221319_fnca	1	1	1	-586879606	1	75.030	75.030	2.0.10.147	2.0.10.242	2.0.10.242	1.0.0.439	7	234	2	3	Verdana	1	80	0	0	0	WM Stimuli\	0.4	1576.25	0.7	1491.14285714286	0.7	1625.57142857143	0.7	1639	0.8	1533.125	0.7	1595.14285714286	0.8	1459.25	0.8	1548.875	13	453114	2	453102	27	40	453141	-999999	453117	0	10	TrialsPROC	BP_008_BP21_BA.png	1	2	44	SessionSelectionList														lure	3	Body	0-Back	39	80	33	0	0	72	1	39	289473	1	14	59	287434	-1	288944	1	1510	3	3	2039	53	289487	-54	0											8					44												
WM080112	221319_fnca	1	1	1	-586879606	1	75.030	75.030	2.0.10.147	2.0.10.242	2.0.10.242	1.0.0.439	7	234	2	3	Verdana	1	80	0	0	0	WM Stimuli\	0.4	1576.25	0.7	1491.14285714286	0.7	1625.57142857143	0.7	1639	0.8	1533.125	0.7	1595.14285714286	0.8	1459.25	0.8	1548.875	13	453114	2	453102	27	40	453141	-999999	453117	0	10	TrialsPROC	BP_007_BP20_BA.png	1	2	45	SessionSelectionList														target	2	Body	0-Back	40	80	34	0	0	68	2	39	292032	1	14	59	289993	-1	291340	0	1347	3	2	2039	53	292046	-54	0											9					45												
WM080112	221319_fnca	1	1	1	-586879606	1	75.030	75.030	2.0.10.147	2.0.10.242	2.0.10.242	1.0.0.439	7	234	2	3	Verdana	1	80	0	0	0	WM Stimuli\	0.4	1576.25	0.7	1491.14285714286	0.7	1625.57142857143	0.7	1639	0.8	1533.125	0.7	1595.14285714286	0.8	1459.25	0.8	1548.875	13	453114	2	453102	27	40	453141	-999999	453117	0	10	TrialsPROC	BP_012_BP5_BA.png	1	2	46	SessionSelectionList														nonlure	3	Body	0-Back	41	80	35	0	0	70	3	39	294604	3	14	72	292565	-1	294064	1	1499	3	3	2039	53	294618	-54	0											10					46												
WM080112	221319_fnca	1	1	1	-586879606	1	75.030	75.030	2.0.10.147	2.0.10.242	2.0.10.242	1.0.0.439	7	234	2	3	Verdana	1	80	0	0	0	WM Stimuli\	0.4	1576.25	0.7	1491.14285714286	0.7	1625.57142857143	0.7	1639	0.8	1533.125	0.7	1595.14285714286	0.8	1459.25	0.8	1548.875	13	453114	2	453102	27	40	453141	-999999	453117	0	11	Fix15secPROC	""	1	2	47	SessionSelectionList																																															6	295071	-7	0							47												
WM080112	221319_fnca	1	1	1	-586879606	1	75.030	75.030	2.0.10.147	2.0.10.242	2.0.10.242	1.0.0.439	7	234	2	3	Verdana	1	80	0	0	0	WM Stimuli\	0.4	1576.25	0.7	1491.14285714286	0.7	1625.57142857143	0.7	1639	0.8	1533.125	0.7	1595.14285714286	0.8	1459.25	0.8	1548.875	13	453114	2	453102	27	40	453141	-999999	453117	0	12	Cue0BackPROC	PL_001_92012.png	1	2	48	SessionSelectionList																																										13	310078	-14	0												48												
WM080112	221319_fnca	1	1	1	-586879606	1	75.030	75.030	2.0.10.147	2.0.10.242	2.0.10.242	1.0.0.439	7	234	2	3	Verdana	1	80	0	0	0	WM Stimuli\	0.4	1576.25	0.7	1491.14285714286	0.7	1625.57142857143	0.7	1639	0.8	1533.125	0.7	1595.14285714286	0.8	1459.25	0.8	1548.875	13	453114	2	453102	27	40	453141	-999999	453117	0	13	TrialsPROC	PL_003_92016.png	1	2	49	SessionSelectionList														nonlure	3	Place	0-Back	42	80	36	0	0	71	4	39	314676	3	14	72	312637	-1	314334	1	1697	3	3	2039	53	314690	-54	0												1				49												
WM080112	221319_fnca	1	1	1	-586879606	1	75.030	75.030	2.0.10.147	2.0.10.242	2.0.10.242	1.0.0.439	7	234	2	3	Verdana	1	80	0	0	0	WM Stimuli\	0.4	1576.25	0.7	1491.14285714286	0.7	1625.57142857143	0.7	1639	0.8	1533.125	0.7	1595.14285714286	0.8	1459.25	0.8	1548.875	13	453114	2	453102	27	40	453141	-999999	453117	0	13	TrialsPROC	PL_003_92016.png	1	2	50	SessionSelectionList														lure	3	Place	0-Back	43	80	37	0	0	68	1	39	317248	3	14	72	315209	-1	316856	0	1647	2	3	2039	53	317262	-54	0												2				50												
WM080112	221319_fnca	1	1	1	-586879606	1	75.030	75.030	2.0.10.147	2.0.10.242	2.0.10.242	1.0.0.439	7	234	2	3	Verdana	1	80	0	0	0	WM Stimuli\	0.4	1576.25	0.7	1491.14285714286	0.7	1625.57142857143	0.7	1639	0.8	1533.125	0.7	1595.14285714286	0.8	1459.25	0.8	1548.875	13	453114	2	453102	27	40	453141	-999999	453117	0	13	TrialsPROC	PL_006_92025.png	1	2	51	SessionSelectionList														nonlure	3	Place	0-Back	44	80	38	0	0	70	1	40	319821	1	13	72	317781	-1	319514	1	1733	3	3	2040	53	319834	-54	0												3				51												
WM080112	221319_fnca	1	1	1	-586879606	1	75.030	75.030	2.0.10.147	2.0.10.242	2.0.10.242	1.0.0.439	7	234	2	3	Verdana	1	80	0	0	0	WM Stimuli\	0.4	1576.25	0.7	1491.14285714286	0.7	1625.57142857143	0.7	1639	0.8	1533.125	0.7	1595.14285714286	0.8	1459.25	0.8	1548.875	13	453114	2	453102	27	40	453141	-999999	453117	0	13	TrialsPROC	PL_001_92012.png	1	2	52	SessionSelectionList														target	2	Place	0-Back	45	80	39	0	0	67	2	39	322393	2	14	73	320354	-1	322037	0	1683	3	2	2039	53	322407	-54	0												4				52												
WM080112	221319_fnca	1	1	1	-586879606	1	75.030	75.030	2.0.10.147	2.0.10.242	2.0.10.242	1.0.0.439	7	234	2	3	Verdana	1	80	0	0	0	WM Stimuli\	0.4	1576.25	0.7	1491.14285714286	0.7	1625.57142857143	0.7	1639	0.8	1533.125	0.7	1595.14285714286	0.8	1459.25	0.8	1548.875	13	453114	2	453102	27	40	453141	-999999	453117	0	13	TrialsPROC	PL_004_92023.png	1	2	53	SessionSelectionList														nonlure	3	Place	0-Back	46	80	40	0	0	68	3	39	324965	2	14	72	322926	-1	324325	1	1399	3	3	2039	53	324979	-54	0												5				53												
WM080112	221319_fnca	1	1	1	-586879606	1	75.030	75.030	2.0.10.147	2.0.10.242	2.0.10.242	1.0.0.439	7	234	2	3	Verdana	1	80	0	0	0	WM Stimuli\	0.4	1576.25	0.7	1491.14285714286	0.7	1625.57142857143	0.7	1639	0.8	1533.125	0.7	1595.14285714286	0.8	1459.25	0.8	1548.875	13	453114	2	453102	27	40	453141	-999999	453117	0	13	TrialsPROC	PL_005_92024.png	1	2	54	SessionSelectionList														nonlure	3	Place	0-Back	47	80	41	0	0	69	4	39	327524	2	14	59	325485	-1	327390	1	1905	3	3	2039	53	327538	-54	0												6				54												
WM080112	221319_fnca	1	1	1	-586879606	1	75.030	75.030	2.0.10.147	2.0.10.242	2.0.10.242	1.0.0.439	7	234	2	3	Verdana	1	80	0	0	0	WM Stimuli\	0.4	1576.25	0.7	1491.14285714286	0.7	1625.57142857143	0.7	1639	0.8	1533.125	0.7	1595.14285714286	0.8	1459.25	0.8	1548.875	13	453114	2	453102	27	40	453141	-999999	453117	0	13	TrialsPROC	PL_001_92012.png	1	2	55	SessionSelectionList														target	2	Place	0-Back	48	80	42	0	0	70	1	39	330083	2	14	59	328044	-1	329824	1	1780	2	2	2039	53	330097	-54	0												7				55												
WM080112	221319_fnca	1	1	1	-586879606	1	75.030	75.030	2.0.10.147	2.0.10.242	2.0.10.242	1.0.0.439	7	234	2	3	Verdana	1	80	0	0	0	WM Stimuli\	0.4	1576.25	0.7	1491.14285714286	0.7	1625.57142857143	0.7	1639	0.8	1533.125	0.7	1595.14285714286	0.8	1459.25	0.8	1548.875	13	453114	2	453102	27	40	453141	-999999	453117	0	13	TrialsPROC	PL_002_92014.png	1	2	56	SessionSelectionList														nonlure	3	Place	0-Back	49	80	43	0	0	71	1	39	332655	3	14	72	330616	-1	331936	1	1320	3	3	2039	53	332669	-54	0												8				56												
WM080112	221319_fnca	1	1	1	-586879606	1	75.030	75.030	2.0.10.147	2.0.10.242	2.0.10.242	1.0.0.439	7	234	2	3	Verdana	1	80	0	0	0	WM Stimuli\	0.4	1576.25	0.7	1491.14285714286	0.7	1625.57142857143	0.7	1639	0.8	1533.125	0.7	1595.14285714286	0.8	1459.25	0.8	1548.875	13	453114	2	453102	27	40	453141	-999999	453117	0	13	TrialsPROC	PL_004_92023.png	1	2	57	SessionSelectionList														lure	3	Place	0-Back	50	80	44	0	0	72	2	39	335228	2	14	73	333189	-1	334521	1	1332	3	3	2039	53	335242	-54	0												9				57												
WM080112	221319_fnca	1	1	1	-586879606	1	75.030	75.030	2.0.10.147	2.0.10.242	2.0.10.242	1.0.0.439	7	234	2	3	Verdana	1	80	0	0	0	WM Stimuli\	0.4	1576.25	0.7	1491.14285714286	0.7	1625.57142857143	0.7	1639	0.8	1533.125	0.7	1595.14285714286	0.8	1459.25	0.8	1548.875	13	453114	2	453102	27	40	453141	-999999	453117	0	13	TrialsPROC	PL_006_92025.png	1	2	58	SessionSelectionList														lure	3	Place	0-Back	51	80	45	0	0	70	1	39	337800	3	14	72	335761	-1	337413	0	1652	2	3	2039	53	337814	-54	0												10				58												
WM080112	221319_fnca	1	1	1	-586879606	1	75.030	75.030	2.0.10.147	2.0.10.242	2.0.10.242	1.0.0.439	7	234	2	3	Verdana	1	80	0	0	0	WM Stimuli\	0.4	1576.25	0.7	1491.14285714286	0.7	1625.57142857143	0.7	1639	0.8	1533.125	0.7	1595.14285714286	0.8	1459.25	0.8	1548.875	13	453114	2	453102	27	40	453141	-999999	453117	0	14	Cue2BackPROC	""	1	2	59	SessionSelectionList									6	338267	-7	0																																													59												
WM080112	221319_fnca	1	1	1	-586879606	1	75.030	75.030	2.0.10.147	2.0.10.242	2.0.10.242	1.0.0.439	7	234	2	3	Verdana	1	80	0	0	0	WM Stimuli\	0.4	1576.25	0.7	1491.14285714286	0.7	1625.57142857143	0.7	1639	0.8	1533.125	0.7	1595.14285714286	0.8	1459.25	0.8	1548.875	13	453114	2	453102	27	40	453141	-999999	453117	0	15	TrialsPROC	FC_010_F5.png	1	2	60	SessionSelectionList														nonlure	3	Face	2-Back	52	80	46	0	0	70	2	39	342865	2	13	65	340826	-1	342472	0	1646	2	3	2039	52	342878	-53	0													1			60												
WM080112	221319_fnca	1	1	1	-586879606	1	75.030	75.030	2.0.10.147	2.0.10.242	2.0.10.242	1.0.0.439	7	234	2	3	Verdana	1	80	0	0	0	WM Stimuli\	0.4	1576.25	0.7	1491.14285714286	0.7	1625.57142857143	0.7	1639	0.8	1533.125	0.7	1595.14285714286	0.8	1459.25	0.8	1548.875	13	453114	2	453102	27	40	453141	-999999	453117	0	15	TrialsPROC	FC_012_F6.png	1	2	61	SessionSelectionList														nonlure	3	Face	2-Back	53	80	47	0	0	70	1	39	345437	3	14	72	343398	-1	345073	1	1675	3	3	2039	53	345451	-54	0													2			61												
WM080112	221319_fnca	1	1	1	-586879606	1	75.030	75.030	2.0.10.147	2.0.10.242	2.0.10.242	1.0.0.439	7	234	2	3	Verdana	1	80	0	0	0	WM Stimuli\	0.4	1576.25	0.7	1491.14285714286	0.7	1625.57142857143	0.7	1639	0.8	1533.125	0.7	1595.14285714286	0.8	1459.25	0.8	1548.875	13	453114	2	453102	27	40	453141	-999999	453117	0	15	TrialsPROC	FC_010_F5.png	1	2	62	SessionSelectionList														target	2	Face	2-Back	54	80	48	0	0	70	1	39	348009	3	14	72	345970	-1	347215	1	1245	2	2	2039	53	348023	-54	0													3			62												
WM080112	221319_fnca	1	1	1	-586879606	1	75.030	75.030	2.0.10.147	2.0.10.242	2.0.10.242	1.0.0.439	7	234	2	3	Verdana	1	80	0	0	0	WM Stimuli\	0.4	1576.25	0.7	1491.14285714286	0.7	1625.57142857143	0.7	1639	0.8	1533.125	0.7	1595.14285714286	0.8	1459.25	0.8	1548.875	13	453114	2	453102	27	40	453141	-999999	453117	0	15	TrialsPROC	FC_008_F4.png	1	2	63	SessionSelectionList														nonlure	3	Face	2-Back	55	80	49	0	0	70	1	39	350608	3	14	99	348569	-1	350302	1	1733	3	3	2039	53	350622	-54	0													4			63												
WM080112	221319_fnca	1	1	1	-586879606	1	75.030	75.030	2.0.10.147	2.0.10.242	2.0.10.242	1.0.0.439	7	234	2	3	Verdana	1	80	0	0	0	WM Stimuli\	0.4	1576.25	0.7	1491.14285714286	0.7	1625.57142857143	0.7	1639	0.8	1533.125	0.7	1595.14285714286	0.8	1459.25	0.8	1548.875	13	453114	2	453102	27	40	453141	-999999	453117	0	15	TrialsPROC	FC_012_F6.png	1	2	64	SessionSelectionList														lure	3	Face	2-Back	56	80	50	0	0	70	2	40	353181	2	13	72	351141	-1	352989	1	1848	3	3	2040	53	353194	-54	0													5			64												
WM080112	221319_fnca	1	1	1	-586879606	1	75.030	75.030	2.0.10.147	2.0.10.242	2.0.10.242	1.0.0.439	7	234	2	3	Verdana	1	80	0	0	0	WM Stimuli\	0.4	1576.25	0.7	1491.14285714286	0.7	1625.57142857143	0.7	1639	0.8	1533.125	0.7	1595.14285714286	0.8	1459.25	0.8	1548.875	13	453114	2	453102	27	40	453141	-999999	453117	0	15	TrialsPROC	FC_008_F4.png	1	2	65	SessionSelectionList														target	2	Face	2-Back	57	80	51	0	0	70	1	39	355753	1	14	73	353714	-1	355291	1	1577	2	2	2039	53	355767	-54	0													6			65												
WM080112	221319_fnca	1	1	1	-586879606	1	75.030	75.030	2.0.10.147	2.0.10.242	2.0.10.242	1.0.0.439	7	234	2	3	Verdana	1	80	0	0	0	WM Stimuli\	0.4	1576.25	0.7	1491.14285714286	0.7	1625.57142857143	0.7	1639	0.8	1533.125	0.7	1595.14285714286	0.8	1459.25	0.8	1548.875	13	453114	2	453102	27	40	453141	-999999	453117	0	15	TrialsPROC	FC_007_M4.png	1	2	66	SessionSelectionList														nonlure	3	Face	2-Back	58	80	52	0	0	70	1	39	358338	2	14	85	356299	-1	357864	1	1565	3	3	2039	53	358352	-54	0													7			66												
WM080112	221319_fnca	1	1	1	-586879606	1	75.030	75.030	2.0.10.147	2.0.10.242	2.0.10.242	1.0.0.439	7	234	2	3	Verdana	1	80	0	0	0	WM Stimuli\	0.4	1576.25	0.7	1491.14285714286	0.7	1625.57142857143	0.7	1639	0.8	1533.125	0.7	1595.14285714286	0.8	1459.25	0.8	1548.875	13	453114	2	453102	27	40	453141	-999999	453117	0	15	TrialsPROC	FC_007_M4.png	1	2	67	SessionSelectionList														lure	3	Face	2-Back	59	80	53	0	0	70	2	39	360911	2	14	73	358872	-1	360608	1	1736	3	3	2039	53	360925	-54	0													8			67												
WM080112	221319_fnca	1	1	1	-586879606	1	75.030	75.030	2.0.10.147	2.0.10.242	2.0.10.242	1.0.0.439	7	234	2	3	Verdana	1	80	0	0	0	WM Stimuli\	0.4	1576.25	0.7	1491.14285714286	0.7	1625.57142857143	0.7	1639	0.8	1533.125	0.7	1595.14285714286	0.8	1459.25	0.8	1548.875	13	453114	2	453102	27	40	453141	-999999	453117	0	15	TrialsPROC	FC_009_M5.png	1	2	68	SessionSelectionList														nonlure	3	Face	2-Back	60	80	54	0	0	70	1	39	363510	2	13	99	361471	-1	363283	0	1812	2	3	2039	52	363523	-53	0													9			68												
WM080112	221319_fnca	1	1	1	-586879606	1	75.030	75.030	2.0.10.147	2.0.10.242	2.0.10.242	1.0.0.439	7	234	2	3	Verdana	1	80	0	0	0	WM Stimuli\	0.4	1576.25	0.7	1491.14285714286	0.7	1625.57142857143	0.7	1639	0.8	1533.125	0.7	1595.14285714286	0.8	1459.25	0.8	1548.875	13	453114	2	453102	27	40	453141	-999999	453117	0	15	TrialsPROC	FC_011_M6.png	1	2	69	SessionSelectionList														nonlure	3	Face	2-Back	61	80	54	0	1	70	1	39	366095	3	14	85	364056	-1	0	0	0	""	3	2039	53	366109	-54	0													10			69												
WM080112	221319_fnca	1	1	1	-586879606	1	75.030	75.030	2.0.10.147	2.0.10.242	2.0.10.242	1.0.0.439	7	234	2	3	Verdana	1	80	0	0	0	WM Stimuli\	0.4	1576.25	0.7	1491.14285714286	0.7	1625.57142857143	0.7	1639	0.8	1533.125	0.7	1595.14285714286	0.8	1459.25	0.8	1548.875	13	453114	2	453102	27	40	453141	-999999	453117	0	16	Fix15secPROC	""	1	2	70	SessionSelectionList																																															6	366562	-7	0							70												
WM080112	221319_fnca	1	1	1	-586879606	1	75.030	75.030	2.0.10.147	2.0.10.242	2.0.10.242	1.0.0.439	7	234	2	3	Verdana	1	80	0	0	0	WM Stimuli\	0.4	1576.25	0.7	1491.14285714286	0.7	1625.57142857143	0.7	1639	0.8	1533.125	0.7	1595.14285714286	0.8	1459.25	0.8	1548.875	13	453114	2	453102	27	40	453141	-999999	453117	0	17	Cue0BackPROC	TO_007_TOOL7_BA.png	1	2	71	SessionSelectionList																																										40	381596	-41	0												71												
WM080112	221319_fnca	1	1	1	-586879606	1	75.030	75.030	2.0.10.147	2.0.10.242	2.0.10.242	1.0.0.439	7	234	2	3	Verdana	1	80	0	0	0	WM Stimuli\	0.4	1576.25	0.7	1491.14285714286	0.7	1625.57142857143	0.7	1639	0.8	1533.125	0.7	1595.14285714286	0.8	1459.25	0.8	1548.875	13	453114	2	453102	27	40	453141	-999999	453117	0	18	TrialsPROC	TO_010_TOOL10_BA.png	1	2	72	SessionSelectionList														nonlure	3	Tools	0-Back	62	80	55	0	0	71	1	40	386181	1	13	85	384141	-1	385548	1	1407	3	3	2040	53	386194	-54	0														1		72												
WM080112	221319_fnca	1	1	1	-586879606	1	75.030	75.030	2.0.10.147	2.0.10.242	2.0.10.242	1.0.0.439	7	234	2	3	Verdana	1	80	0	0	0	WM Stimuli\	0.4	1576.25	0.7	1491.14285714286	0.7	1625.57142857143	0.7	1639	0.8	1533.125	0.7	1595.14285714286	0.8	1459.25	0.8	1548.875	13	453114	2	453102	27	40	453141	-999999	453117	0	18	TrialsPROC	TO_009_TOOL9_BA.png	1	2	73	SessionSelectionList														nonlure	3	Tools	0-Back	63	80	56	0	0	72	2	39	388766	3	14	86	386727	-1	388381	1	1654	3	3	2039	53	388780	-54	0														2		73												
WM080112	221319_fnca	1	1	1	-586879606	1	75.030	75.030	2.0.10.147	2.0.10.242	2.0.10.242	1.0.0.439	7	234	2	3	Verdana	1	80	0	0	0	WM Stimuli\	0.4	1576.25	0.7	1491.14285714286	0.7	1625.57142857143	0.7	1639	0.8	1533.125	0.7	1595.14285714286	0.8	1459.25	0.8	1548.875	13	453114	2	453102	27	40	453141	-999999	453117	0	18	TrialsPROC	TO_009_TOOL9_BA.png	1	2	74	SessionSelectionList														lure	3	Tools	0-Back	64	80	57	0	0	70	1	39	391325	2	14	59	389286	-1	390628	0	1342	2	3	2039	53	391339	-54	0														3		74												
WM080112	221319_fnca	1	1	1	-586879606	1	75.030	75.030	2.0.10.147	2.0.10.242	2.0.10.242	1.0.0.439	7	234	2	3	Verdana	1	80	0	0	0	WM Stimuli\	0.4	1576.25	0.7	1491.14285714286	0.7	1625.57142857143	0.7	1639	0.8	1533.125	0.7	1595.14285714286	0.8	1459.25	0.8	1548.875	13	453114	2	453102	27	40	453141	-999999	453117	0	18	TrialsPROC	TO_008_TOOL8_BA.png	1	2	75	SessionSelectionList														nonlure	3	Tools	0-Back	65	80	58	0	0	71	1	39	393911	2	14	86	391872	-1	393462	1	1590	3	3	2039	53	393925	-54	0														4		75												
WM080112	221319_fnca	1	1	1	-586879606	1	75.030	75.030	2.0.10.147	2.0.10.242	2.0.10.242	1.0.0.439	7	234	2	3	Verdana	1	80	0	0	0	WM Stimuli\	0.4	1576.25	0.7	1491.14285714286	0.7	1625.57142857143	0.7	1639	0.8	1533.125	0.7	1595.14285714286	0.8	1459.25	0.8	1548.875	13	453114	2	453102	27	40	453141	-999999	453117	0	18	TrialsPROC	TO_011_TOOL11_BA.png	1	2	76	SessionSelectionList														nonlure	3	Tools	0-Back	66	80	59	0	0	71	2	39	396496	3	14	85	394457	-1	395941	1	1484	3	3	2039	53	396510	-54	0														5		76												
WM080112	221319_fnca	1	1	1	-586879606	1	75.030	75.030	2.0.10.147	2.0.10.242	2.0.10.242	1.0.0.439	7	234	2	3	Verdana	1	80	0	0	0	WM Stimuli\	0.4	1576.25	0.7	1491.14285714286	0.7	1625.57142857143	0.7	1639	0.8	1533.125	0.7	1595.14285714286	0.8	1459.25	0.8	1548.875	13	453114	2	453102	27	40	453141	-999999	453117	0	18	TrialsPROC	TO_012_TOOL12_BA.png	1	2	77	SessionSelectionList														nonlure	3	Tools	0-Back	67	80	60	0	0	72	3	39	399082	2	14	86	397043	-1	398653	1	1610	3	3	2039	53	399096	-54	0														6		77												
WM080112	221319_fnca	1	1	1	-586879606	1	75.030	75.030	2.0.10.147	2.0.10.242	2.0.10.242	1.0.0.439	7	234	2	3	Verdana	1	80	0	0	0	WM Stimuli\	0.4	1576.25	0.7	1491.14285714286	0.7	1625.57142857143	0.7	1639	0.8	1533.125	0.7	1595.14285714286	0.8	1459.25	0.8	1548.875	13	453114	2	453102	27	40	453141	-999999	453117	0	18	TrialsPROC	TO_010_TOOL10_BA.png	1	2	78	SessionSelectionList														lure	3	Tools	0-Back	68	80	61	0	0	73	4	39	401641	3	14	59	399602	-1	401105	1	1503	3	3	2039	53	401655	-54	0														7		78												
WM080112	221319_fnca	1	1	1	-586879606	1	75.030	75.030	2.0.10.147	2.0.10.242	2.0.10.242	1.0.0.439	7	234	2	3	Verdana	1	80	0	0	0	WM Stimuli\	0.4	1576.25	0.7	1491.14285714286	0.7	1625.57142857143	0.7	1639	0.8	1533.125	0.7	1595.14285714286	0.8	1459.25	0.8	1548.875	13	453114	2	453102	27	40	453141	-999999	453117	0	18	TrialsPROC	TO_007_TOOL7_BA.png	1	2	79	SessionSelectionList														target	2	Tools	0-Back	69	80	61	0	1	71	4	39	404200	3	14	59	402161	-1	0	0	0	""	2	2039	53	404214	-54	0														8		79												
WM080112	221319_fnca	1	1	1	-586879606	1	75.030	75.030	2.0.10.147	2.0.10.242	2.0.10.242	1.0.0.439	7	234	2	3	Verdana	1	80	0	0	0	WM Stimuli\	0.4	1576.25	0.7	1491.14285714286	0.7	1625.57142857143	0.7	1639	0.8	1533.125	0.7	1595.14285714286	0.8	1459.25	0.8	1548.875	13	453114	2	453102	27	40	453141	-999999	453117	0	18	TrialsPROC	TO_008_TOOL8_BA.png	1	2	80	SessionSelectionList														lure	3	Tools	0-Back	70	80	62	0	0	72	1	39	406759	1	14	59	404720	-1	406346	1	1626	3	3	2039	53	406773	-54	0														9		80												
WM080112	221319_fnca	1	1	1	-586879606	1	75.030	75.030	2.0.10.147	2.0.10.242	2.0.10.242	1.0.0.439	7	234	2	3	Verdana	1	80	0	0	0	WM Stimuli\	0.4	1576.25	0.7	1491.14285714286	0.7	1625.57142857143	0.7	1639	0.8	1533.125	0.7	1595.14285714286	0.8	1459.25	0.8	1548.875	13	453114	2	453102	27	40	453141	-999999	453117	0	18	TrialsPROC	TO_007_TOOL7_BA.png	1	2	81	SessionSelectionList														target	2	Tools	0-Back	71	80	63	0	0	72	1	39	409318	1	14	59	407279	-1	408796	1	1517	2	2	2039	53	409332	-54	0														10		81												
WM080112	221319_fnca	1	1	1	-586879606	1	75.030	75.030	2.0.10.147	2.0.10.242	2.0.10.242	1.0.0.439	7	234	2	3	Verdana	1	80	0	0	0	WM Stimuli\	0.4	1576.25	0.7	1491.14285714286	0.7	1625.57142857143	0.7	1639	0.8	1533.125	0.7	1595.14285714286	0.8	1459.25	0.8	1548.875	13	453114	2	453102	27	40	453141	-999999	453117	0	19	Cue2BackPROC	""	1	2	82	SessionSelectionList									5	409784	-6	0																																													82												
WM080112	221319_fnca	1	1	1	-586879606	1	75.030	75.030	2.0.10.147	2.0.10.242	2.0.10.242	1.0.0.439	7	234	2	3	Verdana	1	80	0	0	0	WM Stimuli\	0.4	1576.25	0.7	1491.14285714286	0.7	1625.57142857143	0.7	1639	0.8	1533.125	0.7	1595.14285714286	0.8	1459.25	0.8	1548.875	13	453114	2	453102	27	40	453141	-999999	453117	0	20	TrialsPROC	PL_007_92026.png	1	2	83	SessionSelectionList														nonlure	3	Place	2-Back	72	80	64	0	0	72	1	39	414409	2	14	91	412370	-1	413823	1	1453	3	3	2039	53	414423	-54	0															1	83												
WM080112	221319_fnca	1	1	1	-586879606	1	75.030	75.030	2.0.10.147	2.0.10.242	2.0.10.242	1.0.0.439	7	234	2	3	Verdana	1	80	0	0	0	WM Stimuli\	0.4	1576.25	0.7	1491.14285714286	0.7	1625.57142857143	0.7	1639	0.8	1533.125	0.7	1595.14285714286	0.8	1459.25	0.8	1548.875	13	453114	2	453102	27	40	453141	-999999	453117	0	20	TrialsPROC	PL_007_92026.png	1	2	84	SessionSelectionList														lure	3	Place	2-Back	73	80	65	0	0	72	2	40	416982	1	13	72	414942	-1	416853	1	1911	3	3	2040	53	416995	-54	0															2	84												
WM080112	221319_fnca	1	1	1	-586879606	1	75.030	75.030	2.0.10.147	2.0.10.242	2.0.10.242	1.0.0.439	7	234	2	3	Verdana	1	80	0	0	0	WM Stimuli\	0.4	1576.25	0.7	1491.14285714286	0.7	1625.57142857143	0.7	1639	0.8	1533.125	0.7	1595.14285714286	0.8	1459.25	0.8	1548.875	13	453114	2	453102	27	40	453141	-999999	453117	0	20	TrialsPROC	PL_010_92038.png	1	2	85	SessionSelectionList														nonlure	3	Place	2-Back	74	80	66	0	0	72	3	39	419567	3	14	86	417528	-1	419440	1	1912	3	3	2039	53	419581	-54	0															3	85												
WM080112	221319_fnca	1	1	1	-586879606	1	75.030	75.030	2.0.10.147	2.0.10.242	2.0.10.242	1.0.0.439	7	234	2	3	Verdana	1	80	0	0	0	WM Stimuli\	0.4	1576.25	0.7	1491.14285714286	0.7	1625.57142857143	0.7	1639	0.8	1533.125	0.7	1595.14285714286	0.8	1459.25	0.8	1548.875	13	453114	2	453102	27	40	453141	-999999	453117	0	20	TrialsPROC	PL_009_92037.png	1	2	86	SessionSelectionList														nonlure	3	Place	2-Back	75	80	67	0	0	72	4	39	422153	1	14	86	420114	-1	421863	1	1749	3	3	2039	53	422167	-54	0															4	86												
WM080112	221319_fnca	1	1	1	-586879606	1	75.030	75.030	2.0.10.147	2.0.10.242	2.0.10.242	1.0.0.439	7	234	2	3	Verdana	1	80	0	0	0	WM Stimuli\	0.4	1576.25	0.7	1491.14285714286	0.7	1625.57142857143	0.7	1639	0.8	1533.125	0.7	1595.14285714286	0.8	1459.25	0.8	1548.875	13	453114	2	453102	27	40	453141	-999999	453117	0	20	TrialsPROC	PL_010_92038.png	1	2	87	SessionSelectionList														target	2	Place	2-Back	76	80	68	0	0	72	5	39	424725	3	14	72	422686	-1	424559	0	1873	3	2	2039	53	424739	-54	0															5	87												
WM080112	221319_fnca	1	1	1	-586879606	1	75.030	75.030	2.0.10.147	2.0.10.242	2.0.10.242	1.0.0.439	7	234	2	3	Verdana	1	80	0	0	0	WM Stimuli\	0.4	1576.25	0.7	1491.14285714286	0.7	1625.57142857143	0.7	1639	0.8	1533.125	0.7	1595.14285714286	0.8	1459.25	0.8	1548.875	13	453114	2	453102	27	40	453141	-999999	453117	0	20	TrialsPROC	PL_009_92037.png	1	2	88	SessionSelectionList														target	2	Place	2-Back	77	80	69	0	0	72	1	39	427297	2	14	72	425258	-1	426529	1	1271	2	2	2039	53	427311	-54	0															6	88												
WM080112	221319_fnca	1	1	1	-586879606	1	75.030	75.030	2.0.10.147	2.0.10.242	2.0.10.242	1.0.0.439	7	234	2	3	Verdana	1	80	0	0	0	WM Stimuli\	0.4	1576.25	0.7	1491.14285714286	0.7	1625.57142857143	0.7	1639	0.8	1533.125	0.7	1595.14285714286	0.8	1459.25	0.8	1548.875	13	453114	2	453102	27	40	453141	-999999	453117	0	20	TrialsPROC	PL_008_92033.png	1	2	89	SessionSelectionList														nonlure	3	Place	2-Back	78	80	70	0	0	72	1	39	429883	1	14	86	427844	-1	429130	1	1286	3	3	2039	53	429897	-54	0															7	89												
WM080112	221319_fnca	1	1	1	-586879606	1	75.030	75.030	2.0.10.147	2.0.10.242	2.0.10.242	1.0.0.439	7	234	2	3	Verdana	1	80	0	0	0	WM Stimuli\	0.4	1576.25	0.7	1491.14285714286	0.7	1625.57142857143	0.7	1639	0.8	1533.125	0.7	1595.14285714286	0.8	1459.25	0.8	1548.875	13	453114	2	453102	27	40	453141	-999999	453117	0	20	TrialsPROC	PL_012_92047.png	1	2	90	SessionSelectionList														nonlure	3	Place	2-Back	79	80	71	0	0	72	2	40	432469	2	13	85	430429	-1	431785	1	1356	3	3	2040	53	432482	-54	0															8	90												
WM080112	221319_fnca	1	1	1	-586879606	1	75.030	75.030	2.0.10.147	2.0.10.242	2.0.10.242	1.0.0.439	7	234	2	3	Verdana	1	80	0	0	0	WM Stimuli\	0.4	1576.25	0.7	1491.14285714286	0.7	1625.57142857143	0.7	1639	0.8	1533.125	0.7	1595.14285714286	0.8	1459.25	0.8	1548.875	13	453114	2	453102	27	40	453141	-999999	453117	0	20	TrialsPROC	PL_012_92047.png	1	2	91	SessionSelectionList														lure	3	Place	2-Back	80	80	72	0	0	72	1	39	435041	1	14	73	433002	-1	434327	0	1325	2	3	2039	53	435055	-54	0															9	91												
WM080112	221319_fnca	1	1	1	-586879606	1	75.030	75.030	2.0.10.147	2.0.10.242	2.0.10.242	1.0.0.439	7	234	2	3	Verdana	1	80	0	0	0	WM Stimuli\	0.4	1576.25	0.7	1491.14285714286	0.7	1625.57142857143	0.7	1639	0.8	1533.125	0.7	1595.14285714286	0.8	1459.25	0.8	1548.875	13	453114	2	453102	27	40	453141	-999999	453117	0	20	TrialsPROC	PL_011_92044.png	1	2	92	SessionSelectionList														nonlure	3	Place	2-Back	80	80	73	0	0	72	1	39	437640	1	14	99	435601	-1	436928	1	1327	3	3	2039	53	437654	-54	0															10	92												
WM080112	221319_fnca	1	1	1	-586879606	1	75.030	75.030	2.0.10.147	2.0.10.242	2.0.10.242	1.0.0.439	7	234	2	3	Verdana	1	80	0	0	0	WM Stimuli\	0.4	1576.25	0.7	1491.14285714286	0.7	1625.57142857143	0.7	1639	0.8	1533.125	0.7	1595.14285714286	0.8	1459.25	0.8	1548.875	13	453114	2	453102	27	40	453141	-999999	453117	0	21	Fix15secPROC	""	1	2	93	SessionSelectionList																																															6	438107	-7	0							93												
