ExperimentName	HCPID	RunNumber	Subject	Session	RandomSeed	Group	Laptop.RefreshRate	ScannerD2.RefreshRate	StudioVersion	RuntimeVersion	RuntimeVersionExpected	ExperimentVersion	triggercode	Allowed	Target	Nontarget	FontStyle	RunTrialNumber[Session]	TrialsPerRun[Session]	TotalRespGreater200[Session]	ConsecRTLess200[Session]	ConsecNonResp[Session]	StimuliDir	ACC_2_Back_Body	Avg_RT_For_Correct_Trials_2_Back_Body	ACC_0_Back_Body	Avg_RT_For_Correct_Trials_0_Back_Body	ACC_2_Back_Face	Avg_RT_For_Correct_Trials_2_Back_Face	ACC_0_Back_Face	Avg_RT_For_Correct_Trials_0_Back_Face	ACC_2_Back_Place	Avg_RT_For_Correct_Trials_2_Back_Place	ACC_0_Back_Place	Avg_RT_For_Correct_Trials_0_Back_Place	ACC_2_Back_Tools	Avg_RT_For_Correct_Trials_2_Back_Tools	ACC_0_Back_Tools	Avg_RT_For_Correct_Trials_0_Back_Tools	ExpInstrucFeelFreeToRest.OnsetDelay	ExpInstrucFeelFreeToRest.OnsetTime	ExpInstrucFeelFreeToRest.DurationError	ExpInstrucFeelFreeToRest.StartTime	ExpInstrucFeelFreeToRest.OnsetToOnsetTime	FeelFreeToRest.OnsetDelay	FeelFreeToRest.OnsetTime	FeelFreeToRest.DurationError	FeelFreeToRest.StartTime	FeelFreeToRest.OnsetToOnsetTime	SessionSelectionList	Procedure[Block]	Stimulus[Block]	RunNumberFilterValue	SessionSelectionList.Cycle	SessionSelectionList.Sample	Running[Block]	IntroButtonMap.OnsetDelay	IntroButtonMap.OnsetTime	IntroButtonMap.DurationError	IntroButtonMap.OnsetToOnsetTime	GetReady.OnsetDelay	GetReady.OnsetTime	GetReady.DurationError	GetReady.OnsetToOnsetTime	Cue2Back.OnsetDelay	Cue2Back.OnsetTime	Cue2Back.DurationError	Cue2Back.OnsetToOnsetTime	Run1Block1	TargetType	CorrectResponse	StimType	BlockType	RunTrialNumber[Block]	TrialsPerRun[Block]	TotalRespGreater200[Block]	ConsecRTLess200[Block]	ConsecNonResp[Block]	ControlAcc	ConsecSameResp	ExperimenterWindow.OnsetDelay	ExperimenterWindow.OnsetTime	ExperimenterWindow.DurationError	ExperimenterWindow.OnsetToOnsetTime	Stim.OnsetDelay	Stim.OnsetTime	Stim.DurationError	Stim.RTTime	Stim.ACC	Stim.RT	Stim.RESP	Stim.CRESP	Stim.OnsetToOnsetTime	Fix.OnsetDelay	Fix.OnsetTime	Fix.DurationError	Fix.OnsetToOnsetTime	CueTarget.OnsetDelay	CueTarget.OnsetTime	CueTarget.DurationError	CueTarget.OnsetToOnsetTime	Run1Block2	Fix15sec.OnsetDelay	Fix15sec.OnsetTime	Fix15sec.DurationError	Fix15sec.OnsetToOnsetTime	Run1Block3	Run1Block4	Run1Block5	Run1Block6	Run1Block7	Run1Block8	Block	Procedure[Trial]	Stimulus[Trial]	ReadyList	Running[Trial]	ReadyList.Cycle	ReadyList.Sample	SyncSlide.OnsetDelay	SyncSlide.OnsetTime	SyncSlide.DurationError	SyncSlide.FinishTime	SyncSlide.OnsetToOnsetTime	Trial
WM080112	201111_fnca	1	1	1	913601275	1	75.031	75.031	2.0.10.147	2.0.10.242	2.0.10.242	1.0.0.439	7	234	2	3	Verdana	1	80	0	0	0	WM Stimuli\	0.5	1403.8	0.6	1246.66666666667	0.7	1144.71428571429	1	823.7	0.6	1292.33333333333	1	810	0.6	1218.83333333333	0.9	1148.88888888889	13	388884	3	388872	27	40	388911	-999999	388887	0	1	TRSyncPROC	""	1	2	1	SessionSelectionList	115	30165	-999999	0	40	72601	-999999	0																																																	1	InitialTR	4	1	ReadyList	1	1	22	95378	-23	97355	0	1
WM080112	201111_fnca	1	1	1	913601275	1	75.031	75.031	2.0.10.147	2.0.10.242	2.0.10.242	1.0.0.439	7	234	2	3	Verdana	1	80	0	0	0	WM Stimuli\	0.5	1403.8	0.6	1246.66666666667	0.7	1144.71428571429	1	823.7	0.6	1292.33333333333	1	810	0.6	1218.83333333333	0.9	1148.88888888889	13	388884	3	388872	27	40	388911	-999999	388887	0	1	TRSyncPROC	""	1	2	1	SessionSelectionList	115	30165	-999999	0	40	72601	-999999	0																																																	1	InitialTR	3	2	ReadyList	1	2	8	97364	-9	99355	0	2
WM080112	201111_fnca	1	1	1	913601275	1	75.031	75.031	2.0.10.147	2.0.10.242	2.0.10.242	1.0.0.439	7	234	2	3	Verdana	1	80	0	0	0	WM Stimuli\	0.5	1403.8	0.6	1246.66666666667	0.7	1144.71428571429	1	823.7	0.6	1292.33333333333	1	810	0.6	1218.83333333333	0.9	1148.88888888889	13	388884	3	388872	27	40	388911	-999999	388887	0	1	TRSyncPROC	""	1	2	1	SessionSelectionList	115	30165	-999999	0	40	72601	-999999	0																																																	1	InitialTR	2	3	ReadyList	1	3	7	99363	-8	101355	0	3
WM080112	201111_fnca	1	1	1	913601275	1	75.031	75.031	2.0.10.147	2.0.10.242	2.0.10.242	1.0.0.439	7	234	2	3	Verdana	1	80	0	0	0	WM Stimuli\	0.5	1403.8	0.6	1246.66666666667	0.7	1144.71428571429	1	823.7	0.6	1292.33333333333	1	810	0.6	1218.83333333333	0.9	1148.88888888889	13	388884	3	388872	27	40	388911	-999999	388887	0	1	TRSyncPROC	""	1	2	1	SessionSelectionList	115	30165	-999999	0	40	72601	-999999	0																																																	1	InitialTR	1	4	ReadyList	1	4	6	101362	-7	103355	0	4
WM080112	201111_fnca	1	1	1	913601275	1	75.031	75.031	2.0.10.147	2.0.10.242	2.0.10.242	1.0.0.439	7	234	2	3	Verdana	1	80	0	0	0	WM Stimuli\	0.5	1403.8	0.6	1246.66666666667	0.7	1144.71428571429	1	823.7	0.6	1292.33333333333	1	810	0.6	1218.83333333333	0.9	1148.88888888889	13	388884	3	388872	27	40	388911	-999999	388887	0	2	Cue2BackPROC	""	1	2	2	SessionSelectionList									19	103375	-20	0																																													2												
WM080112	201111_fnca	1	1	1	913601275	1	75.031	75.031	2.0.10.147	2.0.10.242	2.0.10.242	1.0.0.439	7	234	2	3	Verdana	1	80	0	0	0	WM Stimuli\	0.5	1403.8	0.6	1246.66666666667	0.7	1144.71428571429	1	823.7	0.6	1292.33333333333	1	810	0.6	1218.83333333333	0.9	1148.88888888889	13	388884	3	388872	27	40	388911	-999999	388887	0	3	TrialsPROC	BP_002_BP10_BA.png	1	2	3	SessionSelectionList													1	nonlure	3	Body	2-Back	2	80	1	0	0	0	1	52	107986	3	14	78	105934	-1	107885	1	1951	3	3	2052	66	108000	-67	0																3												
WM080112	201111_fnca	1	1	1	913601275	1	75.031	75.031	2.0.10.147	2.0.10.242	2.0.10.242	1.0.0.439	7	234	2	3	Verdana	1	80	0	0	0	WM Stimuli\	0.5	1403.8	0.6	1246.66666666667	0.7	1144.71428571429	1	823.7	0.6	1292.33333333333	1	810	0.6	1218.83333333333	0.9	1148.88888888889	13	388884	3	388872	27	40	388911	-999999	388887	0	3	TrialsPROC	BP_001_BP1_BA.png	1	2	4	SessionSelectionList													2	nonlure	3	Body	2-Back	3	80	2	0	0	0	1	39	110545	3	14	72	108506	-1	110039	0	1533	2	3	2039	53	110559	-54	0																4												
WM080112	201111_fnca	1	1	1	913601275	1	75.031	75.031	2.0.10.147	2.0.10.242	2.0.10.242	1.0.0.439	7	234	2	3	Verdana	1	80	0	0	0	WM Stimuli\	0.5	1403.8	0.6	1246.66666666667	0.7	1144.71428571429	1	823.7	0.6	1292.33333333333	1	810	0.6	1218.83333333333	0.9	1148.88888888889	13	388884	3	388872	27	40	388911	-999999	388887	0	3	TrialsPROC	BP_006_BP2_BA.png	1	2	5	SessionSelectionList													3	nonlure	3	Body	2-Back	4	80	3	0	0	0	1	39	113104	2	14	59	111065	-1	112410	1	1345	3	3	2039	53	113118	-54	0																5												
WM080112	201111_fnca	1	1	1	913601275	1	75.031	75.031	2.0.10.147	2.0.10.242	2.0.10.242	1.0.0.439	7	234	2	3	Verdana	1	80	0	0	0	WM Stimuli\	0.5	1403.8	0.6	1246.66666666667	0.7	1144.71428571429	1	823.7	0.6	1292.33333333333	1	810	0.6	1218.83333333333	0.9	1148.88888888889	13	388884	3	388872	27	40	388911	-999999	388887	0	3	TrialsPROC	BP_001_BP1_BA.png	1	2	6	SessionSelectionList													4	target	2	Body	2-Back	5	80	3	0	1	0	1	39	115676	2	14	72	113637	-1	0	0	0	""	2	2039	53	115690	-54	0																6												
WM080112	201111_fnca	1	1	1	913601275	1	75.031	75.031	2.0.10.147	2.0.10.242	2.0.10.242	1.0.0.439	7	234	2	3	Verdana	1	80	0	0	0	WM Stimuli\	0.5	1403.8	0.6	1246.66666666667	0.7	1144.71428571429	1	823.7	0.6	1292.33333333333	1	810	0.6	1218.83333333333	0.9	1148.88888888889	13	388884	3	388872	27	40	388911	-999999	388887	0	3	TrialsPROC	BP_005_BP19_BA.png	1	2	7	SessionSelectionList													5	nonlure	3	Body	2-Back	6	80	4	0	0	0	1	39	118249	1	13	73	116210	-1	117481	1	1271	3	3	2039	52	118262	-53	0																7												
WM080112	201111_fnca	1	1	1	913601275	1	75.031	75.031	2.0.10.147	2.0.10.242	2.0.10.242	1.0.0.439	7	234	2	3	Verdana	1	80	0	0	0	WM Stimuli\	0.5	1403.8	0.6	1246.66666666667	0.7	1144.71428571429	1	823.7	0.6	1292.33333333333	1	810	0.6	1218.83333333333	0.9	1148.88888888889	13	388884	3	388872	27	40	388911	-999999	388887	0	3	TrialsPROC	BP_003_BP16_BA.png	1	2	8	SessionSelectionList													6	nonlure	3	Body	2-Back	7	80	5	0	0	0	2	39	120808	1	13	59	118769	-1	120007	1	1238	3	3	2039	52	120821	-53	0																8												
WM080112	201111_fnca	1	1	1	913601275	1	75.031	75.031	2.0.10.147	2.0.10.242	2.0.10.242	1.0.0.439	7	234	2	3	Verdana	1	80	0	0	0	WM Stimuli\	0.5	1403.8	0.6	1246.66666666667	0.7	1144.71428571429	1	823.7	0.6	1292.33333333333	1	810	0.6	1218.83333333333	0.9	1148.88888888889	13	388884	3	388872	27	40	388911	-999999	388887	0	3	TrialsPROC	BP_006_BP2_BA.png	1	2	9	SessionSelectionList													7	lure	3	Body	2-Back	8	80	6	0	0	0	1	40	123367	1	13	58	121327	-1	122534	0	1207	2	3	2040	53	123380	-54	0																9												
WM080112	201111_fnca	1	1	1	913601275	1	75.031	75.031	2.0.10.147	2.0.10.242	2.0.10.242	1.0.0.439	7	234	2	3	Verdana	1	80	0	0	0	WM Stimuli\	0.5	1403.8	0.6	1246.66666666667	0.7	1144.71428571429	1	823.7	0.6	1292.33333333333	1	810	0.6	1218.83333333333	0.9	1148.88888888889	13	388884	3	388872	27	40	388911	-999999	388887	0	3	TrialsPROC	BP_004_BP18_BA.png	1	2	10	SessionSelectionList													8	nonlure	3	Body	2-Back	9	80	7	0	0	0	1	40	125926	1	13	59	123886	-1	125100	1	1214	3	3	2040	53	125939	-54	0																10												
WM080112	201111_fnca	1	1	1	913601275	1	75.031	75.031	2.0.10.147	2.0.10.242	2.0.10.242	1.0.0.439	7	234	2	3	Verdana	1	80	0	0	0	WM Stimuli\	0.5	1403.8	0.6	1246.66666666667	0.7	1144.71428571429	1	823.7	0.6	1292.33333333333	1	810	0.6	1218.83333333333	0.9	1148.88888888889	13	388884	3	388872	27	40	388911	-999999	388887	0	3	TrialsPROC	BP_005_BP19_BA.png	1	2	11	SessionSelectionList													9	lure	3	Body	2-Back	10	80	7	0	1	0	1	39	128485	1	13	60	126446	-1	0	0	0	""	3	2039	52	128498	-53	0																11												
WM080112	201111_fnca	1	1	1	913601275	1	75.031	75.031	2.0.10.147	2.0.10.242	2.0.10.242	1.0.0.439	7	234	2	3	Verdana	1	80	0	0	0	WM Stimuli\	0.5	1403.8	0.6	1246.66666666667	0.7	1144.71428571429	1	823.7	0.6	1292.33333333333	1	810	0.6	1218.83333333333	0.9	1148.88888888889	13	388884	3	388872	27	40	388911	-999999	388887	0	3	TrialsPROC	BP_004_BP18_BA.png	1	2	12	SessionSelectionList													10	target	2	Body	2-Back	11	80	8	0	0	0	1	39	131043	2	14	58	129004	-1	130142	0	1138	3	2	2039	53	131057	-54	0																12												
WM080112	201111_fnca	1	1	1	913601275	1	75.031	75.031	2.0.10.147	2.0.10.242	2.0.10.242	1.0.0.439	7	234	2	3	Verdana	1	80	0	0	0	WM Stimuli\	0.5	1403.8	0.6	1246.66666666667	0.7	1144.71428571429	1	823.7	0.6	1292.33333333333	1	810	0.6	1218.83333333333	0.9	1148.88888888889	13	388884	3	388872	27	40	388911	-999999	388887	0	4	Cue0BackPROC	FC_001_M1.png	1	2	13	SessionSelectionList																																										19	131523	-20	0												13												
WM080112	201111_fnca	1	1	1	913601275	1	75.031	75.031	2.0.10.147	2.0.10.242	2.0.10.242	1.0.0.439	7	234	2	3	Verdana	1	80	0	0	0	WM Stimuli\	0.5	1403.8	0.6	1246.66666666667	0.7	1144.71428571429	1	823.7	0.6	1292.33333333333	1	810	0.6	1218.83333333333	0.9	1148.88888888889	13	388884	3	388872	27	40	388911	-999999	388887	0	5	TrialsPROC	FC_005_M3.png	1	2	14	SessionSelectionList														nonlure	3	Face	0-Back	12	80	9	0	0	100	2	39	136108	1	14	65	134069	-1	135014	1	945	3	3	2039	53	136122	-54	0					1											14												
WM080112	201111_fnca	1	1	1	913601275	1	75.031	75.031	2.0.10.147	2.0.10.242	2.0.10.242	1.0.0.439	7	234	2	3	Verdana	1	80	0	0	0	WM Stimuli\	0.5	1403.8	0.6	1246.66666666667	0.7	1144.71428571429	1	823.7	0.6	1292.33333333333	1	810	0.6	1218.83333333333	0.9	1148.88888888889	13	388884	3	388872	27	40	388911	-999999	388887	0	5	TrialsPROC	FC_001_M1.png	1	2	15	SessionSelectionList														target	2	Face	0-Back	13	80	10	0	0	100	1	39	138680	2	14	72	136641	-1	137412	1	771	2	2	2039	53	138694	-54	0					2											15												
WM080112	201111_fnca	1	1	1	913601275	1	75.031	75.031	2.0.10.147	2.0.10.242	2.0.10.242	1.0.0.439	7	234	2	3	Verdana	1	80	0	0	0	WM Stimuli\	0.5	1403.8	0.6	1246.66666666667	0.7	1144.71428571429	1	823.7	0.6	1292.33333333333	1	810	0.6	1218.83333333333	0.9	1148.88888888889	13	388884	3	388872	27	40	388911	-999999	388887	0	5	TrialsPROC	FC_003_M2.png	1	2	16	SessionSelectionList														nonlure	3	Face	0-Back	14	80	11	0	0	100	1	40	141253	1	13	72	139213	-1	140002	1	789	3	3	2040	53	141266	-54	0					3											16												
WM080112	201111_fnca	1	1	1	913601275	1	75.031	75.031	2.0.10.147	2.0.10.242	2.0.10.242	1.0.0.439	7	234	2	3	Verdana	1	80	0	0	0	WM Stimuli\	0.5	1403.8	0.6	1246.66666666667	0.7	1144.71428571429	1	823.7	0.6	1292.33333333333	1	810	0.6	1218.83333333333	0.9	1148.88888888889	13	388884	3	388872	27	40	388911	-999999	388887	0	5	TrialsPROC	FC_004_F2.png	1	2	17	SessionSelectionList														nonlure	3	Face	0-Back	15	80	12	0	0	100	2	39	143825	1	13	73	141786	-1	142496	1	710	3	3	2039	52	143838	-53	0					4											17												
WM080112	201111_fnca	1	1	1	913601275	1	75.031	75.031	2.0.10.147	2.0.10.242	2.0.10.242	1.0.0.439	7	234	2	3	Verdana	1	80	0	0	0	WM Stimuli\	0.5	1403.8	0.6	1246.66666666667	0.7	1144.71428571429	1	823.7	0.6	1292.33333333333	1	810	0.6	1218.83333333333	0.9	1148.88888888889	13	388884	3	388872	27	40	388911	-999999	388887	0	5	TrialsPROC	FC_004_F2.png	1	2	18	SessionSelectionList														lure	3	Face	0-Back	16	80	13	0	0	100	3	39	146397	2	14	72	144358	-1	145140	1	782	3	3	2039	53	146411	-54	0					5											18												
WM080112	201111_fnca	1	1	1	913601275	1	75.031	75.031	2.0.10.147	2.0.10.242	2.0.10.242	1.0.0.439	7	234	2	3	Verdana	1	80	0	0	0	WM Stimuli\	0.5	1403.8	0.6	1246.66666666667	0.7	1144.71428571429	1	823.7	0.6	1292.33333333333	1	810	0.6	1218.83333333333	0.9	1148.88888888889	13	388884	3	388872	27	40	388911	-999999	388887	0	5	TrialsPROC	FC_001_M1.png	1	2	19	SessionSelectionList														target	2	Face	0-Back	17	80	14	0	0	100	1	39	148969	2	14	72	146930	-1	147500	1	570	2	2	2039	53	148983	-54	0					6											19												
WM080112	201111_fnca	1	1	1	913601275	1	75.031	75.031	2.0.10.147	2.0.10.242	2.0.10.242	1.0.0.439	7	234	2	3	Verdana	1	80	0	0	0	WM Stimuli\	0.5	1403.8	0.6	1246.66666666667	0.7	1144.71428571429	1	823.7	0.6	1292.33333333333	1	810	0.6	1218.83333333333	0.9	1148.88888888889	13	388884	3	388872	27	40	388911	-999999	388887	0	5	TrialsPROC	FC_006_F3.png	1	2	20	SessionSelectionList														nonlure	3	Face	0-Back	18	80	15	0	0	100	1	39	151542	1	13	73	149503	-1	150122	1	619	3	3	2039	52	151555	-53	0					7											20												
WM080112	201111_fnca	1	1	1	913601275	1	75.031	75.031	2.0.10.147	2.0.10.242	2.0.10.242	1.0.0.439	7	234	2	3	Verdana	1	80	0	0	0	WM Stimuli\	0.5	1403.8	0.6	1246.66666666667	0.7	1144.71428571429	1	823.7	0.6	1292.33333333333	1	810	0.6	1218.83333333333	0.9	1148.88888888889	13	388884	3	388872	27	40	388911	-999999	388887	0	5	TrialsPROC	FC_006_F3.png	1	2	21	SessionSelectionList														lure	3	Face	0-Back	19	80	16	0	0	100	2	39	154114	1	13	72	152075	-1	152802	1	727	3	3	2039	52	154127	-53	0					8											21												
WM080112	201111_fnca	1	1	1	913601275	1	75.031	75.031	2.0.10.147	2.0.10.242	2.0.10.242	1.0.0.439	7	234	2	3	Verdana	1	80	0	0	0	WM Stimuli\	0.5	1403.8	0.6	1246.66666666667	0.7	1144.71428571429	1	823.7	0.6	1292.33333333333	1	810	0.6	1218.83333333333	0.9	1148.88888888889	13	388884	3	388872	27	40	388911	-999999	388887	0	5	TrialsPROC	FC_003_M2.png	1	2	22	SessionSelectionList														lure	3	Face	0-Back	20	80	17	0	0	100	3	39	156686	2	14	72	154647	-1	155709	1	1062	3	3	2039	53	156700	-54	0					9											22												
WM080112	201111_fnca	1	1	1	913601275	1	75.031	75.031	2.0.10.147	2.0.10.242	2.0.10.242	1.0.0.439	7	234	2	3	Verdana	1	80	0	0	0	WM Stimuli\	0.5	1403.8	0.6	1246.66666666667	0.7	1144.71428571429	1	823.7	0.6	1292.33333333333	1	810	0.6	1218.83333333333	0.9	1148.88888888889	13	388884	3	388872	27	40	388911	-999999	388887	0	5	TrialsPROC	FC_002_F1.png	1	2	23	SessionSelectionList														nonlure	3	Face	0-Back	21	80	18	0	0	100	4	40	159259	1	13	72	157219	-1	158481	1	1262	3	3	2040	53	159272	-54	0					10											23												
WM080112	201111_fnca	1	1	1	913601275	1	75.031	75.031	2.0.10.147	2.0.10.242	2.0.10.242	1.0.0.439	7	234	2	3	Verdana	1	80	0	0	0	WM Stimuli\	0.5	1403.8	0.6	1246.66666666667	0.7	1144.71428571429	1	823.7	0.6	1292.33333333333	1	810	0.6	1218.83333333333	0.9	1148.88888888889	13	388884	3	388872	27	40	388911	-999999	388887	0	6	Fix15secPROC	""	1	2	24	SessionSelectionList																																															6	159725	-7	0							24												
WM080112	201111_fnca	1	1	1	913601275	1	75.031	75.031	2.0.10.147	2.0.10.242	2.0.10.242	1.0.0.439	7	234	2	3	Verdana	1	80	0	0	0	WM Stimuli\	0.5	1403.8	0.6	1246.66666666667	0.7	1144.71428571429	1	823.7	0.6	1292.33333333333	1	810	0.6	1218.83333333333	0.9	1148.88888888889	13	388884	3	388872	27	40	388911	-999999	388887	0	7	Cue2BackPROC	""	1	2	25	SessionSelectionList									13	174732	-14	0																																													25												
WM080112	201111_fnca	1	1	1	913601275	1	75.031	75.031	2.0.10.147	2.0.10.242	2.0.10.242	1.0.0.439	7	234	2	3	Verdana	1	80	0	0	0	WM Stimuli\	0.5	1403.8	0.6	1246.66666666667	0.7	1144.71428571429	1	823.7	0.6	1292.33333333333	1	810	0.6	1218.83333333333	0.9	1148.88888888889	13	388884	3	388872	27	40	388911	-999999	388887	0	8	TrialsPROC	TO_001_TOOL1_BA.png	1	2	26	SessionSelectionList														nonlure	3	Tools	2-Back	22	80	18	0	1	100	4	39	179317	1	13	59	177278	-1	0	0	0	""	3	2039	52	179330	-53	0										1						26												
WM080112	201111_fnca	1	1	1	913601275	1	75.031	75.031	2.0.10.147	2.0.10.242	2.0.10.242	1.0.0.439	7	234	2	3	Verdana	1	80	0	0	0	WM Stimuli\	0.5	1403.8	0.6	1246.66666666667	0.7	1144.71428571429	1	823.7	0.6	1292.33333333333	1	810	0.6	1218.83333333333	0.9	1148.88888888889	13	388884	3	388872	27	40	388911	-999999	388887	0	8	TrialsPROC	TO_002_TOOL2_BA.png	1	2	27	SessionSelectionList														nonlure	3	Tools	2-Back	23	80	19	0	0	100	1	39	181876	1	13	59	179837	-1	181339	1	1502	3	3	2039	52	181889	-53	0										2						27												
WM080112	201111_fnca	1	1	1	913601275	1	75.031	75.031	2.0.10.147	2.0.10.242	2.0.10.242	1.0.0.439	7	234	2	3	Verdana	1	80	0	0	0	WM Stimuli\	0.5	1403.8	0.6	1246.66666666667	0.7	1144.71428571429	1	823.7	0.6	1292.33333333333	1	810	0.6	1218.83333333333	0.9	1148.88888888889	13	388884	3	388872	27	40	388911	-999999	388887	0	8	TrialsPROC	TO_004_TOOL4_BA.png	1	2	28	SessionSelectionList														nonlure	3	Tools	2-Back	24	80	20	0	0	100	2	39	184435	1	13	59	182396	-1	183511	1	1115	3	3	2039	52	184448	-53	0										3						28												
WM080112	201111_fnca	1	1	1	913601275	1	75.031	75.031	2.0.10.147	2.0.10.242	2.0.10.242	1.0.0.439	7	234	2	3	Verdana	1	80	0	0	0	WM Stimuli\	0.5	1403.8	0.6	1246.66666666667	0.7	1144.71428571429	1	823.7	0.6	1292.33333333333	1	810	0.6	1218.83333333333	0.9	1148.88888888889	13	388884	3	388872	27	40	388911	-999999	388887	0	8	TrialsPROC	TO_002_TOOL2_BA.png	1	2	29	SessionSelectionList														target	2	Tools	2-Back	25	80	20	0	1	100	2	39	186994	1	13	59	184955	-1	185994	0	1039	4	2	2039	52	187007	-53	0										4						29												
WM080112	201111_fnca	1	1	1	913601275	1	75.031	75.031	2.0.10.147	2.0.10.242	2.0.10.242	1.0.0.439	7	234	2	3	Verdana	1	80	0	0	0	WM Stimuli\	0.5	1403.8	0.6	1246.66666666667	0.7	1144.71428571429	1	823.7	0.6	1292.33333333333	1	810	0.6	1218.83333333333	0.9	1148.88888888889	13	388884	3	388872	27	40	388911	-999999	388887	0	8	TrialsPROC	TO_001_TOOL1_BA.png	1	2	30	SessionSelectionList														lure	3	Tools	2-Back	26	80	21	0	0	100	1	39	189553	1	13	59	187514	-1	189104	1	1590	3	3	2039	52	189566	-53	0										5						30												
WM080112	201111_fnca	1	1	1	913601275	1	75.031	75.031	2.0.10.147	2.0.10.242	2.0.10.242	1.0.0.439	7	234	2	3	Verdana	1	80	0	0	0	WM Stimuli\	0.5	1403.8	0.6	1246.66666666667	0.7	1144.71428571429	1	823.7	0.6	1292.33333333333	1	810	0.6	1218.83333333333	0.9	1148.88888888889	13	388884	3	388872	27	40	388911	-999999	388887	0	8	TrialsPROC	TO_004_TOOL4_BA.png	1	2	31	SessionSelectionList														lure	3	Tools	2-Back	27	80	21	0	1	100	1	39	192112	1	13	59	190073	-1	191955	0	1882	4	3	2039	52	192125	-53	0										6						31												
WM080112	201111_fnca	1	1	1	913601275	1	75.031	75.031	2.0.10.147	2.0.10.242	2.0.10.242	1.0.0.439	7	234	2	3	Verdana	1	80	0	0	0	WM Stimuli\	0.5	1403.8	0.6	1246.66666666667	0.7	1144.71428571429	1	823.7	0.6	1292.33333333333	1	810	0.6	1218.83333333333	0.9	1148.88888888889	13	388884	3	388872	27	40	388911	-999999	388887	0	8	TrialsPROC	TO_006_TOOL6_BA.png	1	2	32	SessionSelectionList														nonlure	3	Tools	2-Back	28	80	22	0	0	100	1	39	194671	1	13	59	192632	-1	193869	1	1237	3	3	2039	52	194684	-53	0										7						32												
WM080112	201111_fnca	1	1	1	913601275	1	75.031	75.031	2.0.10.147	2.0.10.242	2.0.10.242	1.0.0.439	7	234	2	3	Verdana	1	80	0	0	0	WM Stimuli\	0.5	1403.8	0.6	1246.66666666667	0.7	1144.71428571429	1	823.7	0.6	1292.33333333333	1	810	0.6	1218.83333333333	0.9	1148.88888888889	13	388884	3	388872	27	40	388911	-999999	388887	0	8	TrialsPROC	TO_005_TOOL5_BA.png	1	2	33	SessionSelectionList														nonlure	3	Tools	2-Back	29	80	23	0	0	100	2	40	197230	1	13	58	195190	-1	196062	1	872	3	3	2040	53	197243	-54	0										8						33												
WM080112	201111_fnca	1	1	1	913601275	1	75.031	75.031	2.0.10.147	2.0.10.242	2.0.10.242	1.0.0.439	7	234	2	3	Verdana	1	80	0	0	0	WM Stimuli\	0.5	1403.8	0.6	1246.66666666667	0.7	1144.71428571429	1	823.7	0.6	1292.33333333333	1	810	0.6	1218.83333333333	0.9	1148.88888888889	13	388884	3	388872	27	40	388911	-999999	388887	0	8	TrialsPROC	TO_006_TOOL6_BA.png	1	2	34	SessionSelectionList														target	2	Tools	2-Back	30	80	23	0	1	100	2	40	199789	1	13	59	197749	-1	198731	0	982	4	2	2040	53	199802	-54	0										9						34												
WM080112	201111_fnca	1	1	1	913601275	1	75.031	75.031	2.0.10.147	2.0.10.242	2.0.10.242	1.0.0.439	7	234	2	3	Verdana	1	80	0	0	0	WM Stimuli\	0.5	1403.8	0.6	1246.66666666667	0.7	1144.71428571429	1	823.7	0.6	1292.33333333333	1	810	0.6	1218.83333333333	0.9	1148.88888888889	13	388884	3	388872	27	40	388911	-999999	388887	0	8	TrialsPROC	TO_003_TOOL3_BA.png	1	2	35	SessionSelectionList														nonlure	3	Tools	2-Back	31	80	24	0	0	100	1	40	202348	1	13	59	200308	-1	201305	1	997	3	3	2040	53	202361	-54	0										10						35												
WM080112	201111_fnca	1	1	1	913601275	1	75.031	75.031	2.0.10.147	2.0.10.242	2.0.10.242	1.0.0.439	7	234	2	3	Verdana	1	80	0	0	0	WM Stimuli\	0.5	1403.8	0.6	1246.66666666667	0.7	1144.71428571429	1	823.7	0.6	1292.33333333333	1	810	0.6	1218.83333333333	0.9	1148.88888888889	13	388884	3	388872	27	40	388911	-999999	388887	0	9	Cue0BackPROC	BP_007_BP20_BA.png	1	2	36	SessionSelectionList																																										19	202827	-20	0												36												
WM080112	201111_fnca	1	1	1	913601275	1	75.031	75.031	2.0.10.147	2.0.10.242	2.0.10.242	1.0.0.439	7	234	2	3	Verdana	1	80	0	0	0	WM Stimuli\	0.5	1403.8	0.6	1246.66666666667	0.7	1144.71428571429	1	823.7	0.6	1292.33333333333	1	810	0.6	1218.83333333333	0.9	1148.88888888889	13	388884	3	388872	27	40	388911	-999999	388887	0	10	TrialsPROC	BP_007_BP20_BA.png	1	2	37	SessionSelectionList														target	2	Body	0-Back	32	80	25	0	0	100	1	39	207399	1	13	52	205360	-1	206846	1	1486	2	2	2039	52	207412	-53	0											1					37												
WM080112	201111_fnca	1	1	1	913601275	1	75.031	75.031	2.0.10.147	2.0.10.242	2.0.10.242	1.0.0.439	7	234	2	3	Verdana	1	80	0	0	0	WM Stimuli\	0.5	1403.8	0.6	1246.66666666667	0.7	1144.71428571429	1	823.7	0.6	1292.33333333333	1	810	0.6	1218.83333333333	0.9	1148.88888888889	13	388884	3	388872	27	40	388911	-999999	388887	0	10	TrialsPROC	BP_011_BP4_BA.png	1	2	38	SessionSelectionList														nonlure	3	Body	0-Back	33	80	26	0	0	100	1	39	209971	1	13	72	207932	-1	208748	1	816	3	3	2039	52	209984	-53	0											2					38												
WM080112	201111_fnca	1	1	1	913601275	1	75.031	75.031	2.0.10.147	2.0.10.242	2.0.10.242	1.0.0.439	7	234	2	3	Verdana	1	80	0	0	0	WM Stimuli\	0.5	1403.8	0.6	1246.66666666667	0.7	1144.71428571429	1	823.7	0.6	1292.33333333333	1	810	0.6	1218.83333333333	0.9	1148.88888888889	13	388884	3	388872	27	40	388911	-999999	388887	0	10	TrialsPROC	BP_010_BP3_BA.png	1	2	39	SessionSelectionList														nonlure	3	Body	0-Back	34	80	27	0	0	100	2	39	212530	1	13	59	210491	-1	211225	1	734	3	3	2039	52	212543	-53	0											3					39												
WM080112	201111_fnca	1	1	1	913601275	1	75.031	75.031	2.0.10.147	2.0.10.242	2.0.10.242	1.0.0.439	7	234	2	3	Verdana	1	80	0	0	0	WM Stimuli\	0.5	1403.8	0.6	1246.66666666667	0.7	1144.71428571429	1	823.7	0.6	1292.33333333333	1	810	0.6	1218.83333333333	0.9	1148.88888888889	13	388884	3	388872	27	40	388911	-999999	388887	0	10	TrialsPROC	BP_008_BP21_BA.png	1	2	40	SessionSelectionList														nonlure	3	Body	0-Back	35	80	28	0	0	100	3	39	215089	1	13	59	213050	-1	214432	1	1382	3	3	2039	52	215102	-53	0											4					40												
WM080112	201111_fnca	1	1	1	913601275	1	75.031	75.031	2.0.10.147	2.0.10.242	2.0.10.242	1.0.0.439	7	234	2	3	Verdana	1	80	0	0	0	WM Stimuli\	0.5	1403.8	0.6	1246.66666666667	0.7	1144.71428571429	1	823.7	0.6	1292.33333333333	1	810	0.6	1218.83333333333	0.9	1148.88888888889	13	388884	3	388872	27	40	388911	-999999	388887	0	10	TrialsPROC	BP_011_BP4_BA.png	1	2	41	SessionSelectionList														lure	3	Body	0-Back	36	80	28	0	1	93	3	39	217661	2	14	72	215622	-1	0	0	0	""	3	2039	53	217675	-54	0											5					41												
WM080112	201111_fnca	1	1	1	913601275	1	75.031	75.031	2.0.10.147	2.0.10.242	2.0.10.242	1.0.0.439	7	234	2	3	Verdana	1	80	0	0	0	WM Stimuli\	0.5	1403.8	0.6	1246.66666666667	0.7	1144.71428571429	1	823.7	0.6	1292.33333333333	1	810	0.6	1218.83333333333	0.9	1148.88888888889	13	388884	3	388872	27	40	388911	-999999	388887	0	10	TrialsPROC	BP_009_BP22_BA.png	1	2	42	SessionSelectionList														nonlure	3	Body	0-Back	37	80	29	0	0	88	1	39	220220	2	14	59	218181	-1	218844	0	663	2	3	2039	53	220234	-54	0											6					42												
WM080112	201111_fnca	1	1	1	913601275	1	75.031	75.031	2.0.10.147	2.0.10.242	2.0.10.242	1.0.0.439	7	234	2	3	Verdana	1	80	0	0	0	WM Stimuli\	0.5	1403.8	0.6	1246.66666666667	0.7	1144.71428571429	1	823.7	0.6	1292.33333333333	1	810	0.6	1218.83333333333	0.9	1148.88888888889	13	388884	3	388872	27	40	388911	-999999	388887	0	10	TrialsPROC	BP_009_BP22_BA.png	1	2	43	SessionSelectionList														lure	3	Body	0-Back	38	80	30	0	0	82	2	39	222779	1	14	59	220740	-1	221850	0	1110	2	3	2039	53	222793	-54	0											7					43												
WM080112	201111_fnca	1	1	1	913601275	1	75.031	75.031	2.0.10.147	2.0.10.242	2.0.10.242	1.0.0.439	7	234	2	3	Verdana	1	80	0	0	0	WM Stimuli\	0.5	1403.8	0.6	1246.66666666667	0.7	1144.71428571429	1	823.7	0.6	1292.33333333333	1	810	0.6	1218.83333333333	0.9	1148.88888888889	13	388884	3	388872	27	40	388911	-999999	388887	0	10	TrialsPROC	BP_008_BP21_BA.png	1	2	44	SessionSelectionList														lure	3	Body	0-Back	39	80	31	0	0	83	1	39	225338	1	14	59	223299	-1	224578	1	1279	3	3	2039	53	225352	-54	0											8					44												
WM080112	201111_fnca	1	1	1	913601275	1	75.031	75.031	2.0.10.147	2.0.10.242	2.0.10.242	1.0.0.439	7	234	2	3	Verdana	1	80	0	0	0	WM Stimuli\	0.5	1403.8	0.6	1246.66666666667	0.7	1144.71428571429	1	823.7	0.6	1292.33333333333	1	810	0.6	1218.83333333333	0.9	1148.88888888889	13	388884	3	388872	27	40	388911	-999999	388887	0	10	TrialsPROC	BP_007_BP20_BA.png	1	2	45	SessionSelectionList														target	2	Body	0-Back	40	80	32	0	0	79	2	39	227897	1	13	59	225858	-1	227504	0	1646	3	2	2039	52	227910	-53	0											9					45												
WM080112	201111_fnca	1	1	1	913601275	1	75.031	75.031	2.0.10.147	2.0.10.242	2.0.10.242	1.0.0.439	7	234	2	3	Verdana	1	80	0	0	0	WM Stimuli\	0.5	1403.8	0.6	1246.66666666667	0.7	1144.71428571429	1	823.7	0.6	1292.33333333333	1	810	0.6	1218.83333333333	0.9	1148.88888888889	13	388884	3	388872	27	40	388911	-999999	388887	0	10	TrialsPROC	BP_012_BP5_BA.png	1	2	46	SessionSelectionList														nonlure	3	Body	0-Back	41	80	33	0	0	80	3	39	230469	2	14	72	228430	-1	230213	1	1783	3	3	2039	53	230483	-54	0											10					46												
WM080112	201111_fnca	1	1	1	913601275	1	75.031	75.031	2.0.10.147	2.0.10.242	2.0.10.242	1.0.0.439	7	234	2	3	Verdana	1	80	0	0	0	WM Stimuli\	0.5	1403.8	0.6	1246.66666666667	0.7	1144.71428571429	1	823.7	0.6	1292.33333333333	1	810	0.6	1218.83333333333	0.9	1148.88888888889	13	388884	3	388872	27	40	388911	-999999	388887	0	11	Fix15secPROC	""	1	2	47	SessionSelectionList																																															6	230936	-7	0							47												
WM080112	201111_fnca	1	1	1	913601275	1	75.031	75.031	2.0.10.147	2.0.10.242	2.0.10.242	1.0.0.439	7	234	2	3	Verdana	1	80	0	0	0	WM Stimuli\	0.5	1403.8	0.6	1246.66666666667	0.7	1144.71428571429	1	823.7	0.6	1292.33333333333	1	810	0.6	1218.83333333333	0.9	1148.88888888889	13	388884	3	388872	27	40	388911	-999999	388887	0	12	Cue0BackPROC	PL_001_92012.png	1	2	48	SessionSelectionList																																										13	245943	-14	0												48												
WM080112	201111_fnca	1	1	1	913601275	1	75.031	75.031	2.0.10.147	2.0.10.242	2.0.10.242	1.0.0.439	7	234	2	3	Verdana	1	80	0	0	0	WM Stimuli\	0.5	1403.8	0.6	1246.66666666667	0.7	1144.71428571429	1	823.7	0.6	1292.33333333333	1	810	0.6	1218.83333333333	0.9	1148.88888888889	13	388884	3	388872	27	40	388911	-999999	388887	0	13	TrialsPROC	PL_003_92016.png	1	2	49	SessionSelectionList														nonlure	3	Place	0-Back	42	80	34	0	0	81	4	39	250541	1	13	72	248502	-1	249736	1	1234	3	3	2039	52	250554	-53	0												1				49												
WM080112	201111_fnca	1	1	1	913601275	1	75.031	75.031	2.0.10.147	2.0.10.242	2.0.10.242	1.0.0.439	7	234	2	3	Verdana	1	80	0	0	0	WM Stimuli\	0.5	1403.8	0.6	1246.66666666667	0.7	1144.71428571429	1	823.7	0.6	1292.33333333333	1	810	0.6	1218.83333333333	0.9	1148.88888888889	13	388884	3	388872	27	40	388911	-999999	388887	0	13	TrialsPROC	PL_003_92016.png	1	2	50	SessionSelectionList														lure	3	Place	0-Back	43	80	35	0	0	82	5	39	253113	2	14	72	251074	-1	252181	1	1107	3	3	2039	53	253127	-54	0												2				50												
WM080112	201111_fnca	1	1	1	913601275	1	75.031	75.031	2.0.10.147	2.0.10.242	2.0.10.242	1.0.0.439	7	234	2	3	Verdana	1	80	0	0	0	WM Stimuli\	0.5	1403.8	0.6	1246.66666666667	0.7	1144.71428571429	1	823.7	0.6	1292.33333333333	1	810	0.6	1218.83333333333	0.9	1148.88888888889	13	388884	3	388872	27	40	388911	-999999	388887	0	13	TrialsPROC	PL_006_92025.png	1	2	51	SessionSelectionList														nonlure	3	Place	0-Back	44	80	36	0	0	83	6	40	255686	1	13	72	253646	-1	254482	1	836	3	3	2040	53	255699	-54	0												3				51												
WM080112	201111_fnca	1	1	1	913601275	1	75.031	75.031	2.0.10.147	2.0.10.242	2.0.10.242	1.0.0.439	7	234	2	3	Verdana	1	80	0	0	0	WM Stimuli\	0.5	1403.8	0.6	1246.66666666667	0.7	1144.71428571429	1	823.7	0.6	1292.33333333333	1	810	0.6	1218.83333333333	0.9	1148.88888888889	13	388884	3	388872	27	40	388911	-999999	388887	0	13	TrialsPROC	PL_001_92012.png	1	2	52	SessionSelectionList														target	2	Place	0-Back	45	80	37	0	0	83	1	39	258258	1	13	73	256219	-1	256912	1	693	2	2	2039	52	258271	-53	0												4				52												
WM080112	201111_fnca	1	1	1	913601275	1	75.031	75.031	2.0.10.147	2.0.10.242	2.0.10.242	1.0.0.439	7	234	2	3	Verdana	1	80	0	0	0	WM Stimuli\	0.5	1403.8	0.6	1246.66666666667	0.7	1144.71428571429	1	823.7	0.6	1292.33333333333	1	810	0.6	1218.83333333333	0.9	1148.88888888889	13	388884	3	388872	27	40	388911	-999999	388887	0	13	TrialsPROC	PL_004_92023.png	1	2	53	SessionSelectionList														nonlure	3	Place	0-Back	46	80	38	0	0	84	1	39	260830	2	14	72	258791	-1	259433	1	642	3	3	2039	53	260844	-54	0												5				53												
WM080112	201111_fnca	1	1	1	913601275	1	75.031	75.031	2.0.10.147	2.0.10.242	2.0.10.242	1.0.0.439	7	234	2	3	Verdana	1	80	0	0	0	WM Stimuli\	0.5	1403.8	0.6	1246.66666666667	0.7	1144.71428571429	1	823.7	0.6	1292.33333333333	1	810	0.6	1218.83333333333	0.9	1148.88888888889	13	388884	3	388872	27	40	388911	-999999	388887	0	13	TrialsPROC	PL_005_92024.png	1	2	54	SessionSelectionList														nonlure	3	Place	0-Back	47	80	39	0	0	85	2	39	263402	2	14	72	261363	-1	262069	1	706	3	3	2039	53	263416	-54	0												6				54												
WM080112	201111_fnca	1	1	1	913601275	1	75.031	75.031	2.0.10.147	2.0.10.242	2.0.10.242	1.0.0.439	7	234	2	3	Verdana	1	80	0	0	0	WM Stimuli\	0.5	1403.8	0.6	1246.66666666667	0.7	1144.71428571429	1	823.7	0.6	1292.33333333333	1	810	0.6	1218.83333333333	0.9	1148.88888888889	13	388884	3	388872	27	40	388911	-999999	388887	0	13	TrialsPROC	PL_001_92012.png	1	2	55	SessionSelectionList														target	2	Place	0-Back	48	80	40	0	0	85	1	39	265975	1	13	73	263936	-1	264561	1	625	2	2	2039	52	265988	-53	0												7				55												
WM080112	201111_fnca	1	1	1	913601275	1	75.031	75.031	2.0.10.147	2.0.10.242	2.0.10.242	1.0.0.439	7	234	2	3	Verdana	1	80	0	0	0	WM Stimuli\	0.5	1403.8	0.6	1246.66666666667	0.7	1144.71428571429	1	823.7	0.6	1292.33333333333	1	810	0.6	1218.83333333333	0.9	1148.88888888889	13	388884	3	388872	27	40	388911	-999999	388887	0	13	TrialsPROC	PL_002_92014.png	1	2	56	SessionSelectionList														nonlure	3	Place	0-Back	49	80	41	0	0	86	1	39	268547	1	13	72	266508	-1	267274	1	766	3	3	2039	52	268560	-53	0												8				56												
WM080112	201111_fnca	1	1	1	913601275	1	75.031	75.031	2.0.10.147	2.0.10.242	2.0.10.242	1.0.0.439	7	234	2	3	Verdana	1	80	0	0	0	WM Stimuli\	0.5	1403.8	0.6	1246.66666666667	0.7	1144.71428571429	1	823.7	0.6	1292.33333333333	1	810	0.6	1218.83333333333	0.9	1148.88888888889	13	388884	3	388872	27	40	388911	-999999	388887	0	13	TrialsPROC	PL_004_92023.png	1	2	57	SessionSelectionList														lure	3	Place	0-Back	50	80	42	0	0	86	2	39	271119	2	14	72	269080	-1	269776	1	696	3	3	2039	53	271133	-54	0												9				57												
WM080112	201111_fnca	1	1	1	913601275	1	75.031	75.031	2.0.10.147	2.0.10.242	2.0.10.242	1.0.0.439	7	234	2	3	Verdana	1	80	0	0	0	WM Stimuli\	0.5	1403.8	0.6	1246.66666666667	0.7	1144.71428571429	1	823.7	0.6	1292.33333333333	1	810	0.6	1218.83333333333	0.9	1148.88888888889	13	388884	3	388872	27	40	388911	-999999	388887	0	13	TrialsPROC	PL_006_92025.png	1	2	58	SessionSelectionList														lure	3	Place	0-Back	51	80	43	0	0	87	3	40	273692	1	13	72	271652	-1	272447	1	795	3	3	2040	53	273705	-54	0												10				58												
WM080112	201111_fnca	1	1	1	913601275	1	75.031	75.031	2.0.10.147	2.0.10.242	2.0.10.242	1.0.0.439	7	234	2	3	Verdana	1	80	0	0	0	WM Stimuli\	0.5	1403.8	0.6	1246.66666666667	0.7	1144.71428571429	1	823.7	0.6	1292.33333333333	1	810	0.6	1218.83333333333	0.9	1148.88888888889	13	388884	3	388872	27	40	388911	-999999	388887	0	14	Cue2BackPROC	""	1	2	59	SessionSelectionList									6	274158	-7	0																																													59												
WM080112	201111_fnca	1	1	1	913601275	1	75.031	75.031	2.0.10.147	2.0.10.242	2.0.10.242	1.0.0.439	7	234	2	3	Verdana	1	80	0	0	0	WM Stimuli\	0.5	1403.8	0.6	1246.66666666667	0.7	1144.71428571429	1	823.7	0.6	1292.33333333333	1	810	0.6	1218.83333333333	0.9	1148.88888888889	13	388884	3	388872	27	40	388911	-999999	388887	0	15	TrialsPROC	FC_010_F5.png	1	2	60	SessionSelectionList														nonlure	3	Face	2-Back	52	80	44	0	0	87	4	39	278756	1	14	65	276717	-1	278385	1	1668	3	3	2039	53	278770	-54	0													1			60												
WM080112	201111_fnca	1	1	1	913601275	1	75.031	75.031	2.0.10.147	2.0.10.242	2.0.10.242	1.0.0.439	7	234	2	3	Verdana	1	80	0	0	0	WM Stimuli\	0.5	1403.8	0.6	1246.66666666667	0.7	1144.71428571429	1	823.7	0.6	1292.33333333333	1	810	0.6	1218.83333333333	0.9	1148.88888888889	13	388884	3	388872	27	40	388911	-999999	388887	0	15	TrialsPROC	FC_012_F6.png	1	2	61	SessionSelectionList														nonlure	3	Face	2-Back	53	80	45	0	0	87	5	39	281328	2	14	72	279289	-1	280666	1	1377	3	3	2039	53	281342	-54	0													2			61												
WM080112	201111_fnca	1	1	1	913601275	1	75.031	75.031	2.0.10.147	2.0.10.242	2.0.10.242	1.0.0.439	7	234	2	3	Verdana	1	80	0	0	0	WM Stimuli\	0.5	1403.8	0.6	1246.66666666667	0.7	1144.71428571429	1	823.7	0.6	1292.33333333333	1	810	0.6	1218.83333333333	0.9	1148.88888888889	13	388884	3	388872	27	40	388911	-999999	388887	0	15	TrialsPROC	FC_010_F5.png	1	2	62	SessionSelectionList														target	2	Face	2-Back	54	80	45	0	1	87	5	39	283901	1	13	73	281862	-1	282897	0	1035	4	2	2039	52	283914	-53	0													3			62												
WM080112	201111_fnca	1	1	1	913601275	1	75.031	75.031	2.0.10.147	2.0.10.242	2.0.10.242	1.0.0.439	7	234	2	3	Verdana	1	80	0	0	0	WM Stimuli\	0.5	1403.8	0.6	1246.66666666667	0.7	1144.71428571429	1	823.7	0.6	1292.33333333333	1	810	0.6	1218.83333333333	0.9	1148.88888888889	13	388884	3	388872	27	40	388911	-999999	388887	0	15	TrialsPROC	FC_008_F4.png	1	2	63	SessionSelectionList														nonlure	3	Face	2-Back	55	80	46	0	0	87	1	39	286473	1	13	72	284434	-1	285478	1	1044	3	3	2039	52	286486	-53	0													4			63												
WM080112	201111_fnca	1	1	1	913601275	1	75.031	75.031	2.0.10.147	2.0.10.242	2.0.10.242	1.0.0.439	7	234	2	3	Verdana	1	80	0	0	0	WM Stimuli\	0.5	1403.8	0.6	1246.66666666667	0.7	1144.71428571429	1	823.7	0.6	1292.33333333333	1	810	0.6	1218.83333333333	0.9	1148.88888888889	13	388884	3	388872	27	40	388911	-999999	388887	0	15	TrialsPROC	FC_012_F6.png	1	2	64	SessionSelectionList														lure	3	Face	2-Back	56	80	46	0	1	87	1	39	289045	2	14	72	287006	-1	288195	0	1189	4	3	2039	53	289059	-54	0													5			64												
WM080112	201111_fnca	1	1	1	913601275	1	75.031	75.031	2.0.10.147	2.0.10.242	2.0.10.242	1.0.0.439	7	234	2	3	Verdana	1	80	0	0	0	WM Stimuli\	0.5	1403.8	0.6	1246.66666666667	0.7	1144.71428571429	1	823.7	0.6	1292.33333333333	1	810	0.6	1218.83333333333	0.9	1148.88888888889	13	388884	3	388872	27	40	388911	-999999	388887	0	15	TrialsPROC	FC_008_F4.png	1	2	65	SessionSelectionList														target	2	Face	2-Back	57	80	46	0	2	87	1	39	291617	2	14	72	289578	-1	290627	0	1049	4	2	2039	53	291631	-54	0													6			65												
WM080112	201111_fnca	1	1	1	913601275	1	75.031	75.031	2.0.10.147	2.0.10.242	2.0.10.242	1.0.0.439	7	234	2	3	Verdana	1	80	0	0	0	WM Stimuli\	0.5	1403.8	0.6	1246.66666666667	0.7	1144.71428571429	1	823.7	0.6	1292.33333333333	1	810	0.6	1218.83333333333	0.9	1148.88888888889	13	388884	3	388872	27	40	388911	-999999	388887	0	15	TrialsPROC	FC_007_M4.png	1	2	66	SessionSelectionList														nonlure	3	Face	2-Back	58	80	47	0	0	87	1	39	294203	1	14	86	292164	-1	292943	1	779	3	3	2039	53	294217	-54	0													7			66												
WM080112	201111_fnca	1	1	1	913601275	1	75.031	75.031	2.0.10.147	2.0.10.242	2.0.10.242	1.0.0.439	7	234	2	3	Verdana	1	80	0	0	0	WM Stimuli\	0.5	1403.8	0.6	1246.66666666667	0.7	1144.71428571429	1	823.7	0.6	1292.33333333333	1	810	0.6	1218.83333333333	0.9	1148.88888888889	13	388884	3	388872	27	40	388911	-999999	388887	0	15	TrialsPROC	FC_007_M4.png	1	2	67	SessionSelectionList														lure	3	Face	2-Back	59	80	48	0	0	87	2	39	296775	2	14	72	294736	-1	295745	1	1009	3	3	2039	53	296789	-54	0													8			67												
WM080112	201111_fnca	1	1	1	913601275	1	75.031	75.031	2.0.10.147	2.0.10.242	2.0.10.242	1.0.0.439	7	234	2	3	Verdana	1	80	0	0	0	WM Stimuli\	0.5	1403.8	0.6	1246.66666666667	0.7	1144.71428571429	1	823.7	0.6	1292.33333333333	1	810	0.6	1218.83333333333	0.9	1148.88888888889	13	388884	3	388872	27	40	388911	-999999	388887	0	15	TrialsPROC	FC_009_M5.png	1	2	68	SessionSelectionList														nonlure	3	Face	2-Back	60	80	49	0	0	87	3	39	299361	1	13	86	297322	-1	298549	1	1227	3	3	2039	52	299374	-53	0													9			68												
WM080112	201111_fnca	1	1	1	913601275	1	75.031	75.031	2.0.10.147	2.0.10.242	2.0.10.242	1.0.0.439	7	234	2	3	Verdana	1	80	0	0	0	WM Stimuli\	0.5	1403.8	0.6	1246.66666666667	0.7	1144.71428571429	1	823.7	0.6	1292.33333333333	1	810	0.6	1218.83333333333	0.9	1148.88888888889	13	388884	3	388872	27	40	388911	-999999	388887	0	15	TrialsPROC	FC_011_M6.png	1	2	69	SessionSelectionList														nonlure	3	Face	2-Back	61	80	50	0	0	87	4	40	301947	1	13	85	299907	-1	300816	1	909	3	3	2040	53	301960	-54	0													10			69												
WM080112	201111_fnca	1	1	1	913601275	1	75.031	75.031	2.0.10.147	2.0.10.242	2.0.10.242	1.0.0.439	7	234	2	3	Verdana	1	80	0	0	0	WM Stimuli\	0.5	1403.8	0.6	1246.66666666667	0.7	1144.71428571429	1	823.7	0.6	1292.33333333333	1	810	0.6	1218.83333333333	0.9	1148.88888888889	13	388884	3	388872	27	40	388911	-999999	388887	0	16	Fix15secPROC	""	1	2	70	SessionSelectionList																																															6	302413	-7	0							70												
WM080112	201111_fnca	1	1	1	913601275	1	75.031	75.031	2.0.10.147	2.0.10.242	2.0.10.242	1.0.0.439	7	234	2	3	Verdana	1	80	0	0	0	WM Stimuli\	0.5	1403.8	0.6	1246.66666666667	0.7	1144.71428571429	1	823.7	0.6	1292.33333333333	1	810	0.6	1218.83333333333	0.9	1148.88888888889	13	388884	3	388872	27	40	388911	-999999	388887	0	17	Cue0BackPROC	TO_007_TOOL7_BA.png	1	2	71	SessionSelectionList																																										27	317434	-28	0												71												
WM080112	201111_fnca	1	1	1	913601275	1	75.031	75.031	2.0.10.147	2.0.10.242	2.0.10.242	1.0.0.439	7	234	2	3	Verdana	1	80	0	0	0	WM Stimuli\	0.5	1403.8	0.6	1246.66666666667	0.7	1144.71428571429	1	823.7	0.6	1292.33333333333	1	810	0.6	1218.83333333333	0.9	1148.88888888889	13	388884	3	388872	27	40	388911	-999999	388887	0	18	TrialsPROC	TO_010_TOOL10_BA.png	1	2	72	SessionSelectionList														nonlure	3	Tools	0-Back	62	80	51	0	0	87	5	40	322032	1	13	85	319992	-1	321253	1	1261	3	3	2040	53	322045	-54	0														1		72												
WM080112	201111_fnca	1	1	1	913601275	1	75.031	75.031	2.0.10.147	2.0.10.242	2.0.10.242	1.0.0.439	7	234	2	3	Verdana	1	80	0	0	0	WM Stimuli\	0.5	1403.8	0.6	1246.66666666667	0.7	1144.71428571429	1	823.7	0.6	1292.33333333333	1	810	0.6	1218.83333333333	0.9	1148.88888888889	13	388884	3	388872	27	40	388911	-999999	388887	0	18	TrialsPROC	TO_009_TOOL9_BA.png	1	2	73	SessionSelectionList														nonlure	3	Tools	0-Back	63	80	52	0	0	88	6	39	324617	2	14	86	322578	-1	323321	1	743	3	3	2039	53	324631	-54	0														2		73												
WM080112	201111_fnca	1	1	1	913601275	1	75.031	75.031	2.0.10.147	2.0.10.242	2.0.10.242	1.0.0.439	7	234	2	3	Verdana	1	80	0	0	0	WM Stimuli\	0.5	1403.8	0.6	1246.66666666667	0.7	1144.71428571429	1	823.7	0.6	1292.33333333333	1	810	0.6	1218.83333333333	0.9	1148.88888888889	13	388884	3	388872	27	40	388911	-999999	388887	0	18	TrialsPROC	TO_009_TOOL9_BA.png	1	2	74	SessionSelectionList														lure	3	Tools	0-Back	64	80	53	0	0	88	7	39	327176	2	14	59	325137	-1	326464	1	1327	3	3	2039	53	327190	-54	0														3		74												
WM080112	201111_fnca	1	1	1	913601275	1	75.031	75.031	2.0.10.147	2.0.10.242	2.0.10.242	1.0.0.439	7	234	2	3	Verdana	1	80	0	0	0	WM Stimuli\	0.5	1403.8	0.6	1246.66666666667	0.7	1144.71428571429	1	823.7	0.6	1292.33333333333	1	810	0.6	1218.83333333333	0.9	1148.88888888889	13	388884	3	388872	27	40	388911	-999999	388887	0	18	TrialsPROC	TO_008_TOOL8_BA.png	1	2	75	SessionSelectionList														nonlure	3	Tools	0-Back	65	80	54	0	0	88	8	39	329748	2	14	72	327709	-1	329259	1	1550	3	3	2039	53	329762	-54	0														4		75												
WM080112	201111_fnca	1	1	1	913601275	1	75.031	75.031	2.0.10.147	2.0.10.242	2.0.10.242	1.0.0.439	7	234	2	3	Verdana	1	80	0	0	0	WM Stimuli\	0.5	1403.8	0.6	1246.66666666667	0.7	1144.71428571429	1	823.7	0.6	1292.33333333333	1	810	0.6	1218.83333333333	0.9	1148.88888888889	13	388884	3	388872	27	40	388911	-999999	388887	0	18	TrialsPROC	TO_011_TOOL11_BA.png	1	2	76	SessionSelectionList														nonlure	3	Tools	0-Back	66	80	55	0	0	89	9	39	332334	2	14	86	330295	-1	331450	1	1155	3	3	2039	53	332348	-54	0														5		76												
WM080112	201111_fnca	1	1	1	913601275	1	75.031	75.031	2.0.10.147	2.0.10.242	2.0.10.242	1.0.0.439	7	234	2	3	Verdana	1	80	0	0	0	WM Stimuli\	0.5	1403.8	0.6	1246.66666666667	0.7	1144.71428571429	1	823.7	0.6	1292.33333333333	1	810	0.6	1218.83333333333	0.9	1148.88888888889	13	388884	3	388872	27	40	388911	-999999	388887	0	18	TrialsPROC	TO_012_TOOL12_BA.png	1	2	77	SessionSelectionList														nonlure	3	Tools	0-Back	67	80	56	0	0	89	10	39	334906	2	14	72	332867	-1	333664	1	797	3	3	2039	53	334920	-54	0														6		77												
WM080112	201111_fnca	1	1	1	913601275	1	75.031	75.031	2.0.10.147	2.0.10.242	2.0.10.242	1.0.0.439	7	234	2	3	Verdana	1	80	0	0	0	WM Stimuli\	0.5	1403.8	0.6	1246.66666666667	0.7	1144.71428571429	1	823.7	0.6	1292.33333333333	1	810	0.6	1218.83333333333	0.9	1148.88888888889	13	388884	3	388872	27	40	388911	-999999	388887	0	18	TrialsPROC	TO_010_TOOL10_BA.png	1	2	78	SessionSelectionList														lure	3	Tools	0-Back	68	80	57	0	0	86	1	39	337465	2	14	59	335426	-1	335931	0	505	2	3	2039	53	337479	-54	0														7		78												
WM080112	201111_fnca	1	1	1	913601275	1	75.031	75.031	2.0.10.147	2.0.10.242	2.0.10.242	1.0.0.439	7	234	2	3	Verdana	1	80	0	0	0	WM Stimuli\	0.5	1403.8	0.6	1246.66666666667	0.7	1144.71428571429	1	823.7	0.6	1292.33333333333	1	810	0.6	1218.83333333333	0.9	1148.88888888889	13	388884	3	388872	27	40	388911	-999999	388887	0	18	TrialsPROC	TO_007_TOOL7_BA.png	1	2	79	SessionSelectionList														target	2	Tools	0-Back	69	80	58	0	0	87	2	39	340024	2	14	59	337985	-1	339689	1	1704	2	2	2039	53	340038	-54	0														8		79												
WM080112	201111_fnca	1	1	1	913601275	1	75.031	75.031	2.0.10.147	2.0.10.242	2.0.10.242	1.0.0.439	7	234	2	3	Verdana	1	80	0	0	0	WM Stimuli\	0.5	1403.8	0.6	1246.66666666667	0.7	1144.71428571429	1	823.7	0.6	1292.33333333333	1	810	0.6	1218.83333333333	0.9	1148.88888888889	13	388884	3	388872	27	40	388911	-999999	388887	0	18	TrialsPROC	TO_008_TOOL8_BA.png	1	2	80	SessionSelectionList														lure	3	Tools	0-Back	70	80	59	0	0	87	1	39	342583	2	14	59	340544	-1	341659	1	1115	3	3	2039	53	342597	-54	0														9		80												
WM080112	201111_fnca	1	1	1	913601275	1	75.031	75.031	2.0.10.147	2.0.10.242	2.0.10.242	1.0.0.439	7	234	2	3	Verdana	1	80	0	0	0	WM Stimuli\	0.5	1403.8	0.6	1246.66666666667	0.7	1144.71428571429	1	823.7	0.6	1292.33333333333	1	810	0.6	1218.83333333333	0.9	1148.88888888889	13	388884	3	388872	27	40	388911	-999999	388887	0	18	TrialsPROC	TO_007_TOOL7_BA.png	1	2	81	SessionSelectionList														target	2	Tools	0-Back	71	80	60	0	0	88	1	39	345142	2	14	59	343103	-1	343791	1	688	2	2	2039	53	345156	-54	0														10		81												
WM080112	201111_fnca	1	1	1	913601275	1	75.031	75.031	2.0.10.147	2.0.10.242	2.0.10.242	1.0.0.439	7	234	2	3	Verdana	1	80	0	0	0	WM Stimuli\	0.5	1403.8	0.6	1246.66666666667	0.7	1144.71428571429	1	823.7	0.6	1292.33333333333	1	810	0.6	1218.83333333333	0.9	1148.88888888889	13	388884	3	388872	27	40	388911	-999999	388887	0	19	Cue2BackPROC	""	1	2	82	SessionSelectionList									6	345609	-7	0																																													82												
WM080112	201111_fnca	1	1	1	913601275	1	75.031	75.031	2.0.10.147	2.0.10.242	2.0.10.242	1.0.0.439	7	234	2	3	Verdana	1	80	0	0	0	WM Stimuli\	0.5	1403.8	0.6	1246.66666666667	0.7	1144.71428571429	1	823.7	0.6	1292.33333333333	1	810	0.6	1218.83333333333	0.9	1148.88888888889	13	388884	3	388872	27	40	388911	-999999	388887	0	20	TrialsPROC	PL_007_92026.png	1	2	83	SessionSelectionList														nonlure	3	Place	2-Back	72	80	60	0	1	88	1	39	350220	1	14	78	348181	-1	0	0	0	""	3	2039	53	350234	-54	0															1	83												
WM080112	201111_fnca	1	1	1	913601275	1	75.031	75.031	2.0.10.147	2.0.10.242	2.0.10.242	1.0.0.439	7	234	2	3	Verdana	1	80	0	0	0	WM Stimuli\	0.5	1403.8	0.6	1246.66666666667	0.7	1144.71428571429	1	823.7	0.6	1292.33333333333	1	810	0.6	1218.83333333333	0.9	1148.88888888889	13	388884	3	388872	27	40	388911	-999999	388887	0	20	TrialsPROC	PL_007_92026.png	1	2	84	SessionSelectionList														lure	3	Place	2-Back	73	80	61	0	0	88	1	39	352792	2	14	72	350753	-1	352371	1	1618	3	3	2039	53	352806	-54	0															2	84												
WM080112	201111_fnca	1	1	1	913601275	1	75.031	75.031	2.0.10.147	2.0.10.242	2.0.10.242	1.0.0.439	7	234	2	3	Verdana	1	80	0	0	0	WM Stimuli\	0.5	1403.8	0.6	1246.66666666667	0.7	1144.71428571429	1	823.7	0.6	1292.33333333333	1	810	0.6	1218.83333333333	0.9	1148.88888888889	13	388884	3	388872	27	40	388911	-999999	388887	0	20	TrialsPROC	PL_010_92038.png	1	2	85	SessionSelectionList														nonlure	3	Place	2-Back	74	80	62	0	0	88	2	39	355378	1	13	86	353339	-1	354463	1	1124	3	3	2039	52	355391	-53	0															3	85												
WM080112	201111_fnca	1	1	1	913601275	1	75.031	75.031	2.0.10.147	2.0.10.242	2.0.10.242	1.0.0.439	7	234	2	3	Verdana	1	80	0	0	0	WM Stimuli\	0.5	1403.8	0.6	1246.66666666667	0.7	1144.71428571429	1	823.7	0.6	1292.33333333333	1	810	0.6	1218.83333333333	0.9	1148.88888888889	13	388884	3	388872	27	40	388911	-999999	388887	0	20	TrialsPROC	PL_009_92037.png	1	2	86	SessionSelectionList														nonlure	3	Place	2-Back	75	80	63	0	0	88	3	40	357964	1	13	85	355924	-1	357499	1	1575	3	3	2040	53	357977	-54	0															4	86												
WM080112	201111_fnca	1	1	1	913601275	1	75.031	75.031	2.0.10.147	2.0.10.242	2.0.10.242	1.0.0.439	7	234	2	3	Verdana	1	80	0	0	0	WM Stimuli\	0.5	1403.8	0.6	1246.66666666667	0.7	1144.71428571429	1	823.7	0.6	1292.33333333333	1	810	0.6	1218.83333333333	0.9	1148.88888888889	13	388884	3	388872	27	40	388911	-999999	388887	0	20	TrialsPROC	PL_010_92038.png	1	2	87	SessionSelectionList														target	2	Place	2-Back	76	80	64	0	0	88	4	39	360536	1	13	73	358497	-1	359677	0	1180	3	2	2039	52	360549	-53	0															5	87												
WM080112	201111_fnca	1	1	1	913601275	1	75.031	75.031	2.0.10.147	2.0.10.242	2.0.10.242	1.0.0.439	7	234	2	3	Verdana	1	80	0	0	0	WM Stimuli\	0.5	1403.8	0.6	1246.66666666667	0.7	1144.71428571429	1	823.7	0.6	1292.33333333333	1	810	0.6	1218.83333333333	0.9	1148.88888888889	13	388884	3	388872	27	40	388911	-999999	388887	0	20	TrialsPROC	PL_009_92037.png	1	2	88	SessionSelectionList														target	2	Place	2-Back	77	80	64	0	1	88	4	39	363108	2	14	72	361069	-1	362651	0	1582	4	2	2039	53	363122	-54	0															6	88												
WM080112	201111_fnca	1	1	1	913601275	1	75.031	75.031	2.0.10.147	2.0.10.242	2.0.10.242	1.0.0.439	7	234	2	3	Verdana	1	80	0	0	0	WM Stimuli\	0.5	1403.8	0.6	1246.66666666667	0.7	1144.71428571429	1	823.7	0.6	1292.33333333333	1	810	0.6	1218.83333333333	0.9	1148.88888888889	13	388884	3	388872	27	40	388911	-999999	388887	0	20	TrialsPROC	PL_008_92033.png	1	2	89	SessionSelectionList														nonlure	3	Place	2-Back	78	80	65	0	0	88	1	38	365680	2	14	73	363642	-1	364585	1	943	3	3	2038	52	365694	-53	0															7	89												
WM080112	201111_fnca	1	1	1	913601275	1	75.031	75.031	2.0.10.147	2.0.10.242	2.0.10.242	1.0.0.439	7	234	2	3	Verdana	1	80	0	0	0	WM Stimuli\	0.5	1403.8	0.6	1246.66666666667	0.7	1144.71428571429	1	823.7	0.6	1292.33333333333	1	810	0.6	1218.83333333333	0.9	1148.88888888889	13	388884	3	388872	27	40	388911	-999999	388887	0	20	TrialsPROC	PL_012_92047.png	1	2	90	SessionSelectionList														nonlure	3	Place	2-Back	79	80	66	0	0	88	2	39	368266	1	13	85	366227	-1	367186	1	959	3	3	2039	52	368279	-53	0															8	90												
WM080112	201111_fnca	1	1	1	913601275	1	75.031	75.031	2.0.10.147	2.0.10.242	2.0.10.242	1.0.0.439	7	234	2	3	Verdana	1	80	0	0	0	WM Stimuli\	0.5	1403.8	0.6	1246.66666666667	0.7	1144.71428571429	1	823.7	0.6	1292.33333333333	1	810	0.6	1218.83333333333	0.9	1148.88888888889	13	388884	3	388872	27	40	388911	-999999	388887	0	20	TrialsPROC	PL_012_92047.png	1	2	91	SessionSelectionList														lure	3	Place	2-Back	80	80	67	0	0	88	1	39	370838	2	14	72	368799	-1	370660	0	1861	2	3	2039	53	370852	-54	0															9	91												
WM080112	201111_fnca	1	1	1	913601275	1	75.031	75.031	2.0.10.147	2.0.10.242	2.0.10.242	1.0.0.439	7	234	2	3	Verdana	1	80	0	0	0	WM Stimuli\	0.5	1403.8	0.6	1246.66666666667	0.7	1144.71428571429	1	823.7	0.6	1292.33333333333	1	810	0.6	1218.83333333333	0.9	1148.88888888889	13	388884	3	388872	27	40	388911	-999999	388887	0	20	TrialsPROC	PL_011_92044.png	1	2	92	SessionSelectionList														nonlure	3	Place	2-Back	80	80	68	0	0	88	1	40	373411	1	13	72	371371	-1	372906	1	1535	3	3	2040	53	373424	-54	0															10	92												
WM080112	201111_fnca	1	1	1	913601275	1	75.031	75.031	2.0.10.147	2.0.10.242	2.0.10.242	1.0.0.439	7	234	2	3	Verdana	1	80	0	0	0	WM Stimuli\	0.5	1403.8	0.6	1246.66666666667	0.7	1144.71428571429	1	823.7	0.6	1292.33333333333	1	810	0.6	1218.83333333333	0.9	1148.88888888889	13	388884	3	388872	27	40	388911	-999999	388887	0	21	Fix15secPROC	""	1	2	93	SessionSelectionList																																															6	373877	-7	0							93												
