ExperimentName	HCPID	RunNumber	Subject	Session	RandomSeed	Group	Laptop.RefreshRate	ScannerD2.RefreshRate	StudioVersion	RuntimeVersion	RuntimeVersionExpected	ExperimentVersion	triggercode	Allowed	Target	Nontarget	FontStyle	RunTrialNumber[Session]	TrialsPerRun[Session]	TotalRespGreater200[Session]	ConsecRTLess200[Session]	ConsecNonResp[Session]	StimuliDir	ACC_2_Back_Body	Avg_RT_For_Correct_Trials_2_Back_Body	ACC_0_Back_Body	Avg_RT_For_Correct_Trials_0_Back_Body	ACC_2_Back_Face	Avg_RT_For_Correct_Trials_2_Back_Face	ACC_0_Back_Face	Avg_RT_For_Correct_Trials_0_Back_Face	ACC_2_Back_Place	Avg_RT_For_Correct_Trials_2_Back_Place	ACC_0_Back_Place	Avg_RT_For_Correct_Trials_0_Back_Place	ACC_2_Back_Tools	Avg_RT_For_Correct_Trials_2_Back_Tools	ACC_0_Back_Tools	Avg_RT_For_Correct_Trials_0_Back_Tools	ExpInstrucFeelFreeToRest.OnsetDelay	ExpInstrucFeelFreeToRest.OnsetTime	ExpInstrucFeelFreeToRest.DurationError	ExpInstrucFeelFreeToRest.StartTime	ExpInstrucFeelFreeToRest.OnsetToOnsetTime	FeelFreeToRest.OnsetDelay	FeelFreeToRest.OnsetTime	FeelFreeToRest.DurationError	FeelFreeToRest.StartTime	FeelFreeToRest.OnsetToOnsetTime	SessionSelectionList	Procedure[Block]	Stimulus[Block]	RunNumberFilterValue	SessionSelectionList.Cycle	SessionSelectionList.Sample	Running[Block]	IntroButtonMap.OnsetDelay	IntroButtonMap.OnsetTime	IntroButtonMap.DurationError	IntroButtonMap.OnsetToOnsetTime	GetReady.OnsetDelay	GetReady.OnsetTime	GetReady.DurationError	GetReady.OnsetToOnsetTime	Cue2Back.OnsetDelay	Cue2Back.OnsetTime	Cue2Back.DurationError	Cue2Back.OnsetToOnsetTime	Run1Block1	TargetType	CorrectResponse	StimType	BlockType	RunTrialNumber[Block]	TrialsPerRun[Block]	TotalRespGreater200[Block]	ConsecRTLess200[Block]	ConsecNonResp[Block]	ControlAcc	ConsecSameResp	ExperimenterWindow.OnsetDelay	ExperimenterWindow.OnsetTime	ExperimenterWindow.DurationError	ExperimenterWindow.OnsetToOnsetTime	Stim.OnsetDelay	Stim.OnsetTime	Stim.DurationError	Stim.RTTime	Stim.ACC	Stim.RT	Stim.RESP	Stim.CRESP	Stim.OnsetToOnsetTime	Fix.OnsetDelay	Fix.OnsetTime	Fix.DurationError	Fix.OnsetToOnsetTime	CueTarget.OnsetDelay	CueTarget.OnsetTime	CueTarget.DurationError	CueTarget.OnsetToOnsetTime	Run1Block2	Fix15sec.OnsetDelay	Fix15sec.OnsetTime	Fix15sec.DurationError	Fix15sec.OnsetToOnsetTime	Run1Block3	Run1Block4	Run1Block5	Run1Block6	Run1Block7	Run1Block8	Block	Procedure[Trial]	Stimulus[Trial]	ReadyList	Running[Trial]	ReadyList.Cycle	ReadyList.Sample	SyncSlide.OnsetDelay	SyncSlide.OnsetTime	SyncSlide.DurationError	SyncSlide.FinishTime	SyncSlide.OnsetToOnsetTime	Trial
WM080112	211417_fnca	2	1	1	1934230237	1	75.031	75.030	2.0.10.147	2.0.10.242	2.0.10.242	1.0.0.439	7	234	2	3	Verdana	1	80	0	0	0	WM Stimuli\	0.8	1098.125	1	809.8	1	825.1	1	605.4	1	1009.4	1	782.2	0.9	957.555555555556	0.9	626.777777777778	13	318882	3	318870	27	40	318909	-999999	318885	0	22	TRSyncPROC	""	2	2	1	SessionSelectionList	116	12112	-999999	0	28	12458	-999999	0																																																	1	InitialTR	4	1	ReadyList	1	1	23	25613	-24	27589	0	1
WM080112	211417_fnca	2	1	1	1934230237	1	75.031	75.030	2.0.10.147	2.0.10.242	2.0.10.242	1.0.0.439	7	234	2	3	Verdana	1	80	0	0	0	WM Stimuli\	0.8	1098.125	1	809.8	1	825.1	1	605.4	1	1009.4	1	782.2	0.9	957.555555555556	0.9	626.777777777778	13	318882	3	318870	27	40	318909	-999999	318885	0	22	TRSyncPROC	""	2	2	1	SessionSelectionList	116	12112	-999999	0	28	12458	-999999	0																																																	1	InitialTR	3	2	ReadyList	1	2	9	27599	-10	29589	0	2
WM080112	211417_fnca	2	1	1	1934230237	1	75.031	75.030	2.0.10.147	2.0.10.242	2.0.10.242	1.0.0.439	7	234	2	3	Verdana	1	80	0	0	0	WM Stimuli\	0.8	1098.125	1	809.8	1	825.1	1	605.4	1	1009.4	1	782.2	0.9	957.555555555556	0.9	626.777777777778	13	318882	3	318870	27	40	318909	-999999	318885	0	22	TRSyncPROC	""	2	2	1	SessionSelectionList	116	12112	-999999	0	28	12458	-999999	0																																																	1	InitialTR	2	3	ReadyList	1	3	8	29598	-9	31589	0	3
WM080112	211417_fnca	2	1	1	1934230237	1	75.031	75.030	2.0.10.147	2.0.10.242	2.0.10.242	1.0.0.439	7	234	2	3	Verdana	1	80	0	0	0	WM Stimuli\	0.8	1098.125	1	809.8	1	825.1	1	605.4	1	1009.4	1	782.2	0.9	957.555555555556	0.9	626.777777777778	13	318882	3	318870	27	40	318909	-999999	318885	0	22	TRSyncPROC	""	2	2	1	SessionSelectionList	116	12112	-999999	0	28	12458	-999999	0																																																	1	InitialTR	1	4	ReadyList	1	4	7	31597	-8	33589	0	4
WM080112	211417_fnca	2	1	1	1934230237	1	75.031	75.030	2.0.10.147	2.0.10.242	2.0.10.242	1.0.0.439	7	234	2	3	Verdana	1	80	0	0	0	WM Stimuli\	0.8	1098.125	1	809.8	1	825.1	1	605.4	1	1009.4	1	782.2	0.9	957.555555555556	0.9	626.777777777778	13	318882	3	318870	27	40	318909	-999999	318885	0	23	Cue2BackPROC	""	2	2	2	SessionSelectionList									6	33596	-7	0																																													2												
WM080112	211417_fnca	2	1	1	1934230237	1	75.031	75.030	2.0.10.147	2.0.10.242	2.0.10.242	1.0.0.439	7	234	2	3	Verdana	1	80	0	0	0	WM Stimuli\	0.8	1098.125	1	809.8	1	825.1	1	605.4	1	1009.4	1	782.2	0.9	957.555555555556	0.9	626.777777777778	13	318882	3	318870	27	40	318909	-999999	318885	0	24	TrialsPROC	TO_014_TOOL14_BA.png	2	2	3	SessionSelectionList														nonlure	3	Tools	2-Back	2	80	1	0	0	0	1	52	38221	3	14	79	36169	-1	37185	1	1016	3	3	2052	66	38235	-67	0																3												
WM080112	211417_fnca	2	1	1	1934230237	1	75.031	75.030	2.0.10.147	2.0.10.242	2.0.10.242	1.0.0.439	7	234	2	3	Verdana	1	80	0	0	0	WM Stimuli\	0.8	1098.125	1	809.8	1	825.1	1	605.4	1	1009.4	1	782.2	0.9	957.555555555556	0.9	626.777777777778	13	318882	3	318870	27	40	318909	-999999	318885	0	24	TrialsPROC	TO_013_TOOL13_BA.png	2	2	4	SessionSelectionList														nonlure	3	Tools	2-Back	3	80	2	0	0	0	2	39	40767	1	13	59	38728	-1	39589	1	861	3	3	2039	52	40780	-53	0																4												
WM080112	211417_fnca	2	1	1	1934230237	1	75.031	75.030	2.0.10.147	2.0.10.242	2.0.10.242	1.0.0.439	7	234	2	3	Verdana	1	80	0	0	0	WM Stimuli\	0.8	1098.125	1	809.8	1	825.1	1	605.4	1	1009.4	1	782.2	0.9	957.555555555556	0.9	626.777777777778	13	318882	3	318870	27	40	318909	-999999	318885	0	24	TrialsPROC	TO_016_TOOL16_BA.png	2	2	5	SessionSelectionList														nonlure	3	Tools	2-Back	4	80	3	0	0	0	3	39	43326	1	13	59	41287	-1	41966	1	679	3	3	2039	52	43339	-53	0																5												
WM080112	211417_fnca	2	1	1	1934230237	1	75.031	75.030	2.0.10.147	2.0.10.242	2.0.10.242	1.0.0.439	7	234	2	3	Verdana	1	80	0	0	0	WM Stimuli\	0.8	1098.125	1	809.8	1	825.1	1	605.4	1	1009.4	1	782.2	0.9	957.555555555556	0.9	626.777777777778	13	318882	3	318870	27	40	318909	-999999	318885	0	24	TrialsPROC	TO_014_TOOL14_BA.png	2	2	6	SessionSelectionList														lure	3	Tools	2-Back	5	80	4	0	0	0	4	39	45898	3	14	72	43859	-1	45449	1	1590	3	3	2039	53	45912	-54	0																6												
WM080112	211417_fnca	2	1	1	1934230237	1	75.031	75.030	2.0.10.147	2.0.10.242	2.0.10.242	1.0.0.439	7	234	2	3	Verdana	1	80	0	0	0	WM Stimuli\	0.8	1098.125	1	809.8	1	825.1	1	605.4	1	1009.4	1	782.2	0.9	957.555555555556	0.9	626.777777777778	13	318882	3	318870	27	40	318909	-999999	318885	0	24	TrialsPROC	TO_016_TOOL16_BA.png	2	2	7	SessionSelectionList														target	2	Tools	2-Back	6	80	5	0	0	0	5	39	48457	1	14	59	46418	-1	47325	0	907	3	2	2039	53	48471	-54	0																7												
WM080112	211417_fnca	2	1	1	1934230237	1	75.031	75.030	2.0.10.147	2.0.10.242	2.0.10.242	1.0.0.439	7	234	2	3	Verdana	1	80	0	0	0	WM Stimuli\	0.8	1098.125	1	809.8	1	825.1	1	605.4	1	1009.4	1	782.2	0.9	957.555555555556	0.9	626.777777777778	13	318882	3	318870	27	40	318909	-999999	318885	0	24	TrialsPROC	TO_018_TOOL18_BA.png	2	2	8	SessionSelectionList														nonlure	3	Tools	2-Back	7	80	6	0	0	0	6	39	51016	3	14	59	48977	-1	49808	1	831	3	3	2039	53	51030	-54	0																8												
WM080112	211417_fnca	2	1	1	1934230237	1	75.031	75.030	2.0.10.147	2.0.10.242	2.0.10.242	1.0.0.439	7	234	2	3	Verdana	1	80	0	0	0	WM Stimuli\	0.8	1098.125	1	809.8	1	825.1	1	605.4	1	1009.4	1	782.2	0.9	957.555555555556	0.9	626.777777777778	13	318882	3	318870	27	40	318909	-999999	318885	0	24	TrialsPROC	TO_017_TOOL17_BA.png	2	2	9	SessionSelectionList														nonlure	3	Tools	2-Back	8	80	7	0	0	0	7	39	53575	2	14	59	51536	-1	52347	1	811	3	3	2039	53	53589	-54	0																9												
WM080112	211417_fnca	2	1	1	1934230237	1	75.031	75.030	2.0.10.147	2.0.10.242	2.0.10.242	1.0.0.439	7	234	2	3	Verdana	1	80	0	0	0	WM Stimuli\	0.8	1098.125	1	809.8	1	825.1	1	605.4	1	1009.4	1	782.2	0.9	957.555555555556	0.9	626.777777777778	13	318882	3	318870	27	40	318909	-999999	318885	0	24	TrialsPROC	TO_018_TOOL18_BA.png	2	2	10	SessionSelectionList														target	2	Tools	2-Back	9	80	8	0	0	0	1	39	56134	1	14	59	54095	-1	54802	1	707	2	2	2039	53	56148	-54	0																10												
WM080112	211417_fnca	2	1	1	1934230237	1	75.031	75.030	2.0.10.147	2.0.10.242	2.0.10.242	1.0.0.439	7	234	2	3	Verdana	1	80	0	0	0	WM Stimuli\	0.8	1098.125	1	809.8	1	825.1	1	605.4	1	1009.4	1	782.2	0.9	957.555555555556	0.9	626.777777777778	13	318882	3	318870	27	40	318909	-999999	318885	0	24	TrialsPROC	TO_015_TOOL15_BA.png	2	2	11	SessionSelectionList														nonlure	3	Tools	2-Back	10	80	9	0	0	0	1	39	58693	2	14	59	56654	-1	57536	1	882	3	3	2039	53	58707	-54	0																11												
WM080112	211417_fnca	2	1	1	1934230237	1	75.031	75.030	2.0.10.147	2.0.10.242	2.0.10.242	1.0.0.439	7	234	2	3	Verdana	1	80	0	0	0	WM Stimuli\	0.8	1098.125	1	809.8	1	825.1	1	605.4	1	1009.4	1	782.2	0.9	957.555555555556	0.9	626.777777777778	13	318882	3	318870	27	40	318909	-999999	318885	0	24	TrialsPROC	TO_017_TOOL17_BA.png	2	2	12	SessionSelectionList														lure	3	Tools	2-Back	11	80	10	0	0	0	2	39	61252	2	14	59	59213	-1	60454	1	1241	3	3	2039	53	61266	-54	0																12												
WM080112	211417_fnca	2	1	1	1934230237	1	75.031	75.030	2.0.10.147	2.0.10.242	2.0.10.242	1.0.0.439	7	234	2	3	Verdana	1	80	0	0	0	WM Stimuli\	0.8	1098.125	1	809.8	1	825.1	1	605.4	1	1009.4	1	782.2	0.9	957.555555555556	0.9	626.777777777778	13	318882	3	318870	27	40	318909	-999999	318885	0	25	Cue0BackPROC	BP_013_BP7_BA.png	2	2	13	SessionSelectionList																																										19	61732	-20	0												13												
WM080112	211417_fnca	2	1	1	1934230237	1	75.031	75.030	2.0.10.147	2.0.10.242	2.0.10.242	1.0.0.439	7	234	2	3	Verdana	1	80	0	0	0	WM Stimuli\	0.8	1098.125	1	809.8	1	825.1	1	605.4	1	1009.4	1	782.2	0.9	957.555555555556	0.9	626.777777777778	13	318882	3	318870	27	40	318909	-999999	318885	0	26	TrialsPROC	BP_015_H10-T_BA.png	2	2	14	SessionSelectionList														nonlure	3	Body	0-Back	12	80	11	0	0	100	3	39	66303	3	14	51	64264	-1	65147	1	883	3	3	2039	53	66317	-54	0																14												
WM080112	211417_fnca	2	1	1	1934230237	1	75.031	75.030	2.0.10.147	2.0.10.242	2.0.10.242	1.0.0.439	7	234	2	3	Verdana	1	80	0	0	0	WM Stimuli\	0.8	1098.125	1	809.8	1	825.1	1	605.4	1	1009.4	1	782.2	0.9	957.555555555556	0.9	626.777777777778	13	318882	3	318870	27	40	318909	-999999	318885	0	26	TrialsPROC	BP_018_H13-T_BA.png	2	2	15	SessionSelectionList														nonlure	3	Body	0-Back	13	80	12	0	0	100	4	39	68862	3	14	59	66823	-1	67662	1	839	3	3	2039	53	68876	-54	0																15												
WM080112	211417_fnca	2	1	1	1934230237	1	75.031	75.030	2.0.10.147	2.0.10.242	2.0.10.242	1.0.0.439	7	234	2	3	Verdana	1	80	0	0	0	WM Stimuli\	0.8	1098.125	1	809.8	1	825.1	1	605.4	1	1009.4	1	782.2	0.9	957.555555555556	0.9	626.777777777778	13	318882	3	318870	27	40	318909	-999999	318885	0	26	TrialsPROC	BP_014_BP9_BA.png	2	2	16	SessionSelectionList														nonlure	3	Body	0-Back	14	80	13	0	0	100	5	39	71421	2	14	59	69382	-1	70259	1	877	3	3	2039	53	71435	-54	0																16												
WM080112	211417_fnca	2	1	1	1934230237	1	75.031	75.030	2.0.10.147	2.0.10.242	2.0.10.242	1.0.0.439	7	234	2	3	Verdana	1	80	0	0	0	WM Stimuli\	0.8	1098.125	1	809.8	1	825.1	1	605.4	1	1009.4	1	782.2	0.9	957.555555555556	0.9	626.777777777778	13	318882	3	318870	27	40	318909	-999999	318885	0	26	TrialsPROC	BP_018_H13-T_BA.png	2	2	17	SessionSelectionList														lure	3	Body	0-Back	15	80	14	0	0	100	6	39	73980	3	14	59	71941	-1	72930	1	989	3	3	2039	53	73994	-54	0																17												
WM080112	211417_fnca	2	1	1	1934230237	1	75.031	75.030	2.0.10.147	2.0.10.242	2.0.10.242	1.0.0.439	7	234	2	3	Verdana	1	80	0	0	0	WM Stimuli\	0.8	1098.125	1	809.8	1	825.1	1	605.4	1	1009.4	1	782.2	0.9	957.555555555556	0.9	626.777777777778	13	318882	3	318870	27	40	318909	-999999	318885	0	26	TrialsPROC	BP_013_BP7_BA.png	2	2	18	SessionSelectionList														target	2	Body	0-Back	16	80	15	0	0	100	1	39	76539	2	14	59	74500	-1	75256	1	756	2	2	2039	53	76553	-54	0																18												
WM080112	211417_fnca	2	1	1	1934230237	1	75.031	75.030	2.0.10.147	2.0.10.242	2.0.10.242	1.0.0.439	7	234	2	3	Verdana	1	80	0	0	0	WM Stimuli\	0.8	1098.125	1	809.8	1	825.1	1	605.4	1	1009.4	1	782.2	0.9	957.555555555556	0.9	626.777777777778	13	318882	3	318870	27	40	318909	-999999	318885	0	26	TrialsPROC	BP_015_H10-T_BA.png	2	2	19	SessionSelectionList														lure	3	Body	0-Back	17	80	16	0	0	100	1	39	79098	2	14	59	77059	-1	77755	1	696	3	3	2039	53	79112	-54	0																19												
WM080112	211417_fnca	2	1	1	1934230237	1	75.031	75.030	2.0.10.147	2.0.10.242	2.0.10.242	1.0.0.439	7	234	2	3	Verdana	1	80	0	0	0	WM Stimuli\	0.8	1098.125	1	809.8	1	825.1	1	605.4	1	1009.4	1	782.2	0.9	957.555555555556	0.9	626.777777777778	13	318882	3	318870	27	40	318909	-999999	318885	0	26	TrialsPROC	BP_016_H11-T_BA.png	2	2	20	SessionSelectionList														nonlure	3	Body	0-Back	18	80	17	0	0	100	2	39	81670	2	14	72	79631	-1	80356	1	725	3	3	2039	53	81684	-54	0																20												
WM080112	211417_fnca	2	1	1	1934230237	1	75.031	75.030	2.0.10.147	2.0.10.242	2.0.10.242	1.0.0.439	7	234	2	3	Verdana	1	80	0	0	0	WM Stimuli\	0.8	1098.125	1	809.8	1	825.1	1	605.4	1	1009.4	1	782.2	0.9	957.555555555556	0.9	626.777777777778	13	318882	3	318870	27	40	318909	-999999	318885	0	26	TrialsPROC	BP_013_BP7_BA.png	2	2	21	SessionSelectionList														target	2	Body	0-Back	19	80	18	0	0	100	1	38	84229	3	14	60	82191	-1	83044	1	853	2	2	2038	52	84243	-53	0																21												
WM080112	211417_fnca	2	1	1	1934230237	1	75.031	75.030	2.0.10.147	2.0.10.242	2.0.10.242	1.0.0.439	7	234	2	3	Verdana	1	80	0	0	0	WM Stimuli\	0.8	1098.125	1	809.8	1	825.1	1	605.4	1	1009.4	1	782.2	0.9	957.555555555556	0.9	626.777777777778	13	318882	3	318870	27	40	318909	-999999	318885	0	26	TrialsPROC	BP_017_H12-T_BA.png	2	2	22	SessionSelectionList														nonlure	3	Body	0-Back	20	80	19	0	0	100	1	39	86788	2	14	58	84749	-1	85429	1	680	3	3	2039	53	86802	-54	0																22												
WM080112	211417_fnca	2	1	1	1934230237	1	75.031	75.030	2.0.10.147	2.0.10.242	2.0.10.242	1.0.0.439	7	234	2	3	Verdana	1	80	0	0	0	WM Stimuli\	0.8	1098.125	1	809.8	1	825.1	1	605.4	1	1009.4	1	782.2	0.9	957.555555555556	0.9	626.777777777778	13	318882	3	318870	27	40	318909	-999999	318885	0	26	TrialsPROC	BP_014_BP9_BA.png	2	2	23	SessionSelectionList														lure	3	Body	0-Back	21	80	20	0	0	100	2	39	89347	2	14	59	87308	-1	88108	1	800	3	3	2039	53	89361	-54	0																23												
WM080112	211417_fnca	2	1	1	1934230237	1	75.031	75.030	2.0.10.147	2.0.10.242	2.0.10.242	1.0.0.439	7	234	2	3	Verdana	1	80	0	0	0	WM Stimuli\	0.8	1098.125	1	809.8	1	825.1	1	605.4	1	1009.4	1	782.2	0.9	957.555555555556	0.9	626.777777777778	13	318882	3	318870	27	40	318909	-999999	318885	0	27	Fix15secPROC	""	2	2	24	SessionSelectionList																																															6	89814	-7	0							24												
WM080112	211417_fnca	2	1	1	1934230237	1	75.031	75.030	2.0.10.147	2.0.10.242	2.0.10.242	1.0.0.439	7	234	2	3	Verdana	1	80	0	0	0	WM Stimuli\	0.8	1098.125	1	809.8	1	825.1	1	605.4	1	1009.4	1	782.2	0.9	957.555555555556	0.9	626.777777777778	13	318882	3	318870	27	40	318909	-999999	318885	0	28	Cue2BackPROC	""	2	2	25	SessionSelectionList									13	104821	-14	0																																													25												
WM080112	211417_fnca	2	1	1	1934230237	1	75.031	75.030	2.0.10.147	2.0.10.242	2.0.10.242	1.0.0.439	7	234	2	3	Verdana	1	80	0	0	0	WM Stimuli\	0.8	1098.125	1	809.8	1	825.1	1	605.4	1	1009.4	1	782.2	0.9	957.555555555556	0.9	626.777777777778	13	318882	3	318870	27	40	318909	-999999	318885	0	29	TrialsPROC	FC_015_M8.png	2	2	26	SessionSelectionList														nonlure	3	Face	2-Back	22	80	21	0	0	100	3	39	109419	3	14	72	107380	-1	108696	1	1316	3	3	2039	53	109433	-54	0																26												
WM080112	211417_fnca	2	1	1	1934230237	1	75.031	75.030	2.0.10.147	2.0.10.242	2.0.10.242	1.0.0.439	7	234	2	3	Verdana	1	80	0	0	0	WM Stimuli\	0.8	1098.125	1	809.8	1	825.1	1	605.4	1	1009.4	1	782.2	0.9	957.555555555556	0.9	626.777777777778	13	318882	3	318870	27	40	318909	-999999	318885	0	29	TrialsPROC	FC_018_F9.png	2	2	27	SessionSelectionList														nonlure	3	Face	2-Back	23	80	22	0	0	100	4	40	111992	2	13	72	109952	-1	110713	1	761	3	3	2040	53	112005	-54	0																27												
WM080112	211417_fnca	2	1	1	1934230237	1	75.031	75.030	2.0.10.147	2.0.10.242	2.0.10.242	1.0.0.439	7	234	2	3	Verdana	1	80	0	0	0	WM Stimuli\	0.8	1098.125	1	809.8	1	825.1	1	605.4	1	1009.4	1	782.2	0.9	957.555555555556	0.9	626.777777777778	13	318882	3	318870	27	40	318909	-999999	318885	0	29	TrialsPROC	FC_018_F9.png	2	2	28	SessionSelectionList														lure	3	Face	2-Back	24	80	23	0	0	100	5	39	114564	2	14	73	112525	-1	113317	1	792	3	3	2039	53	114578	-54	0																28												
WM080112	211417_fnca	2	1	1	1934230237	1	75.031	75.030	2.0.10.147	2.0.10.242	2.0.10.242	1.0.0.439	7	234	2	3	Verdana	1	80	0	0	0	WM Stimuli\	0.8	1098.125	1	809.8	1	825.1	1	605.4	1	1009.4	1	782.2	0.9	957.555555555556	0.9	626.777777777778	13	318882	3	318870	27	40	318909	-999999	318885	0	29	TrialsPROC	FC_017_M9.png	2	2	29	SessionSelectionList														nonlure	3	Face	2-Back	25	80	24	0	0	100	6	39	117136	3	14	72	115097	-1	116048	1	951	3	3	2039	53	117150	-54	0																29												
WM080112	211417_fnca	2	1	1	1934230237	1	75.031	75.030	2.0.10.147	2.0.10.242	2.0.10.242	1.0.0.439	7	234	2	3	Verdana	1	80	0	0	0	WM Stimuli\	0.8	1098.125	1	809.8	1	825.1	1	605.4	1	1009.4	1	782.2	0.9	957.555555555556	0.9	626.777777777778	13	318882	3	318870	27	40	318909	-999999	318885	0	29	TrialsPROC	FC_017_M9.png	2	2	30	SessionSelectionList														lure	3	Face	2-Back	26	80	25	0	0	100	7	40	119709	2	13	72	117669	-1	118431	1	762	3	3	2040	53	119722	-54	0																30												
WM080112	211417_fnca	2	1	1	1934230237	1	75.031	75.030	2.0.10.147	2.0.10.242	2.0.10.242	1.0.0.439	7	234	2	3	Verdana	1	80	0	0	0	WM Stimuli\	0.8	1098.125	1	809.8	1	825.1	1	605.4	1	1009.4	1	782.2	0.9	957.555555555556	0.9	626.777777777778	13	318882	3	318870	27	40	318909	-999999	318885	0	29	TrialsPROC	FC_016_F8.png	2	2	31	SessionSelectionList														nonlure	3	Face	2-Back	27	80	26	0	0	100	8	39	122281	1	14	73	120242	-1	121107	1	865	3	3	2039	53	122295	-54	0																31												
WM080112	211417_fnca	2	1	1	1934230237	1	75.031	75.030	2.0.10.147	2.0.10.242	2.0.10.242	1.0.0.439	7	234	2	3	Verdana	1	80	0	0	0	WM Stimuli\	0.8	1098.125	1	809.8	1	825.1	1	605.4	1	1009.4	1	782.2	0.9	957.555555555556	0.9	626.777777777778	13	318882	3	318870	27	40	318909	-999999	318885	0	29	TrialsPROC	FC_013_M7.png	2	2	32	SessionSelectionList														nonlure	3	Face	2-Back	28	80	27	0	0	100	9	39	124853	2	14	72	122814	-1	123599	1	785	3	3	2039	53	124867	-54	0																32												
WM080112	211417_fnca	2	1	1	1934230237	1	75.031	75.030	2.0.10.147	2.0.10.242	2.0.10.242	1.0.0.439	7	234	2	3	Verdana	1	80	0	0	0	WM Stimuli\	0.8	1098.125	1	809.8	1	825.1	1	605.4	1	1009.4	1	782.2	0.9	957.555555555556	0.9	626.777777777778	13	318882	3	318870	27	40	318909	-999999	318885	0	29	TrialsPROC	FC_014_F7.png	2	2	33	SessionSelectionList														nonlure	3	Face	2-Back	29	80	28	0	0	100	10	39	127425	3	14	72	125386	-1	126022	1	636	3	3	2039	53	127439	-54	0																33												
WM080112	211417_fnca	2	1	1	1934230237	1	75.031	75.030	2.0.10.147	2.0.10.242	2.0.10.242	1.0.0.439	7	234	2	3	Verdana	1	80	0	0	0	WM Stimuli\	0.8	1098.125	1	809.8	1	825.1	1	605.4	1	1009.4	1	782.2	0.9	957.555555555556	0.9	626.777777777778	13	318882	3	318870	27	40	318909	-999999	318885	0	29	TrialsPROC	FC_013_M7.png	2	2	34	SessionSelectionList														target	2	Face	2-Back	30	80	29	0	0	100	1	39	129998	2	13	73	127959	-1	128641	1	682	2	2	2039	52	130011	-53	0																34												
WM080112	211417_fnca	2	1	1	1934230237	1	75.031	75.030	2.0.10.147	2.0.10.242	2.0.10.242	1.0.0.439	7	234	2	3	Verdana	1	80	0	0	0	WM Stimuli\	0.8	1098.125	1	809.8	1	825.1	1	605.4	1	1009.4	1	782.2	0.9	957.555555555556	0.9	626.777777777778	13	318882	3	318870	27	40	318909	-999999	318885	0	29	TrialsPROC	FC_014_F7.png	2	2	35	SessionSelectionList														target	2	Face	2-Back	31	80	30	0	0	100	2	39	132570	1	14	72	130531	-1	131232	1	701	2	2	2039	53	132584	-54	0																35												
WM080112	211417_fnca	2	1	1	1934230237	1	75.031	75.030	2.0.10.147	2.0.10.242	2.0.10.242	1.0.0.439	7	234	2	3	Verdana	1	80	0	0	0	WM Stimuli\	0.8	1098.125	1	809.8	1	825.1	1	605.4	1	1009.4	1	782.2	0.9	957.555555555556	0.9	626.777777777778	13	318882	3	318870	27	40	318909	-999999	318885	0	30	Cue0BackPROC	TO_019_TOOL19_BA.png	2	2	36	SessionSelectionList																																										19	133050	-20	0												36												
WM080112	211417_fnca	2	1	1	1934230237	1	75.031	75.030	2.0.10.147	2.0.10.242	2.0.10.242	1.0.0.439	7	234	2	3	Verdana	1	80	0	0	0	WM Stimuli\	0.8	1098.125	1	809.8	1	825.1	1	605.4	1	1009.4	1	782.2	0.9	957.555555555556	0.9	626.777777777778	13	318882	3	318870	27	40	318909	-999999	318885	0	31	TrialsPROC	TO_019_TOOL19_BA.png	2	2	37	SessionSelectionList														target	2	Tools	0-Back	32	80	31	0	0	91	1	39	137621	2	14	51	135582	-1	136729	0	1147	3	2	2039	53	137635	-54	0																37												
WM080112	211417_fnca	2	1	1	1934230237	1	75.031	75.030	2.0.10.147	2.0.10.242	2.0.10.242	1.0.0.439	7	234	2	3	Verdana	1	80	0	0	0	WM Stimuli\	0.8	1098.125	1	809.8	1	825.1	1	605.4	1	1009.4	1	782.2	0.9	957.555555555556	0.9	626.777777777778	13	318882	3	318870	27	40	318909	-999999	318885	0	31	TrialsPROC	TO_024_TOOL24_BA.png	2	2	38	SessionSelectionList														nonlure	3	Tools	0-Back	33	80	32	0	0	92	2	39	140180	2	14	59	138141	-1	138972	1	831	3	3	2039	53	140194	-54	0																38												
WM080112	211417_fnca	2	1	1	1934230237	1	75.031	75.030	2.0.10.147	2.0.10.242	2.0.10.242	1.0.0.439	7	234	2	3	Verdana	1	80	0	0	0	WM Stimuli\	0.8	1098.125	1	809.8	1	825.1	1	605.4	1	1009.4	1	782.2	0.9	957.555555555556	0.9	626.777777777778	13	318882	3	318870	27	40	318909	-999999	318885	0	31	TrialsPROC	TO_019_TOOL19_BA.png	2	2	39	SessionSelectionList														target	2	Tools	0-Back	34	80	33	0	0	92	1	39	142739	2	14	59	140700	-1	141310	1	610	2	2	2039	53	142753	-54	0																39												
WM080112	211417_fnca	2	1	1	1934230237	1	75.031	75.030	2.0.10.147	2.0.10.242	2.0.10.242	1.0.0.439	7	234	2	3	Verdana	1	80	0	0	0	WM Stimuli\	0.8	1098.125	1	809.8	1	825.1	1	605.4	1	1009.4	1	782.2	0.9	957.555555555556	0.9	626.777777777778	13	318882	3	318870	27	40	318909	-999999	318885	0	31	TrialsPROC	TO_023_TOOL23_BA.png	2	2	40	SessionSelectionList														nonlure	3	Tools	0-Back	35	80	34	0	0	93	1	39	145298	3	14	59	143259	-1	143849	1	590	3	3	2039	53	145312	-54	0																40												
WM080112	211417_fnca	2	1	1	1934230237	1	75.031	75.030	2.0.10.147	2.0.10.242	2.0.10.242	1.0.0.439	7	234	2	3	Verdana	1	80	0	0	0	WM Stimuli\	0.8	1098.125	1	809.8	1	825.1	1	605.4	1	1009.4	1	782.2	0.9	957.555555555556	0.9	626.777777777778	13	318882	3	318870	27	40	318909	-999999	318885	0	31	TrialsPROC	TO_020_TOOL20_BA.png	2	2	41	SessionSelectionList														nonlure	3	Tools	0-Back	36	80	35	0	0	93	2	39	147857	3	14	59	145818	-1	146395	1	577	3	3	2039	53	147871	-54	0																41												
WM080112	211417_fnca	2	1	1	1934230237	1	75.031	75.030	2.0.10.147	2.0.10.242	2.0.10.242	1.0.0.439	7	234	2	3	Verdana	1	80	0	0	0	WM Stimuli\	0.8	1098.125	1	809.8	1	825.1	1	605.4	1	1009.4	1	782.2	0.9	957.555555555556	0.9	626.777777777778	13	318882	3	318870	27	40	318909	-999999	318885	0	31	TrialsPROC	TO_020_TOOL20_BA.png	2	2	42	SessionSelectionList														lure	3	Tools	0-Back	37	80	36	0	0	94	3	39	150416	2	14	59	148377	-1	148919	1	542	3	3	2039	53	150430	-54	0																42												
WM080112	211417_fnca	2	1	1	1934230237	1	75.031	75.030	2.0.10.147	2.0.10.242	2.0.10.242	1.0.0.439	7	234	2	3	Verdana	1	80	0	0	0	WM Stimuli\	0.8	1098.125	1	809.8	1	825.1	1	605.4	1	1009.4	1	782.2	0.9	957.555555555556	0.9	626.777777777778	13	318882	3	318870	27	40	318909	-999999	318885	0	31	TrialsPROC	TO_022_TOOL22_BA.png	2	2	43	SessionSelectionList														nonlure	3	Tools	0-Back	38	80	37	0	0	94	4	39	152975	2	14	59	150936	-1	151599	1	663	3	3	2039	53	152989	-54	0																43												
WM080112	211417_fnca	2	1	1	1934230237	1	75.031	75.030	2.0.10.147	2.0.10.242	2.0.10.242	1.0.0.439	7	234	2	3	Verdana	1	80	0	0	0	WM Stimuli\	0.8	1098.125	1	809.8	1	825.1	1	605.4	1	1009.4	1	782.2	0.9	957.555555555556	0.9	626.777777777778	13	318882	3	318870	27	40	318909	-999999	318885	0	31	TrialsPROC	TO_022_TOOL22_BA.png	2	2	44	SessionSelectionList														lure	3	Tools	0-Back	39	80	38	0	0	94	5	39	155534	2	14	59	153495	-1	154033	1	538	3	3	2039	53	155548	-54	0																44												
WM080112	211417_fnca	2	1	1	1934230237	1	75.031	75.030	2.0.10.147	2.0.10.242	2.0.10.242	1.0.0.439	7	234	2	3	Verdana	1	80	0	0	0	WM Stimuli\	0.8	1098.125	1	809.8	1	825.1	1	605.4	1	1009.4	1	782.2	0.9	957.555555555556	0.9	626.777777777778	13	318882	3	318870	27	40	318909	-999999	318885	0	31	TrialsPROC	TO_021_TOOL21_BA.png	2	2	45	SessionSelectionList														nonlure	3	Tools	0-Back	40	80	39	0	0	95	6	39	158093	3	14	59	156054	-1	156785	1	731	3	3	2039	53	158107	-54	0																45												
WM080112	211417_fnca	2	1	1	1934230237	1	75.031	75.030	2.0.10.147	2.0.10.242	2.0.10.242	1.0.0.439	7	234	2	3	Verdana	1	80	0	0	0	WM Stimuli\	0.8	1098.125	1	809.8	1	825.1	1	605.4	1	1009.4	1	782.2	0.9	957.555555555556	0.9	626.777777777778	13	318882	3	318870	27	40	318909	-999999	318885	0	31	TrialsPROC	TO_021_TOOL21_BA.png	2	2	46	SessionSelectionList														lure	3	Tools	0-Back	41	80	40	0	0	95	7	39	160652	3	14	59	158613	-1	159172	1	559	3	3	2039	53	160666	-54	0																46												
WM080112	211417_fnca	2	1	1	1934230237	1	75.031	75.030	2.0.10.147	2.0.10.242	2.0.10.242	1.0.0.439	7	234	2	3	Verdana	1	80	0	0	0	WM Stimuli\	0.8	1098.125	1	809.8	1	825.1	1	605.4	1	1009.4	1	782.2	0.9	957.555555555556	0.9	626.777777777778	13	318882	3	318870	27	40	318909	-999999	318885	0	32	Fix15secPROC	""	2	2	47	SessionSelectionList																																															6	161119	-7	0							47												
WM080112	211417_fnca	2	1	1	1934230237	1	75.031	75.030	2.0.10.147	2.0.10.242	2.0.10.242	1.0.0.439	7	234	2	3	Verdana	1	80	0	0	0	WM Stimuli\	0.8	1098.125	1	809.8	1	825.1	1	605.4	1	1009.4	1	782.2	0.9	957.555555555556	0.9	626.777777777778	13	318882	3	318870	27	40	318909	-999999	318885	0	33	Cue2BackPROC	""	2	2	48	SessionSelectionList									13	176126	-14	0																																													48												
WM080112	211417_fnca	2	1	1	1934230237	1	75.031	75.030	2.0.10.147	2.0.10.242	2.0.10.242	1.0.0.439	7	234	2	3	Verdana	1	80	0	0	0	WM Stimuli\	0.8	1098.125	1	809.8	1	825.1	1	605.4	1	1009.4	1	782.2	0.9	957.555555555556	0.9	626.777777777778	13	318882	3	318870	27	40	318909	-999999	318885	0	34	TrialsPROC	BP_020_H17-T_BA.png	2	2	49	SessionSelectionList														nonlure	3	Body	2-Back	42	80	41	0	0	95	8	39	180711	1	14	59	178672	-1	179357	1	685	3	3	2039	53	180725	-54	0																49												
WM080112	211417_fnca	2	1	1	1934230237	1	75.031	75.030	2.0.10.147	2.0.10.242	2.0.10.242	1.0.0.439	7	234	2	3	Verdana	1	80	0	0	0	WM Stimuli\	0.8	1098.125	1	809.8	1	825.1	1	605.4	1	1009.4	1	782.2	0.9	957.555555555556	0.9	626.777777777778	13	318882	3	318870	27	40	318909	-999999	318885	0	34	TrialsPROC	BP_019_H14-T_BA.png	2	2	50	SessionSelectionList														nonlure	3	Body	2-Back	43	80	42	0	0	95	9	39	183270	2	14	59	181231	-1	182315	1	1084	3	3	2039	53	183284	-54	0																50												
WM080112	211417_fnca	2	1	1	1934230237	1	75.031	75.030	2.0.10.147	2.0.10.242	2.0.10.242	1.0.0.439	7	234	2	3	Verdana	1	80	0	0	0	WM Stimuli\	0.8	1098.125	1	809.8	1	825.1	1	605.4	1	1009.4	1	782.2	0.9	957.555555555556	0.9	626.777777777778	13	318882	3	318870	27	40	318909	-999999	318885	0	34	TrialsPROC	BP_020_H17-T_BA.png	2	2	51	SessionSelectionList														target	2	Body	2-Back	44	80	43	0	0	95	1	39	185829	2	14	59	183790	-1	185368	1	1578	2	2	2039	53	185843	-54	0																51												
WM080112	211417_fnca	2	1	1	1934230237	1	75.031	75.030	2.0.10.147	2.0.10.242	2.0.10.242	1.0.0.439	7	234	2	3	Verdana	1	80	0	0	0	WM Stimuli\	0.8	1098.125	1	809.8	1	825.1	1	605.4	1	1009.4	1	782.2	0.9	957.555555555556	0.9	626.777777777778	13	318882	3	318870	27	40	318909	-999999	318885	0	34	TrialsPROC	BP_019_H14-T_BA.png	2	2	52	SessionSelectionList														target	2	Body	2-Back	45	80	44	0	0	95	2	39	188388	1	13	59	186349	-1	187326	1	977	2	2	2039	52	188401	-53	0																52												
WM080112	211417_fnca	2	1	1	1934230237	1	75.031	75.030	2.0.10.147	2.0.10.242	2.0.10.242	1.0.0.439	7	234	2	3	Verdana	1	80	0	0	0	WM Stimuli\	0.8	1098.125	1	809.8	1	825.1	1	605.4	1	1009.4	1	782.2	0.9	957.555555555556	0.9	626.777777777778	13	318882	3	318870	27	40	318909	-999999	318885	0	34	TrialsPROC	BP_024_H3-T_BA.png	2	2	53	SessionSelectionList														nonlure	3	Body	2-Back	46	80	45	0	0	95	1	39	190947	1	13	59	188908	-1	190350	1	1442	3	3	2039	52	190960	-53	0																53												
WM080112	211417_fnca	2	1	1	1934230237	1	75.031	75.030	2.0.10.147	2.0.10.242	2.0.10.242	1.0.0.439	7	234	2	3	Verdana	1	80	0	0	0	WM Stimuli\	0.8	1098.125	1	809.8	1	825.1	1	605.4	1	1009.4	1	782.2	0.9	957.555555555556	0.9	626.777777777778	13	318882	3	318870	27	40	318909	-999999	318885	0	34	TrialsPROC	BP_024_H3-T_BA.png	2	2	54	SessionSelectionList														lure	3	Body	2-Back	47	80	46	0	0	95	2	39	193506	2	13	59	191467	-1	192583	1	1116	3	3	2039	52	193519	-53	0																54												
WM080112	211417_fnca	2	1	1	1934230237	1	75.031	75.030	2.0.10.147	2.0.10.242	2.0.10.242	1.0.0.439	7	234	2	3	Verdana	1	80	0	0	0	WM Stimuli\	0.8	1098.125	1	809.8	1	825.1	1	605.4	1	1009.4	1	782.2	0.9	957.555555555556	0.9	626.777777777778	13	318882	3	318870	27	40	318909	-999999	318885	0	34	TrialsPROC	BP_025_H5-T_BA.png	2	2	55	SessionSelectionList														nonlure	3	Body	2-Back	48	80	47	0	0	95	1	39	196065	1	13	59	194026	-1	195036	0	1010	2	3	2039	52	196078	-53	0																55												
WM080112	211417_fnca	2	1	1	1934230237	1	75.031	75.030	2.0.10.147	2.0.10.242	2.0.10.242	1.0.0.439	7	234	2	3	Verdana	1	80	0	0	0	WM Stimuli\	0.8	1098.125	1	809.8	1	825.1	1	605.4	1	1009.4	1	782.2	0.9	957.555555555556	0.9	626.777777777778	13	318882	3	318870	27	40	318909	-999999	318885	0	34	TrialsPROC	BP_023_H25-T_BA.png	2	2	56	SessionSelectionList														nonlure	3	Body	2-Back	49	80	48	0	0	95	1	39	198624	1	13	59	196585	-1	197640	1	1055	3	3	2039	52	198637	-53	0																56												
WM080112	211417_fnca	2	1	1	1934230237	1	75.031	75.030	2.0.10.147	2.0.10.242	2.0.10.242	1.0.0.439	7	234	2	3	Verdana	1	80	0	0	0	WM Stimuli\	0.8	1098.125	1	809.8	1	825.1	1	605.4	1	1009.4	1	782.2	0.9	957.555555555556	0.9	626.777777777778	13	318882	3	318870	27	40	318909	-999999	318885	0	34	TrialsPROC	BP_022_H24-T_BA.png	2	2	57	SessionSelectionList														nonlure	3	Body	2-Back	50	80	49	0	0	95	2	39	201183	1	13	59	199144	-1	199992	1	848	3	3	2039	52	201196	-53	0																57												
WM080112	211417_fnca	2	1	1	1934230237	1	75.031	75.030	2.0.10.147	2.0.10.242	2.0.10.242	1.0.0.439	7	234	2	3	Verdana	1	80	0	0	0	WM Stimuli\	0.8	1098.125	1	809.8	1	825.1	1	605.4	1	1009.4	1	782.2	0.9	957.555555555556	0.9	626.777777777778	13	318882	3	318870	27	40	318909	-999999	318885	0	34	TrialsPROC	BP_022_H24-T_BA.png	2	2	58	SessionSelectionList														lure	3	Body	2-Back	51	80	50	0	0	95	1	39	203755	1	14	72	201716	-1	203013	0	1297	2	3	2039	53	203769	-54	0																58												
WM080112	211417_fnca	2	1	1	1934230237	1	75.031	75.030	2.0.10.147	2.0.10.242	2.0.10.242	1.0.0.439	7	234	2	3	Verdana	1	80	0	0	0	WM Stimuli\	0.8	1098.125	1	809.8	1	825.1	1	605.4	1	1009.4	1	782.2	0.9	957.555555555556	0.9	626.777777777778	13	318882	3	318870	27	40	318909	-999999	318885	0	35	Cue2BackPROC	""	2	2	59	SessionSelectionList									5	204221	-6	0																																													59												
WM080112	211417_fnca	2	1	1	1934230237	1	75.031	75.030	2.0.10.147	2.0.10.242	2.0.10.242	1.0.0.439	7	234	2	3	Verdana	1	80	0	0	0	WM Stimuli\	0.8	1098.125	1	809.8	1	825.1	1	605.4	1	1009.4	1	782.2	0.9	957.555555555556	0.9	626.777777777778	13	318882	3	318870	27	40	318909	-999999	318885	0	36	TrialsPROC	PL_019_SCENE_05.png	2	2	60	SessionSelectionList														nonlure	3	Place	2-Back	52	80	51	0	0	95	1	40	208820	1	13	64	206780	-1	207935	1	1155	3	3	2040	53	208833	-54	0																60												
WM080112	211417_fnca	2	1	1	1934230237	1	75.031	75.030	2.0.10.147	2.0.10.242	2.0.10.242	1.0.0.439	7	234	2	3	Verdana	1	80	0	0	0	WM Stimuli\	0.8	1098.125	1	809.8	1	825.1	1	605.4	1	1009.4	1	782.2	0.9	957.555555555556	0.9	626.777777777778	13	318882	3	318870	27	40	318909	-999999	318885	0	36	TrialsPROC	PL_017_SCENE_03.png	2	2	61	SessionSelectionList														nonlure	3	Place	2-Back	53	80	52	0	0	95	2	39	211392	1	14	73	209353	-1	210362	1	1009	3	3	2039	53	211406	-54	0																61												
WM080112	211417_fnca	2	1	1	1934230237	1	75.031	75.030	2.0.10.147	2.0.10.242	2.0.10.242	1.0.0.439	7	234	2	3	Verdana	1	80	0	0	0	WM Stimuli\	0.8	1098.125	1	809.8	1	825.1	1	605.4	1	1009.4	1	782.2	0.9	957.555555555556	0.9	626.777777777778	13	318882	3	318870	27	40	318909	-999999	318885	0	36	TrialsPROC	PL_017_SCENE_03.png	2	2	62	SessionSelectionList														lure	3	Place	2-Back	54	80	53	0	0	95	3	39	213964	2	14	72	211925	-1	213303	1	1378	3	3	2039	53	213978	-54	0																62												
WM080112	211417_fnca	2	1	1	1934230237	1	75.031	75.030	2.0.10.147	2.0.10.242	2.0.10.242	1.0.0.439	7	234	2	3	Verdana	1	80	0	0	0	WM Stimuli\	0.8	1098.125	1	809.8	1	825.1	1	605.4	1	1009.4	1	782.2	0.9	957.555555555556	0.9	626.777777777778	13	318882	3	318870	27	40	318909	-999999	318885	0	36	TrialsPROC	PL_016_SCENE_02.png	2	2	63	SessionSelectionList														nonlure	3	Place	2-Back	55	80	54	0	0	95	4	40	216537	1	13	72	214497	-1	215309	1	812	3	3	2040	53	216550	-54	0																63												
WM080112	211417_fnca	2	1	1	1934230237	1	75.031	75.030	2.0.10.147	2.0.10.242	2.0.10.242	1.0.0.439	7	234	2	3	Verdana	1	80	0	0	0	WM Stimuli\	0.8	1098.125	1	809.8	1	825.1	1	605.4	1	1009.4	1	782.2	0.9	957.555555555556	0.9	626.777777777778	13	318882	3	318870	27	40	318909	-999999	318885	0	36	TrialsPROC	PL_015_SCENE_01.png	2	2	64	SessionSelectionList														nonlure	3	Place	2-Back	56	80	55	0	0	95	5	39	219109	2	14	73	217070	-1	218205	1	1135	3	3	2039	53	219123	-54	0																64												
WM080112	211417_fnca	2	1	1	1934230237	1	75.031	75.030	2.0.10.147	2.0.10.242	2.0.10.242	1.0.0.439	7	234	2	3	Verdana	1	80	0	0	0	WM Stimuli\	0.8	1098.125	1	809.8	1	825.1	1	605.4	1	1009.4	1	782.2	0.9	957.555555555556	0.9	626.777777777778	13	318882	3	318870	27	40	318909	-999999	318885	0	36	TrialsPROC	PL_016_SCENE_02.png	2	2	65	SessionSelectionList														target	2	Place	2-Back	57	80	56	0	0	95	1	39	221681	3	14	72	219642	-1	220724	1	1082	2	2	2039	53	221695	-54	0																65												
WM080112	211417_fnca	2	1	1	1934230237	1	75.031	75.030	2.0.10.147	2.0.10.242	2.0.10.242	1.0.0.439	7	234	2	3	Verdana	1	80	0	0	0	WM Stimuli\	0.8	1098.125	1	809.8	1	825.1	1	605.4	1	1009.4	1	782.2	0.9	957.555555555556	0.9	626.777777777778	13	318882	3	318870	27	40	318909	-999999	318885	0	36	TrialsPROC	PL_015_SCENE_01.png	2	2	66	SessionSelectionList														target	2	Place	2-Back	58	80	57	0	0	95	2	39	224253	3	14	72	222214	-1	223149	1	935	2	2	2039	53	224267	-54	0																66												
WM080112	211417_fnca	2	1	1	1934230237	1	75.031	75.030	2.0.10.147	2.0.10.242	2.0.10.242	1.0.0.439	7	234	2	3	Verdana	1	80	0	0	0	WM Stimuli\	0.8	1098.125	1	809.8	1	825.1	1	605.4	1	1009.4	1	782.2	0.9	957.555555555556	0.9	626.777777777778	13	318882	3	318870	27	40	318909	-999999	318885	0	36	TrialsPROC	PL_020_SCENE_06.png	2	2	67	SessionSelectionList														nonlure	3	Place	2-Back	59	80	58	0	0	95	1	39	226826	1	13	73	224787	-1	225590	1	803	3	3	2039	52	226839	-53	0																67												
WM080112	211417_fnca	2	1	1	1934230237	1	75.031	75.030	2.0.10.147	2.0.10.242	2.0.10.242	1.0.0.439	7	234	2	3	Verdana	1	80	0	0	0	WM Stimuli\	0.8	1098.125	1	809.8	1	825.1	1	605.4	1	1009.4	1	782.2	0.9	957.555555555556	0.9	626.777777777778	13	318882	3	318870	27	40	318909	-999999	318885	0	36	TrialsPROC	PL_020_SCENE_06.png	2	2	68	SessionSelectionList														lure	3	Place	2-Back	60	80	59	0	0	95	2	52	229411	2	14	72	227359	-1	228268	1	909	3	3	2052	66	229425	-67	0																68												
WM080112	211417_fnca	2	1	1	1934230237	1	75.031	75.030	2.0.10.147	2.0.10.242	2.0.10.242	1.0.0.439	7	234	2	3	Verdana	1	80	0	0	0	WM Stimuli\	0.8	1098.125	1	809.8	1	825.1	1	605.4	1	1009.4	1	782.2	0.9	957.555555555556	0.9	626.777777777778	13	318882	3	318870	27	40	318909	-999999	318885	0	36	TrialsPROC	PL_018_SCENE_04.png	2	2	69	SessionSelectionList														nonlure	3	Place	2-Back	61	80	60	0	0	95	3	39	231970	3	14	72	229931	-1	230807	1	876	3	3	2039	53	231984	-54	0																69												
WM080112	211417_fnca	2	1	1	1934230237	1	75.031	75.030	2.0.10.147	2.0.10.242	2.0.10.242	1.0.0.439	7	234	2	3	Verdana	1	80	0	0	0	WM Stimuli\	0.8	1098.125	1	809.8	1	825.1	1	605.4	1	1009.4	1	782.2	0.9	957.555555555556	0.9	626.777777777778	13	318882	3	318870	27	40	318909	-999999	318885	0	37	Fix15secPROC	""	2	2	70	SessionSelectionList																																															6	232437	-7	0							70												
WM080112	211417_fnca	2	1	1	1934230237	1	75.031	75.030	2.0.10.147	2.0.10.242	2.0.10.242	1.0.0.439	7	234	2	3	Verdana	1	80	0	0	0	WM Stimuli\	0.8	1098.125	1	809.8	1	825.1	1	605.4	1	1009.4	1	782.2	0.9	957.555555555556	0.9	626.777777777778	13	318882	3	318870	27	40	318909	-999999	318885	0	38	Cue0BackPROC	FC_020_F10.png	2	2	71	SessionSelectionList																																										27	247458	-28	0												71												
WM080112	211417_fnca	2	1	1	1934230237	1	75.031	75.030	2.0.10.147	2.0.10.242	2.0.10.242	1.0.0.439	7	234	2	3	Verdana	1	80	0	0	0	WM Stimuli\	0.8	1098.125	1	809.8	1	825.1	1	605.4	1	1009.4	1	782.2	0.9	957.555555555556	0.9	626.777777777778	13	318882	3	318870	27	40	318909	-999999	318885	0	39	TrialsPROC	FC_024_F12.png	2	2	72	SessionSelectionList														nonlure	3	Face	0-Back	62	80	61	0	0	95	4	39	252042	3	14	72	250003	-1	250645	1	642	3	3	2039	53	252056	-54	0																72												
WM080112	211417_fnca	2	1	1	1934230237	1	75.031	75.030	2.0.10.147	2.0.10.242	2.0.10.242	1.0.0.439	7	234	2	3	Verdana	1	80	0	0	0	WM Stimuli\	0.8	1098.125	1	809.8	1	825.1	1	605.4	1	1009.4	1	782.2	0.9	957.555555555556	0.9	626.777777777778	13	318882	3	318870	27	40	318909	-999999	318885	0	39	TrialsPROC	FC_023_M12.png	2	2	73	SessionSelectionList														nonlure	3	Face	0-Back	63	80	62	0	0	95	5	40	254615	1	13	72	252575	-1	253204	1	629	3	3	2040	53	254628	-54	0																73												
WM080112	211417_fnca	2	1	1	1934230237	1	75.031	75.030	2.0.10.147	2.0.10.242	2.0.10.242	1.0.0.439	7	234	2	3	Verdana	1	80	0	0	0	WM Stimuli\	0.8	1098.125	1	809.8	1	825.1	1	605.4	1	1009.4	1	782.2	0.9	957.555555555556	0.9	626.777777777778	13	318882	3	318870	27	40	318909	-999999	318885	0	39	TrialsPROC	FC_020_F10.png	2	2	74	SessionSelectionList														target	2	Face	0-Back	64	80	63	0	0	96	1	39	257187	1	14	73	255148	-1	255749	1	601	2	2	2039	53	257201	-54	0																74												
WM080112	211417_fnca	2	1	1	1934230237	1	75.031	75.030	2.0.10.147	2.0.10.242	2.0.10.242	1.0.0.439	7	234	2	3	Verdana	1	80	0	0	0	WM Stimuli\	0.8	1098.125	1	809.8	1	825.1	1	605.4	1	1009.4	1	782.2	0.9	957.555555555556	0.9	626.777777777778	13	318882	3	318870	27	40	318909	-999999	318885	0	39	TrialsPROC	FC_024_F12.png	2	2	75	SessionSelectionList														lure	3	Face	0-Back	65	80	64	0	0	96	1	39	259759	3	14	72	257720	-1	258314	1	594	3	3	2039	53	259773	-54	0																75												
WM080112	211417_fnca	2	1	1	1934230237	1	75.031	75.030	2.0.10.147	2.0.10.242	2.0.10.242	1.0.0.439	7	234	2	3	Verdana	1	80	0	0	0	WM Stimuli\	0.8	1098.125	1	809.8	1	825.1	1	605.4	1	1009.4	1	782.2	0.9	957.555555555556	0.9	626.777777777778	13	318882	3	318870	27	40	318909	-999999	318885	0	39	TrialsPROC	FC_020_F10.png	2	2	76	SessionSelectionList														target	2	Face	0-Back	66	80	65	0	0	96	1	40	262332	2	13	72	260292	-1	260909	1	617	2	2	2040	53	262345	-54	0																76												
WM080112	211417_fnca	2	1	1	1934230237	1	75.031	75.030	2.0.10.147	2.0.10.242	2.0.10.242	1.0.0.439	7	234	2	3	Verdana	1	80	0	0	0	WM Stimuli\	0.8	1098.125	1	809.8	1	825.1	1	605.4	1	1009.4	1	782.2	0.9	957.555555555556	0.9	626.777777777778	13	318882	3	318870	27	40	318909	-999999	318885	0	39	TrialsPROC	FC_022_F11.png	2	2	77	SessionSelectionList														nonlure	3	Face	0-Back	67	80	66	0	0	96	1	39	264904	2	14	73	262865	-1	263390	1	525	3	3	2039	53	264918	-54	0																77												
WM080112	211417_fnca	2	1	1	1934230237	1	75.031	75.030	2.0.10.147	2.0.10.242	2.0.10.242	1.0.0.439	7	234	2	3	Verdana	1	80	0	0	0	WM Stimuli\	0.8	1098.125	1	809.8	1	825.1	1	605.4	1	1009.4	1	782.2	0.9	957.555555555556	0.9	626.777777777778	13	318882	3	318870	27	40	318909	-999999	318885	0	39	TrialsPROC	FC_023_M12.png	2	2	78	SessionSelectionList														lure	3	Face	0-Back	68	80	67	0	0	96	2	39	267476	2	14	72	265437	-1	266035	1	598	3	3	2039	53	267490	-54	0																78												
WM080112	211417_fnca	2	1	1	1934230237	1	75.031	75.030	2.0.10.147	2.0.10.242	2.0.10.242	1.0.0.439	7	234	2	3	Verdana	1	80	0	0	0	WM Stimuli\	0.8	1098.125	1	809.8	1	825.1	1	605.4	1	1009.4	1	782.2	0.9	957.555555555556	0.9	626.777777777778	13	318882	3	318870	27	40	318909	-999999	318885	0	39	TrialsPROC	FC_021_M11.png	2	2	79	SessionSelectionList														nonlure	3	Face	0-Back	69	80	68	0	0	96	3	40	270049	2	13	72	268009	-1	268635	1	626	3	3	2040	53	270062	-54	0																79												
WM080112	211417_fnca	2	1	1	1934230237	1	75.031	75.030	2.0.10.147	2.0.10.242	2.0.10.242	1.0.0.439	7	234	2	3	Verdana	1	80	0	0	0	WM Stimuli\	0.8	1098.125	1	809.8	1	825.1	1	605.4	1	1009.4	1	782.2	0.9	957.555555555556	0.9	626.777777777778	13	318882	3	318870	27	40	318909	-999999	318885	0	39	TrialsPROC	FC_021_M11.png	2	2	80	SessionSelectionList														lure	3	Face	0-Back	70	80	69	0	0	97	4	39	272621	1	13	73	270582	-1	271153	1	571	3	3	2039	52	272634	-53	0																80												
WM080112	211417_fnca	2	1	1	1934230237	1	75.031	75.030	2.0.10.147	2.0.10.242	2.0.10.242	1.0.0.439	7	234	2	3	Verdana	1	80	0	0	0	WM Stimuli\	0.8	1098.125	1	809.8	1	825.1	1	605.4	1	1009.4	1	782.2	0.9	957.555555555556	0.9	626.777777777778	13	318882	3	318870	27	40	318909	-999999	318885	0	39	TrialsPROC	FC_019_M10.png	2	2	81	SessionSelectionList														nonlure	3	Face	0-Back	71	80	70	0	0	97	5	39	275193	1	14	72	273154	-1	273805	1	651	3	3	2039	53	275207	-54	0																81												
WM080112	211417_fnca	2	1	1	1934230237	1	75.031	75.030	2.0.10.147	2.0.10.242	2.0.10.242	1.0.0.439	7	234	2	3	Verdana	1	80	0	0	0	WM Stimuli\	0.8	1098.125	1	809.8	1	825.1	1	605.4	1	1009.4	1	782.2	0.9	957.555555555556	0.9	626.777777777778	13	318882	3	318870	27	40	318909	-999999	318885	0	40	Cue0BackPROC	PL_021_SCENE_07.png	2	2	82	SessionSelectionList																																										19	275673	-20	0												82												
WM080112	211417_fnca	2	1	1	1934230237	1	75.031	75.030	2.0.10.147	2.0.10.242	2.0.10.242	1.0.0.439	7	234	2	3	Verdana	1	80	0	0	0	WM Stimuli\	0.8	1098.125	1	809.8	1	825.1	1	605.4	1	1009.4	1	782.2	0.9	957.555555555556	0.9	626.777777777778	13	318882	3	318870	27	40	318909	-999999	318885	0	41	TrialsPROC	PL_025_SCENE_18.png	2	2	83	SessionSelectionList														nonlure	3	Place	0-Back	72	80	71	0	0	97	6	39	280258	1	13	65	278219	-1	279066	1	847	3	3	2039	52	280271	-53	0																83												
WM080112	211417_fnca	2	1	1	1934230237	1	75.031	75.030	2.0.10.147	2.0.10.242	2.0.10.242	1.0.0.439	7	234	2	3	Verdana	1	80	0	0	0	WM Stimuli\	0.8	1098.125	1	809.8	1	825.1	1	605.4	1	1009.4	1	782.2	0.9	957.555555555556	0.9	626.777777777778	13	318882	3	318870	27	40	318909	-999999	318885	0	41	TrialsPROC	PL_026_SCENE_24.png	2	2	84	SessionSelectionList														nonlure	3	Place	0-Back	73	80	72	0	0	97	7	39	282830	3	14	72	280791	-1	281486	1	695	3	3	2039	53	282844	-54	0																84												
WM080112	211417_fnca	2	1	1	1934230237	1	75.031	75.030	2.0.10.147	2.0.10.242	2.0.10.242	1.0.0.439	7	234	2	3	Verdana	1	80	0	0	0	WM Stimuli\	0.8	1098.125	1	809.8	1	825.1	1	605.4	1	1009.4	1	782.2	0.9	957.555555555556	0.9	626.777777777778	13	318882	3	318870	27	40	318909	-999999	318885	0	41	TrialsPROC	PL_025_SCENE_18.png	2	2	85	SessionSelectionList														lure	3	Place	0-Back	74	80	73	0	0	97	8	39	285402	2	14	72	283363	-1	284687	1	1324	3	3	2039	53	285416	-54	0																85												
WM080112	211417_fnca	2	1	1	1934230237	1	75.031	75.030	2.0.10.147	2.0.10.242	2.0.10.242	1.0.0.439	7	234	2	3	Verdana	1	80	0	0	0	WM Stimuli\	0.8	1098.125	1	809.8	1	825.1	1	605.4	1	1009.4	1	782.2	0.9	957.555555555556	0.9	626.777777777778	13	318882	3	318870	27	40	318909	-999999	318885	0	41	TrialsPROC	PL_022_SCENE_08.png	2	2	86	SessionSelectionList														nonlure	3	Place	0-Back	75	80	74	0	0	97	9	40	287975	1	13	72	285935	-1	286570	1	635	3	3	2040	53	287988	-54	0																86												
WM080112	211417_fnca	2	1	1	1934230237	1	75.031	75.030	2.0.10.147	2.0.10.242	2.0.10.242	1.0.0.439	7	234	2	3	Verdana	1	80	0	0	0	WM Stimuli\	0.8	1098.125	1	809.8	1	825.1	1	605.4	1	1009.4	1	782.2	0.9	957.555555555556	0.9	626.777777777778	13	318882	3	318870	27	40	318909	-999999	318885	0	41	TrialsPROC	PL_026_SCENE_24.png	2	2	87	SessionSelectionList														lure	3	Place	0-Back	76	80	75	0	0	97	10	39	290547	1	14	73	288508	-1	289144	1	636	3	3	2039	53	290561	-54	0																87												
WM080112	211417_fnca	2	1	1	1934230237	1	75.031	75.030	2.0.10.147	2.0.10.242	2.0.10.242	1.0.0.439	7	234	2	3	Verdana	1	80	0	0	0	WM Stimuli\	0.8	1098.125	1	809.8	1	825.1	1	605.4	1	1009.4	1	782.2	0.9	957.555555555556	0.9	626.777777777778	13	318882	3	318870	27	40	318909	-999999	318885	0	41	TrialsPROC	PL_021_SCENE_07.png	2	2	88	SessionSelectionList														target	2	Place	0-Back	77	80	76	0	0	97	1	39	293119	2	14	72	291080	-1	292012	1	932	2	2	2039	53	293133	-54	0																88												
WM080112	211417_fnca	2	1	1	1934230237	1	75.031	75.030	2.0.10.147	2.0.10.242	2.0.10.242	1.0.0.439	7	234	2	3	Verdana	1	80	0	0	0	WM Stimuli\	0.8	1098.125	1	809.8	1	825.1	1	605.4	1	1009.4	1	782.2	0.9	957.555555555556	0.9	626.777777777778	13	318882	3	318870	27	40	318909	-999999	318885	0	41	TrialsPROC	PL_021_SCENE_07.png	2	2	89	SessionSelectionList														target	2	Place	0-Back	78	80	77	0	0	97	2	40	295692	1	13	72	293652	-1	294364	1	712	2	2	2040	53	295705	-54	0																89												
WM080112	211417_fnca	2	1	1	1934230237	1	75.031	75.030	2.0.10.147	2.0.10.242	2.0.10.242	1.0.0.439	7	234	2	3	Verdana	1	80	0	0	0	WM Stimuli\	0.8	1098.125	1	809.8	1	825.1	1	605.4	1	1009.4	1	782.2	0.9	957.555555555556	0.9	626.777777777778	13	318882	3	318870	27	40	318909	-999999	318885	0	41	TrialsPROC	PL_023_SCENE_09.png	2	2	90	SessionSelectionList														nonlure	3	Place	0-Back	79	80	78	0	0	97	1	39	298264	1	14	73	296225	-1	296872	1	647	3	3	2039	53	298278	-54	0																90												
WM080112	211417_fnca	2	1	1	1934230237	1	75.031	75.030	2.0.10.147	2.0.10.242	2.0.10.242	1.0.0.439	7	234	2	3	Verdana	1	80	0	0	0	WM Stimuli\	0.8	1098.125	1	809.8	1	825.1	1	605.4	1	1009.4	1	782.2	0.9	957.555555555556	0.9	626.777777777778	13	318882	3	318870	27	40	318909	-999999	318885	0	41	TrialsPROC	PL_024_SCENE_10.png	2	2	91	SessionSelectionList														nonlure	3	Place	0-Back	80	80	79	0	0	97	2	39	300836	3	14	72	298797	-1	299476	1	679	3	3	2039	53	300850	-54	0																91												
WM080112	211417_fnca	2	1	1	1934230237	1	75.031	75.030	2.0.10.147	2.0.10.242	2.0.10.242	1.0.0.439	7	234	2	3	Verdana	1	80	0	0	0	WM Stimuli\	0.8	1098.125	1	809.8	1	825.1	1	605.4	1	1009.4	1	782.2	0.9	957.555555555556	0.9	626.777777777778	13	318882	3	318870	27	40	318909	-999999	318885	0	41	TrialsPROC	PL_022_SCENE_08.png	2	2	92	SessionSelectionList														lure	3	Place	0-Back	80	80	80	0	0	98	3	39	303408	2	14	72	301369	-1	302084	1	715	3	3	2039	53	303422	-54	0																92												
WM080112	211417_fnca	2	1	1	1934230237	1	75.031	75.030	2.0.10.147	2.0.10.242	2.0.10.242	1.0.0.439	7	234	2	3	Verdana	1	80	0	0	0	WM Stimuli\	0.8	1098.125	1	809.8	1	825.1	1	605.4	1	1009.4	1	782.2	0.9	957.555555555556	0.9	626.777777777778	13	318882	3	318870	27	40	318909	-999999	318885	0	42	Fix15secPROC	""	2	2	93	SessionSelectionList																																															6	303875	-7	0							93												
