ExperimentName	HCPID	RunNumber	Subject	Session	RandomSeed	Group	Laptop.RefreshRate	ScannerD2.RefreshRate	StudioVersion	RuntimeVersion	RuntimeVersionExpected	ExperimentVersion	triggercode	Allowed	Target	Nontarget	FontStyle	RunTrialNumber[Session]	TrialsPerRun[Session]	TotalRespGreater200[Session]	ConsecRTLess200[Session]	ConsecNonResp[Session]	StimuliDir	ACC_2_Back_Body	Avg_RT_For_Correct_Trials_2_Back_Body	ACC_0_Back_Body	Avg_RT_For_Correct_Trials_0_Back_Body	ACC_2_Back_Face	Avg_RT_For_Correct_Trials_2_Back_Face	ACC_0_Back_Face	Avg_RT_For_Correct_Trials_0_Back_Face	ACC_2_Back_Place	Avg_RT_For_Correct_Trials_2_Back_Place	ACC_0_Back_Place	Avg_RT_For_Correct_Trials_0_Back_Place	ACC_2_Back_Tools	Avg_RT_For_Correct_Trials_2_Back_Tools	ACC_0_Back_Tools	Avg_RT_For_Correct_Trials_0_Back_Tools	ExpInstrucFeelFreeToRest.OnsetDelay	ExpInstrucFeelFreeToRest.OnsetTime	ExpInstrucFeelFreeToRest.DurationError	ExpInstrucFeelFreeToRest.StartTime	ExpInstrucFeelFreeToRest.OnsetToOnsetTime	FeelFreeToRest.OnsetDelay	FeelFreeToRest.OnsetTime	FeelFreeToRest.DurationError	FeelFreeToRest.StartTime	FeelFreeToRest.OnsetToOnsetTime	SessionSelectionList	Procedure[Block]	Stimulus[Block]	RunNumberFilterValue	SessionSelectionList.Cycle	SessionSelectionList.Sample	Running[Block]	IntroButtonMap.OnsetDelay	IntroButtonMap.OnsetTime	IntroButtonMap.DurationError	IntroButtonMap.OnsetToOnsetTime	GetReady.OnsetDelay	GetReady.OnsetTime	GetReady.DurationError	GetReady.OnsetToOnsetTime	Cue2Back.OnsetDelay	Cue2Back.OnsetTime	Cue2Back.DurationError	Cue2Back.OnsetToOnsetTime	Run1Block1	TargetType	CorrectResponse	StimType	BlockType	RunTrialNumber[Block]	TrialsPerRun[Block]	TotalRespGreater200[Block]	ConsecRTLess200[Block]	ConsecNonResp[Block]	ControlAcc	ConsecSameResp	ExperimenterWindow.OnsetDelay	ExperimenterWindow.OnsetTime	ExperimenterWindow.DurationError	ExperimenterWindow.OnsetToOnsetTime	Stim.OnsetDelay	Stim.OnsetTime	Stim.DurationError	Stim.RTTime	Stim.ACC	Stim.RT	Stim.RESP	Stim.CRESP	Stim.OnsetToOnsetTime	Fix.OnsetDelay	Fix.OnsetTime	Fix.DurationError	Fix.OnsetToOnsetTime	CueTarget.OnsetDelay	CueTarget.OnsetTime	CueTarget.DurationError	CueTarget.OnsetToOnsetTime	Run1Block2	Fix15sec.OnsetDelay	Fix15sec.OnsetTime	Fix15sec.DurationError	Fix15sec.OnsetToOnsetTime	Run1Block3	Run1Block4	Run1Block5	Run1Block6	Run1Block7	Run1Block8	Block	Procedure[Trial]	Stimulus[Trial]	ReadyList	Running[Trial]	ReadyList.Cycle	ReadyList.Sample	SyncSlide.OnsetDelay	SyncSlide.OnsetTime	SyncSlide.DurationError	SyncSlide.FinishTime	SyncSlide.OnsetToOnsetTime	Trial
WM080112	221319_fnca	2	1	1	828876170	1	75.031	75.030	2.0.10.147	2.0.10.242	2.0.10.242	1.0.0.439	7	234	2	3	Verdana	1	80	0	0	0	WM Stimuli\	0.6	1461.16666666667	0.5	1698.6	0.8	1742.25	0.6	1632.33333333333	0.8	1504.625	0.9	1336	0.8	1455	0.5	1463.2	13	321122	2	321110	27	40	321149	-999999	321125	0	22	TRSyncPROC	""	2	2	1	SessionSelectionList	116	4849	-999999	0	30	13126	-999999	0																																																	1	InitialTR	4	1	ReadyList	1	1	22	27453	-23	29430	0	1
WM080112	221319_fnca	2	1	1	828876170	1	75.031	75.030	2.0.10.147	2.0.10.242	2.0.10.242	1.0.0.439	7	234	2	3	Verdana	1	80	0	0	0	WM Stimuli\	0.6	1461.16666666667	0.5	1698.6	0.8	1742.25	0.6	1632.33333333333	0.8	1504.625	0.9	1336	0.8	1455	0.5	1463.2	13	321122	2	321110	27	40	321149	-999999	321125	0	22	TRSyncPROC	""	2	2	1	SessionSelectionList	116	4849	-999999	0	30	13126	-999999	0																																																	1	InitialTR	3	2	ReadyList	1	2	8	29439	-9	31430	0	2
WM080112	221319_fnca	2	1	1	828876170	1	75.031	75.030	2.0.10.147	2.0.10.242	2.0.10.242	1.0.0.439	7	234	2	3	Verdana	1	80	0	0	0	WM Stimuli\	0.6	1461.16666666667	0.5	1698.6	0.8	1742.25	0.6	1632.33333333333	0.8	1504.625	0.9	1336	0.8	1455	0.5	1463.2	13	321122	2	321110	27	40	321149	-999999	321125	0	22	TRSyncPROC	""	2	2	1	SessionSelectionList	116	4849	-999999	0	30	13126	-999999	0																																																	1	InitialTR	2	3	ReadyList	1	3	7	31438	-8	33430	0	3
WM080112	221319_fnca	2	1	1	828876170	1	75.031	75.030	2.0.10.147	2.0.10.242	2.0.10.242	1.0.0.439	7	234	2	3	Verdana	1	80	0	0	0	WM Stimuli\	0.6	1461.16666666667	0.5	1698.6	0.8	1742.25	0.6	1632.33333333333	0.8	1504.625	0.9	1336	0.8	1455	0.5	1463.2	13	321122	2	321110	27	40	321149	-999999	321125	0	22	TRSyncPROC	""	2	2	1	SessionSelectionList	116	4849	-999999	0	30	13126	-999999	0																																																	1	InitialTR	1	4	ReadyList	1	4	6	33437	-7	35430	0	4
WM080112	221319_fnca	2	1	1	828876170	1	75.031	75.030	2.0.10.147	2.0.10.242	2.0.10.242	1.0.0.439	7	234	2	3	Verdana	1	80	0	0	0	WM Stimuli\	0.6	1461.16666666667	0.5	1698.6	0.8	1742.25	0.6	1632.33333333333	0.8	1504.625	0.9	1336	0.8	1455	0.5	1463.2	13	321122	2	321110	27	40	321149	-999999	321125	0	23	Cue2BackPROC	""	2	2	2	SessionSelectionList									6	35437	-7	0																																													2												
WM080112	221319_fnca	2	1	1	828876170	1	75.031	75.030	2.0.10.147	2.0.10.242	2.0.10.242	1.0.0.439	7	234	2	3	Verdana	1	80	0	0	0	WM Stimuli\	0.6	1461.16666666667	0.5	1698.6	0.8	1742.25	0.6	1632.33333333333	0.8	1504.625	0.9	1336	0.8	1455	0.5	1463.2	13	321122	2	321110	27	40	321149	-999999	321125	0	24	TrialsPROC	TO_014_TOOL14_BA.png	2	2	3	SessionSelectionList														nonlure	3	Tools	2-Back	2	80	1	0	0	0	1	53	40062	3	13	78	38009	-1	39536	1	1527	3	3	2053	66	40075	-67	0																3												
WM080112	221319_fnca	2	1	1	828876170	1	75.031	75.030	2.0.10.147	2.0.10.242	2.0.10.242	1.0.0.439	7	234	2	3	Verdana	1	80	0	0	0	WM Stimuli\	0.6	1461.16666666667	0.5	1698.6	0.8	1742.25	0.6	1632.33333333333	0.8	1504.625	0.9	1336	0.8	1455	0.5	1463.2	13	321122	2	321110	27	40	321149	-999999	321125	0	24	TrialsPROC	TO_013_TOOL13_BA.png	2	2	4	SessionSelectionList														nonlure	3	Tools	2-Back	3	80	2	0	0	0	2	39	42607	2	14	59	40568	-1	42073	1	1505	3	3	2039	53	42621	-54	0																4												
WM080112	221319_fnca	2	1	1	828876170	1	75.031	75.030	2.0.10.147	2.0.10.242	2.0.10.242	1.0.0.439	7	234	2	3	Verdana	1	80	0	0	0	WM Stimuli\	0.6	1461.16666666667	0.5	1698.6	0.8	1742.25	0.6	1632.33333333333	0.8	1504.625	0.9	1336	0.8	1455	0.5	1463.2	13	321122	2	321110	27	40	321149	-999999	321125	0	24	TrialsPROC	TO_016_TOOL16_BA.png	2	2	5	SessionSelectionList														nonlure	3	Tools	2-Back	4	80	3	0	0	0	3	39	45193	1	14	86	43154	-1	44732	1	1578	3	3	2039	53	45207	-54	0																5												
WM080112	221319_fnca	2	1	1	828876170	1	75.031	75.030	2.0.10.147	2.0.10.242	2.0.10.242	1.0.0.439	7	234	2	3	Verdana	1	80	0	0	0	WM Stimuli\	0.6	1461.16666666667	0.5	1698.6	0.8	1742.25	0.6	1632.33333333333	0.8	1504.625	0.9	1336	0.8	1455	0.5	1463.2	13	321122	2	321110	27	40	321149	-999999	321125	0	24	TrialsPROC	TO_014_TOOL14_BA.png	2	2	6	SessionSelectionList														lure	3	Tools	2-Back	5	80	4	0	0	0	1	39	47765	1	14	72	45726	-1	46867	0	1141	2	3	2039	53	47779	-54	0																6												
WM080112	221319_fnca	2	1	1	828876170	1	75.031	75.030	2.0.10.147	2.0.10.242	2.0.10.242	1.0.0.439	7	234	2	3	Verdana	1	80	0	0	0	WM Stimuli\	0.6	1461.16666666667	0.5	1698.6	0.8	1742.25	0.6	1632.33333333333	0.8	1504.625	0.9	1336	0.8	1455	0.5	1463.2	13	321122	2	321110	27	40	321149	-999999	321125	0	24	TrialsPROC	TO_016_TOOL16_BA.png	2	2	7	SessionSelectionList														target	2	Tools	2-Back	6	80	5	0	0	0	1	39	50324	1	14	59	48285	-1	49776	0	1491	3	2	2039	53	50338	-54	0																7												
WM080112	221319_fnca	2	1	1	828876170	1	75.031	75.030	2.0.10.147	2.0.10.242	2.0.10.242	1.0.0.439	7	234	2	3	Verdana	1	80	0	0	0	WM Stimuli\	0.6	1461.16666666667	0.5	1698.6	0.8	1742.25	0.6	1632.33333333333	0.8	1504.625	0.9	1336	0.8	1455	0.5	1463.2	13	321122	2	321110	27	40	321149	-999999	321125	0	24	TrialsPROC	TO_018_TOOL18_BA.png	2	2	8	SessionSelectionList														nonlure	3	Tools	2-Back	7	80	6	0	0	0	2	39	52883	3	14	59	50844	-1	52191	1	1347	3	3	2039	53	52897	-54	0																8												
WM080112	221319_fnca	2	1	1	828876170	1	75.031	75.030	2.0.10.147	2.0.10.242	2.0.10.242	1.0.0.439	7	234	2	3	Verdana	1	80	0	0	0	WM Stimuli\	0.6	1461.16666666667	0.5	1698.6	0.8	1742.25	0.6	1632.33333333333	0.8	1504.625	0.9	1336	0.8	1455	0.5	1463.2	13	321122	2	321110	27	40	321149	-999999	321125	0	24	TrialsPROC	TO_017_TOOL17_BA.png	2	2	9	SessionSelectionList														nonlure	3	Tools	2-Back	8	80	7	0	0	0	3	39	55442	3	14	59	53403	-1	55134	1	1731	3	3	2039	53	55456	-54	0																9												
WM080112	221319_fnca	2	1	1	828876170	1	75.031	75.030	2.0.10.147	2.0.10.242	2.0.10.242	1.0.0.439	7	234	2	3	Verdana	1	80	0	0	0	WM Stimuli\	0.6	1461.16666666667	0.5	1698.6	0.8	1742.25	0.6	1632.33333333333	0.8	1504.625	0.9	1336	0.8	1455	0.5	1463.2	13	321122	2	321110	27	40	321149	-999999	321125	0	24	TrialsPROC	TO_018_TOOL18_BA.png	2	2	10	SessionSelectionList														target	2	Tools	2-Back	9	80	8	0	0	0	1	39	58001	1	14	59	55962	-1	57328	1	1366	2	2	2039	53	58015	-54	0																10												
WM080112	221319_fnca	2	1	1	828876170	1	75.031	75.030	2.0.10.147	2.0.10.242	2.0.10.242	1.0.0.439	7	234	2	3	Verdana	1	80	0	0	0	WM Stimuli\	0.6	1461.16666666667	0.5	1698.6	0.8	1742.25	0.6	1632.33333333333	0.8	1504.625	0.9	1336	0.8	1455	0.5	1463.2	13	321122	2	321110	27	40	321149	-999999	321125	0	24	TrialsPROC	TO_015_TOOL15_BA.png	2	2	11	SessionSelectionList														nonlure	3	Tools	2-Back	10	80	9	0	0	0	1	39	60560	1	14	59	58521	-1	59627	1	1106	3	3	2039	53	60574	-54	0																11												
WM080112	221319_fnca	2	1	1	828876170	1	75.031	75.030	2.0.10.147	2.0.10.242	2.0.10.242	1.0.0.439	7	234	2	3	Verdana	1	80	0	0	0	WM Stimuli\	0.6	1461.16666666667	0.5	1698.6	0.8	1742.25	0.6	1632.33333333333	0.8	1504.625	0.9	1336	0.8	1455	0.5	1463.2	13	321122	2	321110	27	40	321149	-999999	321125	0	24	TrialsPROC	TO_017_TOOL17_BA.png	2	2	12	SessionSelectionList														lure	3	Tools	2-Back	11	80	10	0	0	0	2	39	63119	1	14	59	61080	-1	62560	1	1480	3	3	2039	53	63133	-54	0																12												
WM080112	221319_fnca	2	1	1	828876170	1	75.031	75.030	2.0.10.147	2.0.10.242	2.0.10.242	1.0.0.439	7	234	2	3	Verdana	1	80	0	0	0	WM Stimuli\	0.6	1461.16666666667	0.5	1698.6	0.8	1742.25	0.6	1632.33333333333	0.8	1504.625	0.9	1336	0.8	1455	0.5	1463.2	13	321122	2	321110	27	40	321149	-999999	321125	0	25	Cue0BackPROC	BP_013_BP7_BA.png	2	2	13	SessionSelectionList																																										19	63599	-20	0												13												
WM080112	221319_fnca	2	1	1	828876170	1	75.031	75.030	2.0.10.147	2.0.10.242	2.0.10.242	1.0.0.439	7	234	2	3	Verdana	1	80	0	0	0	WM Stimuli\	0.6	1461.16666666667	0.5	1698.6	0.8	1742.25	0.6	1632.33333333333	0.8	1504.625	0.9	1336	0.8	1455	0.5	1463.2	13	321122	2	321110	27	40	321149	-999999	321125	0	26	TrialsPROC	BP_015_H10-T_BA.png	2	2	14	SessionSelectionList														nonlure	3	Body	0-Back	12	80	11	0	0	100	3	40	68184	1	13	64	66144	-1	67895	1	1751	3	3	2040	53	68197	-54	0																14												
WM080112	221319_fnca	2	1	1	828876170	1	75.031	75.030	2.0.10.147	2.0.10.242	2.0.10.242	1.0.0.439	7	234	2	3	Verdana	1	80	0	0	0	WM Stimuli\	0.6	1461.16666666667	0.5	1698.6	0.8	1742.25	0.6	1632.33333333333	0.8	1504.625	0.9	1336	0.8	1455	0.5	1463.2	13	321122	2	321110	27	40	321149	-999999	321125	0	26	TrialsPROC	BP_018_H13-T_BA.png	2	2	15	SessionSelectionList														nonlure	3	Body	0-Back	13	80	12	0	0	100	4	39	70756	2	14	73	68717	-1	70331	1	1614	3	3	2039	53	70770	-54	0																15												
WM080112	221319_fnca	2	1	1	828876170	1	75.031	75.030	2.0.10.147	2.0.10.242	2.0.10.242	1.0.0.439	7	234	2	3	Verdana	1	80	0	0	0	WM Stimuli\	0.6	1461.16666666667	0.5	1698.6	0.8	1742.25	0.6	1632.33333333333	0.8	1504.625	0.9	1336	0.8	1455	0.5	1463.2	13	321122	2	321110	27	40	321149	-999999	321125	0	26	TrialsPROC	BP_014_BP9_BA.png	2	2	16	SessionSelectionList														nonlure	3	Body	0-Back	14	80	12	0	1	67	4	39	73328	2	14	72	71289	-1	0	0	0	""	3	2039	53	73342	-54	0																16												
WM080112	221319_fnca	2	1	1	828876170	1	75.031	75.030	2.0.10.147	2.0.10.242	2.0.10.242	1.0.0.439	7	234	2	3	Verdana	1	80	0	0	0	WM Stimuli\	0.6	1461.16666666667	0.5	1698.6	0.8	1742.25	0.6	1632.33333333333	0.8	1504.625	0.9	1336	0.8	1455	0.5	1463.2	13	321122	2	321110	27	40	321149	-999999	321125	0	26	TrialsPROC	BP_018_H13-T_BA.png	2	2	17	SessionSelectionList														lure	3	Body	0-Back	15	80	13	0	0	50	1	39	75887	2	14	59	73848	-1	75597	0	1749	2	3	2039	53	75901	-54	0																17												
WM080112	221319_fnca	2	1	1	828876170	1	75.031	75.030	2.0.10.147	2.0.10.242	2.0.10.242	1.0.0.439	7	234	2	3	Verdana	1	80	0	0	0	WM Stimuli\	0.6	1461.16666666667	0.5	1698.6	0.8	1742.25	0.6	1632.33333333333	0.8	1504.625	0.9	1336	0.8	1455	0.5	1463.2	13	321122	2	321110	27	40	321149	-999999	321125	0	26	TrialsPROC	BP_013_BP7_BA.png	2	2	18	SessionSelectionList														target	2	Body	0-Back	16	80	14	0	0	40	1	39	78459	3	14	72	76420	-1	77985	0	1565	3	2	2039	53	78473	-54	0																18												
WM080112	221319_fnca	2	1	1	828876170	1	75.031	75.030	2.0.10.147	2.0.10.242	2.0.10.242	1.0.0.439	7	234	2	3	Verdana	1	80	0	0	0	WM Stimuli\	0.6	1461.16666666667	0.5	1698.6	0.8	1742.25	0.6	1632.33333333333	0.8	1504.625	0.9	1336	0.8	1455	0.5	1463.2	13	321122	2	321110	27	40	321149	-999999	321125	0	26	TrialsPROC	BP_015_H10-T_BA.png	2	2	19	SessionSelectionList														lure	3	Body	0-Back	17	80	15	0	0	33	1	38	81018	2	14	60	78980	-1	80392	0	1412	2	3	2038	52	81032	-53	0																19												
WM080112	221319_fnca	2	1	1	828876170	1	75.031	75.030	2.0.10.147	2.0.10.242	2.0.10.242	1.0.0.439	7	234	2	3	Verdana	1	80	0	0	0	WM Stimuli\	0.6	1461.16666666667	0.5	1698.6	0.8	1742.25	0.6	1632.33333333333	0.8	1504.625	0.9	1336	0.8	1455	0.5	1463.2	13	321122	2	321110	27	40	321149	-999999	321125	0	26	TrialsPROC	BP_016_H11-T_BA.png	2	2	20	SessionSelectionList														nonlure	3	Body	0-Back	18	80	16	0	0	43	1	40	83591	1	13	71	81551	-1	82972	1	1421	3	3	2040	53	83604	-54	0																20												
WM080112	221319_fnca	2	1	1	828876170	1	75.031	75.030	2.0.10.147	2.0.10.242	2.0.10.242	1.0.0.439	7	234	2	3	Verdana	1	80	0	0	0	WM Stimuli\	0.6	1461.16666666667	0.5	1698.6	0.8	1742.25	0.6	1632.33333333333	0.8	1504.625	0.9	1336	0.8	1455	0.5	1463.2	13	321122	2	321110	27	40	321149	-999999	321125	0	26	TrialsPROC	BP_013_BP7_BA.png	2	2	21	SessionSelectionList														target	2	Body	0-Back	19	80	17	0	0	38	2	39	86163	2	14	73	84124	-1	85944	0	1820	3	2	2039	53	86177	-54	0																21												
WM080112	221319_fnca	2	1	1	828876170	1	75.031	75.030	2.0.10.147	2.0.10.242	2.0.10.242	1.0.0.439	7	234	2	3	Verdana	1	80	0	0	0	WM Stimuli\	0.6	1461.16666666667	0.5	1698.6	0.8	1742.25	0.6	1632.33333333333	0.8	1504.625	0.9	1336	0.8	1455	0.5	1463.2	13	321122	2	321110	27	40	321149	-999999	321125	0	26	TrialsPROC	BP_017_H12-T_BA.png	2	2	22	SessionSelectionList														nonlure	3	Body	0-Back	20	80	18	0	0	44	3	39	88722	2	14	59	86683	-1	88472	1	1789	3	3	2039	53	88736	-54	0																22												
WM080112	221319_fnca	2	1	1	828876170	1	75.031	75.030	2.0.10.147	2.0.10.242	2.0.10.242	1.0.0.439	7	234	2	3	Verdana	1	80	0	0	0	WM Stimuli\	0.6	1461.16666666667	0.5	1698.6	0.8	1742.25	0.6	1632.33333333333	0.8	1504.625	0.9	1336	0.8	1455	0.5	1463.2	13	321122	2	321110	27	40	321149	-999999	321125	0	26	TrialsPROC	BP_014_BP9_BA.png	2	2	23	SessionSelectionList														lure	3	Body	0-Back	21	80	19	0	0	50	4	39	91281	2	14	59	89242	-1	91160	1	1918	3	3	2039	53	91295	-54	0																23												
WM080112	221319_fnca	2	1	1	828876170	1	75.031	75.030	2.0.10.147	2.0.10.242	2.0.10.242	1.0.0.439	7	234	2	3	Verdana	1	80	0	0	0	WM Stimuli\	0.6	1461.16666666667	0.5	1698.6	0.8	1742.25	0.6	1632.33333333333	0.8	1504.625	0.9	1336	0.8	1455	0.5	1463.2	13	321122	2	321110	27	40	321149	-999999	321125	0	27	Fix15secPROC	""	2	2	24	SessionSelectionList																																															6	91748	-7	0							24												
WM080112	221319_fnca	2	1	1	828876170	1	75.031	75.030	2.0.10.147	2.0.10.242	2.0.10.242	1.0.0.439	7	234	2	3	Verdana	1	80	0	0	0	WM Stimuli\	0.6	1461.16666666667	0.5	1698.6	0.8	1742.25	0.6	1632.33333333333	0.8	1504.625	0.9	1336	0.8	1455	0.5	1463.2	13	321122	2	321110	27	40	321149	-999999	321125	0	28	Cue2BackPROC	""	2	2	25	SessionSelectionList									13	106755	-14	0																																													25												
WM080112	221319_fnca	2	1	1	828876170	1	75.031	75.030	2.0.10.147	2.0.10.242	2.0.10.242	1.0.0.439	7	234	2	3	Verdana	1	80	0	0	0	WM Stimuli\	0.6	1461.16666666667	0.5	1698.6	0.8	1742.25	0.6	1632.33333333333	0.8	1504.625	0.9	1336	0.8	1455	0.5	1463.2	13	321122	2	321110	27	40	321149	-999999	321125	0	29	TrialsPROC	FC_015_M8.png	2	2	26	SessionSelectionList														nonlure	3	Face	2-Back	22	80	20	0	0	50	5	39	111353	1	14	72	109314	-1	111018	1	1704	3	3	2039	53	111367	-54	0																26												
WM080112	221319_fnca	2	1	1	828876170	1	75.031	75.030	2.0.10.147	2.0.10.242	2.0.10.242	1.0.0.439	7	234	2	3	Verdana	1	80	0	0	0	WM Stimuli\	0.6	1461.16666666667	0.5	1698.6	0.8	1742.25	0.6	1632.33333333333	0.8	1504.625	0.9	1336	0.8	1455	0.5	1463.2	13	321122	2	321110	27	40	321149	-999999	321125	0	29	TrialsPROC	FC_018_F9.png	2	2	27	SessionSelectionList														nonlure	3	Face	2-Back	23	80	21	0	0	50	6	39	113925	2	14	72	111886	-1	113816	1	1930	3	3	2039	53	113939	-54	0																27												
WM080112	221319_fnca	2	1	1	828876170	1	75.031	75.030	2.0.10.147	2.0.10.242	2.0.10.242	1.0.0.439	7	234	2	3	Verdana	1	80	0	0	0	WM Stimuli\	0.6	1461.16666666667	0.5	1698.6	0.8	1742.25	0.6	1632.33333333333	0.8	1504.625	0.9	1336	0.8	1455	0.5	1463.2	13	321122	2	321110	27	40	321149	-999999	321125	0	29	TrialsPROC	FC_018_F9.png	2	2	28	SessionSelectionList														lure	3	Face	2-Back	24	80	22	0	0	50	1	39	116497	2	14	72	114458	-1	116276	0	1818	2	3	2039	53	116511	-54	0																28												
WM080112	221319_fnca	2	1	1	828876170	1	75.031	75.030	2.0.10.147	2.0.10.242	2.0.10.242	1.0.0.439	7	234	2	3	Verdana	1	80	0	0	0	WM Stimuli\	0.6	1461.16666666667	0.5	1698.6	0.8	1742.25	0.6	1632.33333333333	0.8	1504.625	0.9	1336	0.8	1455	0.5	1463.2	13	321122	2	321110	27	40	321149	-999999	321125	0	29	TrialsPROC	FC_017_M9.png	2	2	29	SessionSelectionList														nonlure	3	Face	2-Back	25	80	23	0	0	50	1	39	119070	2	13	73	117031	-1	118741	1	1710	3	3	2039	52	119083	-53	0																29												
WM080112	221319_fnca	2	1	1	828876170	1	75.031	75.030	2.0.10.147	2.0.10.242	2.0.10.242	1.0.0.439	7	234	2	3	Verdana	1	80	0	0	0	WM Stimuli\	0.6	1461.16666666667	0.5	1698.6	0.8	1742.25	0.6	1632.33333333333	0.8	1504.625	0.9	1336	0.8	1455	0.5	1463.2	13	321122	2	321110	27	40	321149	-999999	321125	0	29	TrialsPROC	FC_017_M9.png	2	2	30	SessionSelectionList														lure	3	Face	2-Back	26	80	24	0	0	50	2	39	121642	2	14	72	119603	-1	121304	1	1701	3	3	2039	53	121656	-54	0																30												
WM080112	221319_fnca	2	1	1	828876170	1	75.031	75.030	2.0.10.147	2.0.10.242	2.0.10.242	1.0.0.439	7	234	2	3	Verdana	1	80	0	0	0	WM Stimuli\	0.6	1461.16666666667	0.5	1698.6	0.8	1742.25	0.6	1632.33333333333	0.8	1504.625	0.9	1336	0.8	1455	0.5	1463.2	13	321122	2	321110	27	40	321149	-999999	321125	0	29	TrialsPROC	FC_016_F8.png	2	2	31	SessionSelectionList														nonlure	3	Face	2-Back	27	80	25	0	0	50	3	39	124214	3	14	72	122175	-1	124159	1	1984	3	3	2039	53	124228	-54	0																31												
WM080112	221319_fnca	2	1	1	828876170	1	75.031	75.030	2.0.10.147	2.0.10.242	2.0.10.242	1.0.0.439	7	234	2	3	Verdana	1	80	0	0	0	WM Stimuli\	0.6	1461.16666666667	0.5	1698.6	0.8	1742.25	0.6	1632.33333333333	0.8	1504.625	0.9	1336	0.8	1455	0.5	1463.2	13	321122	2	321110	27	40	321149	-999999	321125	0	29	TrialsPROC	FC_013_M7.png	2	2	32	SessionSelectionList														nonlure	3	Face	2-Back	28	80	26	0	0	50	4	40	126787	2	13	72	124747	-1	126280	1	1533	3	3	2040	53	126800	-54	0																32												
WM080112	221319_fnca	2	1	1	828876170	1	75.031	75.030	2.0.10.147	2.0.10.242	2.0.10.242	1.0.0.439	7	234	2	3	Verdana	1	80	0	0	0	WM Stimuli\	0.6	1461.16666666667	0.5	1698.6	0.8	1742.25	0.6	1632.33333333333	0.8	1504.625	0.9	1336	0.8	1455	0.5	1463.2	13	321122	2	321110	27	40	321149	-999999	321125	0	29	TrialsPROC	FC_014_F7.png	2	2	33	SessionSelectionList														nonlure	3	Face	2-Back	29	80	27	0	0	50	5	39	129359	1	14	73	127320	-1	129126	1	1806	3	3	2039	53	129373	-54	0																33												
WM080112	221319_fnca	2	1	1	828876170	1	75.031	75.030	2.0.10.147	2.0.10.242	2.0.10.242	1.0.0.439	7	234	2	3	Verdana	1	80	0	0	0	WM Stimuli\	0.6	1461.16666666667	0.5	1698.6	0.8	1742.25	0.6	1632.33333333333	0.8	1504.625	0.9	1336	0.8	1455	0.5	1463.2	13	321122	2	321110	27	40	321149	-999999	321125	0	29	TrialsPROC	FC_013_M7.png	2	2	34	SessionSelectionList														target	2	Face	2-Back	30	80	28	0	0	50	1	39	131931	3	14	72	129892	-1	131462	1	1570	2	2	2039	53	131945	-54	0																34												
WM080112	221319_fnca	2	1	1	828876170	1	75.031	75.030	2.0.10.147	2.0.10.242	2.0.10.242	1.0.0.439	7	234	2	3	Verdana	1	80	0	0	0	WM Stimuli\	0.6	1461.16666666667	0.5	1698.6	0.8	1742.25	0.6	1632.33333333333	0.8	1504.625	0.9	1336	0.8	1455	0.5	1463.2	13	321122	2	321110	27	40	321149	-999999	321125	0	29	TrialsPROC	FC_014_F7.png	2	2	35	SessionSelectionList														target	2	Face	2-Back	31	80	29	0	0	50	1	39	134503	2	14	72	132464	-1	134135	0	1671	3	2	2039	53	134517	-54	0																35												
WM080112	221319_fnca	2	1	1	828876170	1	75.031	75.030	2.0.10.147	2.0.10.242	2.0.10.242	1.0.0.439	7	234	2	3	Verdana	1	80	0	0	0	WM Stimuli\	0.6	1461.16666666667	0.5	1698.6	0.8	1742.25	0.6	1632.33333333333	0.8	1504.625	0.9	1336	0.8	1455	0.5	1463.2	13	321122	2	321110	27	40	321149	-999999	321125	0	30	Cue0BackPROC	TO_019_TOOL19_BA.png	2	2	36	SessionSelectionList																																										19	134983	-20	0												36												
WM080112	221319_fnca	2	1	1	828876170	1	75.031	75.030	2.0.10.147	2.0.10.242	2.0.10.242	1.0.0.439	7	234	2	3	Verdana	1	80	0	0	0	WM Stimuli\	0.6	1461.16666666667	0.5	1698.6	0.8	1742.25	0.6	1632.33333333333	0.8	1504.625	0.9	1336	0.8	1455	0.5	1463.2	13	321122	2	321110	27	40	321149	-999999	321125	0	31	TrialsPROC	TO_019_TOOL19_BA.png	2	2	37	SessionSelectionList														target	2	Tools	0-Back	32	80	30	0	0	55	1	39	139555	1	14	52	137516	-1	139415	1	1899	2	2	2039	53	139569	-54	0																37												
WM080112	221319_fnca	2	1	1	828876170	1	75.031	75.030	2.0.10.147	2.0.10.242	2.0.10.242	1.0.0.439	7	234	2	3	Verdana	1	80	0	0	0	WM Stimuli\	0.6	1461.16666666667	0.5	1698.6	0.8	1742.25	0.6	1632.33333333333	0.8	1504.625	0.9	1336	0.8	1455	0.5	1463.2	13	321122	2	321110	27	40	321149	-999999	321125	0	31	TrialsPROC	TO_024_TOOL24_BA.png	2	2	38	SessionSelectionList														nonlure	3	Tools	0-Back	33	80	31	0	0	58	1	39	142114	1	14	59	140075	-1	141580	1	1505	3	3	2039	53	142128	-54	0																38												
WM080112	221319_fnca	2	1	1	828876170	1	75.031	75.030	2.0.10.147	2.0.10.242	2.0.10.242	1.0.0.439	7	234	2	3	Verdana	1	80	0	0	0	WM Stimuli\	0.6	1461.16666666667	0.5	1698.6	0.8	1742.25	0.6	1632.33333333333	0.8	1504.625	0.9	1336	0.8	1455	0.5	1463.2	13	321122	2	321110	27	40	321149	-999999	321125	0	31	TrialsPROC	TO_019_TOOL19_BA.png	2	2	39	SessionSelectionList														target	2	Tools	0-Back	34	80	32	0	0	54	2	39	144673	2	13	59	142634	-1	144146	0	1512	3	2	2039	52	144686	-53	0																39												
WM080112	221319_fnca	2	1	1	828876170	1	75.031	75.030	2.0.10.147	2.0.10.242	2.0.10.242	1.0.0.439	7	234	2	3	Verdana	1	80	0	0	0	WM Stimuli\	0.6	1461.16666666667	0.5	1698.6	0.8	1742.25	0.6	1632.33333333333	0.8	1504.625	0.9	1336	0.8	1455	0.5	1463.2	13	321122	2	321110	27	40	321149	-999999	321125	0	31	TrialsPROC	TO_023_TOOL23_BA.png	2	2	40	SessionSelectionList														nonlure	3	Tools	0-Back	35	80	33	0	0	50	1	39	147245	1	14	72	145206	-1	146620	0	1414	2	3	2039	53	147259	-54	0																40												
WM080112	221319_fnca	2	1	1	828876170	1	75.031	75.030	2.0.10.147	2.0.10.242	2.0.10.242	1.0.0.439	7	234	2	3	Verdana	1	80	0	0	0	WM Stimuli\	0.6	1461.16666666667	0.5	1698.6	0.8	1742.25	0.6	1632.33333333333	0.8	1504.625	0.9	1336	0.8	1455	0.5	1463.2	13	321122	2	321110	27	40	321149	-999999	321125	0	31	TrialsPROC	TO_020_TOOL20_BA.png	2	2	41	SessionSelectionList														nonlure	3	Tools	0-Back	36	80	34	0	0	53	1	39	149804	1	14	59	147765	-1	148830	1	1065	3	3	2039	53	149818	-54	0																41												
WM080112	221319_fnca	2	1	1	828876170	1	75.031	75.030	2.0.10.147	2.0.10.242	2.0.10.242	1.0.0.439	7	234	2	3	Verdana	1	80	0	0	0	WM Stimuli\	0.6	1461.16666666667	0.5	1698.6	0.8	1742.25	0.6	1632.33333333333	0.8	1504.625	0.9	1336	0.8	1455	0.5	1463.2	13	321122	2	321110	27	40	321149	-999999	321125	0	31	TrialsPROC	TO_020_TOOL20_BA.png	2	2	42	SessionSelectionList														lure	3	Tools	0-Back	37	80	35	0	0	50	1	39	152363	1	14	59	150324	-1	151809	0	1485	2	3	2039	53	152377	-54	0																42												
WM080112	221319_fnca	2	1	1	828876170	1	75.031	75.030	2.0.10.147	2.0.10.242	2.0.10.242	1.0.0.439	7	234	2	3	Verdana	1	80	0	0	0	WM Stimuli\	0.6	1461.16666666667	0.5	1698.6	0.8	1742.25	0.6	1632.33333333333	0.8	1504.625	0.9	1336	0.8	1455	0.5	1463.2	13	321122	2	321110	27	40	321149	-999999	321125	0	31	TrialsPROC	TO_022_TOOL22_BA.png	2	2	43	SessionSelectionList														nonlure	3	Tools	0-Back	38	80	36	0	0	53	1	39	154922	1	14	59	152883	-1	154195	1	1312	3	3	2039	53	154936	-54	0																43												
WM080112	221319_fnca	2	1	1	828876170	1	75.031	75.030	2.0.10.147	2.0.10.242	2.0.10.242	1.0.0.439	7	234	2	3	Verdana	1	80	0	0	0	WM Stimuli\	0.6	1461.16666666667	0.5	1698.6	0.8	1742.25	0.6	1632.33333333333	0.8	1504.625	0.9	1336	0.8	1455	0.5	1463.2	13	321122	2	321110	27	40	321149	-999999	321125	0	31	TrialsPROC	TO_022_TOOL22_BA.png	2	2	44	SessionSelectionList														lure	3	Tools	0-Back	39	80	37	0	0	56	2	39	157481	1	14	59	155442	-1	156977	1	1535	3	3	2039	53	157495	-54	0																44												
WM080112	221319_fnca	2	1	1	828876170	1	75.031	75.030	2.0.10.147	2.0.10.242	2.0.10.242	1.0.0.439	7	234	2	3	Verdana	1	80	0	0	0	WM Stimuli\	0.6	1461.16666666667	0.5	1698.6	0.8	1742.25	0.6	1632.33333333333	0.8	1504.625	0.9	1336	0.8	1455	0.5	1463.2	13	321122	2	321110	27	40	321149	-999999	321125	0	31	TrialsPROC	TO_021_TOOL21_BA.png	2	2	45	SessionSelectionList														nonlure	3	Tools	0-Back	40	80	37	0	1	53	2	39	160040	2	14	59	158001	-1	0	0	0	""	3	2039	53	160054	-54	0																45												
WM080112	221319_fnca	2	1	1	828876170	1	75.031	75.030	2.0.10.147	2.0.10.242	2.0.10.242	1.0.0.439	7	234	2	3	Verdana	1	80	0	0	0	WM Stimuli\	0.6	1461.16666666667	0.5	1698.6	0.8	1742.25	0.6	1632.33333333333	0.8	1504.625	0.9	1336	0.8	1455	0.5	1463.2	13	321122	2	321110	27	40	321149	-999999	321125	0	31	TrialsPROC	TO_021_TOOL21_BA.png	2	2	46	SessionSelectionList														lure	3	Tools	0-Back	41	80	38	0	0	50	1	39	162599	1	14	59	160560	-1	161693	0	1133	2	3	2039	53	162613	-54	0																46												
WM080112	221319_fnca	2	1	1	828876170	1	75.031	75.030	2.0.10.147	2.0.10.242	2.0.10.242	1.0.0.439	7	234	2	3	Verdana	1	80	0	0	0	WM Stimuli\	0.6	1461.16666666667	0.5	1698.6	0.8	1742.25	0.6	1632.33333333333	0.8	1504.625	0.9	1336	0.8	1455	0.5	1463.2	13	321122	2	321110	27	40	321149	-999999	321125	0	32	Fix15secPROC	""	2	2	47	SessionSelectionList																																															6	163066	-7	0							47												
WM080112	221319_fnca	2	1	1	828876170	1	75.031	75.030	2.0.10.147	2.0.10.242	2.0.10.242	1.0.0.439	7	234	2	3	Verdana	1	80	0	0	0	WM Stimuli\	0.6	1461.16666666667	0.5	1698.6	0.8	1742.25	0.6	1632.33333333333	0.8	1504.625	0.9	1336	0.8	1455	0.5	1463.2	13	321122	2	321110	27	40	321149	-999999	321125	0	33	Cue2BackPROC	""	2	2	48	SessionSelectionList									13	178073	-14	0																																													48												
WM080112	221319_fnca	2	1	1	828876170	1	75.031	75.030	2.0.10.147	2.0.10.242	2.0.10.242	1.0.0.439	7	234	2	3	Verdana	1	80	0	0	0	WM Stimuli\	0.6	1461.16666666667	0.5	1698.6	0.8	1742.25	0.6	1632.33333333333	0.8	1504.625	0.9	1336	0.8	1455	0.5	1463.2	13	321122	2	321110	27	40	321149	-999999	321125	0	34	TrialsPROC	BP_020_H17-T_BA.png	2	2	49	SessionSelectionList														nonlure	3	Body	2-Back	42	80	38	0	1	50	1	39	182671	2	13	72	180632	-1	0	0	0	""	3	2039	52	182684	-53	0																49												
WM080112	221319_fnca	2	1	1	828876170	1	75.031	75.030	2.0.10.147	2.0.10.242	2.0.10.242	1.0.0.439	7	234	2	3	Verdana	1	80	0	0	0	WM Stimuli\	0.6	1461.16666666667	0.5	1698.6	0.8	1742.25	0.6	1632.33333333333	0.8	1504.625	0.9	1336	0.8	1455	0.5	1463.2	13	321122	2	321110	27	40	321149	-999999	321125	0	34	TrialsPROC	BP_019_H14-T_BA.png	2	2	50	SessionSelectionList														nonlure	3	Body	2-Back	43	80	39	0	0	50	1	39	185243	3	14	72	183204	-1	184993	1	1789	3	3	2039	53	185257	-54	0																50												
WM080112	221319_fnca	2	1	1	828876170	1	75.031	75.030	2.0.10.147	2.0.10.242	2.0.10.242	1.0.0.439	7	234	2	3	Verdana	1	80	0	0	0	WM Stimuli\	0.6	1461.16666666667	0.5	1698.6	0.8	1742.25	0.6	1632.33333333333	0.8	1504.625	0.9	1336	0.8	1455	0.5	1463.2	13	321122	2	321110	27	40	321149	-999999	321125	0	34	TrialsPROC	BP_020_H17-T_BA.png	2	2	51	SessionSelectionList														target	2	Body	2-Back	44	80	40	0	0	50	1	39	187802	3	14	59	185763	-1	186961	1	1198	2	2	2039	53	187816	-54	0																51												
WM080112	221319_fnca	2	1	1	828876170	1	75.031	75.030	2.0.10.147	2.0.10.242	2.0.10.242	1.0.0.439	7	234	2	3	Verdana	1	80	0	0	0	WM Stimuli\	0.6	1461.16666666667	0.5	1698.6	0.8	1742.25	0.6	1632.33333333333	0.8	1504.625	0.9	1336	0.8	1455	0.5	1463.2	13	321122	2	321110	27	40	321149	-999999	321125	0	34	TrialsPROC	BP_019_H14-T_BA.png	2	2	52	SessionSelectionList														target	2	Body	2-Back	45	80	41	0	0	50	1	39	190374	3	14	72	188335	-1	189804	0	1469	3	2	2039	53	190388	-54	0																52												
WM080112	221319_fnca	2	1	1	828876170	1	75.031	75.030	2.0.10.147	2.0.10.242	2.0.10.242	1.0.0.439	7	234	2	3	Verdana	1	80	0	0	0	WM Stimuli\	0.6	1461.16666666667	0.5	1698.6	0.8	1742.25	0.6	1632.33333333333	0.8	1504.625	0.9	1336	0.8	1455	0.5	1463.2	13	321122	2	321110	27	40	321149	-999999	321125	0	34	TrialsPROC	BP_024_H3-T_BA.png	2	2	53	SessionSelectionList														nonlure	3	Body	2-Back	46	80	41	0	1	50	1	40	192947	1	13	72	190907	-1	0	0	0	""	3	2040	53	192960	-54	0																53												
WM080112	221319_fnca	2	1	1	828876170	1	75.031	75.030	2.0.10.147	2.0.10.242	2.0.10.242	1.0.0.439	7	234	2	3	Verdana	1	80	0	0	0	WM Stimuli\	0.6	1461.16666666667	0.5	1698.6	0.8	1742.25	0.6	1632.33333333333	0.8	1504.625	0.9	1336	0.8	1455	0.5	1463.2	13	321122	2	321110	27	40	321149	-999999	321125	0	34	TrialsPROC	BP_024_H3-T_BA.png	2	2	54	SessionSelectionList														lure	3	Body	2-Back	47	80	42	0	0	50	1	40	195506	2	13	59	193466	-1	194844	1	1378	3	3	2040	53	195519	-54	0																54												
WM080112	221319_fnca	2	1	1	828876170	1	75.031	75.030	2.0.10.147	2.0.10.242	2.0.10.242	1.0.0.439	7	234	2	3	Verdana	1	80	0	0	0	WM Stimuli\	0.6	1461.16666666667	0.5	1698.6	0.8	1742.25	0.6	1632.33333333333	0.8	1504.625	0.9	1336	0.8	1455	0.5	1463.2	13	321122	2	321110	27	40	321149	-999999	321125	0	34	TrialsPROC	BP_025_H5-T_BA.png	2	2	55	SessionSelectionList														nonlure	3	Body	2-Back	48	80	43	0	0	50	2	39	198078	2	14	73	196039	-1	197927	1	1888	3	3	2039	53	198092	-54	0																55												
WM080112	221319_fnca	2	1	1	828876170	1	75.031	75.030	2.0.10.147	2.0.10.242	2.0.10.242	1.0.0.439	7	234	2	3	Verdana	1	80	0	0	0	WM Stimuli\	0.6	1461.16666666667	0.5	1698.6	0.8	1742.25	0.6	1632.33333333333	0.8	1504.625	0.9	1336	0.8	1455	0.5	1463.2	13	321122	2	321110	27	40	321149	-999999	321125	0	34	TrialsPROC	BP_023_H25-T_BA.png	2	2	56	SessionSelectionList														nonlure	3	Body	2-Back	49	80	43	0	1	50	2	39	200650	2	14	72	198611	-1	0	0	0	""	3	2039	53	200664	-54	0																56												
WM080112	221319_fnca	2	1	1	828876170	1	75.031	75.030	2.0.10.147	2.0.10.242	2.0.10.242	1.0.0.439	7	234	2	3	Verdana	1	80	0	0	0	WM Stimuli\	0.6	1461.16666666667	0.5	1698.6	0.8	1742.25	0.6	1632.33333333333	0.8	1504.625	0.9	1336	0.8	1455	0.5	1463.2	13	321122	2	321110	27	40	321149	-999999	321125	0	34	TrialsPROC	BP_022_H24-T_BA.png	2	2	57	SessionSelectionList														nonlure	3	Body	2-Back	50	80	44	0	0	50	1	39	203209	2	14	59	201170	-1	202549	1	1379	3	3	2039	53	203223	-54	0																57												
WM080112	221319_fnca	2	1	1	828876170	1	75.031	75.030	2.0.10.147	2.0.10.242	2.0.10.242	1.0.0.439	7	234	2	3	Verdana	1	80	0	0	0	WM Stimuli\	0.6	1461.16666666667	0.5	1698.6	0.8	1742.25	0.6	1632.33333333333	0.8	1504.625	0.9	1336	0.8	1455	0.5	1463.2	13	321122	2	321110	27	40	321149	-999999	321125	0	34	TrialsPROC	BP_022_H24-T_BA.png	2	2	58	SessionSelectionList														lure	3	Body	2-Back	51	80	45	0	0	50	2	39	205781	2	14	72	203742	-1	204877	1	1135	3	3	2039	53	205795	-54	0																58												
WM080112	221319_fnca	2	1	1	828876170	1	75.031	75.030	2.0.10.147	2.0.10.242	2.0.10.242	1.0.0.439	7	234	2	3	Verdana	1	80	0	0	0	WM Stimuli\	0.6	1461.16666666667	0.5	1698.6	0.8	1742.25	0.6	1632.33333333333	0.8	1504.625	0.9	1336	0.8	1455	0.5	1463.2	13	321122	2	321110	27	40	321149	-999999	321125	0	35	Cue2BackPROC	""	2	2	59	SessionSelectionList									6	206248	-7	0																																													59												
WM080112	221319_fnca	2	1	1	828876170	1	75.031	75.030	2.0.10.147	2.0.10.242	2.0.10.242	1.0.0.439	7	234	2	3	Verdana	1	80	0	0	0	WM Stimuli\	0.6	1461.16666666667	0.5	1698.6	0.8	1742.25	0.6	1632.33333333333	0.8	1504.625	0.9	1336	0.8	1455	0.5	1463.2	13	321122	2	321110	27	40	321149	-999999	321125	0	36	TrialsPROC	PL_019_SCENE_05.png	2	2	60	SessionSelectionList														nonlure	3	Place	2-Back	52	80	46	0	0	50	3	39	210846	1	14	65	208807	-1	210217	1	1410	3	3	2039	53	210860	-54	0																60												
WM080112	221319_fnca	2	1	1	828876170	1	75.031	75.030	2.0.10.147	2.0.10.242	2.0.10.242	1.0.0.439	7	234	2	3	Verdana	1	80	0	0	0	WM Stimuli\	0.6	1461.16666666667	0.5	1698.6	0.8	1742.25	0.6	1632.33333333333	0.8	1504.625	0.9	1336	0.8	1455	0.5	1463.2	13	321122	2	321110	27	40	321149	-999999	321125	0	36	TrialsPROC	PL_017_SCENE_03.png	2	2	61	SessionSelectionList														nonlure	3	Place	2-Back	53	80	47	0	0	50	4	39	213418	2	14	72	211379	-1	212720	1	1341	3	3	2039	53	213432	-54	0																61												
WM080112	221319_fnca	2	1	1	828876170	1	75.031	75.030	2.0.10.147	2.0.10.242	2.0.10.242	1.0.0.439	7	234	2	3	Verdana	1	80	0	0	0	WM Stimuli\	0.6	1461.16666666667	0.5	1698.6	0.8	1742.25	0.6	1632.33333333333	0.8	1504.625	0.9	1336	0.8	1455	0.5	1463.2	13	321122	2	321110	27	40	321149	-999999	321125	0	36	TrialsPROC	PL_017_SCENE_03.png	2	2	62	SessionSelectionList														lure	3	Place	2-Back	54	80	48	0	0	50	5	40	215991	1	13	72	213951	-1	215750	1	1799	3	3	2040	53	216004	-54	0																62												
WM080112	221319_fnca	2	1	1	828876170	1	75.031	75.030	2.0.10.147	2.0.10.242	2.0.10.242	1.0.0.439	7	234	2	3	Verdana	1	80	0	0	0	WM Stimuli\	0.6	1461.16666666667	0.5	1698.6	0.8	1742.25	0.6	1632.33333333333	0.8	1504.625	0.9	1336	0.8	1455	0.5	1463.2	13	321122	2	321110	27	40	321149	-999999	321125	0	36	TrialsPROC	PL_016_SCENE_02.png	2	2	63	SessionSelectionList														nonlure	3	Place	2-Back	55	80	48	0	1	50	5	39	218563	1	14	73	216524	-1	0	0	0	""	3	2039	53	218577	-54	0																63												
WM080112	221319_fnca	2	1	1	828876170	1	75.031	75.030	2.0.10.147	2.0.10.242	2.0.10.242	1.0.0.439	7	234	2	3	Verdana	1	80	0	0	0	WM Stimuli\	0.6	1461.16666666667	0.5	1698.6	0.8	1742.25	0.6	1632.33333333333	0.8	1504.625	0.9	1336	0.8	1455	0.5	1463.2	13	321122	2	321110	27	40	321149	-999999	321125	0	36	TrialsPROC	PL_015_SCENE_01.png	2	2	64	SessionSelectionList														nonlure	3	Place	2-Back	56	80	49	0	0	50	1	39	221135	2	14	72	219096	-1	220376	1	1280	3	3	2039	53	221149	-54	0																64												
WM080112	221319_fnca	2	1	1	828876170	1	75.031	75.030	2.0.10.147	2.0.10.242	2.0.10.242	1.0.0.439	7	234	2	3	Verdana	1	80	0	0	0	WM Stimuli\	0.6	1461.16666666667	0.5	1698.6	0.8	1742.25	0.6	1632.33333333333	0.8	1504.625	0.9	1336	0.8	1455	0.5	1463.2	13	321122	2	321110	27	40	321149	-999999	321125	0	36	TrialsPROC	PL_016_SCENE_02.png	2	2	65	SessionSelectionList														target	2	Place	2-Back	57	80	50	0	0	50	1	40	223708	2	13	72	221668	-1	222848	1	1180	2	2	2040	53	223721	-54	0																65												
WM080112	221319_fnca	2	1	1	828876170	1	75.031	75.030	2.0.10.147	2.0.10.242	2.0.10.242	1.0.0.439	7	234	2	3	Verdana	1	80	0	0	0	WM Stimuli\	0.6	1461.16666666667	0.5	1698.6	0.8	1742.25	0.6	1632.33333333333	0.8	1504.625	0.9	1336	0.8	1455	0.5	1463.2	13	321122	2	321110	27	40	321149	-999999	321125	0	36	TrialsPROC	PL_015_SCENE_01.png	2	2	66	SessionSelectionList														target	2	Place	2-Back	58	80	51	0	0	50	1	39	226280	1	14	73	224241	-1	225527	0	1286	3	2	2039	53	226294	-54	0																66												
WM080112	221319_fnca	2	1	1	828876170	1	75.031	75.030	2.0.10.147	2.0.10.242	2.0.10.242	1.0.0.439	7	234	2	3	Verdana	1	80	0	0	0	WM Stimuli\	0.6	1461.16666666667	0.5	1698.6	0.8	1742.25	0.6	1632.33333333333	0.8	1504.625	0.9	1336	0.8	1455	0.5	1463.2	13	321122	2	321110	27	40	321149	-999999	321125	0	36	TrialsPROC	PL_020_SCENE_06.png	2	2	67	SessionSelectionList														nonlure	3	Place	2-Back	59	80	52	0	0	50	2	39	228879	2	14	99	226840	-1	228532	1	1692	3	3	2039	53	228893	-54	0																67												
WM080112	221319_fnca	2	1	1	828876170	1	75.031	75.030	2.0.10.147	2.0.10.242	2.0.10.242	1.0.0.439	7	234	2	3	Verdana	1	80	0	0	0	WM Stimuli\	0.6	1461.16666666667	0.5	1698.6	0.8	1742.25	0.6	1632.33333333333	0.8	1504.625	0.9	1336	0.8	1455	0.5	1463.2	13	321122	2	321110	27	40	321149	-999999	321125	0	36	TrialsPROC	PL_020_SCENE_06.png	2	2	68	SessionSelectionList														lure	3	Place	2-Back	60	80	53	0	0	50	3	39	231451	2	14	72	229412	-1	231081	1	1669	3	3	2039	53	231465	-54	0																68												
WM080112	221319_fnca	2	1	1	828876170	1	75.031	75.030	2.0.10.147	2.0.10.242	2.0.10.242	1.0.0.439	7	234	2	3	Verdana	1	80	0	0	0	WM Stimuli\	0.6	1461.16666666667	0.5	1698.6	0.8	1742.25	0.6	1632.33333333333	0.8	1504.625	0.9	1336	0.8	1455	0.5	1463.2	13	321122	2	321110	27	40	321149	-999999	321125	0	36	TrialsPROC	PL_018_SCENE_04.png	2	2	69	SessionSelectionList														nonlure	3	Place	2-Back	61	80	54	0	0	50	4	39	234037	1	13	86	231998	-1	233664	1	1666	3	3	2039	52	234050	-53	0																69												
WM080112	221319_fnca	2	1	1	828876170	1	75.031	75.030	2.0.10.147	2.0.10.242	2.0.10.242	1.0.0.439	7	234	2	3	Verdana	1	80	0	0	0	WM Stimuli\	0.6	1461.16666666667	0.5	1698.6	0.8	1742.25	0.6	1632.33333333333	0.8	1504.625	0.9	1336	0.8	1455	0.5	1463.2	13	321122	2	321110	27	40	321149	-999999	321125	0	37	Fix15secPROC	""	2	2	70	SessionSelectionList																																															6	234504	-7	0							70												
WM080112	221319_fnca	2	1	1	828876170	1	75.031	75.030	2.0.10.147	2.0.10.242	2.0.10.242	1.0.0.439	7	234	2	3	Verdana	1	80	0	0	0	WM Stimuli\	0.6	1461.16666666667	0.5	1698.6	0.8	1742.25	0.6	1632.33333333333	0.8	1504.625	0.9	1336	0.8	1455	0.5	1463.2	13	321122	2	321110	27	40	321149	-999999	321125	0	38	Cue0BackPROC	FC_020_F10.png	2	2	71	SessionSelectionList																																										52	249550	-53	0												71												
WM080112	221319_fnca	2	1	1	828876170	1	75.031	75.030	2.0.10.147	2.0.10.242	2.0.10.242	1.0.0.439	7	234	2	3	Verdana	1	80	0	0	0	WM Stimuli\	0.6	1461.16666666667	0.5	1698.6	0.8	1742.25	0.6	1632.33333333333	0.8	1504.625	0.9	1336	0.8	1455	0.5	1463.2	13	321122	2	321110	27	40	321149	-999999	321125	0	39	TrialsPROC	FC_024_F12.png	2	2	72	SessionSelectionList														nonlure	3	Face	0-Back	62	80	55	0	0	52	5	39	254135	3	14	98	252096	-1	253474	1	1378	3	3	2039	53	254149	-54	0																72												
WM080112	221319_fnca	2	1	1	828876170	1	75.031	75.030	2.0.10.147	2.0.10.242	2.0.10.242	1.0.0.439	7	234	2	3	Verdana	1	80	0	0	0	WM Stimuli\	0.6	1461.16666666667	0.5	1698.6	0.8	1742.25	0.6	1632.33333333333	0.8	1504.625	0.9	1336	0.8	1455	0.5	1463.2	13	321122	2	321110	27	40	321149	-999999	321125	0	39	TrialsPROC	FC_023_M12.png	2	2	73	SessionSelectionList														nonlure	3	Face	0-Back	63	80	56	0	0	55	6	39	256721	2	14	86	254682	-1	256164	1	1482	3	3	2039	53	256735	-54	0																73												
WM080112	221319_fnca	2	1	1	828876170	1	75.031	75.030	2.0.10.147	2.0.10.242	2.0.10.242	1.0.0.439	7	234	2	3	Verdana	1	80	0	0	0	WM Stimuli\	0.6	1461.16666666667	0.5	1698.6	0.8	1742.25	0.6	1632.33333333333	0.8	1504.625	0.9	1336	0.8	1455	0.5	1463.2	13	321122	2	321110	27	40	321149	-999999	321125	0	39	TrialsPROC	FC_020_F10.png	2	2	74	SessionSelectionList														target	2	Face	0-Back	64	80	57	0	0	52	7	39	259293	3	14	72	257254	-1	258735	0	1481	3	2	2039	53	259307	-54	0																74												
WM080112	221319_fnca	2	1	1	828876170	1	75.031	75.030	2.0.10.147	2.0.10.242	2.0.10.242	1.0.0.439	7	234	2	3	Verdana	1	80	0	0	0	WM Stimuli\	0.6	1461.16666666667	0.5	1698.6	0.8	1742.25	0.6	1632.33333333333	0.8	1504.625	0.9	1336	0.8	1455	0.5	1463.2	13	321122	2	321110	27	40	321149	-999999	321125	0	39	TrialsPROC	FC_024_F12.png	2	2	75	SessionSelectionList														lure	3	Face	0-Back	65	80	58	0	0	50	1	40	261866	2	13	72	259826	-1	260689	0	863	2	3	2040	53	261879	-54	0																75												
WM080112	221319_fnca	2	1	1	828876170	1	75.031	75.030	2.0.10.147	2.0.10.242	2.0.10.242	1.0.0.439	7	234	2	3	Verdana	1	80	0	0	0	WM Stimuli\	0.6	1461.16666666667	0.5	1698.6	0.8	1742.25	0.6	1632.33333333333	0.8	1504.625	0.9	1336	0.8	1455	0.5	1463.2	13	321122	2	321110	27	40	321149	-999999	321125	0	39	TrialsPROC	FC_020_F10.png	2	2	76	SessionSelectionList														target	2	Face	0-Back	66	80	59	0	0	48	1	39	264438	1	14	73	262399	-1	263836	0	1437	3	2	2039	53	264452	-54	0																76												
WM080112	221319_fnca	2	1	1	828876170	1	75.031	75.030	2.0.10.147	2.0.10.242	2.0.10.242	1.0.0.439	7	234	2	3	Verdana	1	80	0	0	0	WM Stimuli\	0.6	1461.16666666667	0.5	1698.6	0.8	1742.25	0.6	1632.33333333333	0.8	1504.625	0.9	1336	0.8	1455	0.5	1463.2	13	321122	2	321110	27	40	321149	-999999	321125	0	39	TrialsPROC	FC_022_F11.png	2	2	77	SessionSelectionList														nonlure	3	Face	0-Back	67	80	60	0	0	50	2	39	267037	1	14	99	264998	-1	266617	1	1619	3	3	2039	53	267051	-54	0																77												
WM080112	221319_fnca	2	1	1	828876170	1	75.031	75.030	2.0.10.147	2.0.10.242	2.0.10.242	1.0.0.439	7	234	2	3	Verdana	1	80	0	0	0	WM Stimuli\	0.6	1461.16666666667	0.5	1698.6	0.8	1742.25	0.6	1632.33333333333	0.8	1504.625	0.9	1336	0.8	1455	0.5	1463.2	13	321122	2	321110	27	40	321149	-999999	321125	0	39	TrialsPROC	FC_023_M12.png	2	2	78	SessionSelectionList														lure	3	Face	0-Back	68	80	61	0	0	48	1	39	269609	3	14	72	267570	-1	269029	0	1459	2	3	2039	53	269623	-54	0																78												
WM080112	221319_fnca	2	1	1	828876170	1	75.031	75.030	2.0.10.147	2.0.10.242	2.0.10.242	1.0.0.439	7	234	2	3	Verdana	1	80	0	0	0	WM Stimuli\	0.6	1461.16666666667	0.5	1698.6	0.8	1742.25	0.6	1632.33333333333	0.8	1504.625	0.9	1336	0.8	1455	0.5	1463.2	13	321122	2	321110	27	40	321149	-999999	321125	0	39	TrialsPROC	FC_021_M11.png	2	2	79	SessionSelectionList														nonlure	3	Face	0-Back	69	80	62	0	0	50	1	39	272195	2	13	86	270156	-1	271734	1	1578	3	3	2039	52	272208	-53	0																79												
WM080112	221319_fnca	2	1	1	828876170	1	75.031	75.030	2.0.10.147	2.0.10.242	2.0.10.242	1.0.0.439	7	234	2	3	Verdana	1	80	0	0	0	WM Stimuli\	0.6	1461.16666666667	0.5	1698.6	0.8	1742.25	0.6	1632.33333333333	0.8	1504.625	0.9	1336	0.8	1455	0.5	1463.2	13	321122	2	321110	27	40	321149	-999999	321125	0	39	TrialsPROC	FC_021_M11.png	2	2	80	SessionSelectionList														lure	3	Face	0-Back	70	80	63	0	0	52	2	39	274767	1	14	72	272728	-1	274662	1	1934	3	3	2039	53	274781	-54	0																80												
WM080112	221319_fnca	2	1	1	828876170	1	75.031	75.030	2.0.10.147	2.0.10.242	2.0.10.242	1.0.0.439	7	234	2	3	Verdana	1	80	0	0	0	WM Stimuli\	0.6	1461.16666666667	0.5	1698.6	0.8	1742.25	0.6	1632.33333333333	0.8	1504.625	0.9	1336	0.8	1455	0.5	1463.2	13	321122	2	321110	27	40	321149	-999999	321125	0	39	TrialsPROC	FC_019_M10.png	2	2	81	SessionSelectionList														nonlure	3	Face	0-Back	71	80	64	0	0	53	3	40	277353	2	13	85	275313	-1	277116	1	1803	3	3	2040	53	277366	-54	0																81												
WM080112	221319_fnca	2	1	1	828876170	1	75.031	75.030	2.0.10.147	2.0.10.242	2.0.10.242	1.0.0.439	7	234	2	3	Verdana	1	80	0	0	0	WM Stimuli\	0.6	1461.16666666667	0.5	1698.6	0.8	1742.25	0.6	1632.33333333333	0.8	1504.625	0.9	1336	0.8	1455	0.5	1463.2	13	321122	2	321110	27	40	321149	-999999	321125	0	40	Cue0BackPROC	PL_021_SCENE_07.png	2	2	82	SessionSelectionList																																										46	277859	-47	0												82												
WM080112	221319_fnca	2	1	1	828876170	1	75.031	75.030	2.0.10.147	2.0.10.242	2.0.10.242	1.0.0.439	7	234	2	3	Verdana	1	80	0	0	0	WM Stimuli\	0.6	1461.16666666667	0.5	1698.6	0.8	1742.25	0.6	1632.33333333333	0.8	1504.625	0.9	1336	0.8	1455	0.5	1463.2	13	321122	2	321110	27	40	321149	-999999	321125	0	41	TrialsPROC	PL_025_SCENE_18.png	2	2	83	SessionSelectionList														nonlure	3	Place	0-Back	72	80	64	1	0	55	4	39	282444	2	14	92	280405	-1	280451	1	46	3	3	2039	53	282458	-54	0																83												
WM080112	221319_fnca	2	1	1	828876170	1	75.031	75.030	2.0.10.147	2.0.10.242	2.0.10.242	1.0.0.439	7	234	2	3	Verdana	1	80	0	0	0	WM Stimuli\	0.6	1461.16666666667	0.5	1698.6	0.8	1742.25	0.6	1632.33333333333	0.8	1504.625	0.9	1336	0.8	1455	0.5	1463.2	13	321122	2	321110	27	40	321149	-999999	321125	0	41	TrialsPROC	PL_026_SCENE_24.png	2	2	84	SessionSelectionList														nonlure	3	Place	0-Back	73	80	65	0	0	56	5	39	285029	2	14	85	282990	-1	284725	1	1735	3	3	2039	53	285043	-54	0																84												
WM080112	221319_fnca	2	1	1	828876170	1	75.031	75.030	2.0.10.147	2.0.10.242	2.0.10.242	1.0.0.439	7	234	2	3	Verdana	1	80	0	0	0	WM Stimuli\	0.6	1461.16666666667	0.5	1698.6	0.8	1742.25	0.6	1632.33333333333	0.8	1504.625	0.9	1336	0.8	1455	0.5	1463.2	13	321122	2	321110	27	40	321149	-999999	321125	0	41	TrialsPROC	PL_025_SCENE_18.png	2	2	85	SessionSelectionList														lure	3	Place	0-Back	74	80	66	0	0	58	6	39	287602	1	14	73	285563	-1	287002	1	1439	3	3	2039	53	287616	-54	0																85												
WM080112	221319_fnca	2	1	1	828876170	1	75.031	75.030	2.0.10.147	2.0.10.242	2.0.10.242	1.0.0.439	7	234	2	3	Verdana	1	80	0	0	0	WM Stimuli\	0.6	1461.16666666667	0.5	1698.6	0.8	1742.25	0.6	1632.33333333333	0.8	1504.625	0.9	1336	0.8	1455	0.5	1463.2	13	321122	2	321110	27	40	321149	-999999	321125	0	41	TrialsPROC	PL_022_SCENE_08.png	2	2	86	SessionSelectionList														nonlure	3	Place	0-Back	75	80	67	0	0	59	7	39	290201	2	14	99	288162	-1	289570	1	1408	3	3	2039	53	290215	-54	0																86												
WM080112	221319_fnca	2	1	1	828876170	1	75.031	75.030	2.0.10.147	2.0.10.242	2.0.10.242	1.0.0.439	7	234	2	3	Verdana	1	80	0	0	0	WM Stimuli\	0.6	1461.16666666667	0.5	1698.6	0.8	1742.25	0.6	1632.33333333333	0.8	1504.625	0.9	1336	0.8	1455	0.5	1463.2	13	321122	2	321110	27	40	321149	-999999	321125	0	41	TrialsPROC	PL_026_SCENE_24.png	2	2	87	SessionSelectionList														lure	3	Place	0-Back	76	80	68	0	0	60	8	39	292773	3	14	72	290734	-1	292382	1	1648	3	3	2039	53	292787	-54	0																87												
WM080112	221319_fnca	2	1	1	828876170	1	75.031	75.030	2.0.10.147	2.0.10.242	2.0.10.242	1.0.0.439	7	234	2	3	Verdana	1	80	0	0	0	WM Stimuli\	0.6	1461.16666666667	0.5	1698.6	0.8	1742.25	0.6	1632.33333333333	0.8	1504.625	0.9	1336	0.8	1455	0.5	1463.2	13	321122	2	321110	27	40	321149	-999999	321125	0	41	TrialsPROC	PL_021_SCENE_07.png	2	2	88	SessionSelectionList														target	2	Place	0-Back	77	80	69	0	0	61	1	39	295345	2	14	72	293306	-1	294862	1	1556	2	2	2039	53	295359	-54	0																88												
WM080112	221319_fnca	2	1	1	828876170	1	75.031	75.030	2.0.10.147	2.0.10.242	2.0.10.242	1.0.0.439	7	234	2	3	Verdana	1	80	0	0	0	WM Stimuli\	0.6	1461.16666666667	0.5	1698.6	0.8	1742.25	0.6	1632.33333333333	0.8	1504.625	0.9	1336	0.8	1455	0.5	1463.2	13	321122	2	321110	27	40	321149	-999999	321125	0	41	TrialsPROC	PL_021_SCENE_07.png	2	2	89	SessionSelectionList														target	2	Place	0-Back	78	80	70	0	0	62	2	40	297918	2	13	72	295878	-1	297142	1	1264	2	2	2040	53	297931	-54	0																89												
WM080112	221319_fnca	2	1	1	828876170	1	75.031	75.030	2.0.10.147	2.0.10.242	2.0.10.242	1.0.0.439	7	234	2	3	Verdana	1	80	0	0	0	WM Stimuli\	0.6	1461.16666666667	0.5	1698.6	0.8	1742.25	0.6	1632.33333333333	0.8	1504.625	0.9	1336	0.8	1455	0.5	1463.2	13	321122	2	321110	27	40	321149	-999999	321125	0	41	TrialsPROC	PL_023_SCENE_09.png	2	2	90	SessionSelectionList														nonlure	3	Place	0-Back	79	80	71	0	0	63	1	39	300490	2	14	73	298451	-1	299862	1	1411	3	3	2039	53	300504	-54	0																90												
WM080112	221319_fnca	2	1	1	828876170	1	75.031	75.030	2.0.10.147	2.0.10.242	2.0.10.242	1.0.0.439	7	234	2	3	Verdana	1	80	0	0	0	WM Stimuli\	0.6	1461.16666666667	0.5	1698.6	0.8	1742.25	0.6	1632.33333333333	0.8	1504.625	0.9	1336	0.8	1455	0.5	1463.2	13	321122	2	321110	27	40	321149	-999999	321125	0	41	TrialsPROC	PL_024_SCENE_10.png	2	2	91	SessionSelectionList														nonlure	3	Place	0-Back	80	80	72	0	0	64	2	40	303076	2	13	85	301036	-1	302553	1	1517	3	3	2040	53	303089	-54	0																91												
WM080112	221319_fnca	2	1	1	828876170	1	75.031	75.030	2.0.10.147	2.0.10.242	2.0.10.242	1.0.0.439	7	234	2	3	Verdana	1	80	0	0	0	WM Stimuli\	0.6	1461.16666666667	0.5	1698.6	0.8	1742.25	0.6	1632.33333333333	0.8	1504.625	0.9	1336	0.8	1455	0.5	1463.2	13	321122	2	321110	27	40	321149	-999999	321125	0	41	TrialsPROC	PL_022_SCENE_08.png	2	2	92	SessionSelectionList														lure	3	Place	0-Back	80	80	73	0	0	62	1	39	305648	2	14	73	303609	-1	305356	0	1747	2	3	2039	53	305662	-54	0																92												
WM080112	221319_fnca	2	1	1	828876170	1	75.031	75.030	2.0.10.147	2.0.10.242	2.0.10.242	1.0.0.439	7	234	2	3	Verdana	1	80	0	0	0	WM Stimuli\	0.6	1461.16666666667	0.5	1698.6	0.8	1742.25	0.6	1632.33333333333	0.8	1504.625	0.9	1336	0.8	1455	0.5	1463.2	13	321122	2	321110	27	40	321149	-999999	321125	0	42	Fix15secPROC	""	2	2	93	SessionSelectionList																																															6	306115	-7	0							93												
