ExperimentName	HCPID	RunNumber	Subject	Session	RandomSeed	Group	Laptop.RefreshRate	ScannerD2.RefreshRate	StudioVersion	RuntimeVersion	RuntimeVersionExpected	ExperimentVersion	triggercode	Allowed	Target	Nontarget	FontStyle	RunTrialNumber[Session]	TrialsPerRun[Session]	TotalRespGreater200[Session]	ConsecRTLess200[Session]	ConsecNonResp[Session]	StimuliDir	ACC_2_Back_Body	Avg_RT_For_Correct_Trials_2_Back_Body	ACC_0_Back_Body	Avg_RT_For_Correct_Trials_0_Back_Body	ACC_2_Back_Face	Avg_RT_For_Correct_Trials_2_Back_Face	ACC_0_Back_Face	Avg_RT_For_Correct_Trials_0_Back_Face	ACC_2_Back_Place	Avg_RT_For_Correct_Trials_2_Back_Place	ACC_0_Back_Place	Avg_RT_For_Correct_Trials_0_Back_Place	ACC_2_Back_Tools	Avg_RT_For_Correct_Trials_2_Back_Tools	ACC_0_Back_Tools	Avg_RT_For_Correct_Trials_0_Back_Tools	ExpInstrucFeelFreeToRest.OnsetDelay	ExpInstrucFeelFreeToRest.OnsetTime	ExpInstrucFeelFreeToRest.DurationError	ExpInstrucFeelFreeToRest.StartTime	ExpInstrucFeelFreeToRest.OnsetToOnsetTime	FeelFreeToRest.OnsetDelay	FeelFreeToRest.OnsetTime	FeelFreeToRest.DurationError	FeelFreeToRest.StartTime	FeelFreeToRest.OnsetToOnsetTime	SessionSelectionList	Procedure[Block]	Stimulus[Block]	RunNumberFilterValue	SessionSelectionList.Cycle	SessionSelectionList.Sample	Running[Block]	IntroButtonMap.OnsetDelay	IntroButtonMap.OnsetTime	IntroButtonMap.DurationError	IntroButtonMap.OnsetToOnsetTime	GetReady.OnsetDelay	GetReady.OnsetTime	GetReady.DurationError	GetReady.OnsetToOnsetTime	Cue2Back.OnsetDelay	Cue2Back.OnsetTime	Cue2Back.DurationError	Cue2Back.OnsetToOnsetTime	Run1Block1	TargetType	CorrectResponse	StimType	BlockType	RunTrialNumber[Block]	TrialsPerRun[Block]	TotalRespGreater200[Block]	ConsecRTLess200[Block]	ConsecNonResp[Block]	ControlAcc	ConsecSameResp	ExperimenterWindow.OnsetDelay	ExperimenterWindow.OnsetTime	ExperimenterWindow.DurationError	ExperimenterWindow.OnsetToOnsetTime	Stim.OnsetDelay	Stim.OnsetTime	Stim.DurationError	Stim.RTTime	Stim.ACC	Stim.RT	Stim.RESP	Stim.CRESP	Stim.OnsetToOnsetTime	Fix.OnsetDelay	Fix.OnsetTime	Fix.DurationError	Fix.OnsetToOnsetTime	CueTarget.OnsetDelay	CueTarget.OnsetTime	CueTarget.DurationError	CueTarget.OnsetToOnsetTime	Run1Block2	Fix15sec.OnsetDelay	Fix15sec.OnsetTime	Fix15sec.DurationError	Fix15sec.OnsetToOnsetTime	Run1Block3	Run1Block4	Run1Block5	Run1Block6	Run1Block7	Run1Block8	Block	Procedure[Trial]	Stimulus[Trial]	ReadyList	Running[Trial]	ReadyList.Cycle	ReadyList.Sample	SyncSlide.OnsetDelay	SyncSlide.OnsetTime	SyncSlide.DurationError	SyncSlide.FinishTime	SyncSlide.OnsetToOnsetTime	Trial
WM080112	208226_fnca	1	1	1	924885471	1	75.031	75.031	2.0.10.147	2.0.10.242	2.0.10.242	1.0.0.439	7	234	2	3	Verdana	1	80	0	0	0	WM Stimuli\	0.8	1223.75	1	870.9	0.9	1051.33333333333	1	876.7	0.9	1059.44444444444	1	901.3	0.9	1154.66666666667	1	824.3	12	574038	2	574027	27	39	574065	-999999	574040	0	1	TRSyncPROC	""	1	2	1	SessionSelectionList	106	235206	-999999	0	31	266153	-999999	0																																																	1	InitialTR	4	1	ReadyList	1	1	16	280853	-17	282836	0	1
WM080112	208226_fnca	1	1	1	924885471	1	75.031	75.031	2.0.10.147	2.0.10.242	2.0.10.242	1.0.0.439	7	234	2	3	Verdana	1	80	0	0	0	WM Stimuli\	0.8	1223.75	1	870.9	0.9	1051.33333333333	1	876.7	0.9	1059.44444444444	1	901.3	0.9	1154.66666666667	1	824.3	12	574038	2	574027	27	39	574065	-999999	574040	0	1	TRSyncPROC	""	1	2	1	SessionSelectionList	106	235206	-999999	0	31	266153	-999999	0																																																	1	InitialTR	3	2	ReadyList	1	2	15	282852	-16	284836	0	2
WM080112	208226_fnca	1	1	1	924885471	1	75.031	75.031	2.0.10.147	2.0.10.242	2.0.10.242	1.0.0.439	7	234	2	3	Verdana	1	80	0	0	0	WM Stimuli\	0.8	1223.75	1	870.9	0.9	1051.33333333333	1	876.7	0.9	1059.44444444444	1	901.3	0.9	1154.66666666667	1	824.3	12	574038	2	574027	27	39	574065	-999999	574040	0	1	TRSyncPROC	""	1	2	1	SessionSelectionList	106	235206	-999999	0	31	266153	-999999	0																																																	1	InitialTR	2	3	ReadyList	1	3	14	284851	-15	286836	0	3
WM080112	208226_fnca	1	1	1	924885471	1	75.031	75.031	2.0.10.147	2.0.10.242	2.0.10.242	1.0.0.439	7	234	2	3	Verdana	1	80	0	0	0	WM Stimuli\	0.8	1223.75	1	870.9	0.9	1051.33333333333	1	876.7	0.9	1059.44444444444	1	901.3	0.9	1154.66666666667	1	824.3	12	574038	2	574027	27	39	574065	-999999	574040	0	1	TRSyncPROC	""	1	2	1	SessionSelectionList	106	235206	-999999	0	31	266153	-999999	0																																																	1	InitialTR	1	4	ReadyList	1	4	14	286851	-15	288836	0	4
WM080112	208226_fnca	1	1	1	924885471	1	75.031	75.031	2.0.10.147	2.0.10.242	2.0.10.242	1.0.0.439	7	234	2	3	Verdana	1	80	0	0	0	WM Stimuli\	0.8	1223.75	1	870.9	0.9	1051.33333333333	1	876.7	0.9	1059.44444444444	1	901.3	0.9	1154.66666666667	1	824.3	12	574038	2	574027	27	39	574065	-999999	574040	0	2	Cue2BackPROC	""	1	2	2	SessionSelectionList									13	288850	-14	0																																													2												
WM080112	208226_fnca	1	1	1	924885471	1	75.031	75.031	2.0.10.147	2.0.10.242	2.0.10.242	1.0.0.439	7	234	2	3	Verdana	1	80	0	0	0	WM Stimuli\	0.8	1223.75	1	870.9	0.9	1051.33333333333	1	876.7	0.9	1059.44444444444	1	901.3	0.9	1154.66666666667	1	824.3	12	574038	2	574027	27	39	574065	-999999	574040	0	3	TrialsPROC	BP_002_BP10_BA.png	1	2	3	SessionSelectionList													1	nonlure	3	Body	2-Back	2	80	1	0	0	0	1	53	293475	2	13	85	291422	-1	292553	1	1131	3	3	2053	66	293488	-67	0																3												
WM080112	208226_fnca	1	1	1	924885471	1	75.031	75.031	2.0.10.147	2.0.10.242	2.0.10.242	1.0.0.439	7	234	2	3	Verdana	1	80	0	0	0	WM Stimuli\	0.8	1223.75	1	870.9	0.9	1051.33333333333	1	876.7	0.9	1059.44444444444	1	901.3	0.9	1154.66666666667	1	824.3	12	574038	2	574027	27	39	574065	-999999	574040	0	3	TrialsPROC	BP_001_BP1_BA.png	1	2	4	SessionSelectionList													2	nonlure	3	Body	2-Back	3	80	2	0	0	0	2	39	296033	2	14	72	293994	-1	295168	1	1174	3	3	2039	53	296047	-54	0																4												
WM080112	208226_fnca	1	1	1	924885471	1	75.031	75.031	2.0.10.147	2.0.10.242	2.0.10.242	1.0.0.439	7	234	2	3	Verdana	1	80	0	0	0	WM Stimuli\	0.8	1223.75	1	870.9	0.9	1051.33333333333	1	876.7	0.9	1059.44444444444	1	901.3	0.9	1154.66666666667	1	824.3	12	574038	2	574027	27	39	574065	-999999	574040	0	3	TrialsPROC	BP_006_BP2_BA.png	1	2	5	SessionSelectionList													3	nonlure	3	Body	2-Back	4	80	3	0	0	0	3	39	298592	2	14	59	296553	-1	298046	1	1493	3	3	2039	53	298606	-54	0																5												
WM080112	208226_fnca	1	1	1	924885471	1	75.031	75.031	2.0.10.147	2.0.10.242	2.0.10.242	1.0.0.439	7	234	2	3	Verdana	1	80	0	0	0	WM Stimuli\	0.8	1223.75	1	870.9	0.9	1051.33333333333	1	876.7	0.9	1059.44444444444	1	901.3	0.9	1154.66666666667	1	824.3	12	574038	2	574027	27	39	574065	-999999	574040	0	3	TrialsPROC	BP_001_BP1_BA.png	1	2	6	SessionSelectionList													4	target	2	Body	2-Back	5	80	4	0	0	0	1	39	301165	1	13	73	299126	-1	300271	1	1145	2	2	2039	52	301178	-53	0																6												
WM080112	208226_fnca	1	1	1	924885471	1	75.031	75.031	2.0.10.147	2.0.10.242	2.0.10.242	1.0.0.439	7	234	2	3	Verdana	1	80	0	0	0	WM Stimuli\	0.8	1223.75	1	870.9	0.9	1051.33333333333	1	876.7	0.9	1059.44444444444	1	901.3	0.9	1154.66666666667	1	824.3	12	574038	2	574027	27	39	574065	-999999	574040	0	3	TrialsPROC	BP_005_BP19_BA.png	1	2	7	SessionSelectionList													5	nonlure	3	Body	2-Back	6	80	5	0	0	0	1	39	303737	1	14	72	301698	-1	303403	1	1705	3	3	2039	53	303751	-54	0																7												
WM080112	208226_fnca	1	1	1	924885471	1	75.031	75.031	2.0.10.147	2.0.10.242	2.0.10.242	1.0.0.439	7	234	2	3	Verdana	1	80	0	0	0	WM Stimuli\	0.8	1223.75	1	870.9	0.9	1051.33333333333	1	876.7	0.9	1059.44444444444	1	901.3	0.9	1154.66666666667	1	824.3	12	574038	2	574027	27	39	574065	-999999	574040	0	3	TrialsPROC	BP_003_BP16_BA.png	1	2	8	SessionSelectionList													6	nonlure	3	Body	2-Back	7	80	6	0	0	0	2	39	306296	1	14	59	304257	-1	305379	1	1122	3	3	2039	53	306310	-54	0																8												
WM080112	208226_fnca	1	1	1	924885471	1	75.031	75.031	2.0.10.147	2.0.10.242	2.0.10.242	1.0.0.439	7	234	2	3	Verdana	1	80	0	0	0	WM Stimuli\	0.8	1223.75	1	870.9	0.9	1051.33333333333	1	876.7	0.9	1059.44444444444	1	901.3	0.9	1154.66666666667	1	824.3	12	574038	2	574027	27	39	574065	-999999	574040	0	3	TrialsPROC	BP_006_BP2_BA.png	1	2	9	SessionSelectionList													7	lure	3	Body	2-Back	8	80	7	0	0	0	3	39	308855	1	13	59	306816	-1	308728	1	1912	3	3	2039	52	308868	-53	0																9												
WM080112	208226_fnca	1	1	1	924885471	1	75.031	75.031	2.0.10.147	2.0.10.242	2.0.10.242	1.0.0.439	7	234	2	3	Verdana	1	80	0	0	0	WM Stimuli\	0.8	1223.75	1	870.9	0.9	1051.33333333333	1	876.7	0.9	1059.44444444444	1	901.3	0.9	1154.66666666667	1	824.3	12	574038	2	574027	27	39	574065	-999999	574040	0	3	TrialsPROC	BP_004_BP18_BA.png	1	2	10	SessionSelectionList													8	nonlure	3	Body	2-Back	9	80	7	0	1	0	3	39	311414	1	13	59	309375	-1	0	0	0	""	3	2039	52	311427	-53	0																10												
WM080112	208226_fnca	1	1	1	924885471	1	75.031	75.031	2.0.10.147	2.0.10.242	2.0.10.242	1.0.0.439	7	234	2	3	Verdana	1	80	0	0	0	WM Stimuli\	0.8	1223.75	1	870.9	0.9	1051.33333333333	1	876.7	0.9	1059.44444444444	1	901.3	0.9	1154.66666666667	1	824.3	12	574038	2	574027	27	39	574065	-999999	574040	0	3	TrialsPROC	BP_005_BP19_BA.png	1	2	11	SessionSelectionList													9	lure	3	Body	2-Back	10	80	7	1	0	0	1	39	313973	1	13	59	311934	-1	312042	1	108	3	3	2039	52	313986	-53	0																11												
WM080112	208226_fnca	1	1	1	924885471	1	75.031	75.031	2.0.10.147	2.0.10.242	2.0.10.242	1.0.0.439	7	234	2	3	Verdana	1	80	0	0	0	WM Stimuli\	0.8	1223.75	1	870.9	0.9	1051.33333333333	1	876.7	0.9	1059.44444444444	1	901.3	0.9	1154.66666666667	1	824.3	12	574038	2	574027	27	39	574065	-999999	574040	0	3	TrialsPROC	BP_004_BP18_BA.png	1	2	12	SessionSelectionList													10	target	2	Body	2-Back	11	80	8	0	0	0	2	40	316532	1	13	58	314492	-1	315686	0	1194	3	2	2040	53	316545	-54	0																12												
WM080112	208226_fnca	1	1	1	924885471	1	75.031	75.031	2.0.10.147	2.0.10.242	2.0.10.242	1.0.0.439	7	234	2	3	Verdana	1	80	0	0	0	WM Stimuli\	0.8	1223.75	1	870.9	0.9	1051.33333333333	1	876.7	0.9	1059.44444444444	1	901.3	0.9	1154.66666666667	1	824.3	12	574038	2	574027	27	39	574065	-999999	574040	0	4	Cue0BackPROC	FC_001_M1.png	1	2	13	SessionSelectionList																																										19	317011	-20	0												13												
WM080112	208226_fnca	1	1	1	924885471	1	75.031	75.031	2.0.10.147	2.0.10.242	2.0.10.242	1.0.0.439	7	234	2	3	Verdana	1	80	0	0	0	WM Stimuli\	0.8	1223.75	1	870.9	0.9	1051.33333333333	1	876.7	0.9	1059.44444444444	1	901.3	0.9	1154.66666666667	1	824.3	12	574038	2	574027	27	39	574065	-999999	574040	0	5	TrialsPROC	FC_005_M3.png	1	2	14	SessionSelectionList														nonlure	3	Face	0-Back	12	80	9	0	0	100	3	39	321596	1	14	65	319557	-1	320591	1	1034	3	3	2039	53	321610	-54	0					1											14												
WM080112	208226_fnca	1	1	1	924885471	1	75.031	75.031	2.0.10.147	2.0.10.242	2.0.10.242	1.0.0.439	7	234	2	3	Verdana	1	80	0	0	0	WM Stimuli\	0.8	1223.75	1	870.9	0.9	1051.33333333333	1	876.7	0.9	1059.44444444444	1	901.3	0.9	1154.66666666667	1	824.3	12	574038	2	574027	27	39	574065	-999999	574040	0	5	TrialsPROC	FC_001_M1.png	1	2	15	SessionSelectionList														target	2	Face	0-Back	13	80	10	0	0	100	1	39	324168	2	14	72	322129	-1	322957	1	828	2	2	2039	53	324182	-54	0					2											15												
WM080112	208226_fnca	1	1	1	924885471	1	75.031	75.031	2.0.10.147	2.0.10.242	2.0.10.242	1.0.0.439	7	234	2	3	Verdana	1	80	0	0	0	WM Stimuli\	0.8	1223.75	1	870.9	0.9	1051.33333333333	1	876.7	0.9	1059.44444444444	1	901.3	0.9	1154.66666666667	1	824.3	12	574038	2	574027	27	39	574065	-999999	574040	0	5	TrialsPROC	FC_003_M2.png	1	2	16	SessionSelectionList														nonlure	3	Face	0-Back	14	80	11	0	0	100	1	39	326741	1	13	73	324702	-1	325553	1	851	3	3	2039	52	326754	-53	0					3											16												
WM080112	208226_fnca	1	1	1	924885471	1	75.031	75.031	2.0.10.147	2.0.10.242	2.0.10.242	1.0.0.439	7	234	2	3	Verdana	1	80	0	0	0	WM Stimuli\	0.8	1223.75	1	870.9	0.9	1051.33333333333	1	876.7	0.9	1059.44444444444	1	901.3	0.9	1154.66666666667	1	824.3	12	574038	2	574027	27	39	574065	-999999	574040	0	5	TrialsPROC	FC_004_F2.png	1	2	17	SessionSelectionList														nonlure	3	Face	0-Back	15	80	12	0	0	100	2	39	329313	1	14	72	327274	-1	328138	1	864	3	3	2039	53	329327	-54	0					4											17												
WM080112	208226_fnca	1	1	1	924885471	1	75.031	75.031	2.0.10.147	2.0.10.242	2.0.10.242	1.0.0.439	7	234	2	3	Verdana	1	80	0	0	0	WM Stimuli\	0.8	1223.75	1	870.9	0.9	1051.33333333333	1	876.7	0.9	1059.44444444444	1	901.3	0.9	1154.66666666667	1	824.3	12	574038	2	574027	27	39	574065	-999999	574040	0	5	TrialsPROC	FC_004_F2.png	1	2	18	SessionSelectionList														lure	3	Face	0-Back	16	80	13	0	0	100	3	39	331885	1	14	72	329846	-1	330651	1	805	3	3	2039	53	331899	-54	0					5											18												
WM080112	208226_fnca	1	1	1	924885471	1	75.031	75.031	2.0.10.147	2.0.10.242	2.0.10.242	1.0.0.439	7	234	2	3	Verdana	1	80	0	0	0	WM Stimuli\	0.8	1223.75	1	870.9	0.9	1051.33333333333	1	876.7	0.9	1059.44444444444	1	901.3	0.9	1154.66666666667	1	824.3	12	574038	2	574027	27	39	574065	-999999	574040	0	5	TrialsPROC	FC_001_M1.png	1	2	19	SessionSelectionList														target	2	Face	0-Back	17	80	14	0	0	100	1	40	334458	1	13	72	332418	-1	333219	1	801	2	2	2040	53	334471	-54	0					6											19												
WM080112	208226_fnca	1	1	1	924885471	1	75.031	75.031	2.0.10.147	2.0.10.242	2.0.10.242	1.0.0.439	7	234	2	3	Verdana	1	80	0	0	0	WM Stimuli\	0.8	1223.75	1	870.9	0.9	1051.33333333333	1	876.7	0.9	1059.44444444444	1	901.3	0.9	1154.66666666667	1	824.3	12	574038	2	574027	27	39	574065	-999999	574040	0	5	TrialsPROC	FC_006_F3.png	1	2	20	SessionSelectionList														nonlure	3	Face	0-Back	18	80	15	0	0	100	1	39	337030	1	13	73	334991	-1	335783	1	792	3	3	2039	52	337043	-53	0					7											20												
WM080112	208226_fnca	1	1	1	924885471	1	75.031	75.031	2.0.10.147	2.0.10.242	2.0.10.242	1.0.0.439	7	234	2	3	Verdana	1	80	0	0	0	WM Stimuli\	0.8	1223.75	1	870.9	0.9	1051.33333333333	1	876.7	0.9	1059.44444444444	1	901.3	0.9	1154.66666666667	1	824.3	12	574038	2	574027	27	39	574065	-999999	574040	0	5	TrialsPROC	FC_006_F3.png	1	2	21	SessionSelectionList														lure	3	Face	0-Back	19	80	16	0	0	100	2	39	339602	1	14	72	337563	-1	338350	1	787	3	3	2039	53	339616	-54	0					8											21												
WM080112	208226_fnca	1	1	1	924885471	1	75.031	75.031	2.0.10.147	2.0.10.242	2.0.10.242	1.0.0.439	7	234	2	3	Verdana	1	80	0	0	0	WM Stimuli\	0.8	1223.75	1	870.9	0.9	1051.33333333333	1	876.7	0.9	1059.44444444444	1	901.3	0.9	1154.66666666667	1	824.3	12	574038	2	574027	27	39	574065	-999999	574040	0	5	TrialsPROC	FC_003_M2.png	1	2	22	SessionSelectionList														lure	3	Face	0-Back	20	80	17	0	0	100	3	39	342174	1	14	72	340135	-1	341179	1	1044	3	3	2039	53	342188	-54	0					9											22												
WM080112	208226_fnca	1	1	1	924885471	1	75.031	75.031	2.0.10.147	2.0.10.242	2.0.10.242	1.0.0.439	7	234	2	3	Verdana	1	80	0	0	0	WM Stimuli\	0.8	1223.75	1	870.9	0.9	1051.33333333333	1	876.7	0.9	1059.44444444444	1	901.3	0.9	1154.66666666667	1	824.3	12	574038	2	574027	27	39	574065	-999999	574040	0	5	TrialsPROC	FC_002_F1.png	1	2	23	SessionSelectionList														nonlure	3	Face	0-Back	21	80	18	0	0	100	4	40	344747	1	13	72	342707	-1	343668	1	961	3	3	2040	53	344760	-54	0					10											23												
WM080112	208226_fnca	1	1	1	924885471	1	75.031	75.031	2.0.10.147	2.0.10.242	2.0.10.242	1.0.0.439	7	234	2	3	Verdana	1	80	0	0	0	WM Stimuli\	0.8	1223.75	1	870.9	0.9	1051.33333333333	1	876.7	0.9	1059.44444444444	1	901.3	0.9	1154.66666666667	1	824.3	12	574038	2	574027	27	39	574065	-999999	574040	0	6	Fix15secPROC	""	1	2	24	SessionSelectionList																																															6	345213	-7	0							24												
WM080112	208226_fnca	1	1	1	924885471	1	75.031	75.031	2.0.10.147	2.0.10.242	2.0.10.242	1.0.0.439	7	234	2	3	Verdana	1	80	0	0	0	WM Stimuli\	0.8	1223.75	1	870.9	0.9	1051.33333333333	1	876.7	0.9	1059.44444444444	1	901.3	0.9	1154.66666666667	1	824.3	12	574038	2	574027	27	39	574065	-999999	574040	0	7	Cue2BackPROC	""	1	2	25	SessionSelectionList									13	360220	-14	0																																													25												
WM080112	208226_fnca	1	1	1	924885471	1	75.031	75.031	2.0.10.147	2.0.10.242	2.0.10.242	1.0.0.439	7	234	2	3	Verdana	1	80	0	0	0	WM Stimuli\	0.8	1223.75	1	870.9	0.9	1051.33333333333	1	876.7	0.9	1059.44444444444	1	901.3	0.9	1154.66666666667	1	824.3	12	574038	2	574027	27	39	574065	-999999	574040	0	8	TrialsPROC	TO_001_TOOL1_BA.png	1	2	26	SessionSelectionList														nonlure	3	Tools	2-Back	22	80	19	0	0	100	5	39	364805	1	14	59	362766	-1	364040	1	1274	3	3	2039	53	364819	-54	0										1						26												
WM080112	208226_fnca	1	1	1	924885471	1	75.031	75.031	2.0.10.147	2.0.10.242	2.0.10.242	1.0.0.439	7	234	2	3	Verdana	1	80	0	0	0	WM Stimuli\	0.8	1223.75	1	870.9	0.9	1051.33333333333	1	876.7	0.9	1059.44444444444	1	901.3	0.9	1154.66666666667	1	824.3	12	574038	2	574027	27	39	574065	-999999	574040	0	8	TrialsPROC	TO_002_TOOL2_BA.png	1	2	27	SessionSelectionList														nonlure	3	Tools	2-Back	23	80	20	0	0	100	6	39	367364	1	14	59	365325	-1	367312	1	1987	3	3	2039	53	367378	-54	0										2						27												
WM080112	208226_fnca	1	1	1	924885471	1	75.031	75.031	2.0.10.147	2.0.10.242	2.0.10.242	1.0.0.439	7	234	2	3	Verdana	1	80	0	0	0	WM Stimuli\	0.8	1223.75	1	870.9	0.9	1051.33333333333	1	876.7	0.9	1059.44444444444	1	901.3	0.9	1154.66666666667	1	824.3	12	574038	2	574027	27	39	574065	-999999	574040	0	8	TrialsPROC	TO_004_TOOL4_BA.png	1	2	28	SessionSelectionList														nonlure	3	Tools	2-Back	24	80	21	0	0	100	7	39	369923	1	13	59	367884	-1	368920	1	1036	3	3	2039	52	369936	-53	0										3						28												
WM080112	208226_fnca	1	1	1	924885471	1	75.031	75.031	2.0.10.147	2.0.10.242	2.0.10.242	1.0.0.439	7	234	2	3	Verdana	1	80	0	0	0	WM Stimuli\	0.8	1223.75	1	870.9	0.9	1051.33333333333	1	876.7	0.9	1059.44444444444	1	901.3	0.9	1154.66666666667	1	824.3	12	574038	2	574027	27	39	574065	-999999	574040	0	8	TrialsPROC	TO_002_TOOL2_BA.png	1	2	29	SessionSelectionList														target	2	Tools	2-Back	25	80	22	0	0	100	1	39	372482	1	13	59	370443	-1	371334	1	891	2	2	2039	52	372495	-53	0										4						29												
WM080112	208226_fnca	1	1	1	924885471	1	75.031	75.031	2.0.10.147	2.0.10.242	2.0.10.242	1.0.0.439	7	234	2	3	Verdana	1	80	0	0	0	WM Stimuli\	0.8	1223.75	1	870.9	0.9	1051.33333333333	1	876.7	0.9	1059.44444444444	1	901.3	0.9	1154.66666666667	1	824.3	12	574038	2	574027	27	39	574065	-999999	574040	0	8	TrialsPROC	TO_001_TOOL1_BA.png	1	2	30	SessionSelectionList														lure	3	Tools	2-Back	26	80	23	0	0	100	1	39	375041	1	13	59	373002	-1	374354	1	1352	3	3	2039	52	375054	-53	0										5						30												
WM080112	208226_fnca	1	1	1	924885471	1	75.031	75.031	2.0.10.147	2.0.10.242	2.0.10.242	1.0.0.439	7	234	2	3	Verdana	1	80	0	0	0	WM Stimuli\	0.8	1223.75	1	870.9	0.9	1051.33333333333	1	876.7	0.9	1059.44444444444	1	901.3	0.9	1154.66666666667	1	824.3	12	574038	2	574027	27	39	574065	-999999	574040	0	8	TrialsPROC	TO_004_TOOL4_BA.png	1	2	31	SessionSelectionList														lure	3	Tools	2-Back	27	80	23	0	1	100	1	40	377600	1	13	58	375560	-1	0	0	0	""	3	2040	53	377613	-54	0										6						31												
WM080112	208226_fnca	1	1	1	924885471	1	75.031	75.031	2.0.10.147	2.0.10.242	2.0.10.242	1.0.0.439	7	234	2	3	Verdana	1	80	0	0	0	WM Stimuli\	0.8	1223.75	1	870.9	0.9	1051.33333333333	1	876.7	0.9	1059.44444444444	1	901.3	0.9	1154.66666666667	1	824.3	12	574038	2	574027	27	39	574065	-999999	574040	0	8	TrialsPROC	TO_006_TOOL6_BA.png	1	2	32	SessionSelectionList														nonlure	3	Tools	2-Back	28	80	24	0	0	100	1	40	380159	1	13	59	378119	-1	379140	1	1021	3	3	2040	53	380172	-54	0										7						32												
WM080112	208226_fnca	1	1	1	924885471	1	75.031	75.031	2.0.10.147	2.0.10.242	2.0.10.242	1.0.0.439	7	234	2	3	Verdana	1	80	0	0	0	WM Stimuli\	0.8	1223.75	1	870.9	0.9	1051.33333333333	1	876.7	0.9	1059.44444444444	1	901.3	0.9	1154.66666666667	1	824.3	12	574038	2	574027	27	39	574065	-999999	574040	0	8	TrialsPROC	TO_005_TOOL5_BA.png	1	2	33	SessionSelectionList														nonlure	3	Tools	2-Back	29	80	25	0	0	100	2	39	382717	2	14	59	380678	-1	381528	1	850	3	3	2039	53	382731	-54	0										8						33												
WM080112	208226_fnca	1	1	1	924885471	1	75.031	75.031	2.0.10.147	2.0.10.242	2.0.10.242	1.0.0.439	7	234	2	3	Verdana	1	80	0	0	0	WM Stimuli\	0.8	1223.75	1	870.9	0.9	1051.33333333333	1	876.7	0.9	1059.44444444444	1	901.3	0.9	1154.66666666667	1	824.3	12	574038	2	574027	27	39	574065	-999999	574040	0	8	TrialsPROC	TO_006_TOOL6_BA.png	1	2	34	SessionSelectionList														target	2	Tools	2-Back	30	80	26	0	0	100	1	39	385276	2	14	59	383237	-1	384195	1	958	2	2	2039	53	385290	-54	0										9						34												
WM080112	208226_fnca	1	1	1	924885471	1	75.031	75.031	2.0.10.147	2.0.10.242	2.0.10.242	1.0.0.439	7	234	2	3	Verdana	1	80	0	0	0	WM Stimuli\	0.8	1223.75	1	870.9	0.9	1051.33333333333	1	876.7	0.9	1059.44444444444	1	901.3	0.9	1154.66666666667	1	824.3	12	574038	2	574027	27	39	574065	-999999	574040	0	8	TrialsPROC	TO_003_TOOL3_BA.png	1	2	35	SessionSelectionList														nonlure	3	Tools	2-Back	31	80	27	0	0	100	1	39	387835	2	14	59	385796	-1	386819	1	1023	3	3	2039	53	387849	-54	0										10						35												
WM080112	208226_fnca	1	1	1	924885471	1	75.031	75.031	2.0.10.147	2.0.10.242	2.0.10.242	1.0.0.439	7	234	2	3	Verdana	1	80	0	0	0	WM Stimuli\	0.8	1223.75	1	870.9	0.9	1051.33333333333	1	876.7	0.9	1059.44444444444	1	901.3	0.9	1154.66666666667	1	824.3	12	574038	2	574027	27	39	574065	-999999	574040	0	9	Cue0BackPROC	BP_007_BP20_BA.png	1	2	36	SessionSelectionList																																										19	388315	-20	0												36												
WM080112	208226_fnca	1	1	1	924885471	1	75.031	75.031	2.0.10.147	2.0.10.242	2.0.10.242	1.0.0.439	7	234	2	3	Verdana	1	80	0	0	0	WM Stimuli\	0.8	1223.75	1	870.9	0.9	1051.33333333333	1	876.7	0.9	1059.44444444444	1	901.3	0.9	1154.66666666667	1	824.3	12	574038	2	574027	27	39	574065	-999999	574040	0	10	TrialsPROC	BP_007_BP20_BA.png	1	2	37	SessionSelectionList														target	2	Body	0-Back	32	80	28	0	0	100	1	40	392887	1	13	51	390847	-1	392013	1	1166	2	2	2040	53	392900	-54	0											1					37												
WM080112	208226_fnca	1	1	1	924885471	1	75.031	75.031	2.0.10.147	2.0.10.242	2.0.10.242	1.0.0.439	7	234	2	3	Verdana	1	80	0	0	0	WM Stimuli\	0.8	1223.75	1	870.9	0.9	1051.33333333333	1	876.7	0.9	1059.44444444444	1	901.3	0.9	1154.66666666667	1	824.3	12	574038	2	574027	27	39	574065	-999999	574040	0	10	TrialsPROC	BP_011_BP4_BA.png	1	2	38	SessionSelectionList														nonlure	3	Body	0-Back	33	80	29	0	0	100	1	39	395446	1	13	60	393407	-1	394382	1	975	3	3	2039	52	395459	-53	0											2					38												
WM080112	208226_fnca	1	1	1	924885471	1	75.031	75.031	2.0.10.147	2.0.10.242	2.0.10.242	1.0.0.439	7	234	2	3	Verdana	1	80	0	0	0	WM Stimuli\	0.8	1223.75	1	870.9	0.9	1051.33333333333	1	876.7	0.9	1059.44444444444	1	901.3	0.9	1154.66666666667	1	824.3	12	574038	2	574027	27	39	574065	-999999	574040	0	10	TrialsPROC	BP_010_BP3_BA.png	1	2	39	SessionSelectionList														nonlure	3	Body	0-Back	34	80	30	0	0	100	2	39	398004	2	14	58	395965	-1	396792	1	827	3	3	2039	53	398018	-54	0											3					39												
WM080112	208226_fnca	1	1	1	924885471	1	75.031	75.031	2.0.10.147	2.0.10.242	2.0.10.242	1.0.0.439	7	234	2	3	Verdana	1	80	0	0	0	WM Stimuli\	0.8	1223.75	1	870.9	0.9	1051.33333333333	1	876.7	0.9	1059.44444444444	1	901.3	0.9	1154.66666666667	1	824.3	12	574038	2	574027	27	39	574065	-999999	574040	0	10	TrialsPROC	BP_008_BP21_BA.png	1	2	40	SessionSelectionList														nonlure	3	Body	0-Back	35	80	31	0	0	100	3	39	400563	2	14	59	398524	-1	399341	1	817	3	3	2039	53	400577	-54	0											4					40												
WM080112	208226_fnca	1	1	1	924885471	1	75.031	75.031	2.0.10.147	2.0.10.242	2.0.10.242	1.0.0.439	7	234	2	3	Verdana	1	80	0	0	0	WM Stimuli\	0.8	1223.75	1	870.9	0.9	1051.33333333333	1	876.7	0.9	1059.44444444444	1	901.3	0.9	1154.66666666667	1	824.3	12	574038	2	574027	27	39	574065	-999999	574040	0	10	TrialsPROC	BP_011_BP4_BA.png	1	2	41	SessionSelectionList														lure	3	Body	0-Back	36	80	32	0	0	100	4	39	403122	2	14	59	401083	-1	401917	1	834	3	3	2039	53	403136	-54	0											5					41												
WM080112	208226_fnca	1	1	1	924885471	1	75.031	75.031	2.0.10.147	2.0.10.242	2.0.10.242	1.0.0.439	7	234	2	3	Verdana	1	80	0	0	0	WM Stimuli\	0.8	1223.75	1	870.9	0.9	1051.33333333333	1	876.7	0.9	1059.44444444444	1	901.3	0.9	1154.66666666667	1	824.3	12	574038	2	574027	27	39	574065	-999999	574040	0	10	TrialsPROC	BP_009_BP22_BA.png	1	2	42	SessionSelectionList														nonlure	3	Body	0-Back	37	80	33	0	0	100	5	39	405681	1	14	59	403642	-1	404467	1	825	3	3	2039	53	405695	-54	0											6					42												
WM080112	208226_fnca	1	1	1	924885471	1	75.031	75.031	2.0.10.147	2.0.10.242	2.0.10.242	1.0.0.439	7	234	2	3	Verdana	1	80	0	0	0	WM Stimuli\	0.8	1223.75	1	870.9	0.9	1051.33333333333	1	876.7	0.9	1059.44444444444	1	901.3	0.9	1154.66666666667	1	824.3	12	574038	2	574027	27	39	574065	-999999	574040	0	10	TrialsPROC	BP_009_BP22_BA.png	1	2	43	SessionSelectionList														lure	3	Body	0-Back	38	80	34	0	0	100	6	39	408240	1	14	59	406201	-1	406908	1	707	3	3	2039	53	408254	-54	0											7					43												
WM080112	208226_fnca	1	1	1	924885471	1	75.031	75.031	2.0.10.147	2.0.10.242	2.0.10.242	1.0.0.439	7	234	2	3	Verdana	1	80	0	0	0	WM Stimuli\	0.8	1223.75	1	870.9	0.9	1051.33333333333	1	876.7	0.9	1059.44444444444	1	901.3	0.9	1154.66666666667	1	824.3	12	574038	2	574027	27	39	574065	-999999	574040	0	10	TrialsPROC	BP_008_BP21_BA.png	1	2	44	SessionSelectionList														lure	3	Body	0-Back	39	80	35	0	0	100	7	39	410799	1	14	59	408760	-1	409601	1	841	3	3	2039	53	410813	-54	0											8					44												
WM080112	208226_fnca	1	1	1	924885471	1	75.031	75.031	2.0.10.147	2.0.10.242	2.0.10.242	1.0.0.439	7	234	2	3	Verdana	1	80	0	0	0	WM Stimuli\	0.8	1223.75	1	870.9	0.9	1051.33333333333	1	876.7	0.9	1059.44444444444	1	901.3	0.9	1154.66666666667	1	824.3	12	574038	2	574027	27	39	574065	-999999	574040	0	10	TrialsPROC	BP_007_BP20_BA.png	1	2	45	SessionSelectionList														target	2	Body	0-Back	40	80	36	0	0	100	1	39	413358	1	14	59	411319	-1	412213	1	894	2	2	2039	53	413372	-54	0											9					45												
WM080112	208226_fnca	1	1	1	924885471	1	75.031	75.031	2.0.10.147	2.0.10.242	2.0.10.242	1.0.0.439	7	234	2	3	Verdana	1	80	0	0	0	WM Stimuli\	0.8	1223.75	1	870.9	0.9	1051.33333333333	1	876.7	0.9	1059.44444444444	1	901.3	0.9	1154.66666666667	1	824.3	12	574038	2	574027	27	39	574065	-999999	574040	0	10	TrialsPROC	BP_012_BP5_BA.png	1	2	46	SessionSelectionList														nonlure	3	Body	0-Back	41	80	37	0	0	100	1	39	415917	1	14	59	413878	-1	414701	1	823	3	3	2039	53	415931	-54	0											10					46												
WM080112	208226_fnca	1	1	1	924885471	1	75.031	75.031	2.0.10.147	2.0.10.242	2.0.10.242	1.0.0.439	7	234	2	3	Verdana	1	80	0	0	0	WM Stimuli\	0.8	1223.75	1	870.9	0.9	1051.33333333333	1	876.7	0.9	1059.44444444444	1	901.3	0.9	1154.66666666667	1	824.3	12	574038	2	574027	27	39	574065	-999999	574040	0	11	Fix15secPROC	""	1	2	47	SessionSelectionList																																															6	416384	-7	0							47												
WM080112	208226_fnca	1	1	1	924885471	1	75.031	75.031	2.0.10.147	2.0.10.242	2.0.10.242	1.0.0.439	7	234	2	3	Verdana	1	80	0	0	0	WM Stimuli\	0.8	1223.75	1	870.9	0.9	1051.33333333333	1	876.7	0.9	1059.44444444444	1	901.3	0.9	1154.66666666667	1	824.3	12	574038	2	574027	27	39	574065	-999999	574040	0	12	Cue0BackPROC	PL_001_92012.png	1	2	48	SessionSelectionList																																										13	431391	-14	0												48												
WM080112	208226_fnca	1	1	1	924885471	1	75.031	75.031	2.0.10.147	2.0.10.242	2.0.10.242	1.0.0.439	7	234	2	3	Verdana	1	80	0	0	0	WM Stimuli\	0.8	1223.75	1	870.9	0.9	1051.33333333333	1	876.7	0.9	1059.44444444444	1	901.3	0.9	1154.66666666667	1	824.3	12	574038	2	574027	27	39	574065	-999999	574040	0	13	TrialsPROC	PL_003_92016.png	1	2	49	SessionSelectionList														nonlure	3	Place	0-Back	42	80	38	0	0	100	2	39	435989	1	13	72	433950	-1	435581	1	1631	3	3	2039	52	436002	-53	0												1				49												
WM080112	208226_fnca	1	1	1	924885471	1	75.031	75.031	2.0.10.147	2.0.10.242	2.0.10.242	1.0.0.439	7	234	2	3	Verdana	1	80	0	0	0	WM Stimuli\	0.8	1223.75	1	870.9	0.9	1051.33333333333	1	876.7	0.9	1059.44444444444	1	901.3	0.9	1154.66666666667	1	824.3	12	574038	2	574027	27	39	574065	-999999	574040	0	13	TrialsPROC	PL_003_92016.png	1	2	50	SessionSelectionList														lure	3	Place	0-Back	43	80	39	0	0	100	3	39	438548	1	13	59	436509	-1	437362	1	853	3	3	2039	52	438561	-53	0												2				50												
WM080112	208226_fnca	1	1	1	924885471	1	75.031	75.031	2.0.10.147	2.0.10.242	2.0.10.242	1.0.0.439	7	234	2	3	Verdana	1	80	0	0	0	WM Stimuli\	0.8	1223.75	1	870.9	0.9	1051.33333333333	1	876.7	0.9	1059.44444444444	1	901.3	0.9	1154.66666666667	1	824.3	12	574038	2	574027	27	39	574065	-999999	574040	0	13	TrialsPROC	PL_006_92025.png	1	2	51	SessionSelectionList														nonlure	3	Place	0-Back	44	80	40	0	0	100	4	39	441107	1	13	59	439068	-1	440025	1	957	3	3	2039	52	441120	-53	0												3				51												
WM080112	208226_fnca	1	1	1	924885471	1	75.031	75.031	2.0.10.147	2.0.10.242	2.0.10.242	1.0.0.439	7	234	2	3	Verdana	1	80	0	0	0	WM Stimuli\	0.8	1223.75	1	870.9	0.9	1051.33333333333	1	876.7	0.9	1059.44444444444	1	901.3	0.9	1154.66666666667	1	824.3	12	574038	2	574027	27	39	574065	-999999	574040	0	13	TrialsPROC	PL_001_92012.png	1	2	52	SessionSelectionList														target	2	Place	0-Back	45	80	41	0	0	100	1	39	443666	1	13	59	441627	-1	442530	1	903	2	2	2039	52	443679	-53	0												4				52												
WM080112	208226_fnca	1	1	1	924885471	1	75.031	75.031	2.0.10.147	2.0.10.242	2.0.10.242	1.0.0.439	7	234	2	3	Verdana	1	80	0	0	0	WM Stimuli\	0.8	1223.75	1	870.9	0.9	1051.33333333333	1	876.7	0.9	1059.44444444444	1	901.3	0.9	1154.66666666667	1	824.3	12	574038	2	574027	27	39	574065	-999999	574040	0	13	TrialsPROC	PL_004_92023.png	1	2	53	SessionSelectionList														nonlure	3	Place	0-Back	46	80	42	0	0	100	1	39	446238	1	13	72	444199	-1	445015	1	816	3	3	2039	52	446251	-53	0												5				53												
WM080112	208226_fnca	1	1	1	924885471	1	75.031	75.031	2.0.10.147	2.0.10.242	2.0.10.242	1.0.0.439	7	234	2	3	Verdana	1	80	0	0	0	WM Stimuli\	0.8	1223.75	1	870.9	0.9	1051.33333333333	1	876.7	0.9	1059.44444444444	1	901.3	0.9	1154.66666666667	1	824.3	12	574038	2	574027	27	39	574065	-999999	574040	0	13	TrialsPROC	PL_005_92024.png	1	2	54	SessionSelectionList														nonlure	3	Place	0-Back	47	80	43	0	0	100	2	39	448797	1	13	59	446758	-1	447638	1	880	3	3	2039	52	448810	-53	0												6				54												
WM080112	208226_fnca	1	1	1	924885471	1	75.031	75.031	2.0.10.147	2.0.10.242	2.0.10.242	1.0.0.439	7	234	2	3	Verdana	1	80	0	0	0	WM Stimuli\	0.8	1223.75	1	870.9	0.9	1051.33333333333	1	876.7	0.9	1059.44444444444	1	901.3	0.9	1154.66666666667	1	824.3	12	574038	2	574027	27	39	574065	-999999	574040	0	13	TrialsPROC	PL_001_92012.png	1	2	55	SessionSelectionList														target	2	Place	0-Back	48	80	44	0	0	100	1	40	451356	1	13	58	449316	-1	450145	1	829	2	2	2040	53	451369	-54	0												7				55												
WM080112	208226_fnca	1	1	1	924885471	1	75.031	75.031	2.0.10.147	2.0.10.242	2.0.10.242	1.0.0.439	7	234	2	3	Verdana	1	80	0	0	0	WM Stimuli\	0.8	1223.75	1	870.9	0.9	1051.33333333333	1	876.7	0.9	1059.44444444444	1	901.3	0.9	1154.66666666667	1	824.3	12	574038	2	574027	27	39	574065	-999999	574040	0	13	TrialsPROC	PL_002_92014.png	1	2	56	SessionSelectionList														nonlure	3	Place	0-Back	49	80	45	0	0	100	1	39	453915	1	13	60	451876	-1	452649	1	773	3	3	2039	52	453928	-53	0												8				56												
WM080112	208226_fnca	1	1	1	924885471	1	75.031	75.031	2.0.10.147	2.0.10.242	2.0.10.242	1.0.0.439	7	234	2	3	Verdana	1	80	0	0	0	WM Stimuli\	0.8	1223.75	1	870.9	0.9	1051.33333333333	1	876.7	0.9	1059.44444444444	1	901.3	0.9	1154.66666666667	1	824.3	12	574038	2	574027	27	39	574065	-999999	574040	0	13	TrialsPROC	PL_004_92023.png	1	2	57	SessionSelectionList														lure	3	Place	0-Back	50	80	46	0	0	100	2	39	456474	1	13	59	454435	-1	455157	1	722	3	3	2039	52	456487	-53	0												9				57												
WM080112	208226_fnca	1	1	1	924885471	1	75.031	75.031	2.0.10.147	2.0.10.242	2.0.10.242	1.0.0.439	7	234	2	3	Verdana	1	80	0	0	0	WM Stimuli\	0.8	1223.75	1	870.9	0.9	1051.33333333333	1	876.7	0.9	1059.44444444444	1	901.3	0.9	1154.66666666667	1	824.3	12	574038	2	574027	27	39	574065	-999999	574040	0	13	TrialsPROC	PL_006_92025.png	1	2	58	SessionSelectionList														lure	3	Place	0-Back	51	80	47	0	0	100	3	39	459032	2	14	58	456993	-1	457642	1	649	3	3	2039	53	459046	-54	0												10				58												
WM080112	208226_fnca	1	1	1	924885471	1	75.031	75.031	2.0.10.147	2.0.10.242	2.0.10.242	1.0.0.439	7	234	2	3	Verdana	1	80	0	0	0	WM Stimuli\	0.8	1223.75	1	870.9	0.9	1051.33333333333	1	876.7	0.9	1059.44444444444	1	901.3	0.9	1154.66666666667	1	824.3	12	574038	2	574027	27	39	574065	-999999	574040	0	14	Cue2BackPROC	""	1	2	59	SessionSelectionList									6	459499	-7	0																																													59												
WM080112	208226_fnca	1	1	1	924885471	1	75.031	75.031	2.0.10.147	2.0.10.242	2.0.10.242	1.0.0.439	7	234	2	3	Verdana	1	80	0	0	0	WM Stimuli\	0.8	1223.75	1	870.9	0.9	1051.33333333333	1	876.7	0.9	1059.44444444444	1	901.3	0.9	1154.66666666667	1	824.3	12	574038	2	574027	27	39	574065	-999999	574040	0	15	TrialsPROC	FC_010_F5.png	1	2	60	SessionSelectionList														nonlure	3	Face	2-Back	52	80	47	0	1	100	3	39	464097	2	14	65	462058	-1	0	0	0	""	3	2039	53	464111	-54	0													1			60												
WM080112	208226_fnca	1	1	1	924885471	1	75.031	75.031	2.0.10.147	2.0.10.242	2.0.10.242	1.0.0.439	7	234	2	3	Verdana	1	80	0	0	0	WM Stimuli\	0.8	1223.75	1	870.9	0.9	1051.33333333333	1	876.7	0.9	1059.44444444444	1	901.3	0.9	1154.66666666667	1	824.3	12	574038	2	574027	27	39	574065	-999999	574040	0	15	TrialsPROC	FC_012_F6.png	1	2	61	SessionSelectionList														nonlure	3	Face	2-Back	53	80	48	0	0	100	1	39	466669	1	14	72	464630	-1	465465	1	835	3	3	2039	53	466683	-54	0													2			61												
WM080112	208226_fnca	1	1	1	924885471	1	75.031	75.031	2.0.10.147	2.0.10.242	2.0.10.242	1.0.0.439	7	234	2	3	Verdana	1	80	0	0	0	WM Stimuli\	0.8	1223.75	1	870.9	0.9	1051.33333333333	1	876.7	0.9	1059.44444444444	1	901.3	0.9	1154.66666666667	1	824.3	12	574038	2	574027	27	39	574065	-999999	574040	0	15	TrialsPROC	FC_010_F5.png	1	2	62	SessionSelectionList														target	2	Face	2-Back	54	80	49	0	0	100	1	40	469242	1	13	72	467202	-1	467963	1	761	2	2	2040	53	469255	-54	0													3			62												
WM080112	208226_fnca	1	1	1	924885471	1	75.031	75.031	2.0.10.147	2.0.10.242	2.0.10.242	1.0.0.439	7	234	2	3	Verdana	1	80	0	0	0	WM Stimuli\	0.8	1223.75	1	870.9	0.9	1051.33333333333	1	876.7	0.9	1059.44444444444	1	901.3	0.9	1154.66666666667	1	824.3	12	574038	2	574027	27	39	574065	-999999	574040	0	15	TrialsPROC	FC_008_F4.png	1	2	63	SessionSelectionList														nonlure	3	Face	2-Back	55	80	50	0	0	100	1	39	471814	1	13	73	469775	-1	470704	1	929	3	3	2039	52	471827	-53	0													4			63												
WM080112	208226_fnca	1	1	1	924885471	1	75.031	75.031	2.0.10.147	2.0.10.242	2.0.10.242	1.0.0.439	7	234	2	3	Verdana	1	80	0	0	0	WM Stimuli\	0.8	1223.75	1	870.9	0.9	1051.33333333333	1	876.7	0.9	1059.44444444444	1	901.3	0.9	1154.66666666667	1	824.3	12	574038	2	574027	27	39	574065	-999999	574040	0	15	TrialsPROC	FC_012_F6.png	1	2	64	SessionSelectionList														lure	3	Face	2-Back	56	80	51	0	0	100	2	39	474386	1	14	72	472347	-1	473418	1	1071	3	3	2039	53	474400	-54	0													5			64												
WM080112	208226_fnca	1	1	1	924885471	1	75.031	75.031	2.0.10.147	2.0.10.242	2.0.10.242	1.0.0.439	7	234	2	3	Verdana	1	80	0	0	0	WM Stimuli\	0.8	1223.75	1	870.9	0.9	1051.33333333333	1	876.7	0.9	1059.44444444444	1	901.3	0.9	1154.66666666667	1	824.3	12	574038	2	574027	27	39	574065	-999999	574040	0	15	TrialsPROC	FC_008_F4.png	1	2	65	SessionSelectionList														target	2	Face	2-Back	57	80	52	0	0	100	1	39	476958	2	14	72	474919	-1	476191	1	1272	2	2	2039	53	476972	-54	0													6			65												
WM080112	208226_fnca	1	1	1	924885471	1	75.031	75.031	2.0.10.147	2.0.10.242	2.0.10.242	1.0.0.439	7	234	2	3	Verdana	1	80	0	0	0	WM Stimuli\	0.8	1223.75	1	870.9	0.9	1051.33333333333	1	876.7	0.9	1059.44444444444	1	901.3	0.9	1154.66666666667	1	824.3	12	574038	2	574027	27	39	574065	-999999	574040	0	15	TrialsPROC	FC_007_M4.png	1	2	66	SessionSelectionList														nonlure	3	Face	2-Back	58	80	53	0	0	100	1	40	479531	1	13	72	477491	-1	478643	1	1152	3	3	2040	53	479544	-54	0													7			66												
WM080112	208226_fnca	1	1	1	924885471	1	75.031	75.031	2.0.10.147	2.0.10.242	2.0.10.242	1.0.0.439	7	234	2	3	Verdana	1	80	0	0	0	WM Stimuli\	0.8	1223.75	1	870.9	0.9	1051.33333333333	1	876.7	0.9	1059.44444444444	1	901.3	0.9	1154.66666666667	1	824.3	12	574038	2	574027	27	39	574065	-999999	574040	0	15	TrialsPROC	FC_007_M4.png	1	2	67	SessionSelectionList														lure	3	Face	2-Back	59	80	54	0	0	100	2	39	482103	1	14	73	480064	-1	481075	1	1011	3	3	2039	53	482117	-54	0													8			67												
WM080112	208226_fnca	1	1	1	924885471	1	75.031	75.031	2.0.10.147	2.0.10.242	2.0.10.242	1.0.0.439	7	234	2	3	Verdana	1	80	0	0	0	WM Stimuli\	0.8	1223.75	1	870.9	0.9	1051.33333333333	1	876.7	0.9	1059.44444444444	1	901.3	0.9	1154.66666666667	1	824.3	12	574038	2	574027	27	39	574065	-999999	574040	0	15	TrialsPROC	FC_009_M5.png	1	2	68	SessionSelectionList														nonlure	3	Face	2-Back	60	80	55	0	0	100	3	39	484675	1	14	72	482636	-1	483856	1	1220	3	3	2039	53	484689	-54	0													9			68												
WM080112	208226_fnca	1	1	1	924885471	1	75.031	75.031	2.0.10.147	2.0.10.242	2.0.10.242	1.0.0.439	7	234	2	3	Verdana	1	80	0	0	0	WM Stimuli\	0.8	1223.75	1	870.9	0.9	1051.33333333333	1	876.7	0.9	1059.44444444444	1	901.3	0.9	1154.66666666667	1	824.3	12	574038	2	574027	27	39	574065	-999999	574040	0	15	TrialsPROC	FC_011_M6.png	1	2	69	SessionSelectionList														nonlure	3	Face	2-Back	61	80	56	0	0	100	4	39	487247	2	14	72	485208	-1	486419	1	1211	3	3	2039	53	487261	-54	0													10			69												
WM080112	208226_fnca	1	1	1	924885471	1	75.031	75.031	2.0.10.147	2.0.10.242	2.0.10.242	1.0.0.439	7	234	2	3	Verdana	1	80	0	0	0	WM Stimuli\	0.8	1223.75	1	870.9	0.9	1051.33333333333	1	876.7	0.9	1059.44444444444	1	901.3	0.9	1154.66666666667	1	824.3	12	574038	2	574027	27	39	574065	-999999	574040	0	16	Fix15secPROC	""	1	2	70	SessionSelectionList																																															6	487714	-7	0							70												
WM080112	208226_fnca	1	1	1	924885471	1	75.031	75.031	2.0.10.147	2.0.10.242	2.0.10.242	1.0.0.439	7	234	2	3	Verdana	1	80	0	0	0	WM Stimuli\	0.8	1223.75	1	870.9	0.9	1051.33333333333	1	876.7	0.9	1059.44444444444	1	901.3	0.9	1154.66666666667	1	824.3	12	574038	2	574027	27	39	574065	-999999	574040	0	17	Cue0BackPROC	TO_007_TOOL7_BA.png	1	2	71	SessionSelectionList																																										40	502748	-41	0												71												
WM080112	208226_fnca	1	1	1	924885471	1	75.031	75.031	2.0.10.147	2.0.10.242	2.0.10.242	1.0.0.439	7	234	2	3	Verdana	1	80	0	0	0	WM Stimuli\	0.8	1223.75	1	870.9	0.9	1051.33333333333	1	876.7	0.9	1059.44444444444	1	901.3	0.9	1154.66666666667	1	824.3	12	574038	2	574027	27	39	574065	-999999	574040	0	18	TrialsPROC	TO_010_TOOL10_BA.png	1	2	72	SessionSelectionList														nonlure	3	Tools	0-Back	62	80	57	0	0	100	5	39	507319	1	14	72	505280	-1	506208	1	928	3	3	2039	53	507333	-54	0														1		72												
WM080112	208226_fnca	1	1	1	924885471	1	75.031	75.031	2.0.10.147	2.0.10.242	2.0.10.242	1.0.0.439	7	234	2	3	Verdana	1	80	0	0	0	WM Stimuli\	0.8	1223.75	1	870.9	0.9	1051.33333333333	1	876.7	0.9	1059.44444444444	1	901.3	0.9	1154.66666666667	1	824.3	12	574038	2	574027	27	39	574065	-999999	574040	0	18	TrialsPROC	TO_009_TOOL9_BA.png	1	2	73	SessionSelectionList														nonlure	3	Tools	0-Back	63	80	58	0	0	100	6	39	509905	1	13	86	507866	-1	508709	1	843	3	3	2039	52	509918	-53	0														2		73												
WM080112	208226_fnca	1	1	1	924885471	1	75.031	75.031	2.0.10.147	2.0.10.242	2.0.10.242	1.0.0.439	7	234	2	3	Verdana	1	80	0	0	0	WM Stimuli\	0.8	1223.75	1	870.9	0.9	1051.33333333333	1	876.7	0.9	1059.44444444444	1	901.3	0.9	1154.66666666667	1	824.3	12	574038	2	574027	27	39	574065	-999999	574040	0	18	TrialsPROC	TO_009_TOOL9_BA.png	1	2	74	SessionSelectionList														lure	3	Tools	0-Back	64	80	59	0	0	100	7	40	512464	1	13	58	510424	-1	511145	1	721	3	3	2040	53	512477	-54	0														3		74												
WM080112	208226_fnca	1	1	1	924885471	1	75.031	75.031	2.0.10.147	2.0.10.242	2.0.10.242	1.0.0.439	7	234	2	3	Verdana	1	80	0	0	0	WM Stimuli\	0.8	1223.75	1	870.9	0.9	1051.33333333333	1	876.7	0.9	1059.44444444444	1	901.3	0.9	1154.66666666667	1	824.3	12	574038	2	574027	27	39	574065	-999999	574040	0	18	TrialsPROC	TO_008_TOOL8_BA.png	1	2	75	SessionSelectionList														nonlure	3	Tools	0-Back	65	80	60	0	0	100	8	39	515049	1	14	86	513010	-1	513779	1	769	3	3	2039	53	515063	-54	0														4		75												
WM080112	208226_fnca	1	1	1	924885471	1	75.031	75.031	2.0.10.147	2.0.10.242	2.0.10.242	1.0.0.439	7	234	2	3	Verdana	1	80	0	0	0	WM Stimuli\	0.8	1223.75	1	870.9	0.9	1051.33333333333	1	876.7	0.9	1059.44444444444	1	901.3	0.9	1154.66666666667	1	824.3	12	574038	2	574027	27	39	574065	-999999	574040	0	18	TrialsPROC	TO_011_TOOL11_BA.png	1	2	76	SessionSelectionList														nonlure	3	Tools	0-Back	66	80	61	0	0	100	9	39	517635	1	13	86	515596	-1	516385	1	789	3	3	2039	52	517648	-53	0														5		76												
WM080112	208226_fnca	1	1	1	924885471	1	75.031	75.031	2.0.10.147	2.0.10.242	2.0.10.242	1.0.0.439	7	234	2	3	Verdana	1	80	0	0	0	WM Stimuli\	0.8	1223.75	1	870.9	0.9	1051.33333333333	1	876.7	0.9	1059.44444444444	1	901.3	0.9	1154.66666666667	1	824.3	12	574038	2	574027	27	39	574065	-999999	574040	0	18	TrialsPROC	TO_012_TOOL12_BA.png	1	2	77	SessionSelectionList														nonlure	3	Tools	0-Back	67	80	62	0	0	100	10	39	520220	2	14	85	518181	-1	519003	1	822	3	3	2039	53	520234	-54	0														6		77												
WM080112	208226_fnca	1	1	1	924885471	1	75.031	75.031	2.0.10.147	2.0.10.242	2.0.10.242	1.0.0.439	7	234	2	3	Verdana	1	80	0	0	0	WM Stimuli\	0.8	1223.75	1	870.9	0.9	1051.33333333333	1	876.7	0.9	1059.44444444444	1	901.3	0.9	1154.66666666667	1	824.3	12	574038	2	574027	27	39	574065	-999999	574040	0	18	TrialsPROC	TO_010_TOOL10_BA.png	1	2	78	SessionSelectionList														lure	3	Tools	0-Back	68	80	63	0	0	100	11	39	522779	1	14	59	520740	-1	521750	1	1010	3	3	2039	53	522793	-54	0														7		78												
WM080112	208226_fnca	1	1	1	924885471	1	75.031	75.031	2.0.10.147	2.0.10.242	2.0.10.242	1.0.0.439	7	234	2	3	Verdana	1	80	0	0	0	WM Stimuli\	0.8	1223.75	1	870.9	0.9	1051.33333333333	1	876.7	0.9	1059.44444444444	1	901.3	0.9	1154.66666666667	1	824.3	12	574038	2	574027	27	39	574065	-999999	574040	0	18	TrialsPROC	TO_007_TOOL7_BA.png	1	2	79	SessionSelectionList														target	2	Tools	0-Back	69	80	64	0	0	100	1	39	525338	1	14	59	523299	-1	524062	1	763	2	2	2039	53	525352	-54	0														8		79												
WM080112	208226_fnca	1	1	1	924885471	1	75.031	75.031	2.0.10.147	2.0.10.242	2.0.10.242	1.0.0.439	7	234	2	3	Verdana	1	80	0	0	0	WM Stimuli\	0.8	1223.75	1	870.9	0.9	1051.33333333333	1	876.7	0.9	1059.44444444444	1	901.3	0.9	1154.66666666667	1	824.3	12	574038	2	574027	27	39	574065	-999999	574040	0	18	TrialsPROC	TO_008_TOOL8_BA.png	1	2	80	SessionSelectionList														lure	3	Tools	0-Back	70	80	65	0	0	100	1	39	527897	1	14	59	525858	-1	526790	1	932	3	3	2039	53	527911	-54	0														9		80												
WM080112	208226_fnca	1	1	1	924885471	1	75.031	75.031	2.0.10.147	2.0.10.242	2.0.10.242	1.0.0.439	7	234	2	3	Verdana	1	80	0	0	0	WM Stimuli\	0.8	1223.75	1	870.9	0.9	1051.33333333333	1	876.7	0.9	1059.44444444444	1	901.3	0.9	1154.66666666667	1	824.3	12	574038	2	574027	27	39	574065	-999999	574040	0	18	TrialsPROC	TO_007_TOOL7_BA.png	1	2	81	SessionSelectionList														target	2	Tools	0-Back	71	80	66	0	0	100	1	39	530456	1	14	59	528417	-1	529083	1	666	2	2	2039	53	530470	-54	0														10		81												
WM080112	208226_fnca	1	1	1	924885471	1	75.031	75.031	2.0.10.147	2.0.10.242	2.0.10.242	1.0.0.439	7	234	2	3	Verdana	1	80	0	0	0	WM Stimuli\	0.8	1223.75	1	870.9	0.9	1051.33333333333	1	876.7	0.9	1059.44444444444	1	901.3	0.9	1154.66666666667	1	824.3	12	574038	2	574027	27	39	574065	-999999	574040	0	19	Cue2BackPROC	""	1	2	82	SessionSelectionList									6	530923	-7	0																																													82												
WM080112	208226_fnca	1	1	1	924885471	1	75.031	75.031	2.0.10.147	2.0.10.242	2.0.10.242	1.0.0.439	7	234	2	3	Verdana	1	80	0	0	0	WM Stimuli\	0.8	1223.75	1	870.9	0.9	1051.33333333333	1	876.7	0.9	1059.44444444444	1	901.3	0.9	1154.66666666667	1	824.3	12	574038	2	574027	27	39	574065	-999999	574040	0	20	TrialsPROC	PL_007_92026.png	1	2	83	SessionSelectionList														nonlure	3	Place	2-Back	72	80	67	0	0	100	1	39	535534	1	14	78	533495	-1	535210	1	1715	3	3	2039	53	535548	-54	0															1	83												
WM080112	208226_fnca	1	1	1	924885471	1	75.031	75.031	2.0.10.147	2.0.10.242	2.0.10.242	1.0.0.439	7	234	2	3	Verdana	1	80	0	0	0	WM Stimuli\	0.8	1223.75	1	870.9	0.9	1051.33333333333	1	876.7	0.9	1059.44444444444	1	901.3	0.9	1154.66666666667	1	824.3	12	574038	2	574027	27	39	574065	-999999	574040	0	20	TrialsPROC	PL_007_92026.png	1	2	84	SessionSelectionList														lure	3	Place	2-Back	73	80	68	0	0	100	2	39	538093	1	14	59	536054	-1	537088	1	1034	3	3	2039	53	538107	-54	0															2	84												
WM080112	208226_fnca	1	1	1	924885471	1	75.031	75.031	2.0.10.147	2.0.10.242	2.0.10.242	1.0.0.439	7	234	2	3	Verdana	1	80	0	0	0	WM Stimuli\	0.8	1223.75	1	870.9	0.9	1051.33333333333	1	876.7	0.9	1059.44444444444	1	901.3	0.9	1154.66666666667	1	824.3	12	574038	2	574027	27	39	574065	-999999	574040	0	20	TrialsPROC	PL_010_92038.png	1	2	85	SessionSelectionList														nonlure	3	Place	2-Back	74	80	69	0	0	100	3	39	540652	1	14	59	538613	-1	539605	1	992	3	3	2039	53	540666	-54	0															3	85												
WM080112	208226_fnca	1	1	1	924885471	1	75.031	75.031	2.0.10.147	2.0.10.242	2.0.10.242	1.0.0.439	7	234	2	3	Verdana	1	80	0	0	0	WM Stimuli\	0.8	1223.75	1	870.9	0.9	1051.33333333333	1	876.7	0.9	1059.44444444444	1	901.3	0.9	1154.66666666667	1	824.3	12	574038	2	574027	27	39	574065	-999999	574040	0	20	TrialsPROC	PL_009_92037.png	1	2	86	SessionSelectionList														nonlure	3	Place	2-Back	75	80	70	0	0	100	4	39	543211	1	13	59	541172	-1	541945	1	773	3	3	2039	52	543224	-53	0															4	86												
WM080112	208226_fnca	1	1	1	924885471	1	75.031	75.031	2.0.10.147	2.0.10.242	2.0.10.242	1.0.0.439	7	234	2	3	Verdana	1	80	0	0	0	WM Stimuli\	0.8	1223.75	1	870.9	0.9	1051.33333333333	1	876.7	0.9	1059.44444444444	1	901.3	0.9	1154.66666666667	1	824.3	12	574038	2	574027	27	39	574065	-999999	574040	0	20	TrialsPROC	PL_010_92038.png	1	2	87	SessionSelectionList														target	2	Place	2-Back	76	80	71	0	0	100	1	39	545770	1	13	59	543731	-1	544729	1	998	2	2	2039	52	545783	-53	0															5	87												
WM080112	208226_fnca	1	1	1	924885471	1	75.031	75.031	2.0.10.147	2.0.10.242	2.0.10.242	1.0.0.439	7	234	2	3	Verdana	1	80	0	0	0	WM Stimuli\	0.8	1223.75	1	870.9	0.9	1051.33333333333	1	876.7	0.9	1059.44444444444	1	901.3	0.9	1154.66666666667	1	824.3	12	574038	2	574027	27	39	574065	-999999	574040	0	20	TrialsPROC	PL_009_92037.png	1	2	88	SessionSelectionList														target	2	Place	2-Back	77	80	72	0	0	100	1	39	548329	1	13	59	546290	-1	547971	0	1681	3	2	2039	52	548342	-53	0															6	88												
WM080112	208226_fnca	1	1	1	924885471	1	75.031	75.031	2.0.10.147	2.0.10.242	2.0.10.242	1.0.0.439	7	234	2	3	Verdana	1	80	0	0	0	WM Stimuli\	0.8	1223.75	1	870.9	0.9	1051.33333333333	1	876.7	0.9	1059.44444444444	1	901.3	0.9	1154.66666666667	1	824.3	12	574038	2	574027	27	39	574065	-999999	574040	0	20	TrialsPROC	PL_008_92033.png	1	2	89	SessionSelectionList														nonlure	3	Place	2-Back	78	80	73	0	0	100	2	39	550888	1	13	59	548849	-1	549838	1	989	3	3	2039	52	550901	-53	0															7	89												
WM080112	208226_fnca	1	1	1	924885471	1	75.031	75.031	2.0.10.147	2.0.10.242	2.0.10.242	1.0.0.439	7	234	2	3	Verdana	1	80	0	0	0	WM Stimuli\	0.8	1223.75	1	870.9	0.9	1051.33333333333	1	876.7	0.9	1059.44444444444	1	901.3	0.9	1154.66666666667	1	824.3	12	574038	2	574027	27	39	574065	-999999	574040	0	20	TrialsPROC	PL_012_92047.png	1	2	90	SessionSelectionList														nonlure	3	Place	2-Back	79	80	74	0	0	100	3	39	553447	1	13	59	551408	-1	552337	1	929	3	3	2039	52	553460	-53	0															8	90												
WM080112	208226_fnca	1	1	1	924885471	1	75.031	75.031	2.0.10.147	2.0.10.242	2.0.10.242	1.0.0.439	7	234	2	3	Verdana	1	80	0	0	0	WM Stimuli\	0.8	1223.75	1	870.9	0.9	1051.33333333333	1	876.7	0.9	1059.44444444444	1	901.3	0.9	1154.66666666667	1	824.3	12	574038	2	574027	27	39	574065	-999999	574040	0	20	TrialsPROC	PL_012_92047.png	1	2	91	SessionSelectionList														lure	3	Place	2-Back	80	80	75	0	0	100	4	39	556006	1	13	59	553967	-1	555100	1	1133	3	3	2039	52	556019	-53	0															9	91												
WM080112	208226_fnca	1	1	1	924885471	1	75.031	75.031	2.0.10.147	2.0.10.242	2.0.10.242	1.0.0.439	7	234	2	3	Verdana	1	80	0	0	0	WM Stimuli\	0.8	1223.75	1	870.9	0.9	1051.33333333333	1	876.7	0.9	1059.44444444444	1	901.3	0.9	1154.66666666667	1	824.3	12	574038	2	574027	27	39	574065	-999999	574040	0	20	TrialsPROC	PL_011_92044.png	1	2	92	SessionSelectionList														nonlure	3	Place	2-Back	80	80	76	0	0	100	5	38	558564	2	14	59	556526	-1	557498	1	972	3	3	2038	52	558578	-53	0															10	92												
WM080112	208226_fnca	1	1	1	924885471	1	75.031	75.031	2.0.10.147	2.0.10.242	2.0.10.242	1.0.0.439	7	234	2	3	Verdana	1	80	0	0	0	WM Stimuli\	0.8	1223.75	1	870.9	0.9	1051.33333333333	1	876.7	0.9	1059.44444444444	1	901.3	0.9	1154.66666666667	1	824.3	12	574038	2	574027	27	39	574065	-999999	574040	0	21	Fix15secPROC	""	1	2	93	SessionSelectionList																																															5	559031	-6	0							93												
