ExperimentName	HCPID	RunNumber	Subject	Session	RandomSeed	Group	Laptop.RefreshRate	ScannerD2.RefreshRate	StudioVersion	RuntimeVersion	RuntimeVersionExpected	ExperimentVersion	triggercode	Allowed	Target	Nontarget	FontStyle	RunTrialNumber[Session]	TrialsPerRun[Session]	TotalRespGreater200[Session]	ConsecRTLess200[Session]	ConsecNonResp[Session]	StimuliDir	ACC_2_Back_Body	Avg_RT_For_Correct_Trials_2_Back_Body	ACC_0_Back_Body	Avg_RT_For_Correct_Trials_0_Back_Body	ACC_2_Back_Face	Avg_RT_For_Correct_Trials_2_Back_Face	ACC_0_Back_Face	Avg_RT_For_Correct_Trials_0_Back_Face	ACC_2_Back_Place	Avg_RT_For_Correct_Trials_2_Back_Place	ACC_0_Back_Place	Avg_RT_For_Correct_Trials_0_Back_Place	ACC_2_Back_Tools	Avg_RT_For_Correct_Trials_2_Back_Tools	ACC_0_Back_Tools	Avg_RT_For_Correct_Trials_0_Back_Tools	ExpInstrucFeelFreeToRest.OnsetDelay	ExpInstrucFeelFreeToRest.OnsetTime	ExpInstrucFeelFreeToRest.DurationError	ExpInstrucFeelFreeToRest.StartTime	ExpInstrucFeelFreeToRest.OnsetToOnsetTime	FeelFreeToRest.OnsetDelay	FeelFreeToRest.OnsetTime	FeelFreeToRest.DurationError	FeelFreeToRest.StartTime	FeelFreeToRest.OnsetToOnsetTime	SessionSelectionList	Procedure[Block]	Stimulus[Block]	RunNumberFilterValue	SessionSelectionList.Cycle	SessionSelectionList.Sample	Running[Block]	IntroButtonMap.OnsetDelay	IntroButtonMap.OnsetTime	IntroButtonMap.DurationError	IntroButtonMap.OnsetToOnsetTime	GetReady.OnsetDelay	GetReady.OnsetTime	GetReady.DurationError	GetReady.OnsetToOnsetTime	Cue2Back.OnsetDelay	Cue2Back.OnsetTime	Cue2Back.DurationError	Cue2Back.OnsetToOnsetTime	Run1Block1	TargetType	CorrectResponse	StimType	BlockType	RunTrialNumber[Block]	TrialsPerRun[Block]	TotalRespGreater200[Block]	ConsecRTLess200[Block]	ConsecNonResp[Block]	ControlAcc	ConsecSameResp	ExperimenterWindow.OnsetDelay	ExperimenterWindow.OnsetTime	ExperimenterWindow.DurationError	ExperimenterWindow.OnsetToOnsetTime	Stim.OnsetDelay	Stim.OnsetTime	Stim.DurationError	Stim.RTTime	Stim.ACC	Stim.RT	Stim.RESP	Stim.CRESP	Stim.OnsetToOnsetTime	Fix.OnsetDelay	Fix.OnsetTime	Fix.DurationError	Fix.OnsetToOnsetTime	CueTarget.OnsetDelay	CueTarget.OnsetTime	CueTarget.DurationError	CueTarget.OnsetToOnsetTime	Run1Block2	Fix15sec.OnsetDelay	Fix15sec.OnsetTime	Fix15sec.DurationError	Fix15sec.OnsetToOnsetTime	Run1Block3	Run1Block4	Run1Block5	Run1Block6	Run1Block7	Run1Block8	Block	Procedure[Trial]	Stimulus[Trial]	ReadyList	Running[Trial]	ReadyList.Cycle	ReadyList.Sample	SyncSlide.OnsetDelay	SyncSlide.OnsetTime	SyncSlide.DurationError	SyncSlide.FinishTime	SyncSlide.OnsetToOnsetTime	Trial
WM080112	211720_fnca	1	1	1	1128170607	1	75.030	75.031	2.0.10.147	2.0.10.242	2.0.10.242	1.0.0.439	7	234	2	3	Verdana	1	80	0	0	0	WM Stimuli\	0.7	1380.57142857143	0.7	1132.42857142857	0.9	1047.44444444444	0.9	821.777777777778	0.9	1026.44444444444	0.7	1458	0.7	1105.28571428571	0.7	1113.28571428571	13	425468	3	425456	27	40	425495	-999999	425471	0	1	TRSyncPROC	""	1	2	1	SessionSelectionList	115	13649	-999999	0	33	118673	-999999	0																																																	1	InitialTR	4	1	ReadyList	1	1	17	131654	-18	133636	0	1
WM080112	211720_fnca	1	1	1	1128170607	1	75.030	75.031	2.0.10.147	2.0.10.242	2.0.10.242	1.0.0.439	7	234	2	3	Verdana	1	80	0	0	0	WM Stimuli\	0.7	1380.57142857143	0.7	1132.42857142857	0.9	1047.44444444444	0.9	821.777777777778	0.9	1026.44444444444	0.7	1458	0.7	1105.28571428571	0.7	1113.28571428571	13	425468	3	425456	27	40	425495	-999999	425471	0	1	TRSyncPROC	""	1	2	1	SessionSelectionList	115	13649	-999999	0	33	118673	-999999	0																																																	1	InitialTR	3	2	ReadyList	1	2	16	133653	-17	135636	0	2
WM080112	211720_fnca	1	1	1	1128170607	1	75.030	75.031	2.0.10.147	2.0.10.242	2.0.10.242	1.0.0.439	7	234	2	3	Verdana	1	80	0	0	0	WM Stimuli\	0.7	1380.57142857143	0.7	1132.42857142857	0.9	1047.44444444444	0.9	821.777777777778	0.9	1026.44444444444	0.7	1458	0.7	1105.28571428571	0.7	1113.28571428571	13	425468	3	425456	27	40	425495	-999999	425471	0	1	TRSyncPROC	""	1	2	1	SessionSelectionList	115	13649	-999999	0	33	118673	-999999	0																																																	1	InitialTR	2	3	ReadyList	1	3	15	135652	-16	137636	0	3
WM080112	211720_fnca	1	1	1	1128170607	1	75.030	75.031	2.0.10.147	2.0.10.242	2.0.10.242	1.0.0.439	7	234	2	3	Verdana	1	80	0	0	0	WM Stimuli\	0.7	1380.57142857143	0.7	1132.42857142857	0.9	1047.44444444444	0.9	821.777777777778	0.9	1026.44444444444	0.7	1458	0.7	1105.28571428571	0.7	1113.28571428571	13	425468	3	425456	27	40	425495	-999999	425471	0	1	TRSyncPROC	""	1	2	1	SessionSelectionList	115	13649	-999999	0	33	118673	-999999	0																																																	1	InitialTR	1	4	ReadyList	1	4	15	137652	-16	139636	0	4
WM080112	211720_fnca	1	1	1	1128170607	1	75.030	75.031	2.0.10.147	2.0.10.242	2.0.10.242	1.0.0.439	7	234	2	3	Verdana	1	80	0	0	0	WM Stimuli\	0.7	1380.57142857143	0.7	1132.42857142857	0.9	1047.44444444444	0.9	821.777777777778	0.9	1026.44444444444	0.7	1458	0.7	1105.28571428571	0.7	1113.28571428571	13	425468	3	425456	27	40	425495	-999999	425471	0	2	Cue2BackPROC	""	1	2	2	SessionSelectionList									14	139651	-15	0																																													2												
WM080112	211720_fnca	1	1	1	1128170607	1	75.030	75.031	2.0.10.147	2.0.10.242	2.0.10.242	1.0.0.439	7	234	2	3	Verdana	1	80	0	0	0	WM Stimuli\	0.7	1380.57142857143	0.7	1132.42857142857	0.9	1047.44444444444	0.9	821.777777777778	0.9	1026.44444444444	0.7	1458	0.7	1105.28571428571	0.7	1113.28571428571	13	425468	3	425456	27	40	425495	-999999	425471	0	3	TrialsPROC	BP_002_BP10_BA.png	1	2	3	SessionSelectionList													1	nonlure	3	Body	2-Back	2	80	1	0	0	0	1	52	144302	3	14	113	142250	-1	143943	1	1693	3	3	2052	66	144316	-67	0																3												
WM080112	211720_fnca	1	1	1	1128170607	1	75.030	75.031	2.0.10.147	2.0.10.242	2.0.10.242	1.0.0.439	7	234	2	3	Verdana	1	80	0	0	0	WM Stimuli\	0.7	1380.57142857143	0.7	1132.42857142857	0.9	1047.44444444444	0.9	821.777777777778	0.9	1026.44444444444	0.7	1458	0.7	1105.28571428571	0.7	1113.28571428571	13	425468	3	425456	27	40	425495	-999999	425471	0	3	TrialsPROC	BP_001_BP1_BA.png	1	2	4	SessionSelectionList													2	nonlure	3	Body	2-Back	3	80	2	0	0	0	2	39	146861	3	14	72	144822	-1	145907	1	1085	3	3	2039	53	146875	-54	0																4												
WM080112	211720_fnca	1	1	1	1128170607	1	75.030	75.031	2.0.10.147	2.0.10.242	2.0.10.242	1.0.0.439	7	234	2	3	Verdana	1	80	0	0	0	WM Stimuli\	0.7	1380.57142857143	0.7	1132.42857142857	0.9	1047.44444444444	0.9	821.777777777778	0.9	1026.44444444444	0.7	1458	0.7	1105.28571428571	0.7	1113.28571428571	13	425468	3	425456	27	40	425495	-999999	425471	0	3	TrialsPROC	BP_006_BP2_BA.png	1	2	5	SessionSelectionList													3	nonlure	3	Body	2-Back	4	80	3	0	0	0	1	40	149434	1	13	72	147394	-1	148545	0	1151	2	3	2040	53	149447	-54	0																5												
WM080112	211720_fnca	1	1	1	1128170607	1	75.030	75.031	2.0.10.147	2.0.10.242	2.0.10.242	1.0.0.439	7	234	2	3	Verdana	1	80	0	0	0	WM Stimuli\	0.7	1380.57142857143	0.7	1132.42857142857	0.9	1047.44444444444	0.9	821.777777777778	0.9	1026.44444444444	0.7	1458	0.7	1105.28571428571	0.7	1113.28571428571	13	425468	3	425456	27	40	425495	-999999	425471	0	3	TrialsPROC	BP_001_BP1_BA.png	1	2	6	SessionSelectionList													4	target	2	Body	2-Back	5	80	4	0	0	0	2	39	152006	1	14	73	149967	-1	151819	1	1852	2	2	2039	53	152020	-54	0																6												
WM080112	211720_fnca	1	1	1	1128170607	1	75.030	75.031	2.0.10.147	2.0.10.242	2.0.10.242	1.0.0.439	7	234	2	3	Verdana	1	80	0	0	0	WM Stimuli\	0.7	1380.57142857143	0.7	1132.42857142857	0.9	1047.44444444444	0.9	821.777777777778	0.9	1026.44444444444	0.7	1458	0.7	1105.28571428571	0.7	1113.28571428571	13	425468	3	425456	27	40	425495	-999999	425471	0	3	TrialsPROC	BP_005_BP19_BA.png	1	2	7	SessionSelectionList													5	nonlure	3	Body	2-Back	6	80	5	0	0	0	1	39	154578	2	14	72	152539	-1	153689	1	1150	3	3	2039	53	154592	-54	0																7												
WM080112	211720_fnca	1	1	1	1128170607	1	75.030	75.031	2.0.10.147	2.0.10.242	2.0.10.242	1.0.0.439	7	234	2	3	Verdana	1	80	0	0	0	WM Stimuli\	0.7	1380.57142857143	0.7	1132.42857142857	0.9	1047.44444444444	0.9	821.777777777778	0.9	1026.44444444444	0.7	1458	0.7	1105.28571428571	0.7	1113.28571428571	13	425468	3	425456	27	40	425495	-999999	425471	0	3	TrialsPROC	BP_003_BP16_BA.png	1	2	8	SessionSelectionList													6	nonlure	3	Body	2-Back	7	80	6	0	0	0	2	39	157164	1	13	86	155125	-1	156629	1	1504	3	3	2039	52	157177	-53	0																8												
WM080112	211720_fnca	1	1	1	1128170607	1	75.030	75.031	2.0.10.147	2.0.10.242	2.0.10.242	1.0.0.439	7	234	2	3	Verdana	1	80	0	0	0	WM Stimuli\	0.7	1380.57142857143	0.7	1132.42857142857	0.9	1047.44444444444	0.9	821.777777777778	0.9	1026.44444444444	0.7	1458	0.7	1105.28571428571	0.7	1113.28571428571	13	425468	3	425456	27	40	425495	-999999	425471	0	3	TrialsPROC	BP_006_BP2_BA.png	1	2	9	SessionSelectionList													7	lure	3	Body	2-Back	8	80	7	0	0	0	3	39	159723	1	13	59	157684	-1	158883	1	1199	3	3	2039	52	159736	-53	0																9												
WM080112	211720_fnca	1	1	1	1128170607	1	75.030	75.031	2.0.10.147	2.0.10.242	2.0.10.242	1.0.0.439	7	234	2	3	Verdana	1	80	0	0	0	WM Stimuli\	0.7	1380.57142857143	0.7	1132.42857142857	0.9	1047.44444444444	0.9	821.777777777778	0.9	1026.44444444444	0.7	1458	0.7	1105.28571428571	0.7	1113.28571428571	13	425468	3	425456	27	40	425495	-999999	425471	0	3	TrialsPROC	BP_004_BP18_BA.png	1	2	10	SessionSelectionList													8	nonlure	3	Body	2-Back	9	80	8	0	0	0	4	39	162295	1	14	72	160256	-1	161437	1	1181	3	3	2039	53	162309	-54	0																10												
WM080112	211720_fnca	1	1	1	1128170607	1	75.030	75.031	2.0.10.147	2.0.10.242	2.0.10.242	1.0.0.439	7	234	2	3	Verdana	1	80	0	0	0	WM Stimuli\	0.7	1380.57142857143	0.7	1132.42857142857	0.9	1047.44444444444	0.9	821.777777777778	0.9	1026.44444444444	0.7	1458	0.7	1105.28571428571	0.7	1113.28571428571	13	425468	3	425456	27	40	425495	-999999	425471	0	3	TrialsPROC	BP_005_BP19_BA.png	1	2	11	SessionSelectionList													9	lure	3	Body	2-Back	10	80	8	0	1	0	4	39	164854	1	14	59	162815	-1	0	0	0	""	3	2039	53	164868	-54	0																11												
WM080112	211720_fnca	1	1	1	1128170607	1	75.030	75.031	2.0.10.147	2.0.10.242	2.0.10.242	1.0.0.439	7	234	2	3	Verdana	1	80	0	0	0	WM Stimuli\	0.7	1380.57142857143	0.7	1132.42857142857	0.9	1047.44444444444	0.9	821.777777777778	0.9	1026.44444444444	0.7	1458	0.7	1105.28571428571	0.7	1113.28571428571	13	425468	3	425456	27	40	425495	-999999	425471	0	3	TrialsPROC	BP_004_BP18_BA.png	1	2	12	SessionSelectionList													10	target	2	Body	2-Back	11	80	9	0	0	0	1	39	167413	1	14	59	165374	-1	166341	0	967	3	2	2039	53	167427	-54	0																12												
WM080112	211720_fnca	1	1	1	1128170607	1	75.030	75.031	2.0.10.147	2.0.10.242	2.0.10.242	1.0.0.439	7	234	2	3	Verdana	1	80	0	0	0	WM Stimuli\	0.7	1380.57142857143	0.7	1132.42857142857	0.9	1047.44444444444	0.9	821.777777777778	0.9	1026.44444444444	0.7	1458	0.7	1105.28571428571	0.7	1113.28571428571	13	425468	3	425456	27	40	425495	-999999	425471	0	4	Cue0BackPROC	FC_001_M1.png	1	2	13	SessionSelectionList																																										32	167906	-33	0												13												
WM080112	211720_fnca	1	1	1	1128170607	1	75.030	75.031	2.0.10.147	2.0.10.242	2.0.10.242	1.0.0.439	7	234	2	3	Verdana	1	80	0	0	0	WM Stimuli\	0.7	1380.57142857143	0.7	1132.42857142857	0.9	1047.44444444444	0.9	821.777777777778	0.9	1026.44444444444	0.7	1458	0.7	1105.28571428571	0.7	1113.28571428571	13	425468	3	425456	27	40	425495	-999999	425471	0	5	TrialsPROC	FC_005_M3.png	1	2	14	SessionSelectionList														nonlure	3	Face	0-Back	12	80	10	0	0	0	1	39	172491	1	14	78	170452	-1	171510	0	1058	2	3	2039	53	172505	-54	0					1											14												
WM080112	211720_fnca	1	1	1	1128170607	1	75.030	75.031	2.0.10.147	2.0.10.242	2.0.10.242	1.0.0.439	7	234	2	3	Verdana	1	80	0	0	0	WM Stimuli\	0.7	1380.57142857143	0.7	1132.42857142857	0.9	1047.44444444444	0.9	821.777777777778	0.9	1026.44444444444	0.7	1458	0.7	1105.28571428571	0.7	1113.28571428571	13	425468	3	425456	27	40	425495	-999999	425471	0	5	TrialsPROC	FC_001_M1.png	1	2	15	SessionSelectionList														target	2	Face	0-Back	13	80	11	0	0	50	2	39	175063	2	14	72	173024	-1	174025	1	1001	2	2	2039	53	175077	-54	0					2											15												
WM080112	211720_fnca	1	1	1	1128170607	1	75.030	75.031	2.0.10.147	2.0.10.242	2.0.10.242	1.0.0.439	7	234	2	3	Verdana	1	80	0	0	0	WM Stimuli\	0.7	1380.57142857143	0.7	1132.42857142857	0.9	1047.44444444444	0.9	821.777777777778	0.9	1026.44444444444	0.7	1458	0.7	1105.28571428571	0.7	1113.28571428571	13	425468	3	425456	27	40	425495	-999999	425471	0	5	TrialsPROC	FC_003_M2.png	1	2	16	SessionSelectionList														nonlure	3	Face	0-Back	14	80	12	0	0	67	1	39	177649	2	14	86	175610	-1	176741	1	1131	3	3	2039	53	177663	-54	0					3											16												
WM080112	211720_fnca	1	1	1	1128170607	1	75.030	75.031	2.0.10.147	2.0.10.242	2.0.10.242	1.0.0.439	7	234	2	3	Verdana	1	80	0	0	0	WM Stimuli\	0.7	1380.57142857143	0.7	1132.42857142857	0.9	1047.44444444444	0.9	821.777777777778	0.9	1026.44444444444	0.7	1458	0.7	1105.28571428571	0.7	1113.28571428571	13	425468	3	425456	27	40	425495	-999999	425471	0	5	TrialsPROC	FC_004_F2.png	1	2	17	SessionSelectionList														nonlure	3	Face	0-Back	15	80	13	0	0	75	2	39	180234	2	14	85	178195	-1	179138	1	943	3	3	2039	53	180248	-54	0					4											17												
WM080112	211720_fnca	1	1	1	1128170607	1	75.030	75.031	2.0.10.147	2.0.10.242	2.0.10.242	1.0.0.439	7	234	2	3	Verdana	1	80	0	0	0	WM Stimuli\	0.7	1380.57142857143	0.7	1132.42857142857	0.9	1047.44444444444	0.9	821.777777777778	0.9	1026.44444444444	0.7	1458	0.7	1105.28571428571	0.7	1113.28571428571	13	425468	3	425456	27	40	425495	-999999	425471	0	5	TrialsPROC	FC_004_F2.png	1	2	18	SessionSelectionList														lure	3	Face	0-Back	16	80	14	0	0	80	3	39	182807	1	13	73	180768	-1	181396	1	628	3	3	2039	52	182820	-53	0					5											18												
WM080112	211720_fnca	1	1	1	1128170607	1	75.030	75.031	2.0.10.147	2.0.10.242	2.0.10.242	1.0.0.439	7	234	2	3	Verdana	1	80	0	0	0	WM Stimuli\	0.7	1380.57142857143	0.7	1132.42857142857	0.9	1047.44444444444	0.9	821.777777777778	0.9	1026.44444444444	0.7	1458	0.7	1105.28571428571	0.7	1113.28571428571	13	425468	3	425456	27	40	425495	-999999	425471	0	5	TrialsPROC	FC_001_M1.png	1	2	19	SessionSelectionList														target	2	Face	0-Back	17	80	15	0	0	83	1	39	185379	1	14	72	183340	-1	184064	1	724	2	2	2039	53	185393	-54	0					6											19												
WM080112	211720_fnca	1	1	1	1128170607	1	75.030	75.031	2.0.10.147	2.0.10.242	2.0.10.242	1.0.0.439	7	234	2	3	Verdana	1	80	0	0	0	WM Stimuli\	0.7	1380.57142857143	0.7	1132.42857142857	0.9	1047.44444444444	0.9	821.777777777778	0.9	1026.44444444444	0.7	1458	0.7	1105.28571428571	0.7	1113.28571428571	13	425468	3	425456	27	40	425495	-999999	425471	0	5	TrialsPROC	FC_006_F3.png	1	2	20	SessionSelectionList														nonlure	3	Face	0-Back	18	80	16	0	0	86	1	39	187978	1	14	99	185939	-1	186459	1	520	3	3	2039	53	187992	-54	0					7											20												
WM080112	211720_fnca	1	1	1	1128170607	1	75.030	75.031	2.0.10.147	2.0.10.242	2.0.10.242	1.0.0.439	7	234	2	3	Verdana	1	80	0	0	0	WM Stimuli\	0.7	1380.57142857143	0.7	1132.42857142857	0.9	1047.44444444444	0.9	821.777777777778	0.9	1026.44444444444	0.7	1458	0.7	1105.28571428571	0.7	1113.28571428571	13	425468	3	425456	27	40	425495	-999999	425471	0	5	TrialsPROC	FC_006_F3.png	1	2	21	SessionSelectionList														lure	3	Face	0-Back	19	80	17	0	0	88	2	39	190550	2	14	72	188511	-1	189106	1	595	3	3	2039	53	190564	-54	0					8											21												
WM080112	211720_fnca	1	1	1	1128170607	1	75.030	75.031	2.0.10.147	2.0.10.242	2.0.10.242	1.0.0.439	7	234	2	3	Verdana	1	80	0	0	0	WM Stimuli\	0.7	1380.57142857143	0.7	1132.42857142857	0.9	1047.44444444444	0.9	821.777777777778	0.9	1026.44444444444	0.7	1458	0.7	1105.28571428571	0.7	1113.28571428571	13	425468	3	425456	27	40	425495	-999999	425471	0	5	TrialsPROC	FC_003_M2.png	1	2	22	SessionSelectionList														lure	3	Face	0-Back	20	80	18	0	0	89	3	39	193122	2	14	72	191083	-1	192158	1	1075	3	3	2039	53	193136	-54	0					9											22												
WM080112	211720_fnca	1	1	1	1128170607	1	75.030	75.031	2.0.10.147	2.0.10.242	2.0.10.242	1.0.0.439	7	234	2	3	Verdana	1	80	0	0	0	WM Stimuli\	0.7	1380.57142857143	0.7	1132.42857142857	0.9	1047.44444444444	0.9	821.777777777778	0.9	1026.44444444444	0.7	1458	0.7	1105.28571428571	0.7	1113.28571428571	13	425468	3	425456	27	40	425495	-999999	425471	0	5	TrialsPROC	FC_002_F1.png	1	2	23	SessionSelectionList														nonlure	3	Face	0-Back	21	80	19	0	0	90	4	39	195695	1	14	73	193656	-1	194435	1	779	3	3	2039	53	195709	-54	0					10											23												
WM080112	211720_fnca	1	1	1	1128170607	1	75.030	75.031	2.0.10.147	2.0.10.242	2.0.10.242	1.0.0.439	7	234	2	3	Verdana	1	80	0	0	0	WM Stimuli\	0.7	1380.57142857143	0.7	1132.42857142857	0.9	1047.44444444444	0.9	821.777777777778	0.9	1026.44444444444	0.7	1458	0.7	1105.28571428571	0.7	1113.28571428571	13	425468	3	425456	27	40	425495	-999999	425471	0	6	Fix15secPROC	""	1	2	24	SessionSelectionList																																															6	196162	-7	0							24												
WM080112	211720_fnca	1	1	1	1128170607	1	75.030	75.031	2.0.10.147	2.0.10.242	2.0.10.242	1.0.0.439	7	234	2	3	Verdana	1	80	0	0	0	WM Stimuli\	0.7	1380.57142857143	0.7	1132.42857142857	0.9	1047.44444444444	0.9	821.777777777778	0.9	1026.44444444444	0.7	1458	0.7	1105.28571428571	0.7	1113.28571428571	13	425468	3	425456	27	40	425495	-999999	425471	0	7	Cue2BackPROC	""	1	2	25	SessionSelectionList									13	211169	-14	0																																													25												
WM080112	211720_fnca	1	1	1	1128170607	1	75.030	75.031	2.0.10.147	2.0.10.242	2.0.10.242	1.0.0.439	7	234	2	3	Verdana	1	80	0	0	0	WM Stimuli\	0.7	1380.57142857143	0.7	1132.42857142857	0.9	1047.44444444444	0.9	821.777777777778	0.9	1026.44444444444	0.7	1458	0.7	1105.28571428571	0.7	1113.28571428571	13	425468	3	425456	27	40	425495	-999999	425471	0	8	TrialsPROC	TO_001_TOOL1_BA.png	1	2	26	SessionSelectionList														nonlure	3	Tools	2-Back	22	80	20	0	0	90	5	39	215780	1	14	85	213741	-1	215256	1	1515	3	3	2039	53	215794	-54	0										1						26												
WM080112	211720_fnca	1	1	1	1128170607	1	75.030	75.031	2.0.10.147	2.0.10.242	2.0.10.242	1.0.0.439	7	234	2	3	Verdana	1	80	0	0	0	WM Stimuli\	0.7	1380.57142857143	0.7	1132.42857142857	0.9	1047.44444444444	0.9	821.777777777778	0.9	1026.44444444444	0.7	1458	0.7	1105.28571428571	0.7	1113.28571428571	13	425468	3	425456	27	40	425495	-999999	425471	0	8	TrialsPROC	TO_002_TOOL2_BA.png	1	2	27	SessionSelectionList														nonlure	3	Tools	2-Back	23	80	21	0	0	90	6	40	218366	1	13	85	216326	-1	216854	1	528	3	3	2040	53	218379	-54	0										2						27												
WM080112	211720_fnca	1	1	1	1128170607	1	75.030	75.031	2.0.10.147	2.0.10.242	2.0.10.242	1.0.0.439	7	234	2	3	Verdana	1	80	0	0	0	WM Stimuli\	0.7	1380.57142857143	0.7	1132.42857142857	0.9	1047.44444444444	0.9	821.777777777778	0.9	1026.44444444444	0.7	1458	0.7	1105.28571428571	0.7	1113.28571428571	13	425468	3	425456	27	40	425495	-999999	425471	0	8	TrialsPROC	TO_004_TOOL4_BA.png	1	2	28	SessionSelectionList														nonlure	3	Tools	2-Back	24	80	22	0	0	90	1	39	220951	2	14	86	218912	-1	220364	0	1452	2	3	2039	53	220965	-54	0										3						28												
WM080112	211720_fnca	1	1	1	1128170607	1	75.030	75.031	2.0.10.147	2.0.10.242	2.0.10.242	1.0.0.439	7	234	2	3	Verdana	1	80	0	0	0	WM Stimuli\	0.7	1380.57142857143	0.7	1132.42857142857	0.9	1047.44444444444	0.9	821.777777777778	0.9	1026.44444444444	0.7	1458	0.7	1105.28571428571	0.7	1113.28571428571	13	425468	3	425456	27	40	425495	-999999	425471	0	8	TrialsPROC	TO_002_TOOL2_BA.png	1	2	29	SessionSelectionList														target	2	Tools	2-Back	25	80	23	0	0	90	1	39	223510	2	14	59	221471	-1	222275	0	804	3	2	2039	53	223524	-54	0										4						29												
WM080112	211720_fnca	1	1	1	1128170607	1	75.030	75.031	2.0.10.147	2.0.10.242	2.0.10.242	1.0.0.439	7	234	2	3	Verdana	1	80	0	0	0	WM Stimuli\	0.7	1380.57142857143	0.7	1132.42857142857	0.9	1047.44444444444	0.9	821.777777777778	0.9	1026.44444444444	0.7	1458	0.7	1105.28571428571	0.7	1113.28571428571	13	425468	3	425456	27	40	425495	-999999	425471	0	8	TrialsPROC	TO_001_TOOL1_BA.png	1	2	30	SessionSelectionList														lure	3	Tools	2-Back	26	80	23	0	1	90	1	39	226069	2	14	59	224030	-1	0	0	0	""	3	2039	53	226083	-54	0										5						30												
WM080112	211720_fnca	1	1	1	1128170607	1	75.030	75.031	2.0.10.147	2.0.10.242	2.0.10.242	1.0.0.439	7	234	2	3	Verdana	1	80	0	0	0	WM Stimuli\	0.7	1380.57142857143	0.7	1132.42857142857	0.9	1047.44444444444	0.9	821.777777777778	0.9	1026.44444444444	0.7	1458	0.7	1105.28571428571	0.7	1113.28571428571	13	425468	3	425456	27	40	425495	-999999	425471	0	8	TrialsPROC	TO_004_TOOL4_BA.png	1	2	31	SessionSelectionList														lure	3	Tools	2-Back	27	80	24	0	0	90	1	39	228628	2	14	59	226589	-1	227887	1	1298	3	3	2039	53	228642	-54	0										6						31												
WM080112	211720_fnca	1	1	1	1128170607	1	75.030	75.031	2.0.10.147	2.0.10.242	2.0.10.242	1.0.0.439	7	234	2	3	Verdana	1	80	0	0	0	WM Stimuli\	0.7	1380.57142857143	0.7	1132.42857142857	0.9	1047.44444444444	0.9	821.777777777778	0.9	1026.44444444444	0.7	1458	0.7	1105.28571428571	0.7	1113.28571428571	13	425468	3	425456	27	40	425495	-999999	425471	0	8	TrialsPROC	TO_006_TOOL6_BA.png	1	2	32	SessionSelectionList														nonlure	3	Tools	2-Back	28	80	25	0	0	90	2	39	231200	2	14	72	229161	-1	230439	1	1278	3	3	2039	53	231214	-54	0										7						32												
WM080112	211720_fnca	1	1	1	1128170607	1	75.030	75.031	2.0.10.147	2.0.10.242	2.0.10.242	1.0.0.439	7	234	2	3	Verdana	1	80	0	0	0	WM Stimuli\	0.7	1380.57142857143	0.7	1132.42857142857	0.9	1047.44444444444	0.9	821.777777777778	0.9	1026.44444444444	0.7	1458	0.7	1105.28571428571	0.7	1113.28571428571	13	425468	3	425456	27	40	425495	-999999	425471	0	8	TrialsPROC	TO_005_TOOL5_BA.png	1	2	33	SessionSelectionList														nonlure	3	Tools	2-Back	29	80	26	0	0	90	3	39	233773	1	13	73	231734	-1	232948	1	1214	3	3	2039	52	233786	-53	0										8						33												
WM080112	211720_fnca	1	1	1	1128170607	1	75.030	75.031	2.0.10.147	2.0.10.242	2.0.10.242	1.0.0.439	7	234	2	3	Verdana	1	80	0	0	0	WM Stimuli\	0.7	1380.57142857143	0.7	1132.42857142857	0.9	1047.44444444444	0.9	821.777777777778	0.9	1026.44444444444	0.7	1458	0.7	1105.28571428571	0.7	1113.28571428571	13	425468	3	425456	27	40	425495	-999999	425471	0	8	TrialsPROC	TO_006_TOOL6_BA.png	1	2	34	SessionSelectionList														target	2	Tools	2-Back	30	80	27	0	0	90	1	40	236332	1	13	58	234292	-1	235075	1	783	2	2	2040	53	236345	-54	0										9						34												
WM080112	211720_fnca	1	1	1	1128170607	1	75.030	75.031	2.0.10.147	2.0.10.242	2.0.10.242	1.0.0.439	7	234	2	3	Verdana	1	80	0	0	0	WM Stimuli\	0.7	1380.57142857143	0.7	1132.42857142857	0.9	1047.44444444444	0.9	821.777777777778	0.9	1026.44444444444	0.7	1458	0.7	1105.28571428571	0.7	1113.28571428571	13	425468	3	425456	27	40	425495	-999999	425471	0	8	TrialsPROC	TO_003_TOOL3_BA.png	1	2	35	SessionSelectionList														nonlure	3	Tools	2-Back	31	80	28	0	0	90	1	39	238904	1	14	73	236865	-1	237986	1	1121	3	3	2039	53	238918	-54	0										10						35												
WM080112	211720_fnca	1	1	1	1128170607	1	75.030	75.031	2.0.10.147	2.0.10.242	2.0.10.242	1.0.0.439	7	234	2	3	Verdana	1	80	0	0	0	WM Stimuli\	0.7	1380.57142857143	0.7	1132.42857142857	0.9	1047.44444444444	0.9	821.777777777778	0.9	1026.44444444444	0.7	1458	0.7	1105.28571428571	0.7	1113.28571428571	13	425468	3	425456	27	40	425495	-999999	425471	0	9	Cue0BackPROC	BP_007_BP20_BA.png	1	2	36	SessionSelectionList																																										32	239397	-33	0												36												
WM080112	211720_fnca	1	1	1	1128170607	1	75.030	75.031	2.0.10.147	2.0.10.242	2.0.10.242	1.0.0.439	7	234	2	3	Verdana	1	80	0	0	0	WM Stimuli\	0.7	1380.57142857143	0.7	1132.42857142857	0.9	1047.44444444444	0.9	821.777777777778	0.9	1026.44444444444	0.7	1458	0.7	1105.28571428571	0.7	1113.28571428571	13	425468	3	425456	27	40	425495	-999999	425471	0	10	TrialsPROC	BP_007_BP20_BA.png	1	2	37	SessionSelectionList														target	2	Body	0-Back	32	80	29	0	0	91	1	39	243955	2	14	51	241916	-1	243037	1	1121	2	2	2039	53	243969	-54	0											1					37												
WM080112	211720_fnca	1	1	1	1128170607	1	75.030	75.031	2.0.10.147	2.0.10.242	2.0.10.242	1.0.0.439	7	234	2	3	Verdana	1	80	0	0	0	WM Stimuli\	0.7	1380.57142857143	0.7	1132.42857142857	0.9	1047.44444444444	0.9	821.777777777778	0.9	1026.44444444444	0.7	1458	0.7	1105.28571428571	0.7	1113.28571428571	13	425468	3	425456	27	40	425495	-999999	425471	0	10	TrialsPROC	BP_011_BP4_BA.png	1	2	38	SessionSelectionList														nonlure	3	Body	0-Back	33	80	29	0	1	83	1	39	246527	2	14	72	244488	-1	0	0	0	""	3	2039	53	246541	-54	0											2					38												
WM080112	211720_fnca	1	1	1	1128170607	1	75.030	75.031	2.0.10.147	2.0.10.242	2.0.10.242	1.0.0.439	7	234	2	3	Verdana	1	80	0	0	0	WM Stimuli\	0.7	1380.57142857143	0.7	1132.42857142857	0.9	1047.44444444444	0.9	821.777777777778	0.9	1026.44444444444	0.7	1458	0.7	1105.28571428571	0.7	1113.28571428571	13	425468	3	425456	27	40	425495	-999999	425471	0	10	TrialsPROC	BP_010_BP3_BA.png	1	2	39	SessionSelectionList														nonlure	3	Body	0-Back	34	80	30	0	0	85	1	39	249113	2	14	86	247074	-1	247846	1	772	3	3	2039	53	249127	-54	0											3					39												
WM080112	211720_fnca	1	1	1	1128170607	1	75.030	75.031	2.0.10.147	2.0.10.242	2.0.10.242	1.0.0.439	7	234	2	3	Verdana	1	80	0	0	0	WM Stimuli\	0.7	1380.57142857143	0.7	1132.42857142857	0.9	1047.44444444444	0.9	821.777777777778	0.9	1026.44444444444	0.7	1458	0.7	1105.28571428571	0.7	1113.28571428571	13	425468	3	425456	27	40	425495	-999999	425471	0	10	TrialsPROC	BP_008_BP21_BA.png	1	2	40	SessionSelectionList														nonlure	3	Body	0-Back	35	80	31	0	0	86	2	39	251685	2	14	72	249646	-1	250877	1	1231	3	3	2039	53	251699	-54	0											4					40												
WM080112	211720_fnca	1	1	1	1128170607	1	75.030	75.031	2.0.10.147	2.0.10.242	2.0.10.242	1.0.0.439	7	234	2	3	Verdana	1	80	0	0	0	WM Stimuli\	0.7	1380.57142857143	0.7	1132.42857142857	0.9	1047.44444444444	0.9	821.777777777778	0.9	1026.44444444444	0.7	1458	0.7	1105.28571428571	0.7	1113.28571428571	13	425468	3	425456	27	40	425495	-999999	425471	0	10	TrialsPROC	BP_011_BP4_BA.png	1	2	41	SessionSelectionList														lure	3	Body	0-Back	36	80	32	0	0	87	3	38	254244	2	14	60	252206	-1	253759	1	1553	3	3	2038	52	254258	-53	0											5					41												
WM080112	211720_fnca	1	1	1	1128170607	1	75.030	75.031	2.0.10.147	2.0.10.242	2.0.10.242	1.0.0.439	7	234	2	3	Verdana	1	80	0	0	0	WM Stimuli\	0.7	1380.57142857143	0.7	1132.42857142857	0.9	1047.44444444444	0.9	821.777777777778	0.9	1026.44444444444	0.7	1458	0.7	1105.28571428571	0.7	1113.28571428571	13	425468	3	425456	27	40	425495	-999999	425471	0	10	TrialsPROC	BP_009_BP22_BA.png	1	2	42	SessionSelectionList														nonlure	3	Body	0-Back	37	80	33	0	0	88	4	40	256817	1	13	71	254777	-1	255773	1	996	3	3	2040	53	256830	-54	0											6					42												
WM080112	211720_fnca	1	1	1	1128170607	1	75.030	75.031	2.0.10.147	2.0.10.242	2.0.10.242	1.0.0.439	7	234	2	3	Verdana	1	80	0	0	0	WM Stimuli\	0.7	1380.57142857143	0.7	1132.42857142857	0.9	1047.44444444444	0.9	821.777777777778	0.9	1026.44444444444	0.7	1458	0.7	1105.28571428571	0.7	1113.28571428571	13	425468	3	425456	27	40	425495	-999999	425471	0	10	TrialsPROC	BP_009_BP22_BA.png	1	2	43	SessionSelectionList														lure	3	Body	0-Back	38	80	34	0	0	82	1	40	259376	1	13	59	257336	-1	258365	0	1029	2	3	2040	53	259389	-54	0											7					43												
WM080112	211720_fnca	1	1	1	1128170607	1	75.030	75.031	2.0.10.147	2.0.10.242	2.0.10.242	1.0.0.439	7	234	2	3	Verdana	1	80	0	0	0	WM Stimuli\	0.7	1380.57142857143	0.7	1132.42857142857	0.9	1047.44444444444	0.9	821.777777777778	0.9	1026.44444444444	0.7	1458	0.7	1105.28571428571	0.7	1113.28571428571	13	425468	3	425456	27	40	425495	-999999	425471	0	10	TrialsPROC	BP_008_BP21_BA.png	1	2	44	SessionSelectionList														lure	3	Body	0-Back	39	80	35	0	0	83	1	40	261935	1	13	59	259895	-1	261086	1	1191	3	3	2040	53	261948	-54	0											8					44												
WM080112	211720_fnca	1	1	1	1128170607	1	75.030	75.031	2.0.10.147	2.0.10.242	2.0.10.242	1.0.0.439	7	234	2	3	Verdana	1	80	0	0	0	WM Stimuli\	0.7	1380.57142857143	0.7	1132.42857142857	0.9	1047.44444444444	0.9	821.777777777778	0.9	1026.44444444444	0.7	1458	0.7	1105.28571428571	0.7	1113.28571428571	13	425468	3	425456	27	40	425495	-999999	425471	0	10	TrialsPROC	BP_007_BP20_BA.png	1	2	45	SessionSelectionList														target	2	Body	0-Back	40	80	36	0	0	79	2	40	264494	1	13	59	262454	-1	263709	0	1255	3	2	2040	53	264507	-54	0											9					45												
WM080112	211720_fnca	1	1	1	1128170607	1	75.030	75.031	2.0.10.147	2.0.10.242	2.0.10.242	1.0.0.439	7	234	2	3	Verdana	1	80	0	0	0	WM Stimuli\	0.7	1380.57142857143	0.7	1132.42857142857	0.9	1047.44444444444	0.9	821.777777777778	0.9	1026.44444444444	0.7	1458	0.7	1105.28571428571	0.7	1113.28571428571	13	425468	3	425456	27	40	425495	-999999	425471	0	10	TrialsPROC	BP_012_BP5_BA.png	1	2	46	SessionSelectionList														nonlure	3	Body	0-Back	41	80	37	0	0	80	3	39	267066	1	14	73	265027	-1	266090	1	1063	3	3	2039	53	267080	-54	0											10					46												
WM080112	211720_fnca	1	1	1	1128170607	1	75.030	75.031	2.0.10.147	2.0.10.242	2.0.10.242	1.0.0.439	7	234	2	3	Verdana	1	80	0	0	0	WM Stimuli\	0.7	1380.57142857143	0.7	1132.42857142857	0.9	1047.44444444444	0.9	821.777777777778	0.9	1026.44444444444	0.7	1458	0.7	1105.28571428571	0.7	1113.28571428571	13	425468	3	425456	27	40	425495	-999999	425471	0	11	Fix15secPROC	""	1	2	47	SessionSelectionList																																															6	267533	-7	0							47												
WM080112	211720_fnca	1	1	1	1128170607	1	75.030	75.031	2.0.10.147	2.0.10.242	2.0.10.242	1.0.0.439	7	234	2	3	Verdana	1	80	0	0	0	WM Stimuli\	0.7	1380.57142857143	0.7	1132.42857142857	0.9	1047.44444444444	0.9	821.777777777778	0.9	1026.44444444444	0.7	1458	0.7	1105.28571428571	0.7	1113.28571428571	13	425468	3	425456	27	40	425495	-999999	425471	0	12	Cue0BackPROC	PL_001_92012.png	1	2	48	SessionSelectionList																																										39	282566	-40	0												48												
WM080112	211720_fnca	1	1	1	1128170607	1	75.030	75.031	2.0.10.147	2.0.10.242	2.0.10.242	1.0.0.439	7	234	2	3	Verdana	1	80	0	0	0	WM Stimuli\	0.7	1380.57142857143	0.7	1132.42857142857	0.9	1047.44444444444	0.9	821.777777777778	0.9	1026.44444444444	0.7	1458	0.7	1105.28571428571	0.7	1113.28571428571	13	425468	3	425456	27	40	425495	-999999	425471	0	13	TrialsPROC	PL_003_92016.png	1	2	49	SessionSelectionList														nonlure	3	Place	0-Back	42	80	38	0	0	81	4	39	287164	2	14	98	285125	-1	286772	1	1647	3	3	2039	53	287178	-54	0												1				49												
WM080112	211720_fnca	1	1	1	1128170607	1	75.030	75.031	2.0.10.147	2.0.10.242	2.0.10.242	1.0.0.439	7	234	2	3	Verdana	1	80	0	0	0	WM Stimuli\	0.7	1380.57142857143	0.7	1132.42857142857	0.9	1047.44444444444	0.9	821.777777777778	0.9	1026.44444444444	0.7	1458	0.7	1105.28571428571	0.7	1113.28571428571	13	425468	3	425456	27	40	425495	-999999	425471	0	13	TrialsPROC	PL_003_92016.png	1	2	50	SessionSelectionList														lure	3	Place	0-Back	43	80	39	0	0	77	1	40	289737	1	13	72	287697	-1	288541	0	844	2	3	2040	53	289750	-54	0												2				50												
WM080112	211720_fnca	1	1	1	1128170607	1	75.030	75.031	2.0.10.147	2.0.10.242	2.0.10.242	1.0.0.439	7	234	2	3	Verdana	1	80	0	0	0	WM Stimuli\	0.7	1380.57142857143	0.7	1132.42857142857	0.9	1047.44444444444	0.9	821.777777777778	0.9	1026.44444444444	0.7	1458	0.7	1105.28571428571	0.7	1113.28571428571	13	425468	3	425456	27	40	425495	-999999	425471	0	13	TrialsPROC	PL_006_92025.png	1	2	51	SessionSelectionList														nonlure	3	Place	0-Back	44	80	40	0	0	78	1	39	292309	1	14	73	290270	-1	291715	1	1445	3	3	2039	53	292323	-54	0												3				51												
WM080112	211720_fnca	1	1	1	1128170607	1	75.030	75.031	2.0.10.147	2.0.10.242	2.0.10.242	1.0.0.439	7	234	2	3	Verdana	1	80	0	0	0	WM Stimuli\	0.7	1380.57142857143	0.7	1132.42857142857	0.9	1047.44444444444	0.9	821.777777777778	0.9	1026.44444444444	0.7	1458	0.7	1105.28571428571	0.7	1113.28571428571	13	425468	3	425456	27	40	425495	-999999	425471	0	13	TrialsPROC	PL_001_92012.png	1	2	52	SessionSelectionList														target	2	Place	0-Back	45	80	41	0	0	75	2	39	294881	2	14	72	292842	-1	294074	0	1232	3	2	2039	53	294895	-54	0												4				52												
WM080112	211720_fnca	1	1	1	1128170607	1	75.030	75.031	2.0.10.147	2.0.10.242	2.0.10.242	1.0.0.439	7	234	2	3	Verdana	1	80	0	0	0	WM Stimuli\	0.7	1380.57142857143	0.7	1132.42857142857	0.9	1047.44444444444	0.9	821.777777777778	0.9	1026.44444444444	0.7	1458	0.7	1105.28571428571	0.7	1113.28571428571	13	425468	3	425456	27	40	425495	-999999	425471	0	13	TrialsPROC	PL_004_92023.png	1	2	53	SessionSelectionList														nonlure	3	Place	0-Back	46	80	42	0	0	76	3	39	297453	2	14	72	295414	-1	296538	1	1124	3	3	2039	53	297467	-54	0												5				53												
WM080112	211720_fnca	1	1	1	1128170607	1	75.030	75.031	2.0.10.147	2.0.10.242	2.0.10.242	1.0.0.439	7	234	2	3	Verdana	1	80	0	0	0	WM Stimuli\	0.7	1380.57142857143	0.7	1132.42857142857	0.9	1047.44444444444	0.9	821.777777777778	0.9	1026.44444444444	0.7	1458	0.7	1105.28571428571	0.7	1113.28571428571	13	425468	3	425456	27	40	425495	-999999	425471	0	13	TrialsPROC	PL_005_92024.png	1	2	54	SessionSelectionList														nonlure	3	Place	0-Back	47	80	43	0	0	77	4	39	300026	1	13	73	297987	-1	299789	1	1802	3	3	2039	52	300039	-53	0												6				54												
WM080112	211720_fnca	1	1	1	1128170607	1	75.030	75.031	2.0.10.147	2.0.10.242	2.0.10.242	1.0.0.439	7	234	2	3	Verdana	1	80	0	0	0	WM Stimuli\	0.7	1380.57142857143	0.7	1132.42857142857	0.9	1047.44444444444	0.9	821.777777777778	0.9	1026.44444444444	0.7	1458	0.7	1105.28571428571	0.7	1113.28571428571	13	425468	3	425456	27	40	425495	-999999	425471	0	13	TrialsPROC	PL_001_92012.png	1	2	55	SessionSelectionList														target	2	Place	0-Back	48	80	44	0	0	74	5	39	302598	2	14	72	300559	-1	302334	0	1775	3	2	2039	53	302612	-54	0												7				55												
WM080112	211720_fnca	1	1	1	1128170607	1	75.030	75.031	2.0.10.147	2.0.10.242	2.0.10.242	1.0.0.439	7	234	2	3	Verdana	1	80	0	0	0	WM Stimuli\	0.7	1380.57142857143	0.7	1132.42857142857	0.9	1047.44444444444	0.9	821.777777777778	0.9	1026.44444444444	0.7	1458	0.7	1105.28571428571	0.7	1113.28571428571	13	425468	3	425456	27	40	425495	-999999	425471	0	13	TrialsPROC	PL_002_92014.png	1	2	56	SessionSelectionList														nonlure	3	Place	0-Back	49	80	45	0	0	75	6	39	305170	2	14	72	303131	-1	304457	1	1326	3	3	2039	53	305184	-54	0												8				56												
WM080112	211720_fnca	1	1	1	1128170607	1	75.030	75.031	2.0.10.147	2.0.10.242	2.0.10.242	1.0.0.439	7	234	2	3	Verdana	1	80	0	0	0	WM Stimuli\	0.7	1380.57142857143	0.7	1132.42857142857	0.9	1047.44444444444	0.9	821.777777777778	0.9	1026.44444444444	0.7	1458	0.7	1105.28571428571	0.7	1113.28571428571	13	425468	3	425456	27	40	425495	-999999	425471	0	13	TrialsPROC	PL_004_92023.png	1	2	57	SessionSelectionList														lure	3	Place	0-Back	50	80	46	0	0	76	7	40	307743	1	13	72	305703	-1	306817	1	1114	3	3	2040	53	307756	-54	0												9				57												
WM080112	211720_fnca	1	1	1	1128170607	1	75.030	75.031	2.0.10.147	2.0.10.242	2.0.10.242	1.0.0.439	7	234	2	3	Verdana	1	80	0	0	0	WM Stimuli\	0.7	1380.57142857143	0.7	1132.42857142857	0.9	1047.44444444444	0.9	821.777777777778	0.9	1026.44444444444	0.7	1458	0.7	1105.28571428571	0.7	1113.28571428571	13	425468	3	425456	27	40	425495	-999999	425471	0	13	TrialsPROC	PL_006_92025.png	1	2	58	SessionSelectionList														lure	3	Place	0-Back	51	80	47	0	0	77	8	39	310315	1	14	73	308276	-1	310024	1	1748	3	3	2039	53	310329	-54	0												10				58												
WM080112	211720_fnca	1	1	1	1128170607	1	75.030	75.031	2.0.10.147	2.0.10.242	2.0.10.242	1.0.0.439	7	234	2	3	Verdana	1	80	0	0	0	WM Stimuli\	0.7	1380.57142857143	0.7	1132.42857142857	0.9	1047.44444444444	0.9	821.777777777778	0.9	1026.44444444444	0.7	1458	0.7	1105.28571428571	0.7	1113.28571428571	13	425468	3	425456	27	40	425495	-999999	425471	0	14	Cue2BackPROC	""	1	2	59	SessionSelectionList									5	310781	-6	0																																													59												
WM080112	211720_fnca	1	1	1	1128170607	1	75.030	75.031	2.0.10.147	2.0.10.242	2.0.10.242	1.0.0.439	7	234	2	3	Verdana	1	80	0	0	0	WM Stimuli\	0.7	1380.57142857143	0.7	1132.42857142857	0.9	1047.44444444444	0.9	821.777777777778	0.9	1026.44444444444	0.7	1458	0.7	1105.28571428571	0.7	1113.28571428571	13	425468	3	425456	27	40	425495	-999999	425471	0	15	TrialsPROC	FC_010_F5.png	1	2	60	SessionSelectionList														nonlure	3	Face	2-Back	52	80	47	0	1	77	8	39	315406	2	14	91	313367	-1	0	0	0	""	3	2039	53	315420	-54	0													1			60												
WM080112	211720_fnca	1	1	1	1128170607	1	75.030	75.031	2.0.10.147	2.0.10.242	2.0.10.242	1.0.0.439	7	234	2	3	Verdana	1	80	0	0	0	WM Stimuli\	0.7	1380.57142857143	0.7	1132.42857142857	0.9	1047.44444444444	0.9	821.777777777778	0.9	1026.44444444444	0.7	1458	0.7	1105.28571428571	0.7	1113.28571428571	13	425468	3	425456	27	40	425495	-999999	425471	0	15	TrialsPROC	FC_012_F6.png	1	2	61	SessionSelectionList														nonlure	3	Face	2-Back	53	80	48	0	0	77	1	39	317992	1	14	86	315953	-1	316586	1	633	3	3	2039	53	318006	-54	0													2			61												
WM080112	211720_fnca	1	1	1	1128170607	1	75.030	75.031	2.0.10.147	2.0.10.242	2.0.10.242	1.0.0.439	7	234	2	3	Verdana	1	80	0	0	0	WM Stimuli\	0.7	1380.57142857143	0.7	1132.42857142857	0.9	1047.44444444444	0.9	821.777777777778	0.9	1026.44444444444	0.7	1458	0.7	1105.28571428571	0.7	1113.28571428571	13	425468	3	425456	27	40	425495	-999999	425471	0	15	TrialsPROC	FC_010_F5.png	1	2	62	SessionSelectionList														target	2	Face	2-Back	54	80	49	0	0	77	1	39	320564	2	14	72	318525	-1	319073	1	548	2	2	2039	53	320578	-54	0													3			62												
WM080112	211720_fnca	1	1	1	1128170607	1	75.030	75.031	2.0.10.147	2.0.10.242	2.0.10.242	1.0.0.439	7	234	2	3	Verdana	1	80	0	0	0	WM Stimuli\	0.7	1380.57142857143	0.7	1132.42857142857	0.9	1047.44444444444	0.9	821.777777777778	0.9	1026.44444444444	0.7	1458	0.7	1105.28571428571	0.7	1113.28571428571	13	425468	3	425456	27	40	425495	-999999	425471	0	15	TrialsPROC	FC_008_F4.png	1	2	63	SessionSelectionList														nonlure	3	Face	2-Back	55	80	50	0	0	77	1	39	323136	2	14	72	321097	-1	321985	1	888	3	3	2039	53	323150	-54	0													4			63												
WM080112	211720_fnca	1	1	1	1128170607	1	75.030	75.031	2.0.10.147	2.0.10.242	2.0.10.242	1.0.0.439	7	234	2	3	Verdana	1	80	0	0	0	WM Stimuli\	0.7	1380.57142857143	0.7	1132.42857142857	0.9	1047.44444444444	0.9	821.777777777778	0.9	1026.44444444444	0.7	1458	0.7	1105.28571428571	0.7	1113.28571428571	13	425468	3	425456	27	40	425495	-999999	425471	0	15	TrialsPROC	FC_012_F6.png	1	2	64	SessionSelectionList														lure	3	Face	2-Back	56	80	51	0	0	77	2	39	325709	1	13	73	323670	-1	325234	1	1564	3	3	2039	52	325722	-53	0													5			64												
WM080112	211720_fnca	1	1	1	1128170607	1	75.030	75.031	2.0.10.147	2.0.10.242	2.0.10.242	1.0.0.439	7	234	2	3	Verdana	1	80	0	0	0	WM Stimuli\	0.7	1380.57142857143	0.7	1132.42857142857	0.9	1047.44444444444	0.9	821.777777777778	0.9	1026.44444444444	0.7	1458	0.7	1105.28571428571	0.7	1113.28571428571	13	425468	3	425456	27	40	425495	-999999	425471	0	15	TrialsPROC	FC_008_F4.png	1	2	65	SessionSelectionList														target	2	Face	2-Back	57	80	52	0	0	77	1	39	328281	1	14	72	326242	-1	327034	1	792	2	2	2039	53	328295	-54	0													6			65												
WM080112	211720_fnca	1	1	1	1128170607	1	75.030	75.031	2.0.10.147	2.0.10.242	2.0.10.242	1.0.0.439	7	234	2	3	Verdana	1	80	0	0	0	WM Stimuli\	0.7	1380.57142857143	0.7	1132.42857142857	0.9	1047.44444444444	0.9	821.777777777778	0.9	1026.44444444444	0.7	1458	0.7	1105.28571428571	0.7	1113.28571428571	13	425468	3	425456	27	40	425495	-999999	425471	0	15	TrialsPROC	FC_007_M4.png	1	2	66	SessionSelectionList														nonlure	3	Face	2-Back	58	80	53	0	0	77	1	40	330867	1	13	85	328827	-1	329620	1	793	3	3	2040	53	330880	-54	0													7			66												
WM080112	211720_fnca	1	1	1	1128170607	1	75.030	75.031	2.0.10.147	2.0.10.242	2.0.10.242	1.0.0.439	7	234	2	3	Verdana	1	80	0	0	0	WM Stimuli\	0.7	1380.57142857143	0.7	1132.42857142857	0.9	1047.44444444444	0.9	821.777777777778	0.9	1026.44444444444	0.7	1458	0.7	1105.28571428571	0.7	1113.28571428571	13	425468	3	425456	27	40	425495	-999999	425471	0	15	TrialsPROC	FC_007_M4.png	1	2	67	SessionSelectionList														lure	3	Face	2-Back	59	80	54	0	0	77	2	39	333439	1	14	73	331400	-1	332886	1	1486	3	3	2039	53	333453	-54	0													8			67												
WM080112	211720_fnca	1	1	1	1128170607	1	75.030	75.031	2.0.10.147	2.0.10.242	2.0.10.242	1.0.0.439	7	234	2	3	Verdana	1	80	0	0	0	WM Stimuli\	0.7	1380.57142857143	0.7	1132.42857142857	0.9	1047.44444444444	0.9	821.777777777778	0.9	1026.44444444444	0.7	1458	0.7	1105.28571428571	0.7	1113.28571428571	13	425468	3	425456	27	40	425495	-999999	425471	0	15	TrialsPROC	FC_009_M5.png	1	2	68	SessionSelectionList														nonlure	3	Face	2-Back	60	80	55	0	0	77	3	39	336011	2	14	72	333972	-1	335398	1	1426	3	3	2039	53	336025	-54	0													9			68												
WM080112	211720_fnca	1	1	1	1128170607	1	75.030	75.031	2.0.10.147	2.0.10.242	2.0.10.242	1.0.0.439	7	234	2	3	Verdana	1	80	0	0	0	WM Stimuli\	0.7	1380.57142857143	0.7	1132.42857142857	0.9	1047.44444444444	0.9	821.777777777778	0.9	1026.44444444444	0.7	1458	0.7	1105.28571428571	0.7	1113.28571428571	13	425468	3	425456	27	40	425495	-999999	425471	0	15	TrialsPROC	FC_011_M6.png	1	2	69	SessionSelectionList														nonlure	3	Face	2-Back	61	80	56	0	0	77	4	39	338583	2	14	72	336544	-1	337841	1	1297	3	3	2039	53	338597	-54	0													10			69												
WM080112	211720_fnca	1	1	1	1128170607	1	75.030	75.031	2.0.10.147	2.0.10.242	2.0.10.242	1.0.0.439	7	234	2	3	Verdana	1	80	0	0	0	WM Stimuli\	0.7	1380.57142857143	0.7	1132.42857142857	0.9	1047.44444444444	0.9	821.777777777778	0.9	1026.44444444444	0.7	1458	0.7	1105.28571428571	0.7	1113.28571428571	13	425468	3	425456	27	40	425495	-999999	425471	0	16	Fix15secPROC	""	1	2	70	SessionSelectionList																																															6	339050	-7	0							70												
WM080112	211720_fnca	1	1	1	1128170607	1	75.030	75.031	2.0.10.147	2.0.10.242	2.0.10.242	1.0.0.439	7	234	2	3	Verdana	1	80	0	0	0	WM Stimuli\	0.7	1380.57142857143	0.7	1132.42857142857	0.9	1047.44444444444	0.9	821.777777777778	0.9	1026.44444444444	0.7	1458	0.7	1105.28571428571	0.7	1113.28571428571	13	425468	3	425456	27	40	425495	-999999	425471	0	17	Cue0BackPROC	TO_007_TOOL7_BA.png	1	2	71	SessionSelectionList																																										40	354084	-41	0												71												
WM080112	211720_fnca	1	1	1	1128170607	1	75.030	75.031	2.0.10.147	2.0.10.242	2.0.10.242	1.0.0.439	7	234	2	3	Verdana	1	80	0	0	0	WM Stimuli\	0.7	1380.57142857143	0.7	1132.42857142857	0.9	1047.44444444444	0.9	821.777777777778	0.9	1026.44444444444	0.7	1458	0.7	1105.28571428571	0.7	1113.28571428571	13	425468	3	425456	27	40	425495	-999999	425471	0	18	TrialsPROC	TO_010_TOOL10_BA.png	1	2	72	SessionSelectionList														nonlure	3	Tools	0-Back	62	80	57	0	0	77	5	39	358655	2	14	72	356616	-1	357599	1	983	3	3	2039	53	358669	-54	0														1		72												
WM080112	211720_fnca	1	1	1	1128170607	1	75.030	75.031	2.0.10.147	2.0.10.242	2.0.10.242	1.0.0.439	7	234	2	3	Verdana	1	80	0	0	0	WM Stimuli\	0.7	1380.57142857143	0.7	1132.42857142857	0.9	1047.44444444444	0.9	821.777777777778	0.9	1026.44444444444	0.7	1458	0.7	1105.28571428571	0.7	1113.28571428571	13	425468	3	425456	27	40	425495	-999999	425471	0	18	TrialsPROC	TO_009_TOOL9_BA.png	1	2	73	SessionSelectionList														nonlure	3	Tools	0-Back	63	80	58	0	0	78	6	39	361241	1	14	86	359202	-1	360735	1	1533	3	3	2039	53	361255	-54	0														2		73												
WM080112	211720_fnca	1	1	1	1128170607	1	75.030	75.031	2.0.10.147	2.0.10.242	2.0.10.242	1.0.0.439	7	234	2	3	Verdana	1	80	0	0	0	WM Stimuli\	0.7	1380.57142857143	0.7	1132.42857142857	0.9	1047.44444444444	0.9	821.777777777778	0.9	1026.44444444444	0.7	1458	0.7	1105.28571428571	0.7	1113.28571428571	13	425468	3	425456	27	40	425495	-999999	425471	0	18	TrialsPROC	TO_009_TOOL9_BA.png	1	2	74	SessionSelectionList														lure	3	Tools	0-Back	64	80	59	0	0	76	1	39	363800	1	14	59	361761	-1	362648	0	887	2	3	2039	53	363814	-54	0														3		74												
WM080112	211720_fnca	1	1	1	1128170607	1	75.030	75.031	2.0.10.147	2.0.10.242	2.0.10.242	1.0.0.439	7	234	2	3	Verdana	1	80	0	0	0	WM Stimuli\	0.7	1380.57142857143	0.7	1132.42857142857	0.9	1047.44444444444	0.9	821.777777777778	0.9	1026.44444444444	0.7	1458	0.7	1105.28571428571	0.7	1113.28571428571	13	425468	3	425456	27	40	425495	-999999	425471	0	18	TrialsPROC	TO_008_TOOL8_BA.png	1	2	75	SessionSelectionList														nonlure	3	Tools	0-Back	65	80	60	0	0	76	1	39	366385	2	14	85	364346	-1	365299	1	953	3	3	2039	53	366399	-54	0														4		75												
WM080112	211720_fnca	1	1	1	1128170607	1	75.030	75.031	2.0.10.147	2.0.10.242	2.0.10.242	1.0.0.439	7	234	2	3	Verdana	1	80	0	0	0	WM Stimuli\	0.7	1380.57142857143	0.7	1132.42857142857	0.9	1047.44444444444	0.9	821.777777777778	0.9	1026.44444444444	0.7	1458	0.7	1105.28571428571	0.7	1113.28571428571	13	425468	3	425456	27	40	425495	-999999	425471	0	18	TrialsPROC	TO_011_TOOL11_BA.png	1	2	76	SessionSelectionList														nonlure	3	Tools	0-Back	66	80	61	0	0	77	2	39	368971	2	14	86	366932	-1	368094	1	1162	3	3	2039	53	368985	-54	0														5		76												
WM080112	211720_fnca	1	1	1	1128170607	1	75.030	75.031	2.0.10.147	2.0.10.242	2.0.10.242	1.0.0.439	7	234	2	3	Verdana	1	80	0	0	0	WM Stimuli\	0.7	1380.57142857143	0.7	1132.42857142857	0.9	1047.44444444444	0.9	821.777777777778	0.9	1026.44444444444	0.7	1458	0.7	1105.28571428571	0.7	1113.28571428571	13	425468	3	425456	27	40	425495	-999999	425471	0	18	TrialsPROC	TO_012_TOOL12_BA.png	1	2	77	SessionSelectionList														nonlure	3	Tools	0-Back	67	80	62	0	0	78	3	39	371543	2	14	72	369504	-1	370603	1	1099	3	3	2039	53	371557	-54	0														6		77												
WM080112	211720_fnca	1	1	1	1128170607	1	75.030	75.031	2.0.10.147	2.0.10.242	2.0.10.242	1.0.0.439	7	234	2	3	Verdana	1	80	0	0	0	WM Stimuli\	0.7	1380.57142857143	0.7	1132.42857142857	0.9	1047.44444444444	0.9	821.777777777778	0.9	1026.44444444444	0.7	1458	0.7	1105.28571428571	0.7	1113.28571428571	13	425468	3	425456	27	40	425495	-999999	425471	0	18	TrialsPROC	TO_010_TOOL10_BA.png	1	2	78	SessionSelectionList														lure	3	Tools	0-Back	68	80	63	0	0	78	4	39	374102	2	14	59	372063	-1	373007	1	944	3	3	2039	53	374116	-54	0														7		78												
WM080112	211720_fnca	1	1	1	1128170607	1	75.030	75.031	2.0.10.147	2.0.10.242	2.0.10.242	1.0.0.439	7	234	2	3	Verdana	1	80	0	0	0	WM Stimuli\	0.7	1380.57142857143	0.7	1132.42857142857	0.9	1047.44444444444	0.9	821.777777777778	0.9	1026.44444444444	0.7	1458	0.7	1105.28571428571	0.7	1113.28571428571	13	425468	3	425456	27	40	425495	-999999	425471	0	18	TrialsPROC	TO_007_TOOL7_BA.png	1	2	79	SessionSelectionList														target	2	Tools	0-Back	69	80	64	0	0	76	5	39	376661	2	14	59	374622	-1	375426	0	804	3	2	2039	53	376675	-54	0														8		79												
WM080112	211720_fnca	1	1	1	1128170607	1	75.030	75.031	2.0.10.147	2.0.10.242	2.0.10.242	1.0.0.439	7	234	2	3	Verdana	1	80	0	0	0	WM Stimuli\	0.7	1380.57142857143	0.7	1132.42857142857	0.9	1047.44444444444	0.9	821.777777777778	0.9	1026.44444444444	0.7	1458	0.7	1105.28571428571	0.7	1113.28571428571	13	425468	3	425456	27	40	425495	-999999	425471	0	18	TrialsPROC	TO_008_TOOL8_BA.png	1	2	80	SessionSelectionList														lure	3	Tools	0-Back	70	80	65	0	0	77	6	39	379220	2	14	59	377181	-1	378300	1	1119	3	3	2039	53	379234	-54	0														9		80												
WM080112	211720_fnca	1	1	1	1128170607	1	75.030	75.031	2.0.10.147	2.0.10.242	2.0.10.242	1.0.0.439	7	234	2	3	Verdana	1	80	0	0	0	WM Stimuli\	0.7	1380.57142857143	0.7	1132.42857142857	0.9	1047.44444444444	0.9	821.777777777778	0.9	1026.44444444444	0.7	1458	0.7	1105.28571428571	0.7	1113.28571428571	13	425468	3	425456	27	40	425495	-999999	425471	0	18	TrialsPROC	TO_007_TOOL7_BA.png	1	2	81	SessionSelectionList														target	2	Tools	0-Back	71	80	66	0	0	75	7	39	381779	2	14	59	379740	-1	381341	0	1601	3	2	2039	53	381793	-54	0														10		81												
WM080112	211720_fnca	1	1	1	1128170607	1	75.030	75.031	2.0.10.147	2.0.10.242	2.0.10.242	1.0.0.439	7	234	2	3	Verdana	1	80	0	0	0	WM Stimuli\	0.7	1380.57142857143	0.7	1132.42857142857	0.9	1047.44444444444	0.9	821.777777777778	0.9	1026.44444444444	0.7	1458	0.7	1105.28571428571	0.7	1113.28571428571	13	425468	3	425456	27	40	425495	-999999	425471	0	19	Cue2BackPROC	""	1	2	82	SessionSelectionList									6	382246	-7	0																																													82												
WM080112	211720_fnca	1	1	1	1128170607	1	75.030	75.031	2.0.10.147	2.0.10.242	2.0.10.242	1.0.0.439	7	234	2	3	Verdana	1	80	0	0	0	WM Stimuli\	0.7	1380.57142857143	0.7	1132.42857142857	0.9	1047.44444444444	0.9	821.777777777778	0.9	1026.44444444444	0.7	1458	0.7	1105.28571428571	0.7	1113.28571428571	13	425468	3	425456	27	40	425495	-999999	425471	0	20	TrialsPROC	PL_007_92026.png	1	2	83	SessionSelectionList														nonlure	3	Place	2-Back	72	80	67	0	0	75	8	39	386857	2	14	78	384818	-1	386225	1	1407	3	3	2039	53	386871	-54	0															1	83												
WM080112	211720_fnca	1	1	1	1128170607	1	75.030	75.031	2.0.10.147	2.0.10.242	2.0.10.242	1.0.0.439	7	234	2	3	Verdana	1	80	0	0	0	WM Stimuli\	0.7	1380.57142857143	0.7	1132.42857142857	0.9	1047.44444444444	0.9	821.777777777778	0.9	1026.44444444444	0.7	1458	0.7	1105.28571428571	0.7	1113.28571428571	13	425468	3	425456	27	40	425495	-999999	425471	0	20	TrialsPROC	PL_007_92026.png	1	2	84	SessionSelectionList														lure	3	Place	2-Back	73	80	68	0	0	75	9	39	389429	2	14	72	387390	-1	387820	1	430	3	3	2039	53	389443	-54	0															2	84												
WM080112	211720_fnca	1	1	1	1128170607	1	75.030	75.031	2.0.10.147	2.0.10.242	2.0.10.242	1.0.0.439	7	234	2	3	Verdana	1	80	0	0	0	WM Stimuli\	0.7	1380.57142857143	0.7	1132.42857142857	0.9	1047.44444444444	0.9	821.777777777778	0.9	1026.44444444444	0.7	1458	0.7	1105.28571428571	0.7	1113.28571428571	13	425468	3	425456	27	40	425495	-999999	425471	0	20	TrialsPROC	PL_010_92038.png	1	2	85	SessionSelectionList														nonlure	3	Place	2-Back	74	80	69	0	0	75	10	39	392002	1	14	73	389963	-1	391254	1	1291	3	3	2039	53	392016	-54	0															3	85												
WM080112	211720_fnca	1	1	1	1128170607	1	75.030	75.031	2.0.10.147	2.0.10.242	2.0.10.242	1.0.0.439	7	234	2	3	Verdana	1	80	0	0	0	WM Stimuli\	0.7	1380.57142857143	0.7	1132.42857142857	0.9	1047.44444444444	0.9	821.777777777778	0.9	1026.44444444444	0.7	1458	0.7	1105.28571428571	0.7	1113.28571428571	13	425468	3	425456	27	40	425495	-999999	425471	0	20	TrialsPROC	PL_009_92037.png	1	2	86	SessionSelectionList														nonlure	3	Place	2-Back	75	80	70	0	0	75	11	39	394574	2	14	72	392535	-1	393614	1	1079	3	3	2039	53	394588	-54	0															4	86												
WM080112	211720_fnca	1	1	1	1128170607	1	75.030	75.031	2.0.10.147	2.0.10.242	2.0.10.242	1.0.0.439	7	234	2	3	Verdana	1	80	0	0	0	WM Stimuli\	0.7	1380.57142857143	0.7	1132.42857142857	0.9	1047.44444444444	0.9	821.777777777778	0.9	1026.44444444444	0.7	1458	0.7	1105.28571428571	0.7	1113.28571428571	13	425468	3	425456	27	40	425495	-999999	425471	0	20	TrialsPROC	PL_010_92038.png	1	2	87	SessionSelectionList														target	2	Place	2-Back	76	80	71	0	0	75	1	39	397146	2	14	72	395107	-1	396011	1	904	2	2	2039	53	397160	-54	0															5	87												
WM080112	211720_fnca	1	1	1	1128170607	1	75.030	75.031	2.0.10.147	2.0.10.242	2.0.10.242	1.0.0.439	7	234	2	3	Verdana	1	80	0	0	0	WM Stimuli\	0.7	1380.57142857143	0.7	1132.42857142857	0.9	1047.44444444444	0.9	821.777777777778	0.9	1026.44444444444	0.7	1458	0.7	1105.28571428571	0.7	1113.28571428571	13	425468	3	425456	27	40	425495	-999999	425471	0	20	TrialsPROC	PL_009_92037.png	1	2	88	SessionSelectionList														target	2	Place	2-Back	77	80	72	0	0	75	2	38	399705	2	14	60	397667	-1	398823	1	1156	2	2	2038	52	399719	-53	0															6	88												
WM080112	211720_fnca	1	1	1	1128170607	1	75.030	75.031	2.0.10.147	2.0.10.242	2.0.10.242	1.0.0.439	7	234	2	3	Verdana	1	80	0	0	0	WM Stimuli\	0.7	1380.57142857143	0.7	1132.42857142857	0.9	1047.44444444444	0.9	821.777777777778	0.9	1026.44444444444	0.7	1458	0.7	1105.28571428571	0.7	1113.28571428571	13	425468	3	425456	27	40	425495	-999999	425471	0	20	TrialsPROC	PL_008_92033.png	1	2	89	SessionSelectionList														nonlure	3	Place	2-Back	78	80	72	0	1	75	2	39	402278	1	13	72	400239	-1	0	0	0	""	3	2039	52	402291	-53	0															7	89												
WM080112	211720_fnca	1	1	1	1128170607	1	75.030	75.031	2.0.10.147	2.0.10.242	2.0.10.242	1.0.0.439	7	234	2	3	Verdana	1	80	0	0	0	WM Stimuli\	0.7	1380.57142857143	0.7	1132.42857142857	0.9	1047.44444444444	0.9	821.777777777778	0.9	1026.44444444444	0.7	1458	0.7	1105.28571428571	0.7	1113.28571428571	13	425468	3	425456	27	40	425495	-999999	425471	0	20	TrialsPROC	PL_012_92047.png	1	2	90	SessionSelectionList														nonlure	3	Place	2-Back	79	80	73	0	0	75	1	39	404850	1	14	72	402811	-1	403737	1	926	3	3	2039	53	404864	-54	0															8	90												
WM080112	211720_fnca	1	1	1	1128170607	1	75.030	75.031	2.0.10.147	2.0.10.242	2.0.10.242	1.0.0.439	7	234	2	3	Verdana	1	80	0	0	0	WM Stimuli\	0.7	1380.57142857143	0.7	1132.42857142857	0.9	1047.44444444444	0.9	821.777777777778	0.9	1026.44444444444	0.7	1458	0.7	1105.28571428571	0.7	1113.28571428571	13	425468	3	425456	27	40	425495	-999999	425471	0	20	TrialsPROC	PL_012_92047.png	1	2	91	SessionSelectionList														lure	3	Place	2-Back	80	80	74	0	0	75	2	39	407422	2	14	72	405383	-1	406437	1	1054	3	3	2039	53	407436	-54	0															9	91												
WM080112	211720_fnca	1	1	1	1128170607	1	75.030	75.031	2.0.10.147	2.0.10.242	2.0.10.242	1.0.0.439	7	234	2	3	Verdana	1	80	0	0	0	WM Stimuli\	0.7	1380.57142857143	0.7	1132.42857142857	0.9	1047.44444444444	0.9	821.777777777778	0.9	1026.44444444444	0.7	1458	0.7	1105.28571428571	0.7	1113.28571428571	13	425468	3	425456	27	40	425495	-999999	425471	0	20	TrialsPROC	PL_011_92044.png	1	2	92	SessionSelectionList														nonlure	3	Place	2-Back	80	80	75	0	0	75	3	39	409994	2	14	72	407955	-1	408946	1	991	3	3	2039	53	410008	-54	0															10	92												
WM080112	211720_fnca	1	1	1	1128170607	1	75.030	75.031	2.0.10.147	2.0.10.242	2.0.10.242	1.0.0.439	7	234	2	3	Verdana	1	80	0	0	0	WM Stimuli\	0.7	1380.57142857143	0.7	1132.42857142857	0.9	1047.44444444444	0.9	821.777777777778	0.9	1026.44444444444	0.7	1458	0.7	1105.28571428571	0.7	1113.28571428571	13	425468	3	425456	27	40	425495	-999999	425471	0	21	Fix15secPROC	""	1	2	93	SessionSelectionList																																															6	410461	-7	0							93												
