ExperimentName	HCPID	RunNumber	Subject	Session	RandomSeed	Group	Laptop.RefreshRate	ScannerD2.RefreshRate	StudioVersion	RuntimeVersion	RuntimeVersionExpected	ExperimentVersion	triggercode	Allowed	Target	Nontarget	FontStyle	RunTrialNumber[Session]	TrialsPerRun[Session]	TotalRespGreater200[Session]	ConsecRTLess200[Session]	ConsecNonResp[Session]	StimuliDir	ACC_2_Back_Body	Avg_RT_For_Correct_Trials_2_Back_Body	ACC_0_Back_Body	Avg_RT_For_Correct_Trials_0_Back_Body	ACC_2_Back_Face	Avg_RT_For_Correct_Trials_2_Back_Face	ACC_0_Back_Face	Avg_RT_For_Correct_Trials_0_Back_Face	ACC_2_Back_Place	Avg_RT_For_Correct_Trials_2_Back_Place	ACC_0_Back_Place	Avg_RT_For_Correct_Trials_0_Back_Place	ACC_2_Back_Tools	Avg_RT_For_Correct_Trials_2_Back_Tools	ACC_0_Back_Tools	Avg_RT_For_Correct_Trials_0_Back_Tools	ExpInstrucFeelFreeToRest.OnsetDelay	ExpInstrucFeelFreeToRest.OnsetTime	ExpInstrucFeelFreeToRest.DurationError	ExpInstrucFeelFreeToRest.StartTime	ExpInstrucFeelFreeToRest.OnsetToOnsetTime	FeelFreeToRest.OnsetDelay	FeelFreeToRest.OnsetTime	FeelFreeToRest.DurationError	FeelFreeToRest.StartTime	FeelFreeToRest.OnsetToOnsetTime	SessionSelectionList	Procedure[Block]	Stimulus[Block]	RunNumberFilterValue	SessionSelectionList.Cycle	SessionSelectionList.Sample	Running[Block]	IntroButtonMap.OnsetDelay	IntroButtonMap.OnsetTime	IntroButtonMap.DurationError	IntroButtonMap.OnsetToOnsetTime	GetReady.OnsetDelay	GetReady.OnsetTime	GetReady.DurationError	GetReady.OnsetToOnsetTime	Cue2Back.OnsetDelay	Cue2Back.OnsetTime	Cue2Back.DurationError	Cue2Back.OnsetToOnsetTime	Run1Block1	TargetType	CorrectResponse	StimType	BlockType	RunTrialNumber[Block]	TrialsPerRun[Block]	TotalRespGreater200[Block]	ConsecRTLess200[Block]	ConsecNonResp[Block]	ControlAcc	ConsecSameResp	ExperimenterWindow.OnsetDelay	ExperimenterWindow.OnsetTime	ExperimenterWindow.DurationError	ExperimenterWindow.OnsetToOnsetTime	Stim.OnsetDelay	Stim.OnsetTime	Stim.DurationError	Stim.RTTime	Stim.ACC	Stim.RT	Stim.RESP	Stim.CRESP	Stim.OnsetToOnsetTime	Fix.OnsetDelay	Fix.OnsetTime	Fix.DurationError	Fix.OnsetToOnsetTime	CueTarget.OnsetDelay	CueTarget.OnsetTime	CueTarget.DurationError	CueTarget.OnsetToOnsetTime	Run1Block2	Fix15sec.OnsetDelay	Fix15sec.OnsetTime	Fix15sec.DurationError	Fix15sec.OnsetToOnsetTime	Run1Block3	Run1Block4	Run1Block5	Run1Block6	Run1Block7	Run1Block8	Block	Procedure[Trial]	Stimulus[Trial]	ReadyList	Running[Trial]	ReadyList.Cycle	ReadyList.Sample	SyncSlide.OnsetDelay	SyncSlide.OnsetTime	SyncSlide.DurationError	SyncSlide.FinishTime	SyncSlide.OnsetToOnsetTime	Trial
WM080112	280739_fnca	1	1	1	-1081517980	1	75.033	75.032	2.0.10.147	2.0.10.242	2.0.10.242	1.0.0.439	7	234	2	3	Verdana	1	80	0	0	0	WM Stimuli\	0.6	812.333333333333	0.9	992.333333333333	0.9	881	1	1041.5	0.8	1034.375	1	680.2	0.9	1032	1	676.7	12	406082	3	406071	27	39	406109	-999999	406085	0	1	TRSyncPROC	""	1	2	1	SessionSelectionList	119	10647	-999999	0	30	99277	-999999	0																																																	1	InitialTR	4	1	ReadyList	1	1	11	112644	-12	114632	0	1
WM080112	280739_fnca	1	1	1	-1081517980	1	75.033	75.032	2.0.10.147	2.0.10.242	2.0.10.242	1.0.0.439	7	234	2	3	Verdana	1	80	0	0	0	WM Stimuli\	0.6	812.333333333333	0.9	992.333333333333	0.9	881	1	1041.5	0.8	1034.375	1	680.2	0.9	1032	1	676.7	12	406082	3	406071	27	39	406109	-999999	406085	0	1	TRSyncPROC	""	1	2	1	SessionSelectionList	119	10647	-999999	0	30	99277	-999999	0																																																	1	InitialTR	3	2	ReadyList	1	2	10	114643	-11	116632	0	2
WM080112	280739_fnca	1	1	1	-1081517980	1	75.033	75.032	2.0.10.147	2.0.10.242	2.0.10.242	1.0.0.439	7	234	2	3	Verdana	1	80	0	0	0	WM Stimuli\	0.6	812.333333333333	0.9	992.333333333333	0.9	881	1	1041.5	0.8	1034.375	1	680.2	0.9	1032	1	676.7	12	406082	3	406071	27	39	406109	-999999	406085	0	1	TRSyncPROC	""	1	2	1	SessionSelectionList	119	10647	-999999	0	30	99277	-999999	0																																																	1	InitialTR	2	3	ReadyList	1	3	10	116643	-11	118632	0	3
WM080112	280739_fnca	1	1	1	-1081517980	1	75.033	75.032	2.0.10.147	2.0.10.242	2.0.10.242	1.0.0.439	7	234	2	3	Verdana	1	80	0	0	0	WM Stimuli\	0.6	812.333333333333	0.9	992.333333333333	0.9	881	1	1041.5	0.8	1034.375	1	680.2	0.9	1032	1	676.7	12	406082	3	406071	27	39	406109	-999999	406085	0	1	TRSyncPROC	""	1	2	1	SessionSelectionList	119	10647	-999999	0	30	99277	-999999	0																																																	1	InitialTR	1	4	ReadyList	1	4	9	118642	-10	120632	0	4
WM080112	280739_fnca	1	1	1	-1081517980	1	75.033	75.032	2.0.10.147	2.0.10.242	2.0.10.242	1.0.0.439	7	234	2	3	Verdana	1	80	0	0	0	WM Stimuli\	0.6	812.333333333333	0.9	992.333333333333	0.9	881	1	1041.5	0.8	1034.375	1	680.2	0.9	1032	1	676.7	12	406082	3	406071	27	39	406109	-999999	406085	0	2	Cue2BackPROC	""	1	2	2	SessionSelectionList									8	120641	-9	0																																													2												
WM080112	280739_fnca	1	1	1	-1081517980	1	75.033	75.032	2.0.10.147	2.0.10.242	2.0.10.242	1.0.0.439	7	234	2	3	Verdana	1	80	0	0	0	WM Stimuli\	0.6	812.333333333333	0.9	992.333333333333	0.9	881	1	1041.5	0.8	1034.375	1	680.2	0.9	1032	1	676.7	12	406082	3	406071	27	39	406109	-999999	406085	0	3	TrialsPROC	BP_002_BP10_BA.png	1	2	3	SessionSelectionList													1	nonlure	3	Body	2-Back	2	80	0	0	1	0	0	53	125266	3	13	80	123213	-1	0	0	0	""	3	2053	66	125279	-67	0																3												
WM080112	280739_fnca	1	1	1	-1081517980	1	75.033	75.032	2.0.10.147	2.0.10.242	2.0.10.242	1.0.0.439	7	234	2	3	Verdana	1	80	0	0	0	WM Stimuli\	0.6	812.333333333333	0.9	992.333333333333	0.9	881	1	1041.5	0.8	1034.375	1	680.2	0.9	1032	1	676.7	12	406082	3	406071	27	39	406109	-999999	406085	0	3	TrialsPROC	BP_001_BP1_BA.png	1	2	4	SessionSelectionList													2	nonlure	3	Body	2-Back	3	80	1	0	0	0	1	40	127825	2	13	72	125785	-1	126062	1	277	3	3	2040	53	127838	-54	0																4												
WM080112	280739_fnca	1	1	1	-1081517980	1	75.033	75.032	2.0.10.147	2.0.10.242	2.0.10.242	1.0.0.439	7	234	2	3	Verdana	1	80	0	0	0	WM Stimuli\	0.6	812.333333333333	0.9	992.333333333333	0.9	881	1	1041.5	0.8	1034.375	1	680.2	0.9	1032	1	676.7	12	406082	3	406071	27	39	406109	-999999	406085	0	3	TrialsPROC	BP_006_BP2_BA.png	1	2	5	SessionSelectionList													3	nonlure	3	Body	2-Back	4	80	2	0	0	0	1	40	130384	1	13	59	128344	-1	129433	0	1089	2	3	2040	53	130397	-54	0																5												
WM080112	280739_fnca	1	1	1	-1081517980	1	75.033	75.032	2.0.10.147	2.0.10.242	2.0.10.242	1.0.0.439	7	234	2	3	Verdana	1	80	0	0	0	WM Stimuli\	0.6	812.333333333333	0.9	992.333333333333	0.9	881	1	1041.5	0.8	1034.375	1	680.2	0.9	1032	1	676.7	12	406082	3	406071	27	39	406109	-999999	406085	0	3	TrialsPROC	BP_001_BP1_BA.png	1	2	6	SessionSelectionList													4	target	2	Body	2-Back	5	80	3	0	0	0	2	39	132956	1	13	73	130917	-1	132273	1	1356	2	2	2039	52	132969	-53	0																6												
WM080112	280739_fnca	1	1	1	-1081517980	1	75.033	75.032	2.0.10.147	2.0.10.242	2.0.10.242	1.0.0.439	7	234	2	3	Verdana	1	80	0	0	0	WM Stimuli\	0.6	812.333333333333	0.9	992.333333333333	0.9	881	1	1041.5	0.8	1034.375	1	680.2	0.9	1032	1	676.7	12	406082	3	406071	27	39	406109	-999999	406085	0	3	TrialsPROC	BP_005_BP19_BA.png	1	2	7	SessionSelectionList													5	nonlure	3	Body	2-Back	6	80	4	0	0	0	1	39	135528	1	13	72	133489	-1	134340	1	851	3	3	2039	52	135541	-53	0																7												
WM080112	280739_fnca	1	1	1	-1081517980	1	75.033	75.032	2.0.10.147	2.0.10.242	2.0.10.242	1.0.0.439	7	234	2	3	Verdana	1	80	0	0	0	WM Stimuli\	0.6	812.333333333333	0.9	992.333333333333	0.9	881	1	1041.5	0.8	1034.375	1	680.2	0.9	1032	1	676.7	12	406082	3	406071	27	39	406109	-999999	406085	0	3	TrialsPROC	BP_003_BP16_BA.png	1	2	8	SessionSelectionList													6	nonlure	3	Body	2-Back	7	80	5	0	0	0	2	39	138087	1	13	59	136048	-1	136607	1	559	3	3	2039	52	138100	-53	0																8												
WM080112	280739_fnca	1	1	1	-1081517980	1	75.033	75.032	2.0.10.147	2.0.10.242	2.0.10.242	1.0.0.439	7	234	2	3	Verdana	1	80	0	0	0	WM Stimuli\	0.6	812.333333333333	0.9	992.333333333333	0.9	881	1	1041.5	0.8	1034.375	1	680.2	0.9	1032	1	676.7	12	406082	3	406071	27	39	406109	-999999	406085	0	3	TrialsPROC	BP_006_BP2_BA.png	1	2	9	SessionSelectionList													7	lure	3	Body	2-Back	8	80	6	0	0	0	1	39	140646	1	13	59	138607	-1	139282	0	675	2	3	2039	52	140659	-53	0																9												
WM080112	280739_fnca	1	1	1	-1081517980	1	75.033	75.032	2.0.10.147	2.0.10.242	2.0.10.242	1.0.0.439	7	234	2	3	Verdana	1	80	0	0	0	WM Stimuli\	0.6	812.333333333333	0.9	992.333333333333	0.9	881	1	1041.5	0.8	1034.375	1	680.2	0.9	1032	1	676.7	12	406082	3	406071	27	39	406109	-999999	406085	0	3	TrialsPROC	BP_004_BP18_BA.png	1	2	10	SessionSelectionList													8	nonlure	3	Body	2-Back	9	80	7	0	0	0	1	39	143205	1	13	59	141166	-1	142059	1	893	3	3	2039	52	143218	-53	0																10												
WM080112	280739_fnca	1	1	1	-1081517980	1	75.033	75.032	2.0.10.147	2.0.10.242	2.0.10.242	1.0.0.439	7	234	2	3	Verdana	1	80	0	0	0	WM Stimuli\	0.6	812.333333333333	0.9	992.333333333333	0.9	881	1	1041.5	0.8	1034.375	1	680.2	0.9	1032	1	676.7	12	406082	3	406071	27	39	406109	-999999	406085	0	3	TrialsPROC	BP_005_BP19_BA.png	1	2	11	SessionSelectionList													9	lure	3	Body	2-Back	10	80	8	0	0	0	2	39	145764	1	13	59	143725	-1	144663	1	938	3	3	2039	52	145777	-53	0																11												
WM080112	280739_fnca	1	1	1	-1081517980	1	75.033	75.032	2.0.10.147	2.0.10.242	2.0.10.242	1.0.0.439	7	234	2	3	Verdana	1	80	0	0	0	WM Stimuli\	0.6	812.333333333333	0.9	992.333333333333	0.9	881	1	1041.5	0.8	1034.375	1	680.2	0.9	1032	1	676.7	12	406082	3	406071	27	39	406109	-999999	406085	0	3	TrialsPROC	BP_004_BP18_BA.png	1	2	12	SessionSelectionList													10	target	2	Body	2-Back	11	80	9	0	0	0	3	39	148323	1	13	59	146284	-1	147342	0	1058	3	2	2039	52	148336	-53	0																12												
WM080112	280739_fnca	1	1	1	-1081517980	1	75.033	75.032	2.0.10.147	2.0.10.242	2.0.10.242	1.0.0.439	7	234	2	3	Verdana	1	80	0	0	0	WM Stimuli\	0.6	812.333333333333	0.9	992.333333333333	0.9	881	1	1041.5	0.8	1034.375	1	680.2	0.9	1032	1	676.7	12	406082	3	406071	27	39	406109	-999999	406085	0	4	Cue0BackPROC	FC_001_M1.png	1	2	13	SessionSelectionList																																										19	148803	-20	0												13												
WM080112	280739_fnca	1	1	1	-1081517980	1	75.033	75.032	2.0.10.147	2.0.10.242	2.0.10.242	1.0.0.439	7	234	2	3	Verdana	1	80	0	0	0	WM Stimuli\	0.6	812.333333333333	0.9	992.333333333333	0.9	881	1	1041.5	0.8	1034.375	1	680.2	0.9	1032	1	676.7	12	406082	3	406071	27	39	406109	-999999	406085	0	5	TrialsPROC	FC_005_M3.png	1	2	14	SessionSelectionList														nonlure	3	Face	0-Back	12	80	10	0	0	100	4	39	153387	2	14	64	151348	-1	153105	1	1757	3	3	2039	53	153401	-54	0					1											14												
WM080112	280739_fnca	1	1	1	-1081517980	1	75.033	75.032	2.0.10.147	2.0.10.242	2.0.10.242	1.0.0.439	7	234	2	3	Verdana	1	80	0	0	0	WM Stimuli\	0.6	812.333333333333	0.9	992.333333333333	0.9	881	1	1041.5	0.8	1034.375	1	680.2	0.9	1032	1	676.7	12	406082	3	406071	27	39	406109	-999999	406085	0	5	TrialsPROC	FC_001_M1.png	1	2	15	SessionSelectionList														target	2	Face	0-Back	13	80	11	0	0	100	1	40	155960	1	13	72	153920	-1	154712	1	792	2	2	2040	53	155973	-54	0					2											15												
WM080112	280739_fnca	1	1	1	-1081517980	1	75.033	75.032	2.0.10.147	2.0.10.242	2.0.10.242	1.0.0.439	7	234	2	3	Verdana	1	80	0	0	0	WM Stimuli\	0.6	812.333333333333	0.9	992.333333333333	0.9	881	1	1041.5	0.8	1034.375	1	680.2	0.9	1032	1	676.7	12	406082	3	406071	27	39	406109	-999999	406085	0	5	TrialsPROC	FC_003_M2.png	1	2	16	SessionSelectionList														nonlure	3	Face	0-Back	14	80	12	0	0	100	1	39	158532	1	13	73	156493	-1	157280	1	787	3	3	2039	52	158545	-53	0					3											16												
WM080112	280739_fnca	1	1	1	-1081517980	1	75.033	75.032	2.0.10.147	2.0.10.242	2.0.10.242	1.0.0.439	7	234	2	3	Verdana	1	80	0	0	0	WM Stimuli\	0.6	812.333333333333	0.9	992.333333333333	0.9	881	1	1041.5	0.8	1034.375	1	680.2	0.9	1032	1	676.7	12	406082	3	406071	27	39	406109	-999999	406085	0	5	TrialsPROC	FC_004_F2.png	1	2	17	SessionSelectionList														nonlure	3	Face	0-Back	15	80	13	0	0	100	2	39	161104	1	14	72	159065	-1	159849	1	784	3	3	2039	53	161118	-54	0					4											17												
WM080112	280739_fnca	1	1	1	-1081517980	1	75.033	75.032	2.0.10.147	2.0.10.242	2.0.10.242	1.0.0.439	7	234	2	3	Verdana	1	80	0	0	0	WM Stimuli\	0.6	812.333333333333	0.9	992.333333333333	0.9	881	1	1041.5	0.8	1034.375	1	680.2	0.9	1032	1	676.7	12	406082	3	406071	27	39	406109	-999999	406085	0	5	TrialsPROC	FC_004_F2.png	1	2	18	SessionSelectionList														lure	3	Face	0-Back	16	80	14	0	0	100	3	39	163676	2	14	72	161637	-1	162753	1	1116	3	3	2039	53	163690	-54	0					5											18												
WM080112	280739_fnca	1	1	1	-1081517980	1	75.033	75.032	2.0.10.147	2.0.10.242	2.0.10.242	1.0.0.439	7	234	2	3	Verdana	1	80	0	0	0	WM Stimuli\	0.6	812.333333333333	0.9	992.333333333333	0.9	881	1	1041.5	0.8	1034.375	1	680.2	0.9	1032	1	676.7	12	406082	3	406071	27	39	406109	-999999	406085	0	5	TrialsPROC	FC_001_M1.png	1	2	19	SessionSelectionList														target	2	Face	0-Back	17	80	15	0	0	100	1	40	166249	1	13	72	164209	-1	165299	1	1090	2	2	2040	53	166262	-54	0					6											19												
WM080112	280739_fnca	1	1	1	-1081517980	1	75.033	75.032	2.0.10.147	2.0.10.242	2.0.10.242	1.0.0.439	7	234	2	3	Verdana	1	80	0	0	0	WM Stimuli\	0.6	812.333333333333	0.9	992.333333333333	0.9	881	1	1041.5	0.8	1034.375	1	680.2	0.9	1032	1	676.7	12	406082	3	406071	27	39	406109	-999999	406085	0	5	TrialsPROC	FC_006_F3.png	1	2	20	SessionSelectionList														nonlure	3	Face	0-Back	18	80	16	0	0	100	1	39	168821	1	13	73	166782	-1	167586	1	804	3	3	2039	52	168834	-53	0					7											20												
WM080112	280739_fnca	1	1	1	-1081517980	1	75.033	75.032	2.0.10.147	2.0.10.242	2.0.10.242	1.0.0.439	7	234	2	3	Verdana	1	80	0	0	0	WM Stimuli\	0.6	812.333333333333	0.9	992.333333333333	0.9	881	1	1041.5	0.8	1034.375	1	680.2	0.9	1032	1	676.7	12	406082	3	406071	27	39	406109	-999999	406085	0	5	TrialsPROC	FC_006_F3.png	1	2	21	SessionSelectionList														lure	3	Face	0-Back	19	80	17	0	0	100	2	39	171393	2	14	72	169354	-1	170030	1	676	3	3	2039	53	171407	-54	0					8											21												
WM080112	280739_fnca	1	1	1	-1081517980	1	75.033	75.032	2.0.10.147	2.0.10.242	2.0.10.242	1.0.0.439	7	234	2	3	Verdana	1	80	0	0	0	WM Stimuli\	0.6	812.333333333333	0.9	992.333333333333	0.9	881	1	1041.5	0.8	1034.375	1	680.2	0.9	1032	1	676.7	12	406082	3	406071	27	39	406109	-999999	406085	0	5	TrialsPROC	FC_003_M2.png	1	2	22	SessionSelectionList														lure	3	Face	0-Back	20	80	18	0	0	100	3	39	173965	2	14	72	171926	-1	173703	1	1777	3	3	2039	53	173979	-54	0					9											22												
WM080112	280739_fnca	1	1	1	-1081517980	1	75.033	75.032	2.0.10.147	2.0.10.242	2.0.10.242	1.0.0.439	7	234	2	3	Verdana	1	80	0	0	0	WM Stimuli\	0.6	812.333333333333	0.9	992.333333333333	0.9	881	1	1041.5	0.8	1034.375	1	680.2	0.9	1032	1	676.7	12	406082	3	406071	27	39	406109	-999999	406085	0	5	TrialsPROC	FC_002_F1.png	1	2	23	SessionSelectionList														nonlure	3	Face	0-Back	21	80	19	0	0	100	4	39	176538	1	13	73	174499	-1	175331	1	832	3	3	2039	52	176551	-53	0					10											23												
WM080112	280739_fnca	1	1	1	-1081517980	1	75.033	75.032	2.0.10.147	2.0.10.242	2.0.10.242	1.0.0.439	7	234	2	3	Verdana	1	80	0	0	0	WM Stimuli\	0.6	812.333333333333	0.9	992.333333333333	0.9	881	1	1041.5	0.8	1034.375	1	680.2	0.9	1032	1	676.7	12	406082	3	406071	27	39	406109	-999999	406085	0	6	Fix15secPROC	""	1	2	24	SessionSelectionList																																															5	177004	-6	0							24												
WM080112	280739_fnca	1	1	1	-1081517980	1	75.033	75.032	2.0.10.147	2.0.10.242	2.0.10.242	1.0.0.439	7	234	2	3	Verdana	1	80	0	0	0	WM Stimuli\	0.6	812.333333333333	0.9	992.333333333333	0.9	881	1	1041.5	0.8	1034.375	1	680.2	0.9	1032	1	676.7	12	406082	3	406071	27	39	406109	-999999	406085	0	7	Cue2BackPROC	""	1	2	25	SessionSelectionList									12	192011	-13	0																																													25												
WM080112	280739_fnca	1	1	1	-1081517980	1	75.033	75.032	2.0.10.147	2.0.10.242	2.0.10.242	1.0.0.439	7	234	2	3	Verdana	1	80	0	0	0	WM Stimuli\	0.6	812.333333333333	0.9	992.333333333333	0.9	881	1	1041.5	0.8	1034.375	1	680.2	0.9	1032	1	676.7	12	406082	3	406071	27	39	406109	-999999	406085	0	8	TrialsPROC	TO_001_TOOL1_BA.png	1	2	26	SessionSelectionList														nonlure	3	Tools	2-Back	22	80	20	0	0	100	5	39	196596	1	13	58	194557	-1	195738	1	1181	3	3	2039	52	196609	-53	0										1						26												
WM080112	280739_fnca	1	1	1	-1081517980	1	75.033	75.032	2.0.10.147	2.0.10.242	2.0.10.242	1.0.0.439	7	234	2	3	Verdana	1	80	0	0	0	WM Stimuli\	0.6	812.333333333333	0.9	992.333333333333	0.9	881	1	1041.5	0.8	1034.375	1	680.2	0.9	1032	1	676.7	12	406082	3	406071	27	39	406109	-999999	406085	0	8	TrialsPROC	TO_002_TOOL2_BA.png	1	2	27	SessionSelectionList														nonlure	3	Tools	2-Back	23	80	21	0	0	100	6	39	199155	1	13	59	197116	-1	197873	1	757	3	3	2039	52	199168	-53	0										2						27												
WM080112	280739_fnca	1	1	1	-1081517980	1	75.033	75.032	2.0.10.147	2.0.10.242	2.0.10.242	1.0.0.439	7	234	2	3	Verdana	1	80	0	0	0	WM Stimuli\	0.6	812.333333333333	0.9	992.333333333333	0.9	881	1	1041.5	0.8	1034.375	1	680.2	0.9	1032	1	676.7	12	406082	3	406071	27	39	406109	-999999	406085	0	8	TrialsPROC	TO_004_TOOL4_BA.png	1	2	28	SessionSelectionList														nonlure	3	Tools	2-Back	24	80	22	0	0	100	7	39	201714	1	13	59	199675	-1	200353	1	678	3	3	2039	52	201727	-53	0										3						28												
WM080112	280739_fnca	1	1	1	-1081517980	1	75.033	75.032	2.0.10.147	2.0.10.242	2.0.10.242	1.0.0.439	7	234	2	3	Verdana	1	80	0	0	0	WM Stimuli\	0.6	812.333333333333	0.9	992.333333333333	0.9	881	1	1041.5	0.8	1034.375	1	680.2	0.9	1032	1	676.7	12	406082	3	406071	27	39	406109	-999999	406085	0	8	TrialsPROC	TO_002_TOOL2_BA.png	1	2	29	SessionSelectionList														target	2	Tools	2-Back	25	80	23	0	0	100	1	39	204273	1	13	59	202234	-1	203063	1	829	2	2	2039	52	204286	-53	0										4						29												
WM080112	280739_fnca	1	1	1	-1081517980	1	75.033	75.032	2.0.10.147	2.0.10.242	2.0.10.242	1.0.0.439	7	234	2	3	Verdana	1	80	0	0	0	WM Stimuli\	0.6	812.333333333333	0.9	992.333333333333	0.9	881	1	1041.5	0.8	1034.375	1	680.2	0.9	1032	1	676.7	12	406082	3	406071	27	39	406109	-999999	406085	0	8	TrialsPROC	TO_001_TOOL1_BA.png	1	2	30	SessionSelectionList														lure	3	Tools	2-Back	26	80	24	0	0	100	1	39	206832	1	13	59	204793	-1	205662	1	869	3	3	2039	52	206845	-53	0										5						30												
WM080112	280739_fnca	1	1	1	-1081517980	1	75.033	75.032	2.0.10.147	2.0.10.242	2.0.10.242	1.0.0.439	7	234	2	3	Verdana	1	80	0	0	0	WM Stimuli\	0.6	812.333333333333	0.9	992.333333333333	0.9	881	1	1041.5	0.8	1034.375	1	680.2	0.9	1032	1	676.7	12	406082	3	406071	27	39	406109	-999999	406085	0	8	TrialsPROC	TO_004_TOOL4_BA.png	1	2	31	SessionSelectionList														lure	3	Tools	2-Back	27	80	25	0	0	100	2	39	209391	1	13	59	207352	-1	208808	1	1456	3	3	2039	52	209404	-53	0										6						31												
WM080112	280739_fnca	1	1	1	-1081517980	1	75.033	75.032	2.0.10.147	2.0.10.242	2.0.10.242	1.0.0.439	7	234	2	3	Verdana	1	80	0	0	0	WM Stimuli\	0.6	812.333333333333	0.9	992.333333333333	0.9	881	1	1041.5	0.8	1034.375	1	680.2	0.9	1032	1	676.7	12	406082	3	406071	27	39	406109	-999999	406085	0	8	TrialsPROC	TO_006_TOOL6_BA.png	1	2	32	SessionSelectionList														nonlure	3	Tools	2-Back	28	80	26	0	0	100	1	40	211950	1	13	58	209910	-1	210915	0	1005	2	3	2040	53	211963	-54	0										7						32												
WM080112	280739_fnca	1	1	1	-1081517980	1	75.033	75.032	2.0.10.147	2.0.10.242	2.0.10.242	1.0.0.439	7	234	2	3	Verdana	1	80	0	0	0	WM Stimuli\	0.6	812.333333333333	0.9	992.333333333333	0.9	881	1	1041.5	0.8	1034.375	1	680.2	0.9	1032	1	676.7	12	406082	3	406071	27	39	406109	-999999	406085	0	8	TrialsPROC	TO_005_TOOL5_BA.png	1	2	33	SessionSelectionList														nonlure	3	Tools	2-Back	29	80	27	0	0	100	1	40	214509	1	13	59	212469	-1	213420	1	951	3	3	2040	53	214522	-54	0										8						33												
WM080112	280739_fnca	1	1	1	-1081517980	1	75.033	75.032	2.0.10.147	2.0.10.242	2.0.10.242	1.0.0.439	7	234	2	3	Verdana	1	80	0	0	0	WM Stimuli\	0.6	812.333333333333	0.9	992.333333333333	0.9	881	1	1041.5	0.8	1034.375	1	680.2	0.9	1032	1	676.7	12	406082	3	406071	27	39	406109	-999999	406085	0	8	TrialsPROC	TO_006_TOOL6_BA.png	1	2	34	SessionSelectionList														target	2	Tools	2-Back	30	80	28	0	0	100	1	40	217068	1	13	59	215028	-1	216465	1	1437	2	2	2040	53	217081	-54	0										9						34												
WM080112	280739_fnca	1	1	1	-1081517980	1	75.033	75.032	2.0.10.147	2.0.10.242	2.0.10.242	1.0.0.439	7	234	2	3	Verdana	1	80	0	0	0	WM Stimuli\	0.6	812.333333333333	0.9	992.333333333333	0.9	881	1	1041.5	0.8	1034.375	1	680.2	0.9	1032	1	676.7	12	406082	3	406071	27	39	406109	-999999	406085	0	8	TrialsPROC	TO_003_TOOL3_BA.png	1	2	35	SessionSelectionList														nonlure	3	Tools	2-Back	31	80	29	0	0	100	1	39	219626	2	14	59	217587	-1	218717	1	1130	3	3	2039	53	219640	-54	0										10						35												
WM080112	280739_fnca	1	1	1	-1081517980	1	75.033	75.032	2.0.10.147	2.0.10.242	2.0.10.242	1.0.0.439	7	234	2	3	Verdana	1	80	0	0	0	WM Stimuli\	0.6	812.333333333333	0.9	992.333333333333	0.9	881	1	1041.5	0.8	1034.375	1	680.2	0.9	1032	1	676.7	12	406082	3	406071	27	39	406109	-999999	406085	0	9	Cue0BackPROC	BP_007_BP20_BA.png	1	2	36	SessionSelectionList																																										19	220106	-20	0												36												
WM080112	280739_fnca	1	1	1	-1081517980	1	75.033	75.032	2.0.10.147	2.0.10.242	2.0.10.242	1.0.0.439	7	234	2	3	Verdana	1	80	0	0	0	WM Stimuli\	0.6	812.333333333333	0.9	992.333333333333	0.9	881	1	1041.5	0.8	1034.375	1	680.2	0.9	1032	1	676.7	12	406082	3	406071	27	39	406109	-999999	406085	0	10	TrialsPROC	BP_007_BP20_BA.png	1	2	37	SessionSelectionList														target	2	Body	0-Back	32	80	30	0	0	100	1	39	224678	1	13	52	222639	-1	224328	1	1689	2	2	2039	52	224691	-53	0											1					37												
WM080112	280739_fnca	1	1	1	-1081517980	1	75.033	75.032	2.0.10.147	2.0.10.242	2.0.10.242	1.0.0.439	7	234	2	3	Verdana	1	80	0	0	0	WM Stimuli\	0.6	812.333333333333	0.9	992.333333333333	0.9	881	1	1041.5	0.8	1034.375	1	680.2	0.9	1032	1	676.7	12	406082	3	406071	27	39	406109	-999999	406085	0	10	TrialsPROC	BP_011_BP4_BA.png	1	2	38	SessionSelectionList														nonlure	3	Body	0-Back	33	80	31	0	0	100	1	39	227250	1	13	72	225211	-1	225978	1	767	3	3	2039	52	227263	-53	0											2					38												
WM080112	280739_fnca	1	1	1	-1081517980	1	75.033	75.032	2.0.10.147	2.0.10.242	2.0.10.242	1.0.0.439	7	234	2	3	Verdana	1	80	0	0	0	WM Stimuli\	0.6	812.333333333333	0.9	992.333333333333	0.9	881	1	1041.5	0.8	1034.375	1	680.2	0.9	1032	1	676.7	12	406082	3	406071	27	39	406109	-999999	406085	0	10	TrialsPROC	BP_010_BP3_BA.png	1	2	39	SessionSelectionList														nonlure	3	Body	0-Back	34	80	32	0	0	100	2	39	229809	1	13	59	227770	-1	228528	1	758	3	3	2039	52	229822	-53	0											3					39												
WM080112	280739_fnca	1	1	1	-1081517980	1	75.033	75.032	2.0.10.147	2.0.10.242	2.0.10.242	1.0.0.439	7	234	2	3	Verdana	1	80	0	0	0	WM Stimuli\	0.6	812.333333333333	0.9	992.333333333333	0.9	881	1	1041.5	0.8	1034.375	1	680.2	0.9	1032	1	676.7	12	406082	3	406071	27	39	406109	-999999	406085	0	10	TrialsPROC	BP_008_BP21_BA.png	1	2	40	SessionSelectionList														nonlure	3	Body	0-Back	35	80	33	0	0	100	3	39	232368	1	13	59	230329	-1	231160	1	831	3	3	2039	52	232381	-53	0											4					40												
WM080112	280739_fnca	1	1	1	-1081517980	1	75.033	75.032	2.0.10.147	2.0.10.242	2.0.10.242	1.0.0.439	7	234	2	3	Verdana	1	80	0	0	0	WM Stimuli\	0.6	812.333333333333	0.9	992.333333333333	0.9	881	1	1041.5	0.8	1034.375	1	680.2	0.9	1032	1	676.7	12	406082	3	406071	27	39	406109	-999999	406085	0	10	TrialsPROC	BP_011_BP4_BA.png	1	2	41	SessionSelectionList														lure	3	Body	0-Back	36	80	34	0	0	93	1	39	234940	2	14	72	232901	-1	233781	0	880	2	3	2039	53	234954	-54	0											5					41												
WM080112	280739_fnca	1	1	1	-1081517980	1	75.033	75.032	2.0.10.147	2.0.10.242	2.0.10.242	1.0.0.439	7	234	2	3	Verdana	1	80	0	0	0	WM Stimuli\	0.6	812.333333333333	0.9	992.333333333333	0.9	881	1	1041.5	0.8	1034.375	1	680.2	0.9	1032	1	676.7	12	406082	3	406071	27	39	406109	-999999	406085	0	10	TrialsPROC	BP_009_BP22_BA.png	1	2	42	SessionSelectionList														nonlure	3	Body	0-Back	37	80	35	0	0	94	1	39	237499	1	13	59	235460	-1	236204	1	744	3	3	2039	52	237512	-53	0											6					42												
WM080112	280739_fnca	1	1	1	-1081517980	1	75.033	75.032	2.0.10.147	2.0.10.242	2.0.10.242	1.0.0.439	7	234	2	3	Verdana	1	80	0	0	0	WM Stimuli\	0.6	812.333333333333	0.9	992.333333333333	0.9	881	1	1041.5	0.8	1034.375	1	680.2	0.9	1032	1	676.7	12	406082	3	406071	27	39	406109	-999999	406085	0	10	TrialsPROC	BP_009_BP22_BA.png	1	2	43	SessionSelectionList														lure	3	Body	0-Back	38	80	36	0	0	94	2	39	240058	2	13	59	238019	-1	238682	1	663	3	3	2039	52	240071	-53	0											7					43												
WM080112	280739_fnca	1	1	1	-1081517980	1	75.033	75.032	2.0.10.147	2.0.10.242	2.0.10.242	1.0.0.439	7	234	2	3	Verdana	1	80	0	0	0	WM Stimuli\	0.6	812.333333333333	0.9	992.333333333333	0.9	881	1	1041.5	0.8	1034.375	1	680.2	0.9	1032	1	676.7	12	406082	3	406071	27	39	406109	-999999	406085	0	10	TrialsPROC	BP_008_BP21_BA.png	1	2	44	SessionSelectionList														lure	3	Body	0-Back	39	80	37	0	0	94	3	39	242617	1	13	59	240578	-1	241614	1	1036	3	3	2039	52	242630	-53	0											8					44												
WM080112	280739_fnca	1	1	1	-1081517980	1	75.033	75.032	2.0.10.147	2.0.10.242	2.0.10.242	1.0.0.439	7	234	2	3	Verdana	1	80	0	0	0	WM Stimuli\	0.6	812.333333333333	0.9	992.333333333333	0.9	881	1	1041.5	0.8	1034.375	1	680.2	0.9	1032	1	676.7	12	406082	3	406071	27	39	406109	-999999	406085	0	10	TrialsPROC	BP_007_BP20_BA.png	1	2	45	SessionSelectionList														target	2	Body	0-Back	40	80	38	0	0	95	1	39	245176	1	13	59	243137	-1	243923	1	786	2	2	2039	52	245189	-53	0											9					45												
WM080112	280739_fnca	1	1	1	-1081517980	1	75.033	75.032	2.0.10.147	2.0.10.242	2.0.10.242	1.0.0.439	7	234	2	3	Verdana	1	80	0	0	0	WM Stimuli\	0.6	812.333333333333	0.9	992.333333333333	0.9	881	1	1041.5	0.8	1034.375	1	680.2	0.9	1032	1	676.7	12	406082	3	406071	27	39	406109	-999999	406085	0	10	TrialsPROC	BP_012_BP5_BA.png	1	2	46	SessionSelectionList														nonlure	3	Body	0-Back	41	80	39	0	0	95	1	39	247735	1	13	59	245696	-1	247353	1	1657	3	3	2039	52	247748	-53	0											10					46												
WM080112	280739_fnca	1	1	1	-1081517980	1	75.033	75.032	2.0.10.147	2.0.10.242	2.0.10.242	1.0.0.439	7	234	2	3	Verdana	1	80	0	0	0	WM Stimuli\	0.6	812.333333333333	0.9	992.333333333333	0.9	881	1	1041.5	0.8	1034.375	1	680.2	0.9	1032	1	676.7	12	406082	3	406071	27	39	406109	-999999	406085	0	11	Fix15secPROC	""	1	2	47	SessionSelectionList																																															5	248201	-6	0							47												
WM080112	280739_fnca	1	1	1	-1081517980	1	75.033	75.032	2.0.10.147	2.0.10.242	2.0.10.242	1.0.0.439	7	234	2	3	Verdana	1	80	0	0	0	WM Stimuli\	0.6	812.333333333333	0.9	992.333333333333	0.9	881	1	1041.5	0.8	1034.375	1	680.2	0.9	1032	1	676.7	12	406082	3	406071	27	39	406109	-999999	406085	0	12	Cue0BackPROC	PL_001_92012.png	1	2	48	SessionSelectionList																																										12	263208	-13	0												48												
WM080112	280739_fnca	1	1	1	-1081517980	1	75.033	75.032	2.0.10.147	2.0.10.242	2.0.10.242	1.0.0.439	7	234	2	3	Verdana	1	80	0	0	0	WM Stimuli\	0.6	812.333333333333	0.9	992.333333333333	0.9	881	1	1041.5	0.8	1034.375	1	680.2	0.9	1032	1	676.7	12	406082	3	406071	27	39	406109	-999999	406085	0	13	TrialsPROC	PL_003_92016.png	1	2	49	SessionSelectionList														nonlure	3	Place	0-Back	42	80	40	0	0	95	2	39	267806	2	14	71	265767	-1	266662	1	895	3	3	2039	53	267820	-54	0												1				49												
WM080112	280739_fnca	1	1	1	-1081517980	1	75.033	75.032	2.0.10.147	2.0.10.242	2.0.10.242	1.0.0.439	7	234	2	3	Verdana	1	80	0	0	0	WM Stimuli\	0.6	812.333333333333	0.9	992.333333333333	0.9	881	1	1041.5	0.8	1034.375	1	680.2	0.9	1032	1	676.7	12	406082	3	406071	27	39	406109	-999999	406085	0	13	TrialsPROC	PL_003_92016.png	1	2	50	SessionSelectionList														lure	3	Place	0-Back	43	80	41	0	0	95	3	39	270379	1	13	73	268340	-1	268927	1	587	3	3	2039	52	270392	-53	0												2				50												
WM080112	280739_fnca	1	1	1	-1081517980	1	75.033	75.032	2.0.10.147	2.0.10.242	2.0.10.242	1.0.0.439	7	234	2	3	Verdana	1	80	0	0	0	WM Stimuli\	0.6	812.333333333333	0.9	992.333333333333	0.9	881	1	1041.5	0.8	1034.375	1	680.2	0.9	1032	1	676.7	12	406082	3	406071	27	39	406109	-999999	406085	0	13	TrialsPROC	PL_006_92025.png	1	2	51	SessionSelectionList														nonlure	3	Place	0-Back	44	80	42	0	0	96	4	39	272951	1	13	72	270912	-1	271742	1	830	3	3	2039	52	272964	-53	0												3				51												
WM080112	280739_fnca	1	1	1	-1081517980	1	75.033	75.032	2.0.10.147	2.0.10.242	2.0.10.242	1.0.0.439	7	234	2	3	Verdana	1	80	0	0	0	WM Stimuli\	0.6	812.333333333333	0.9	992.333333333333	0.9	881	1	1041.5	0.8	1034.375	1	680.2	0.9	1032	1	676.7	12	406082	3	406071	27	39	406109	-999999	406085	0	13	TrialsPROC	PL_001_92012.png	1	2	52	SessionSelectionList														target	2	Place	0-Back	45	80	43	0	0	96	1	39	275523	2	14	72	273484	-1	274057	1	573	2	2	2039	53	275537	-54	0												4				52												
WM080112	280739_fnca	1	1	1	-1081517980	1	75.033	75.032	2.0.10.147	2.0.10.242	2.0.10.242	1.0.0.439	7	234	2	3	Verdana	1	80	0	0	0	WM Stimuli\	0.6	812.333333333333	0.9	992.333333333333	0.9	881	1	1041.5	0.8	1034.375	1	680.2	0.9	1032	1	676.7	12	406082	3	406071	27	39	406109	-999999	406085	0	13	TrialsPROC	PL_004_92023.png	1	2	53	SessionSelectionList														nonlure	3	Place	0-Back	46	80	44	0	0	96	1	40	278096	1	13	72	276056	-1	276638	1	582	3	3	2040	53	278109	-54	0												5				53												
WM080112	280739_fnca	1	1	1	-1081517980	1	75.033	75.032	2.0.10.147	2.0.10.242	2.0.10.242	1.0.0.439	7	234	2	3	Verdana	1	80	0	0	0	WM Stimuli\	0.6	812.333333333333	0.9	992.333333333333	0.9	881	1	1041.5	0.8	1034.375	1	680.2	0.9	1032	1	676.7	12	406082	3	406071	27	39	406109	-999999	406085	0	13	TrialsPROC	PL_005_92024.png	1	2	54	SessionSelectionList														nonlure	3	Place	0-Back	47	80	45	0	0	96	2	39	280668	1	13	73	278629	-1	279381	1	752	3	3	2039	52	280681	-53	0												6				54												
WM080112	280739_fnca	1	1	1	-1081517980	1	75.033	75.032	2.0.10.147	2.0.10.242	2.0.10.242	1.0.0.439	7	234	2	3	Verdana	1	80	0	0	0	WM Stimuli\	0.6	812.333333333333	0.9	992.333333333333	0.9	881	1	1041.5	0.8	1034.375	1	680.2	0.9	1032	1	676.7	12	406082	3	406071	27	39	406109	-999999	406085	0	13	TrialsPROC	PL_001_92012.png	1	2	55	SessionSelectionList														target	2	Place	0-Back	48	80	46	0	0	96	1	39	283240	1	13	72	281201	-1	281822	1	621	2	2	2039	52	283253	-53	0												7				55												
WM080112	280739_fnca	1	1	1	-1081517980	1	75.033	75.032	2.0.10.147	2.0.10.242	2.0.10.242	1.0.0.439	7	234	2	3	Verdana	1	80	0	0	0	WM Stimuli\	0.6	812.333333333333	0.9	992.333333333333	0.9	881	1	1041.5	0.8	1034.375	1	680.2	0.9	1032	1	676.7	12	406082	3	406071	27	39	406109	-999999	406085	0	13	TrialsPROC	PL_002_92014.png	1	2	56	SessionSelectionList														nonlure	3	Place	0-Back	49	80	47	0	0	96	1	39	285812	2	14	72	283773	-1	284451	1	678	3	3	2039	53	285826	-54	0												8				56												
WM080112	280739_fnca	1	1	1	-1081517980	1	75.033	75.032	2.0.10.147	2.0.10.242	2.0.10.242	1.0.0.439	7	234	2	3	Verdana	1	80	0	0	0	WM Stimuli\	0.6	812.333333333333	0.9	992.333333333333	0.9	881	1	1041.5	0.8	1034.375	1	680.2	0.9	1032	1	676.7	12	406082	3	406071	27	39	406109	-999999	406085	0	13	TrialsPROC	PL_004_92023.png	1	2	57	SessionSelectionList														lure	3	Place	0-Back	50	80	48	0	0	97	2	40	288385	2	13	72	286345	-1	286978	1	633	3	3	2040	53	288398	-54	0												9				57												
WM080112	280739_fnca	1	1	1	-1081517980	1	75.033	75.032	2.0.10.147	2.0.10.242	2.0.10.242	1.0.0.439	7	234	2	3	Verdana	1	80	0	0	0	WM Stimuli\	0.6	812.333333333333	0.9	992.333333333333	0.9	881	1	1041.5	0.8	1034.375	1	680.2	0.9	1032	1	676.7	12	406082	3	406071	27	39	406109	-999999	406085	0	13	TrialsPROC	PL_006_92025.png	1	2	58	SessionSelectionList														lure	3	Place	0-Back	51	80	49	0	0	97	3	39	290957	1	13	73	288918	-1	289569	1	651	3	3	2039	52	290970	-53	0												10				58												
WM080112	280739_fnca	1	1	1	-1081517980	1	75.033	75.032	2.0.10.147	2.0.10.242	2.0.10.242	1.0.0.439	7	234	2	3	Verdana	1	80	0	0	0	WM Stimuli\	0.6	812.333333333333	0.9	992.333333333333	0.9	881	1	1041.5	0.8	1034.375	1	680.2	0.9	1032	1	676.7	12	406082	3	406071	27	39	406109	-999999	406085	0	14	Cue2BackPROC	""	1	2	59	SessionSelectionList									5	291423	-6	0																																													59												
WM080112	280739_fnca	1	1	1	-1081517980	1	75.033	75.032	2.0.10.147	2.0.10.242	2.0.10.242	1.0.0.439	7	234	2	3	Verdana	1	80	0	0	0	WM Stimuli\	0.6	812.333333333333	0.9	992.333333333333	0.9	881	1	1041.5	0.8	1034.375	1	680.2	0.9	1032	1	676.7	12	406082	3	406071	27	39	406109	-999999	406085	0	15	TrialsPROC	FC_010_F5.png	1	2	60	SessionSelectionList														nonlure	3	Face	2-Back	52	80	50	0	0	97	4	39	296021	3	14	64	293982	-1	295440	1	1458	3	3	2039	53	296035	-54	0													1			60												
WM080112	280739_fnca	1	1	1	-1081517980	1	75.033	75.032	2.0.10.147	2.0.10.242	2.0.10.242	1.0.0.439	7	234	2	3	Verdana	1	80	0	0	0	WM Stimuli\	0.6	812.333333333333	0.9	992.333333333333	0.9	881	1	1041.5	0.8	1034.375	1	680.2	0.9	1032	1	676.7	12	406082	3	406071	27	39	406109	-999999	406085	0	15	TrialsPROC	FC_012_F6.png	1	2	61	SessionSelectionList														nonlure	3	Face	2-Back	53	80	51	0	0	97	5	40	298594	1	13	72	296554	-1	297119	1	565	3	3	2040	53	298607	-54	0													2			61												
WM080112	280739_fnca	1	1	1	-1081517980	1	75.033	75.032	2.0.10.147	2.0.10.242	2.0.10.242	1.0.0.439	7	234	2	3	Verdana	1	80	0	0	0	WM Stimuli\	0.6	812.333333333333	0.9	992.333333333333	0.9	881	1	1041.5	0.8	1034.375	1	680.2	0.9	1032	1	676.7	12	406082	3	406071	27	39	406109	-999999	406085	0	15	TrialsPROC	FC_010_F5.png	1	2	62	SessionSelectionList														target	2	Face	2-Back	54	80	52	0	0	97	1	39	301166	1	13	73	299127	-1	299702	1	575	2	2	2039	52	301179	-53	0													3			62												
WM080112	280739_fnca	1	1	1	-1081517980	1	75.033	75.032	2.0.10.147	2.0.10.242	2.0.10.242	1.0.0.439	7	234	2	3	Verdana	1	80	0	0	0	WM Stimuli\	0.6	812.333333333333	0.9	992.333333333333	0.9	881	1	1041.5	0.8	1034.375	1	680.2	0.9	1032	1	676.7	12	406082	3	406071	27	39	406109	-999999	406085	0	15	TrialsPROC	FC_008_F4.png	1	2	63	SessionSelectionList														nonlure	3	Face	2-Back	55	80	53	0	0	97	1	39	303738	2	14	72	301699	-1	302371	1	672	3	3	2039	53	303752	-54	0													4			63												
WM080112	280739_fnca	1	1	1	-1081517980	1	75.033	75.032	2.0.10.147	2.0.10.242	2.0.10.242	1.0.0.439	7	234	2	3	Verdana	1	80	0	0	0	WM Stimuli\	0.6	812.333333333333	0.9	992.333333333333	0.9	881	1	1041.5	0.8	1034.375	1	680.2	0.9	1032	1	676.7	12	406082	3	406071	27	39	406109	-999999	406085	0	15	TrialsPROC	FC_012_F6.png	1	2	64	SessionSelectionList														lure	3	Face	2-Back	56	80	54	0	0	97	2	39	306310	2	14	72	304271	-1	304917	1	646	3	3	2039	53	306324	-54	0													5			64												
WM080112	280739_fnca	1	1	1	-1081517980	1	75.033	75.032	2.0.10.147	2.0.10.242	2.0.10.242	1.0.0.439	7	234	2	3	Verdana	1	80	0	0	0	WM Stimuli\	0.6	812.333333333333	0.9	992.333333333333	0.9	881	1	1041.5	0.8	1034.375	1	680.2	0.9	1032	1	676.7	12	406082	3	406071	27	39	406109	-999999	406085	0	15	TrialsPROC	FC_008_F4.png	1	2	65	SessionSelectionList														target	2	Face	2-Back	57	80	55	0	0	97	3	39	308883	1	13	73	306844	-1	307587	0	743	3	2	2039	52	308896	-53	0													6			65												
WM080112	280739_fnca	1	1	1	-1081517980	1	75.033	75.032	2.0.10.147	2.0.10.242	2.0.10.242	1.0.0.439	7	234	2	3	Verdana	1	80	0	0	0	WM Stimuli\	0.6	812.333333333333	0.9	992.333333333333	0.9	881	1	1041.5	0.8	1034.375	1	680.2	0.9	1032	1	676.7	12	406082	3	406071	27	39	406109	-999999	406085	0	15	TrialsPROC	FC_007_M4.png	1	2	66	SessionSelectionList														nonlure	3	Face	2-Back	58	80	56	0	0	97	4	39	311455	1	13	72	309416	-1	310181	1	765	3	3	2039	52	311468	-53	0													7			66												
WM080112	280739_fnca	1	1	1	-1081517980	1	75.033	75.032	2.0.10.147	2.0.10.242	2.0.10.242	1.0.0.439	7	234	2	3	Verdana	1	80	0	0	0	WM Stimuli\	0.6	812.333333333333	0.9	992.333333333333	0.9	881	1	1041.5	0.8	1034.375	1	680.2	0.9	1032	1	676.7	12	406082	3	406071	27	39	406109	-999999	406085	0	15	TrialsPROC	FC_007_M4.png	1	2	67	SessionSelectionList														lure	3	Face	2-Back	59	80	57	0	0	97	5	39	314027	2	14	72	311988	-1	312821	1	833	3	3	2039	53	314041	-54	0													8			67												
WM080112	280739_fnca	1	1	1	-1081517980	1	75.033	75.032	2.0.10.147	2.0.10.242	2.0.10.242	1.0.0.439	7	234	2	3	Verdana	1	80	0	0	0	WM Stimuli\	0.6	812.333333333333	0.9	992.333333333333	0.9	881	1	1041.5	0.8	1034.375	1	680.2	0.9	1032	1	676.7	12	406082	3	406071	27	39	406109	-999999	406085	0	15	TrialsPROC	FC_009_M5.png	1	2	68	SessionSelectionList														nonlure	3	Face	2-Back	60	80	58	0	0	97	6	39	316599	2	14	72	314560	-1	316058	1	1498	3	3	2039	53	316613	-54	0													9			68												
WM080112	280739_fnca	1	1	1	-1081517980	1	75.033	75.032	2.0.10.147	2.0.10.242	2.0.10.242	1.0.0.439	7	234	2	3	Verdana	1	80	0	0	0	WM Stimuli\	0.6	812.333333333333	0.9	992.333333333333	0.9	881	1	1041.5	0.8	1034.375	1	680.2	0.9	1032	1	676.7	12	406082	3	406071	27	39	406109	-999999	406085	0	15	TrialsPROC	FC_011_M6.png	1	2	69	SessionSelectionList														nonlure	3	Face	2-Back	61	80	59	0	0	97	7	39	319172	1	13	73	317133	-1	318050	1	917	3	3	2039	52	319185	-53	0													10			69												
WM080112	280739_fnca	1	1	1	-1081517980	1	75.033	75.032	2.0.10.147	2.0.10.242	2.0.10.242	1.0.0.439	7	234	2	3	Verdana	1	80	0	0	0	WM Stimuli\	0.6	812.333333333333	0.9	992.333333333333	0.9	881	1	1041.5	0.8	1034.375	1	680.2	0.9	1032	1	676.7	12	406082	3	406071	27	39	406109	-999999	406085	0	16	Fix15secPROC	""	1	2	70	SessionSelectionList																																															5	319638	-6	0							70												
WM080112	280739_fnca	1	1	1	-1081517980	1	75.033	75.032	2.0.10.147	2.0.10.242	2.0.10.242	1.0.0.439	7	234	2	3	Verdana	1	80	0	0	0	WM Stimuli\	0.6	812.333333333333	0.9	992.333333333333	0.9	881	1	1041.5	0.8	1034.375	1	680.2	0.9	1032	1	676.7	12	406082	3	406071	27	39	406109	-999999	406085	0	17	Cue0BackPROC	TO_007_TOOL7_BA.png	1	2	71	SessionSelectionList																																										26	334659	-27	0												71												
WM080112	280739_fnca	1	1	1	-1081517980	1	75.033	75.032	2.0.10.147	2.0.10.242	2.0.10.242	1.0.0.439	7	234	2	3	Verdana	1	80	0	0	0	WM Stimuli\	0.6	812.333333333333	0.9	992.333333333333	0.9	881	1	1041.5	0.8	1034.375	1	680.2	0.9	1032	1	676.7	12	406082	3	406071	27	39	406109	-999999	406085	0	18	TrialsPROC	TO_010_TOOL10_BA.png	1	2	72	SessionSelectionList														nonlure	3	Tools	0-Back	62	80	60	0	0	97	8	39	339257	1	13	85	337218	-1	338039	1	821	3	3	2039	52	339270	-53	0														1		72												
WM080112	280739_fnca	1	1	1	-1081517980	1	75.033	75.032	2.0.10.147	2.0.10.242	2.0.10.242	1.0.0.439	7	234	2	3	Verdana	1	80	0	0	0	WM Stimuli\	0.6	812.333333333333	0.9	992.333333333333	0.9	881	1	1041.5	0.8	1034.375	1	680.2	0.9	1032	1	676.7	12	406082	3	406071	27	39	406109	-999999	406085	0	18	TrialsPROC	TO_009_TOOL9_BA.png	1	2	73	SessionSelectionList														nonlure	3	Tools	0-Back	63	80	61	0	0	97	9	39	341829	1	13	72	339790	-1	340354	1	564	3	3	2039	52	341842	-53	0														2		73												
WM080112	280739_fnca	1	1	1	-1081517980	1	75.033	75.032	2.0.10.147	2.0.10.242	2.0.10.242	1.0.0.439	7	234	2	3	Verdana	1	80	0	0	0	WM Stimuli\	0.6	812.333333333333	0.9	992.333333333333	0.9	881	1	1041.5	0.8	1034.375	1	680.2	0.9	1032	1	676.7	12	406082	3	406071	27	39	406109	-999999	406085	0	18	TrialsPROC	TO_009_TOOL9_BA.png	1	2	74	SessionSelectionList														lure	3	Tools	0-Back	64	80	62	0	0	97	10	39	344388	1	13	59	342349	-1	343037	1	688	3	3	2039	52	344401	-53	0														3		74												
WM080112	280739_fnca	1	1	1	-1081517980	1	75.033	75.032	2.0.10.147	2.0.10.242	2.0.10.242	1.0.0.439	7	234	2	3	Verdana	1	80	0	0	0	WM Stimuli\	0.6	812.333333333333	0.9	992.333333333333	0.9	881	1	1041.5	0.8	1034.375	1	680.2	0.9	1032	1	676.7	12	406082	3	406071	27	39	406109	-999999	406085	0	18	TrialsPROC	TO_008_TOOL8_BA.png	1	2	75	SessionSelectionList														nonlure	3	Tools	0-Back	65	80	63	0	0	97	11	40	346974	1	13	85	344934	-1	345812	1	878	3	3	2040	53	346987	-54	0														4		75												
WM080112	280739_fnca	1	1	1	-1081517980	1	75.033	75.032	2.0.10.147	2.0.10.242	2.0.10.242	1.0.0.439	7	234	2	3	Verdana	1	80	0	0	0	WM Stimuli\	0.6	812.333333333333	0.9	992.333333333333	0.9	881	1	1041.5	0.8	1034.375	1	680.2	0.9	1032	1	676.7	12	406082	3	406071	27	39	406109	-999999	406085	0	18	TrialsPROC	TO_011_TOOL11_BA.png	1	2	76	SessionSelectionList														nonlure	3	Tools	0-Back	66	80	64	0	0	97	12	39	349559	2	14	86	347520	-1	348102	1	582	3	3	2039	53	349573	-54	0														5		76												
WM080112	280739_fnca	1	1	1	-1081517980	1	75.033	75.032	2.0.10.147	2.0.10.242	2.0.10.242	1.0.0.439	7	234	2	3	Verdana	1	80	0	0	0	WM Stimuli\	0.6	812.333333333333	0.9	992.333333333333	0.9	881	1	1041.5	0.8	1034.375	1	680.2	0.9	1032	1	676.7	12	406082	3	406071	27	39	406109	-999999	406085	0	18	TrialsPROC	TO_012_TOOL12_BA.png	1	2	77	SessionSelectionList														nonlure	3	Tools	0-Back	67	80	65	0	0	97	13	39	352131	2	14	72	350092	-1	350626	1	534	3	3	2039	53	352145	-54	0														6		77												
WM080112	280739_fnca	1	1	1	-1081517980	1	75.033	75.032	2.0.10.147	2.0.10.242	2.0.10.242	1.0.0.439	7	234	2	3	Verdana	1	80	0	0	0	WM Stimuli\	0.6	812.333333333333	0.9	992.333333333333	0.9	881	1	1041.5	0.8	1034.375	1	680.2	0.9	1032	1	676.7	12	406082	3	406071	27	39	406109	-999999	406085	0	18	TrialsPROC	TO_010_TOOL10_BA.png	1	2	78	SessionSelectionList														lure	3	Tools	0-Back	68	80	66	0	0	97	14	39	354690	2	14	59	352651	-1	353443	1	792	3	3	2039	53	354704	-54	0														7		78												
WM080112	280739_fnca	1	1	1	-1081517980	1	75.033	75.032	2.0.10.147	2.0.10.242	2.0.10.242	1.0.0.439	7	234	2	3	Verdana	1	80	0	0	0	WM Stimuli\	0.6	812.333333333333	0.9	992.333333333333	0.9	881	1	1041.5	0.8	1034.375	1	680.2	0.9	1032	1	676.7	12	406082	3	406071	27	39	406109	-999999	406085	0	18	TrialsPROC	TO_007_TOOL7_BA.png	1	2	79	SessionSelectionList														target	2	Tools	0-Back	69	80	67	0	0	97	1	39	357249	2	14	59	355210	-1	355889	1	679	2	2	2039	53	357263	-54	0														8		79												
WM080112	280739_fnca	1	1	1	-1081517980	1	75.033	75.032	2.0.10.147	2.0.10.242	2.0.10.242	1.0.0.439	7	234	2	3	Verdana	1	80	0	0	0	WM Stimuli\	0.6	812.333333333333	0.9	992.333333333333	0.9	881	1	1041.5	0.8	1034.375	1	680.2	0.9	1032	1	676.7	12	406082	3	406071	27	39	406109	-999999	406085	0	18	TrialsPROC	TO_008_TOOL8_BA.png	1	2	80	SessionSelectionList														lure	3	Tools	0-Back	70	80	68	0	0	97	1	39	359808	2	14	59	357769	-1	358186	1	417	3	3	2039	53	359822	-54	0														9		80												
WM080112	280739_fnca	1	1	1	-1081517980	1	75.033	75.032	2.0.10.147	2.0.10.242	2.0.10.242	1.0.0.439	7	234	2	3	Verdana	1	80	0	0	0	WM Stimuli\	0.6	812.333333333333	0.9	992.333333333333	0.9	881	1	1041.5	0.8	1034.375	1	680.2	0.9	1032	1	676.7	12	406082	3	406071	27	39	406109	-999999	406085	0	18	TrialsPROC	TO_007_TOOL7_BA.png	1	2	81	SessionSelectionList														target	2	Tools	0-Back	71	80	69	0	0	98	1	39	362367	2	14	59	360328	-1	361140	1	812	2	2	2039	53	362381	-54	0														10		81												
WM080112	280739_fnca	1	1	1	-1081517980	1	75.033	75.032	2.0.10.147	2.0.10.242	2.0.10.242	1.0.0.439	7	234	2	3	Verdana	1	80	0	0	0	WM Stimuli\	0.6	812.333333333333	0.9	992.333333333333	0.9	881	1	1041.5	0.8	1034.375	1	680.2	0.9	1032	1	676.7	12	406082	3	406071	27	39	406109	-999999	406085	0	19	Cue2BackPROC	""	1	2	82	SessionSelectionList									6	362834	-7	0																																													82												
WM080112	280739_fnca	1	1	1	-1081517980	1	75.033	75.032	2.0.10.147	2.0.10.242	2.0.10.242	1.0.0.439	7	234	2	3	Verdana	1	80	0	0	0	WM Stimuli\	0.6	812.333333333333	0.9	992.333333333333	0.9	881	1	1041.5	0.8	1034.375	1	680.2	0.9	1032	1	676.7	12	406082	3	406071	27	39	406109	-999999	406085	0	20	TrialsPROC	PL_007_92026.png	1	2	83	SessionSelectionList														nonlure	3	Place	2-Back	72	80	70	0	0	98	1	39	367445	1	13	78	365406	-1	367302	1	1896	3	3	2039	52	367458	-53	0															1	83												
WM080112	280739_fnca	1	1	1	-1081517980	1	75.033	75.032	2.0.10.147	2.0.10.242	2.0.10.242	1.0.0.439	7	234	2	3	Verdana	1	80	0	0	0	WM Stimuli\	0.6	812.333333333333	0.9	992.333333333333	0.9	881	1	1041.5	0.8	1034.375	1	680.2	0.9	1032	1	676.7	12	406082	3	406071	27	39	406109	-999999	406085	0	20	TrialsPROC	PL_007_92026.png	1	2	84	SessionSelectionList														lure	3	Place	2-Back	73	80	71	0	0	98	2	39	370017	2	14	72	367978	-1	368930	1	952	3	3	2039	53	370031	-54	0															2	84												
WM080112	280739_fnca	1	1	1	-1081517980	1	75.033	75.032	2.0.10.147	2.0.10.242	2.0.10.242	1.0.0.439	7	234	2	3	Verdana	1	80	0	0	0	WM Stimuli\	0.6	812.333333333333	0.9	992.333333333333	0.9	881	1	1041.5	0.8	1034.375	1	680.2	0.9	1032	1	676.7	12	406082	3	406071	27	39	406109	-999999	406085	0	20	TrialsPROC	PL_010_92038.png	1	2	85	SessionSelectionList														nonlure	3	Place	2-Back	74	80	71	0	1	98	2	40	372590	1	13	72	370550	-1	0	0	0	""	3	2040	53	372603	-54	0															3	85												
WM080112	280739_fnca	1	1	1	-1081517980	1	75.033	75.032	2.0.10.147	2.0.10.242	2.0.10.242	1.0.0.439	7	234	2	3	Verdana	1	80	0	0	0	WM Stimuli\	0.6	812.333333333333	0.9	992.333333333333	0.9	881	1	1041.5	0.8	1034.375	1	680.2	0.9	1032	1	676.7	12	406082	3	406071	27	39	406109	-999999	406085	0	20	TrialsPROC	PL_009_92037.png	1	2	86	SessionSelectionList														nonlure	3	Place	2-Back	75	80	72	0	0	98	1	39	375175	2	14	86	373136	-1	374229	1	1093	3	3	2039	53	375189	-54	0															4	86												
WM080112	280739_fnca	1	1	1	-1081517980	1	75.033	75.032	2.0.10.147	2.0.10.242	2.0.10.242	1.0.0.439	7	234	2	3	Verdana	1	80	0	0	0	WM Stimuli\	0.6	812.333333333333	0.9	992.333333333333	0.9	881	1	1041.5	0.8	1034.375	1	680.2	0.9	1032	1	676.7	12	406082	3	406071	27	39	406109	-999999	406085	0	20	TrialsPROC	PL_010_92038.png	1	2	87	SessionSelectionList														target	2	Place	2-Back	76	80	73	0	0	98	2	39	377747	2	14	72	375708	-1	376897	0	1189	3	2	2039	53	377761	-54	0															5	87												
WM080112	280739_fnca	1	1	1	-1081517980	1	75.033	75.032	2.0.10.147	2.0.10.242	2.0.10.242	1.0.0.439	7	234	2	3	Verdana	1	80	0	0	0	WM Stimuli\	0.6	812.333333333333	0.9	992.333333333333	0.9	881	1	1041.5	0.8	1034.375	1	680.2	0.9	1032	1	676.7	12	406082	3	406071	27	39	406109	-999999	406085	0	20	TrialsPROC	PL_009_92037.png	1	2	88	SessionSelectionList														target	2	Place	2-Back	77	80	74	0	0	98	1	39	380320	1	13	73	378281	-1	379523	1	1242	2	2	2039	52	380333	-53	0															6	88												
WM080112	280739_fnca	1	1	1	-1081517980	1	75.033	75.032	2.0.10.147	2.0.10.242	2.0.10.242	1.0.0.439	7	234	2	3	Verdana	1	80	0	0	0	WM Stimuli\	0.6	812.333333333333	0.9	992.333333333333	0.9	881	1	1041.5	0.8	1034.375	1	680.2	0.9	1032	1	676.7	12	406082	3	406071	27	39	406109	-999999	406085	0	20	TrialsPROC	PL_008_92033.png	1	2	89	SessionSelectionList														nonlure	3	Place	2-Back	78	80	75	0	0	98	1	39	382892	1	13	72	380853	-1	381508	1	655	3	3	2039	52	382905	-53	0															7	89												
WM080112	280739_fnca	1	1	1	-1081517980	1	75.033	75.032	2.0.10.147	2.0.10.242	2.0.10.242	1.0.0.439	7	234	2	3	Verdana	1	80	0	0	0	WM Stimuli\	0.6	812.333333333333	0.9	992.333333333333	0.9	881	1	1041.5	0.8	1034.375	1	680.2	0.9	1032	1	676.7	12	406082	3	406071	27	39	406109	-999999	406085	0	20	TrialsPROC	PL_012_92047.png	1	2	90	SessionSelectionList														nonlure	3	Place	2-Back	79	80	76	0	0	98	2	39	385464	2	14	72	383425	-1	384026	1	601	3	3	2039	53	385478	-54	0															8	90												
WM080112	280739_fnca	1	1	1	-1081517980	1	75.033	75.032	2.0.10.147	2.0.10.242	2.0.10.242	1.0.0.439	7	234	2	3	Verdana	1	80	0	0	0	WM Stimuli\	0.6	812.333333333333	0.9	992.333333333333	0.9	881	1	1041.5	0.8	1034.375	1	680.2	0.9	1032	1	676.7	12	406082	3	406071	27	39	406109	-999999	406085	0	20	TrialsPROC	PL_012_92047.png	1	2	91	SessionSelectionList														lure	3	Place	2-Back	80	80	77	0	0	98	3	39	388036	2	14	72	385997	-1	386821	1	824	3	3	2039	53	388050	-54	0															9	91												
WM080112	280739_fnca	1	1	1	-1081517980	1	75.033	75.032	2.0.10.147	2.0.10.242	2.0.10.242	1.0.0.439	7	234	2	3	Verdana	1	80	0	0	0	WM Stimuli\	0.6	812.333333333333	0.9	992.333333333333	0.9	881	1	1041.5	0.8	1034.375	1	680.2	0.9	1032	1	676.7	12	406082	3	406071	27	39	406109	-999999	406085	0	20	TrialsPROC	PL_011_92044.png	1	2	92	SessionSelectionList														nonlure	3	Place	2-Back	80	80	78	0	0	98	4	39	390609	1	13	73	388570	-1	389582	1	1012	3	3	2039	52	390622	-53	0															10	92												
WM080112	280739_fnca	1	1	1	-1081517980	1	75.033	75.032	2.0.10.147	2.0.10.242	2.0.10.242	1.0.0.439	7	234	2	3	Verdana	1	80	0	0	0	WM Stimuli\	0.6	812.333333333333	0.9	992.333333333333	0.9	881	1	1041.5	0.8	1034.375	1	680.2	0.9	1032	1	676.7	12	406082	3	406071	27	39	406109	-999999	406085	0	21	Fix15secPROC	""	1	2	93	SessionSelectionList																																															5	391075	-6	0							93												
