ExperimentName	HCPID	RunNumber	Subject	Session	RandomSeed	Group	Laptop.RefreshRate	ScannerD2.RefreshRate	StudioVersion	RuntimeVersion	RuntimeVersionExpected	ExperimentVersion	triggercode	Allowed	Target	Nontarget	FontStyle	RunTrialNumber[Session]	TrialsPerRun[Session]	TotalRespGreater200[Session]	ConsecRTLess200[Session]	ConsecNonResp[Session]	StimuliDir	ACC_2_Back_Body	Avg_RT_For_Correct_Trials_2_Back_Body	ACC_0_Back_Body	Avg_RT_For_Correct_Trials_0_Back_Body	ACC_2_Back_Face	Avg_RT_For_Correct_Trials_2_Back_Face	ACC_0_Back_Face	Avg_RT_For_Correct_Trials_0_Back_Face	ACC_2_Back_Place	Avg_RT_For_Correct_Trials_2_Back_Place	ACC_0_Back_Place	Avg_RT_For_Correct_Trials_0_Back_Place	ACC_2_Back_Tools	Avg_RT_For_Correct_Trials_2_Back_Tools	ACC_0_Back_Tools	Avg_RT_For_Correct_Trials_0_Back_Tools	ExpInstrucFeelFreeToRest.OnsetDelay	ExpInstrucFeelFreeToRest.OnsetTime	ExpInstrucFeelFreeToRest.DurationError	ExpInstrucFeelFreeToRest.StartTime	ExpInstrucFeelFreeToRest.OnsetToOnsetTime	FeelFreeToRest.OnsetDelay	FeelFreeToRest.OnsetTime	FeelFreeToRest.DurationError	FeelFreeToRest.StartTime	FeelFreeToRest.OnsetToOnsetTime	SessionSelectionList	Procedure[Block]	Stimulus[Block]	RunNumberFilterValue	SessionSelectionList.Cycle	SessionSelectionList.Sample	Running[Block]	IntroButtonMap.OnsetDelay	IntroButtonMap.OnsetTime	IntroButtonMap.DurationError	IntroButtonMap.OnsetToOnsetTime	GetReady.OnsetDelay	GetReady.OnsetTime	GetReady.DurationError	GetReady.OnsetToOnsetTime	Cue2Back.OnsetDelay	Cue2Back.OnsetTime	Cue2Back.DurationError	Cue2Back.OnsetToOnsetTime	Run1Block1	TargetType	CorrectResponse	StimType	BlockType	RunTrialNumber[Block]	TrialsPerRun[Block]	TotalRespGreater200[Block]	ConsecRTLess200[Block]	ConsecNonResp[Block]	ControlAcc	ConsecSameResp	ExperimenterWindow.OnsetDelay	ExperimenterWindow.OnsetTime	ExperimenterWindow.DurationError	ExperimenterWindow.OnsetToOnsetTime	Stim.OnsetDelay	Stim.OnsetTime	Stim.DurationError	Stim.RTTime	Stim.ACC	Stim.RT	Stim.RESP	Stim.CRESP	Stim.OnsetToOnsetTime	Fix.OnsetDelay	Fix.OnsetTime	Fix.DurationError	Fix.OnsetToOnsetTime	CueTarget.OnsetDelay	CueTarget.OnsetTime	CueTarget.DurationError	CueTarget.OnsetToOnsetTime	Run1Block2	Fix15sec.OnsetDelay	Fix15sec.OnsetTime	Fix15sec.DurationError	Fix15sec.OnsetToOnsetTime	Run1Block3	Run1Block4	Run1Block5	Run1Block6	Run1Block7	Run1Block8	Block	Procedure[Trial]	Stimulus[Trial]	ReadyList	Running[Trial]	ReadyList.Cycle	ReadyList.Sample	SyncSlide.OnsetDelay	SyncSlide.OnsetTime	SyncSlide.DurationError	SyncSlide.FinishTime	SyncSlide.OnsetToOnsetTime	Trial
WM080112	298051_fnca	2	1	1	903037926	1	75.032	75.031	2.0.10.147	2.0.10.242	2.0.10.242	1.0.0.439	7	234	2	3	Verdana	1	80	0	0	0	WM Stimuli\	0.9	839.666666666667	1	709.9	0.9	670.888888888889	1	567.2	1	785.2	0.8	610	1	644.4	1	636.1	13	316852	2	316840	26	39	316878	-999999	316854	0	22	TRSyncPROC	""	2	2	1	SessionSelectionList	103	6980	-999999	0	38	8792	-999999	0																																																	1	InitialTR	4	1	ReadyList	1	1	18	23266	-19	25247	0	1
WM080112	298051_fnca	2	1	1	903037926	1	75.032	75.031	2.0.10.147	2.0.10.242	2.0.10.242	1.0.0.439	7	234	2	3	Verdana	1	80	0	0	0	WM Stimuli\	0.9	839.666666666667	1	709.9	0.9	670.888888888889	1	567.2	1	785.2	0.8	610	1	644.4	1	636.1	13	316852	2	316840	26	39	316878	-999999	316854	0	22	TRSyncPROC	""	2	2	1	SessionSelectionList	103	6980	-999999	0	38	8792	-999999	0																																																	1	InitialTR	3	2	ReadyList	1	2	17	25265	-18	27247	0	2
WM080112	298051_fnca	2	1	1	903037926	1	75.032	75.031	2.0.10.147	2.0.10.242	2.0.10.242	1.0.0.439	7	234	2	3	Verdana	1	80	0	0	0	WM Stimuli\	0.9	839.666666666667	1	709.9	0.9	670.888888888889	1	567.2	1	785.2	0.8	610	1	644.4	1	636.1	13	316852	2	316840	26	39	316878	-999999	316854	0	22	TRSyncPROC	""	2	2	1	SessionSelectionList	103	6980	-999999	0	38	8792	-999999	0																																																	1	InitialTR	2	3	ReadyList	1	3	3	27251	-4	29247	0	3
WM080112	298051_fnca	2	1	1	903037926	1	75.032	75.031	2.0.10.147	2.0.10.242	2.0.10.242	1.0.0.439	7	234	2	3	Verdana	1	80	0	0	0	WM Stimuli\	0.9	839.666666666667	1	709.9	0.9	670.888888888889	1	567.2	1	785.2	0.8	610	1	644.4	1	636.1	13	316852	2	316840	26	39	316878	-999999	316854	0	22	TRSyncPROC	""	2	2	1	SessionSelectionList	103	6980	-999999	0	38	8792	-999999	0																																																	1	InitialTR	1	4	ReadyList	1	4	16	29264	-17	31247	0	4
WM080112	298051_fnca	2	1	1	903037926	1	75.032	75.031	2.0.10.147	2.0.10.242	2.0.10.242	1.0.0.439	7	234	2	3	Verdana	1	80	0	0	0	WM Stimuli\	0.9	839.666666666667	1	709.9	0.9	670.888888888889	1	567.2	1	785.2	0.8	610	1	644.4	1	636.1	13	316852	2	316840	26	39	316878	-999999	316854	0	23	Cue2BackPROC	""	2	2	2	SessionSelectionList									15	31263	-16	0																																													2												
WM080112	298051_fnca	2	1	1	903037926	1	75.032	75.031	2.0.10.147	2.0.10.242	2.0.10.242	1.0.0.439	7	234	2	3	Verdana	1	80	0	0	0	WM Stimuli\	0.9	839.666666666667	1	709.9	0.9	670.888888888889	1	567.2	1	785.2	0.8	610	1	644.4	1	636.1	13	316852	2	316840	26	39	316878	-999999	316854	0	24	TrialsPROC	TO_014_TOOL14_BA.png	2	2	3	SessionSelectionList														nonlure	3	Tools	2-Back	2	80	1	0	0	0	1	52	35874	3	14	74	33822	-1	34290	1	468	3	3	2052	66	35888	-67	0																3												
WM080112	298051_fnca	2	1	1	903037926	1	75.032	75.031	2.0.10.147	2.0.10.242	2.0.10.242	1.0.0.439	7	234	2	3	Verdana	1	80	0	0	0	WM Stimuli\	0.9	839.666666666667	1	709.9	0.9	670.888888888889	1	567.2	1	785.2	0.8	610	1	644.4	1	636.1	13	316852	2	316840	26	39	316878	-999999	316854	0	24	TrialsPROC	TO_013_TOOL13_BA.png	2	2	4	SessionSelectionList														nonlure	3	Tools	2-Back	3	80	2	0	0	0	2	39	38420	2	13	59	36381	-1	36834	1	453	3	3	2039	52	38433	-53	0																4												
WM080112	298051_fnca	2	1	1	903037926	1	75.032	75.031	2.0.10.147	2.0.10.242	2.0.10.242	1.0.0.439	7	234	2	3	Verdana	1	80	0	0	0	WM Stimuli\	0.9	839.666666666667	1	709.9	0.9	670.888888888889	1	567.2	1	785.2	0.8	610	1	644.4	1	636.1	13	316852	2	316840	26	39	316878	-999999	316854	0	24	TrialsPROC	TO_016_TOOL16_BA.png	2	2	5	SessionSelectionList														nonlure	3	Tools	2-Back	4	80	3	0	0	0	3	39	40979	2	13	59	38940	-1	39456	1	516	3	3	2039	52	40992	-53	0																5												
WM080112	298051_fnca	2	1	1	903037926	1	75.032	75.031	2.0.10.147	2.0.10.242	2.0.10.242	1.0.0.439	7	234	2	3	Verdana	1	80	0	0	0	WM Stimuli\	0.9	839.666666666667	1	709.9	0.9	670.888888888889	1	567.2	1	785.2	0.8	610	1	644.4	1	636.1	13	316852	2	316840	26	39	316878	-999999	316854	0	24	TrialsPROC	TO_014_TOOL14_BA.png	2	2	6	SessionSelectionList														lure	3	Tools	2-Back	5	80	4	0	0	0	4	39	43551	2	14	72	41512	-1	42369	1	857	3	3	2039	53	43565	-54	0																6												
WM080112	298051_fnca	2	1	1	903037926	1	75.032	75.031	2.0.10.147	2.0.10.242	2.0.10.242	1.0.0.439	7	234	2	3	Verdana	1	80	0	0	0	WM Stimuli\	0.9	839.666666666667	1	709.9	0.9	670.888888888889	1	567.2	1	785.2	0.8	610	1	644.4	1	636.1	13	316852	2	316840	26	39	316878	-999999	316854	0	24	TrialsPROC	TO_016_TOOL16_BA.png	2	2	7	SessionSelectionList														target	2	Tools	2-Back	6	80	5	0	0	0	1	39	46110	1	13	59	44071	-1	44860	1	789	2	2	2039	52	46123	-53	0																7												
WM080112	298051_fnca	2	1	1	903037926	1	75.032	75.031	2.0.10.147	2.0.10.242	2.0.10.242	1.0.0.439	7	234	2	3	Verdana	1	80	0	0	0	WM Stimuli\	0.9	839.666666666667	1	709.9	0.9	670.888888888889	1	567.2	1	785.2	0.8	610	1	644.4	1	636.1	13	316852	2	316840	26	39	316878	-999999	316854	0	24	TrialsPROC	TO_018_TOOL18_BA.png	2	2	8	SessionSelectionList														nonlure	3	Tools	2-Back	7	80	6	0	0	0	1	39	48669	2	13	59	46630	-1	47296	1	666	3	3	2039	52	48682	-53	0																8												
WM080112	298051_fnca	2	1	1	903037926	1	75.032	75.031	2.0.10.147	2.0.10.242	2.0.10.242	1.0.0.439	7	234	2	3	Verdana	1	80	0	0	0	WM Stimuli\	0.9	839.666666666667	1	709.9	0.9	670.888888888889	1	567.2	1	785.2	0.8	610	1	644.4	1	636.1	13	316852	2	316840	26	39	316878	-999999	316854	0	24	TrialsPROC	TO_017_TOOL17_BA.png	2	2	9	SessionSelectionList														nonlure	3	Tools	2-Back	8	80	7	0	0	0	2	39	51228	2	13	59	49189	-1	49821	1	632	3	3	2039	52	51241	-53	0																9												
WM080112	298051_fnca	2	1	1	903037926	1	75.032	75.031	2.0.10.147	2.0.10.242	2.0.10.242	1.0.0.439	7	234	2	3	Verdana	1	80	0	0	0	WM Stimuli\	0.9	839.666666666667	1	709.9	0.9	670.888888888889	1	567.2	1	785.2	0.8	610	1	644.4	1	636.1	13	316852	2	316840	26	39	316878	-999999	316854	0	24	TrialsPROC	TO_018_TOOL18_BA.png	2	2	10	SessionSelectionList														target	2	Tools	2-Back	9	80	8	0	0	0	1	39	53787	1	13	59	51748	-1	52201	1	453	2	2	2039	52	53800	-53	0																10												
WM080112	298051_fnca	2	1	1	903037926	1	75.032	75.031	2.0.10.147	2.0.10.242	2.0.10.242	1.0.0.439	7	234	2	3	Verdana	1	80	0	0	0	WM Stimuli\	0.9	839.666666666667	1	709.9	0.9	670.888888888889	1	567.2	1	785.2	0.8	610	1	644.4	1	636.1	13	316852	2	316840	26	39	316878	-999999	316854	0	24	TrialsPROC	TO_015_TOOL15_BA.png	2	2	11	SessionSelectionList														nonlure	3	Tools	2-Back	10	80	9	0	0	0	1	39	56346	1	13	59	54307	-1	55082	1	775	3	3	2039	52	56359	-53	0																11												
WM080112	298051_fnca	2	1	1	903037926	1	75.032	75.031	2.0.10.147	2.0.10.242	2.0.10.242	1.0.0.439	7	234	2	3	Verdana	1	80	0	0	0	WM Stimuli\	0.9	839.666666666667	1	709.9	0.9	670.888888888889	1	567.2	1	785.2	0.8	610	1	644.4	1	636.1	13	316852	2	316840	26	39	316878	-999999	316854	0	24	TrialsPROC	TO_017_TOOL17_BA.png	2	2	12	SessionSelectionList														lure	3	Tools	2-Back	11	80	10	0	0	0	2	39	58905	2	13	59	56866	-1	57701	1	835	3	3	2039	52	58918	-53	0																12												
WM080112	298051_fnca	2	1	1	903037926	1	75.032	75.031	2.0.10.147	2.0.10.242	2.0.10.242	1.0.0.439	7	234	2	3	Verdana	1	80	0	0	0	WM Stimuli\	0.9	839.666666666667	1	709.9	0.9	670.888888888889	1	567.2	1	785.2	0.8	610	1	644.4	1	636.1	13	316852	2	316840	26	39	316878	-999999	316854	0	25	Cue0BackPROC	BP_013_BP7_BA.png	2	2	13	SessionSelectionList																																										19	59385	-20	0												13												
WM080112	298051_fnca	2	1	1	903037926	1	75.032	75.031	2.0.10.147	2.0.10.242	2.0.10.242	1.0.0.439	7	234	2	3	Verdana	1	80	0	0	0	WM Stimuli\	0.9	839.666666666667	1	709.9	0.9	670.888888888889	1	567.2	1	785.2	0.8	610	1	644.4	1	636.1	13	316852	2	316840	26	39	316878	-999999	316854	0	26	TrialsPROC	BP_015_H10-T_BA.png	2	2	14	SessionSelectionList														nonlure	3	Body	0-Back	12	80	11	0	0	100	3	39	63969	3	14	64	61930	-1	62857	1	927	3	3	2039	53	63983	-54	0																14												
WM080112	298051_fnca	2	1	1	903037926	1	75.032	75.031	2.0.10.147	2.0.10.242	2.0.10.242	1.0.0.439	7	234	2	3	Verdana	1	80	0	0	0	WM Stimuli\	0.9	839.666666666667	1	709.9	0.9	670.888888888889	1	567.2	1	785.2	0.8	610	1	644.4	1	636.1	13	316852	2	316840	26	39	316878	-999999	316854	0	26	TrialsPROC	BP_018_H13-T_BA.png	2	2	15	SessionSelectionList														nonlure	3	Body	0-Back	13	80	12	0	0	100	4	40	66542	1	13	72	64502	-1	65097	1	595	3	3	2040	53	66555	-54	0																15												
WM080112	298051_fnca	2	1	1	903037926	1	75.032	75.031	2.0.10.147	2.0.10.242	2.0.10.242	1.0.0.439	7	234	2	3	Verdana	1	80	0	0	0	WM Stimuli\	0.9	839.666666666667	1	709.9	0.9	670.888888888889	1	567.2	1	785.2	0.8	610	1	644.4	1	636.1	13	316852	2	316840	26	39	316878	-999999	316854	0	26	TrialsPROC	BP_014_BP9_BA.png	2	2	16	SessionSelectionList														nonlure	3	Body	0-Back	14	80	13	0	0	100	5	39	69101	2	13	60	67062	-1	67783	1	721	3	3	2039	52	69114	-53	0																16												
WM080112	298051_fnca	2	1	1	903037926	1	75.032	75.031	2.0.10.147	2.0.10.242	2.0.10.242	1.0.0.439	7	234	2	3	Verdana	1	80	0	0	0	WM Stimuli\	0.9	839.666666666667	1	709.9	0.9	670.888888888889	1	567.2	1	785.2	0.8	610	1	644.4	1	636.1	13	316852	2	316840	26	39	316878	-999999	316854	0	26	TrialsPROC	BP_018_H13-T_BA.png	2	2	17	SessionSelectionList														lure	3	Body	0-Back	15	80	14	0	0	100	6	39	71659	3	14	58	69620	-1	70144	1	524	3	3	2039	53	71673	-54	0																17												
WM080112	298051_fnca	2	1	1	903037926	1	75.032	75.031	2.0.10.147	2.0.10.242	2.0.10.242	1.0.0.439	7	234	2	3	Verdana	1	80	0	0	0	WM Stimuli\	0.9	839.666666666667	1	709.9	0.9	670.888888888889	1	567.2	1	785.2	0.8	610	1	644.4	1	636.1	13	316852	2	316840	26	39	316878	-999999	316854	0	26	TrialsPROC	BP_013_BP7_BA.png	2	2	18	SessionSelectionList														target	2	Body	0-Back	16	80	15	0	0	100	1	38	74218	2	14	60	72180	-1	72785	1	605	2	2	2038	52	74232	-53	0																18												
WM080112	298051_fnca	2	1	1	903037926	1	75.032	75.031	2.0.10.147	2.0.10.242	2.0.10.242	1.0.0.439	7	234	2	3	Verdana	1	80	0	0	0	WM Stimuli\	0.9	839.666666666667	1	709.9	0.9	670.888888888889	1	567.2	1	785.2	0.8	610	1	644.4	1	636.1	13	316852	2	316840	26	39	316878	-999999	316854	0	26	TrialsPROC	BP_015_H10-T_BA.png	2	2	19	SessionSelectionList														lure	3	Body	0-Back	17	80	16	0	0	100	1	39	76777	2	14	58	74738	-1	75409	1	671	3	3	2039	53	76791	-54	0																19												
WM080112	298051_fnca	2	1	1	903037926	1	75.032	75.031	2.0.10.147	2.0.10.242	2.0.10.242	1.0.0.439	7	234	2	3	Verdana	1	80	0	0	0	WM Stimuli\	0.9	839.666666666667	1	709.9	0.9	670.888888888889	1	567.2	1	785.2	0.8	610	1	644.4	1	636.1	13	316852	2	316840	26	39	316878	-999999	316854	0	26	TrialsPROC	BP_016_H11-T_BA.png	2	2	20	SessionSelectionList														nonlure	3	Body	0-Back	18	80	17	0	0	100	2	40	79350	2	13	72	77310	-1	78145	1	835	3	3	2040	53	79363	-54	0																20												
WM080112	298051_fnca	2	1	1	903037926	1	75.032	75.031	2.0.10.147	2.0.10.242	2.0.10.242	1.0.0.439	7	234	2	3	Verdana	1	80	0	0	0	WM Stimuli\	0.9	839.666666666667	1	709.9	0.9	670.888888888889	1	567.2	1	785.2	0.8	610	1	644.4	1	636.1	13	316852	2	316840	26	39	316878	-999999	316854	0	26	TrialsPROC	BP_013_BP7_BA.png	2	2	21	SessionSelectionList														target	2	Body	0-Back	19	80	18	0	0	100	1	39	81909	1	13	60	79870	-1	80599	1	729	2	2	2039	52	81922	-53	0																21												
WM080112	298051_fnca	2	1	1	903037926	1	75.032	75.031	2.0.10.147	2.0.10.242	2.0.10.242	1.0.0.439	7	234	2	3	Verdana	1	80	0	0	0	WM Stimuli\	0.9	839.666666666667	1	709.9	0.9	670.888888888889	1	567.2	1	785.2	0.8	610	1	644.4	1	636.1	13	316852	2	316840	26	39	316878	-999999	316854	0	26	TrialsPROC	BP_017_H12-T_BA.png	2	2	22	SessionSelectionList														nonlure	3	Body	0-Back	20	80	19	0	0	100	1	39	84468	1	13	59	82429	-1	83224	1	795	3	3	2039	52	84481	-53	0																22												
WM080112	298051_fnca	2	1	1	903037926	1	75.032	75.031	2.0.10.147	2.0.10.242	2.0.10.242	1.0.0.439	7	234	2	3	Verdana	1	80	0	0	0	WM Stimuli\	0.9	839.666666666667	1	709.9	0.9	670.888888888889	1	567.2	1	785.2	0.8	610	1	644.4	1	636.1	13	316852	2	316840	26	39	316878	-999999	316854	0	26	TrialsPROC	BP_014_BP9_BA.png	2	2	23	SessionSelectionList														lure	3	Body	0-Back	21	80	20	0	0	100	2	39	87026	2	14	58	84987	-1	85684	1	697	3	3	2039	53	87040	-54	0																23												
WM080112	298051_fnca	2	1	1	903037926	1	75.032	75.031	2.0.10.147	2.0.10.242	2.0.10.242	1.0.0.439	7	234	2	3	Verdana	1	80	0	0	0	WM Stimuli\	0.9	839.666666666667	1	709.9	0.9	670.888888888889	1	567.2	1	785.2	0.8	610	1	644.4	1	636.1	13	316852	2	316840	26	39	316878	-999999	316854	0	27	Fix15secPROC	""	2	2	24	SessionSelectionList																																															6	87493	-7	0							24												
WM080112	298051_fnca	2	1	1	903037926	1	75.032	75.031	2.0.10.147	2.0.10.242	2.0.10.242	1.0.0.439	7	234	2	3	Verdana	1	80	0	0	0	WM Stimuli\	0.9	839.666666666667	1	709.9	0.9	670.888888888889	1	567.2	1	785.2	0.8	610	1	644.4	1	636.1	13	316852	2	316840	26	39	316878	-999999	316854	0	28	Cue2BackPROC	""	2	2	25	SessionSelectionList									13	102500	-14	0																																													25												
WM080112	298051_fnca	2	1	1	903037926	1	75.032	75.031	2.0.10.147	2.0.10.242	2.0.10.242	1.0.0.439	7	234	2	3	Verdana	1	80	0	0	0	WM Stimuli\	0.9	839.666666666667	1	709.9	0.9	670.888888888889	1	567.2	1	785.2	0.8	610	1	644.4	1	636.1	13	316852	2	316840	26	39	316878	-999999	316854	0	29	TrialsPROC	FC_015_M8.png	2	2	26	SessionSelectionList														nonlure	3	Face	2-Back	22	80	21	0	0	100	3	39	107098	3	14	72	105059	-1	105775	1	716	3	3	2039	53	107112	-54	0																26												
WM080112	298051_fnca	2	1	1	903037926	1	75.032	75.031	2.0.10.147	2.0.10.242	2.0.10.242	1.0.0.439	7	234	2	3	Verdana	1	80	0	0	0	WM Stimuli\	0.9	839.666666666667	1	709.9	0.9	670.888888888889	1	567.2	1	785.2	0.8	610	1	644.4	1	636.1	13	316852	2	316840	26	39	316878	-999999	316854	0	29	TrialsPROC	FC_018_F9.png	2	2	27	SessionSelectionList														nonlure	3	Face	2-Back	23	80	22	0	0	100	4	39	109670	2	14	72	107631	-1	107965	1	334	3	3	2039	53	109684	-54	0																27												
WM080112	298051_fnca	2	1	1	903037926	1	75.032	75.031	2.0.10.147	2.0.10.242	2.0.10.242	1.0.0.439	7	234	2	3	Verdana	1	80	0	0	0	WM Stimuli\	0.9	839.666666666667	1	709.9	0.9	670.888888888889	1	567.2	1	785.2	0.8	610	1	644.4	1	636.1	13	316852	2	316840	26	39	316878	-999999	316854	0	29	TrialsPROC	FC_018_F9.png	2	2	28	SessionSelectionList														lure	3	Face	2-Back	24	80	23	0	0	100	5	39	112243	2	13	73	110204	-1	110923	1	719	3	3	2039	52	112256	-53	0																28												
WM080112	298051_fnca	2	1	1	903037926	1	75.032	75.031	2.0.10.147	2.0.10.242	2.0.10.242	1.0.0.439	7	234	2	3	Verdana	1	80	0	0	0	WM Stimuli\	0.9	839.666666666667	1	709.9	0.9	670.888888888889	1	567.2	1	785.2	0.8	610	1	644.4	1	636.1	13	316852	2	316840	26	39	316878	-999999	316854	0	29	TrialsPROC	FC_017_M9.png	2	2	29	SessionSelectionList														nonlure	3	Face	2-Back	25	80	24	0	0	100	6	39	114815	2	13	72	112776	-1	113721	1	945	3	3	2039	52	114828	-53	0																29												
WM080112	298051_fnca	2	1	1	903037926	1	75.032	75.031	2.0.10.147	2.0.10.242	2.0.10.242	1.0.0.439	7	234	2	3	Verdana	1	80	0	0	0	WM Stimuli\	0.9	839.666666666667	1	709.9	0.9	670.888888888889	1	567.2	1	785.2	0.8	610	1	644.4	1	636.1	13	316852	2	316840	26	39	316878	-999999	316854	0	29	TrialsPROC	FC_017_M9.png	2	2	30	SessionSelectionList														lure	3	Face	2-Back	26	80	25	0	0	100	7	39	117387	2	14	72	115348	-1	116096	1	748	3	3	2039	53	117401	-54	0																30												
WM080112	298051_fnca	2	1	1	903037926	1	75.032	75.031	2.0.10.147	2.0.10.242	2.0.10.242	1.0.0.439	7	234	2	3	Verdana	1	80	0	0	0	WM Stimuli\	0.9	839.666666666667	1	709.9	0.9	670.888888888889	1	567.2	1	785.2	0.8	610	1	644.4	1	636.1	13	316852	2	316840	26	39	316878	-999999	316854	0	29	TrialsPROC	FC_016_F8.png	2	2	31	SessionSelectionList														nonlure	3	Face	2-Back	27	80	26	0	0	100	8	40	119960	1	13	72	117920	-1	118610	1	690	3	3	2040	53	119973	-54	0																31												
WM080112	298051_fnca	2	1	1	903037926	1	75.032	75.031	2.0.10.147	2.0.10.242	2.0.10.242	1.0.0.439	7	234	2	3	Verdana	1	80	0	0	0	WM Stimuli\	0.9	839.666666666667	1	709.9	0.9	670.888888888889	1	567.2	1	785.2	0.8	610	1	644.4	1	636.1	13	316852	2	316840	26	39	316878	-999999	316854	0	29	TrialsPROC	FC_013_M7.png	2	2	32	SessionSelectionList														nonlure	3	Face	2-Back	28	80	27	0	0	100	9	39	122532	1	13	73	120493	-1	121089	1	596	3	3	2039	52	122545	-53	0																32												
WM080112	298051_fnca	2	1	1	903037926	1	75.032	75.031	2.0.10.147	2.0.10.242	2.0.10.242	1.0.0.439	7	234	2	3	Verdana	1	80	0	0	0	WM Stimuli\	0.9	839.666666666667	1	709.9	0.9	670.888888888889	1	567.2	1	785.2	0.8	610	1	644.4	1	636.1	13	316852	2	316840	26	39	316878	-999999	316854	0	29	TrialsPROC	FC_014_F7.png	2	2	33	SessionSelectionList														nonlure	3	Face	2-Back	29	80	28	0	0	100	10	39	125104	1	14	72	123065	-1	123668	1	603	3	3	2039	53	125118	-54	0																33												
WM080112	298051_fnca	2	1	1	903037926	1	75.032	75.031	2.0.10.147	2.0.10.242	2.0.10.242	1.0.0.439	7	234	2	3	Verdana	1	80	0	0	0	WM Stimuli\	0.9	839.666666666667	1	709.9	0.9	670.888888888889	1	567.2	1	785.2	0.8	610	1	644.4	1	636.1	13	316852	2	316840	26	39	316878	-999999	316854	0	29	TrialsPROC	FC_013_M7.png	2	2	34	SessionSelectionList														target	2	Face	2-Back	30	80	29	0	0	100	1	39	127676	3	14	72	125637	-1	126324	1	687	2	2	2039	53	127690	-54	0																34												
WM080112	298051_fnca	2	1	1	903037926	1	75.032	75.031	2.0.10.147	2.0.10.242	2.0.10.242	1.0.0.439	7	234	2	3	Verdana	1	80	0	0	0	WM Stimuli\	0.9	839.666666666667	1	709.9	0.9	670.888888888889	1	567.2	1	785.2	0.8	610	1	644.4	1	636.1	13	316852	2	316840	26	39	316878	-999999	316854	0	29	TrialsPROC	FC_014_F7.png	2	2	35	SessionSelectionList														target	2	Face	2-Back	31	80	30	0	0	100	1	40	130249	2	13	72	128209	-1	128795	0	586	3	2	2040	53	130262	-54	0																35												
WM080112	298051_fnca	2	1	1	903037926	1	75.032	75.031	2.0.10.147	2.0.10.242	2.0.10.242	1.0.0.439	7	234	2	3	Verdana	1	80	0	0	0	WM Stimuli\	0.9	839.666666666667	1	709.9	0.9	670.888888888889	1	567.2	1	785.2	0.8	610	1	644.4	1	636.1	13	316852	2	316840	26	39	316878	-999999	316854	0	30	Cue0BackPROC	TO_019_TOOL19_BA.png	2	2	36	SessionSelectionList																																										33	130742	-34	0												36												
WM080112	298051_fnca	2	1	1	903037926	1	75.032	75.031	2.0.10.147	2.0.10.242	2.0.10.242	1.0.0.439	7	234	2	3	Verdana	1	80	0	0	0	WM Stimuli\	0.9	839.666666666667	1	709.9	0.9	670.888888888889	1	567.2	1	785.2	0.8	610	1	644.4	1	636.1	13	316852	2	316840	26	39	316878	-999999	316854	0	31	TrialsPROC	TO_019_TOOL19_BA.png	2	2	37	SessionSelectionList														target	2	Tools	0-Back	32	80	31	0	0	100	1	39	135300	1	13	52	133261	-1	134428	1	1167	2	2	2039	52	135313	-53	0																37												
WM080112	298051_fnca	2	1	1	903037926	1	75.032	75.031	2.0.10.147	2.0.10.242	2.0.10.242	1.0.0.439	7	234	2	3	Verdana	1	80	0	0	0	WM Stimuli\	0.9	839.666666666667	1	709.9	0.9	670.888888888889	1	567.2	1	785.2	0.8	610	1	644.4	1	636.1	13	316852	2	316840	26	39	316878	-999999	316854	0	31	TrialsPROC	TO_024_TOOL24_BA.png	2	2	38	SessionSelectionList														nonlure	3	Tools	0-Back	33	80	32	0	0	100	1	39	137872	2	14	72	135833	-1	136503	1	670	3	3	2039	53	137886	-54	0																38												
WM080112	298051_fnca	2	1	1	903037926	1	75.032	75.031	2.0.10.147	2.0.10.242	2.0.10.242	1.0.0.439	7	234	2	3	Verdana	1	80	0	0	0	WM Stimuli\	0.9	839.666666666667	1	709.9	0.9	670.888888888889	1	567.2	1	785.2	0.8	610	1	644.4	1	636.1	13	316852	2	316840	26	39	316878	-999999	316854	0	31	TrialsPROC	TO_019_TOOL19_BA.png	2	2	39	SessionSelectionList														target	2	Tools	0-Back	34	80	33	0	0	100	1	39	140431	2	14	59	138392	-1	139024	1	632	2	2	2039	53	140445	-54	0																39												
WM080112	298051_fnca	2	1	1	903037926	1	75.032	75.031	2.0.10.147	2.0.10.242	2.0.10.242	1.0.0.439	7	234	2	3	Verdana	1	80	0	0	0	WM Stimuli\	0.9	839.666666666667	1	709.9	0.9	670.888888888889	1	567.2	1	785.2	0.8	610	1	644.4	1	636.1	13	316852	2	316840	26	39	316878	-999999	316854	0	31	TrialsPROC	TO_023_TOOL23_BA.png	2	2	40	SessionSelectionList														nonlure	3	Tools	0-Back	35	80	34	0	0	100	1	39	143003	2	14	72	140964	-1	141500	1	536	3	3	2039	53	143017	-54	0																40												
WM080112	298051_fnca	2	1	1	903037926	1	75.032	75.031	2.0.10.147	2.0.10.242	2.0.10.242	1.0.0.439	7	234	2	3	Verdana	1	80	0	0	0	WM Stimuli\	0.9	839.666666666667	1	709.9	0.9	670.888888888889	1	567.2	1	785.2	0.8	610	1	644.4	1	636.1	13	316852	2	316840	26	39	316878	-999999	316854	0	31	TrialsPROC	TO_020_TOOL20_BA.png	2	2	41	SessionSelectionList														nonlure	3	Tools	0-Back	36	80	35	0	0	100	2	39	145589	2	13	86	143550	-1	144100	1	550	3	3	2039	52	145602	-53	0																41												
WM080112	298051_fnca	2	1	1	903037926	1	75.032	75.031	2.0.10.147	2.0.10.242	2.0.10.242	1.0.0.439	7	234	2	3	Verdana	1	80	0	0	0	WM Stimuli\	0.9	839.666666666667	1	709.9	0.9	670.888888888889	1	567.2	1	785.2	0.8	610	1	644.4	1	636.1	13	316852	2	316840	26	39	316878	-999999	316854	0	31	TrialsPROC	TO_020_TOOL20_BA.png	2	2	42	SessionSelectionList														lure	3	Tools	0-Back	37	80	36	0	0	100	3	39	148148	1	13	59	146109	-1	146648	1	539	3	3	2039	52	148161	-53	0																42												
WM080112	298051_fnca	2	1	1	903037926	1	75.032	75.031	2.0.10.147	2.0.10.242	2.0.10.242	1.0.0.439	7	234	2	3	Verdana	1	80	0	0	0	WM Stimuli\	0.9	839.666666666667	1	709.9	0.9	670.888888888889	1	567.2	1	785.2	0.8	610	1	644.4	1	636.1	13	316852	2	316840	26	39	316878	-999999	316854	0	31	TrialsPROC	TO_022_TOOL22_BA.png	2	2	43	SessionSelectionList														nonlure	3	Tools	0-Back	38	80	37	0	0	100	4	39	150720	2	14	72	148681	-1	149287	1	606	3	3	2039	53	150734	-54	0																43												
WM080112	298051_fnca	2	1	1	903037926	1	75.032	75.031	2.0.10.147	2.0.10.242	2.0.10.242	1.0.0.439	7	234	2	3	Verdana	1	80	0	0	0	WM Stimuli\	0.9	839.666666666667	1	709.9	0.9	670.888888888889	1	567.2	1	785.2	0.8	610	1	644.4	1	636.1	13	316852	2	316840	26	39	316878	-999999	316854	0	31	TrialsPROC	TO_022_TOOL22_BA.png	2	2	44	SessionSelectionList														lure	3	Tools	0-Back	39	80	38	0	0	100	5	39	153279	2	14	59	151240	-1	151718	1	478	3	3	2039	53	153293	-54	0																44												
WM080112	298051_fnca	2	1	1	903037926	1	75.032	75.031	2.0.10.147	2.0.10.242	2.0.10.242	1.0.0.439	7	234	2	3	Verdana	1	80	0	0	0	WM Stimuli\	0.9	839.666666666667	1	709.9	0.9	670.888888888889	1	567.2	1	785.2	0.8	610	1	644.4	1	636.1	13	316852	2	316840	26	39	316878	-999999	316854	0	31	TrialsPROC	TO_021_TOOL21_BA.png	2	2	45	SessionSelectionList														nonlure	3	Tools	0-Back	40	80	39	0	0	100	6	39	155851	3	14	72	153812	-1	154523	1	711	3	3	2039	53	155865	-54	0																45												
WM080112	298051_fnca	2	1	1	903037926	1	75.032	75.031	2.0.10.147	2.0.10.242	2.0.10.242	1.0.0.439	7	234	2	3	Verdana	1	80	0	0	0	WM Stimuli\	0.9	839.666666666667	1	709.9	0.9	670.888888888889	1	567.2	1	785.2	0.8	610	1	644.4	1	636.1	13	316852	2	316840	26	39	316878	-999999	316854	0	31	TrialsPROC	TO_021_TOOL21_BA.png	2	2	46	SessionSelectionList														lure	3	Tools	0-Back	41	80	40	0	0	100	7	39	158410	3	14	59	156371	-1	156843	1	472	3	3	2039	53	158424	-54	0																46												
WM080112	298051_fnca	2	1	1	903037926	1	75.032	75.031	2.0.10.147	2.0.10.242	2.0.10.242	1.0.0.439	7	234	2	3	Verdana	1	80	0	0	0	WM Stimuli\	0.9	839.666666666667	1	709.9	0.9	670.888888888889	1	567.2	1	785.2	0.8	610	1	644.4	1	636.1	13	316852	2	316840	26	39	316878	-999999	316854	0	32	Fix15secPROC	""	2	2	47	SessionSelectionList																																															6	158877	-7	0							47												
WM080112	298051_fnca	2	1	1	903037926	1	75.032	75.031	2.0.10.147	2.0.10.242	2.0.10.242	1.0.0.439	7	234	2	3	Verdana	1	80	0	0	0	WM Stimuli\	0.9	839.666666666667	1	709.9	0.9	670.888888888889	1	567.2	1	785.2	0.8	610	1	644.4	1	636.1	13	316852	2	316840	26	39	316878	-999999	316854	0	33	Cue2BackPROC	""	2	2	48	SessionSelectionList									13	173884	-14	0																																													48												
WM080112	298051_fnca	2	1	1	903037926	1	75.032	75.031	2.0.10.147	2.0.10.242	2.0.10.242	1.0.0.439	7	234	2	3	Verdana	1	80	0	0	0	WM Stimuli\	0.9	839.666666666667	1	709.9	0.9	670.888888888889	1	567.2	1	785.2	0.8	610	1	644.4	1	636.1	13	316852	2	316840	26	39	316878	-999999	316854	0	34	TrialsPROC	BP_020_H17-T_BA.png	2	2	49	SessionSelectionList														nonlure	3	Body	2-Back	42	80	41	0	0	100	8	39	178482	1	13	72	176443	-1	176941	1	498	3	3	2039	52	178495	-53	0																49												
WM080112	298051_fnca	2	1	1	903037926	1	75.032	75.031	2.0.10.147	2.0.10.242	2.0.10.242	1.0.0.439	7	234	2	3	Verdana	1	80	0	0	0	WM Stimuli\	0.9	839.666666666667	1	709.9	0.9	670.888888888889	1	567.2	1	785.2	0.8	610	1	644.4	1	636.1	13	316852	2	316840	26	39	316878	-999999	316854	0	34	TrialsPROC	BP_019_H14-T_BA.png	2	2	50	SessionSelectionList														nonlure	3	Body	2-Back	43	80	42	0	0	100	9	39	181041	1	13	59	179002	-1	179292	1	290	3	3	2039	52	181054	-53	0																50												
WM080112	298051_fnca	2	1	1	903037926	1	75.032	75.031	2.0.10.147	2.0.10.242	2.0.10.242	1.0.0.439	7	234	2	3	Verdana	1	80	0	0	0	WM Stimuli\	0.9	839.666666666667	1	709.9	0.9	670.888888888889	1	567.2	1	785.2	0.8	610	1	644.4	1	636.1	13	316852	2	316840	26	39	316878	-999999	316854	0	34	TrialsPROC	BP_020_H17-T_BA.png	2	2	51	SessionSelectionList														target	2	Body	2-Back	44	80	43	0	0	100	1	39	183600	1	13	59	181561	-1	182113	1	552	2	2	2039	52	183613	-53	0																51												
WM080112	298051_fnca	2	1	1	903037926	1	75.032	75.031	2.0.10.147	2.0.10.242	2.0.10.242	1.0.0.439	7	234	2	3	Verdana	1	80	0	0	0	WM Stimuli\	0.9	839.666666666667	1	709.9	0.9	670.888888888889	1	567.2	1	785.2	0.8	610	1	644.4	1	636.1	13	316852	2	316840	26	39	316878	-999999	316854	0	34	TrialsPROC	BP_019_H14-T_BA.png	2	2	52	SessionSelectionList														target	2	Body	2-Back	45	80	44	0	0	100	1	39	186159	2	13	59	184120	-1	184755	0	635	3	2	2039	52	186172	-53	0																52												
WM080112	298051_fnca	2	1	1	903037926	1	75.032	75.031	2.0.10.147	2.0.10.242	2.0.10.242	1.0.0.439	7	234	2	3	Verdana	1	80	0	0	0	WM Stimuli\	0.9	839.666666666667	1	709.9	0.9	670.888888888889	1	567.2	1	785.2	0.8	610	1	644.4	1	636.1	13	316852	2	316840	26	39	316878	-999999	316854	0	34	TrialsPROC	BP_024_H3-T_BA.png	2	2	53	SessionSelectionList														nonlure	3	Body	2-Back	46	80	45	0	0	100	2	39	188731	1	14	72	186692	-1	188230	1	1538	3	3	2039	53	188745	-54	0																53												
WM080112	298051_fnca	2	1	1	903037926	1	75.032	75.031	2.0.10.147	2.0.10.242	2.0.10.242	1.0.0.439	7	234	2	3	Verdana	1	80	0	0	0	WM Stimuli\	0.9	839.666666666667	1	709.9	0.9	670.888888888889	1	567.2	1	785.2	0.8	610	1	644.4	1	636.1	13	316852	2	316840	26	39	316878	-999999	316854	0	34	TrialsPROC	BP_024_H3-T_BA.png	2	2	54	SessionSelectionList														lure	3	Body	2-Back	47	80	46	0	0	100	3	39	191290	1	13	59	189251	-1	190015	1	764	3	3	2039	52	191303	-53	0																54												
WM080112	298051_fnca	2	1	1	903037926	1	75.032	75.031	2.0.10.147	2.0.10.242	2.0.10.242	1.0.0.439	7	234	2	3	Verdana	1	80	0	0	0	WM Stimuli\	0.9	839.666666666667	1	709.9	0.9	670.888888888889	1	567.2	1	785.2	0.8	610	1	644.4	1	636.1	13	316852	2	316840	26	39	316878	-999999	316854	0	34	TrialsPROC	BP_025_H5-T_BA.png	2	2	55	SessionSelectionList														nonlure	3	Body	2-Back	48	80	47	0	0	100	4	39	193849	2	13	59	191810	-1	193143	1	1333	3	3	2039	52	193862	-53	0																55												
WM080112	298051_fnca	2	1	1	903037926	1	75.032	75.031	2.0.10.147	2.0.10.242	2.0.10.242	1.0.0.439	7	234	2	3	Verdana	1	80	0	0	0	WM Stimuli\	0.9	839.666666666667	1	709.9	0.9	670.888888888889	1	567.2	1	785.2	0.8	610	1	644.4	1	636.1	13	316852	2	316840	26	39	316878	-999999	316854	0	34	TrialsPROC	BP_023_H25-T_BA.png	2	2	56	SessionSelectionList														nonlure	3	Body	2-Back	49	80	48	0	0	100	5	39	196421	3	14	72	194382	-1	195488	1	1106	3	3	2039	53	196435	-54	0																56												
WM080112	298051_fnca	2	1	1	903037926	1	75.032	75.031	2.0.10.147	2.0.10.242	2.0.10.242	1.0.0.439	7	234	2	3	Verdana	1	80	0	0	0	WM Stimuli\	0.9	839.666666666667	1	709.9	0.9	670.888888888889	1	567.2	1	785.2	0.8	610	1	644.4	1	636.1	13	316852	2	316840	26	39	316878	-999999	316854	0	34	TrialsPROC	BP_022_H24-T_BA.png	2	2	57	SessionSelectionList														nonlure	3	Body	2-Back	50	80	49	0	0	100	6	39	198980	3	14	59	196941	-1	197687	1	746	3	3	2039	53	198994	-54	0																57												
WM080112	298051_fnca	2	1	1	903037926	1	75.032	75.031	2.0.10.147	2.0.10.242	2.0.10.242	1.0.0.439	7	234	2	3	Verdana	1	80	0	0	0	WM Stimuli\	0.9	839.666666666667	1	709.9	0.9	670.888888888889	1	567.2	1	785.2	0.8	610	1	644.4	1	636.1	13	316852	2	316840	26	39	316878	-999999	316854	0	34	TrialsPROC	BP_022_H24-T_BA.png	2	2	58	SessionSelectionList														lure	3	Body	2-Back	51	80	50	0	0	100	7	39	201539	3	14	59	199500	-1	200230	1	730	3	3	2039	53	201553	-54	0																58												
WM080112	298051_fnca	2	1	1	903037926	1	75.032	75.031	2.0.10.147	2.0.10.242	2.0.10.242	1.0.0.439	7	234	2	3	Verdana	1	80	0	0	0	WM Stimuli\	0.9	839.666666666667	1	709.9	0.9	670.888888888889	1	567.2	1	785.2	0.8	610	1	644.4	1	636.1	13	316852	2	316840	26	39	316878	-999999	316854	0	35	Cue2BackPROC	""	2	2	59	SessionSelectionList									6	202006	-7	0																																													59												
WM080112	298051_fnca	2	1	1	903037926	1	75.032	75.031	2.0.10.147	2.0.10.242	2.0.10.242	1.0.0.439	7	234	2	3	Verdana	1	80	0	0	0	WM Stimuli\	0.9	839.666666666667	1	709.9	0.9	670.888888888889	1	567.2	1	785.2	0.8	610	1	644.4	1	636.1	13	316852	2	316840	26	39	316878	-999999	316854	0	36	TrialsPROC	PL_019_SCENE_05.png	2	2	60	SessionSelectionList														nonlure	3	Place	2-Back	52	80	51	0	0	100	8	39	206617	2	14	78	204578	-1	205997	1	1419	3	3	2039	53	206631	-54	0																60												
WM080112	298051_fnca	2	1	1	903037926	1	75.032	75.031	2.0.10.147	2.0.10.242	2.0.10.242	1.0.0.439	7	234	2	3	Verdana	1	80	0	0	0	WM Stimuli\	0.9	839.666666666667	1	709.9	0.9	670.888888888889	1	567.2	1	785.2	0.8	610	1	644.4	1	636.1	13	316852	2	316840	26	39	316878	-999999	316854	0	36	TrialsPROC	PL_017_SCENE_03.png	2	2	61	SessionSelectionList														nonlure	3	Place	2-Back	53	80	52	0	0	100	9	39	209203	2	13	86	207164	-1	207936	1	772	3	3	2039	52	209216	-53	0																61												
WM080112	298051_fnca	2	1	1	903037926	1	75.032	75.031	2.0.10.147	2.0.10.242	2.0.10.242	1.0.0.439	7	234	2	3	Verdana	1	80	0	0	0	WM Stimuli\	0.9	839.666666666667	1	709.9	0.9	670.888888888889	1	567.2	1	785.2	0.8	610	1	644.4	1	636.1	13	316852	2	316840	26	39	316878	-999999	316854	0	36	TrialsPROC	PL_017_SCENE_03.png	2	2	62	SessionSelectionList														lure	3	Place	2-Back	54	80	53	0	0	100	10	39	211775	2	13	72	209736	-1	210390	1	654	3	3	2039	52	211788	-53	0																62												
WM080112	298051_fnca	2	1	1	903037926	1	75.032	75.031	2.0.10.147	2.0.10.242	2.0.10.242	1.0.0.439	7	234	2	3	Verdana	1	80	0	0	0	WM Stimuli\	0.9	839.666666666667	1	709.9	0.9	670.888888888889	1	567.2	1	785.2	0.8	610	1	644.4	1	636.1	13	316852	2	316840	26	39	316878	-999999	316854	0	36	TrialsPROC	PL_016_SCENE_02.png	2	2	63	SessionSelectionList														nonlure	3	Place	2-Back	55	80	54	0	0	100	11	39	214347	2	14	72	212308	-1	212918	1	610	3	3	2039	53	214361	-54	0																63												
WM080112	298051_fnca	2	1	1	903037926	1	75.032	75.031	2.0.10.147	2.0.10.242	2.0.10.242	1.0.0.439	7	234	2	3	Verdana	1	80	0	0	0	WM Stimuli\	0.9	839.666666666667	1	709.9	0.9	670.888888888889	1	567.2	1	785.2	0.8	610	1	644.4	1	636.1	13	316852	2	316840	26	39	316878	-999999	316854	0	36	TrialsPROC	PL_015_SCENE_01.png	2	2	64	SessionSelectionList														nonlure	3	Place	2-Back	56	80	55	0	0	100	12	39	216919	2	14	72	214880	-1	215518	1	638	3	3	2039	53	216933	-54	0																64												
WM080112	298051_fnca	2	1	1	903037926	1	75.032	75.031	2.0.10.147	2.0.10.242	2.0.10.242	1.0.0.439	7	234	2	3	Verdana	1	80	0	0	0	WM Stimuli\	0.9	839.666666666667	1	709.9	0.9	670.888888888889	1	567.2	1	785.2	0.8	610	1	644.4	1	636.1	13	316852	2	316840	26	39	316878	-999999	316854	0	36	TrialsPROC	PL_016_SCENE_02.png	2	2	65	SessionSelectionList														target	2	Place	2-Back	57	80	56	0	0	100	1	39	219492	1	13	73	217453	-1	217916	1	463	2	2	2039	52	219505	-53	0																65												
WM080112	298051_fnca	2	1	1	903037926	1	75.032	75.031	2.0.10.147	2.0.10.242	2.0.10.242	1.0.0.439	7	234	2	3	Verdana	1	80	0	0	0	WM Stimuli\	0.9	839.666666666667	1	709.9	0.9	670.888888888889	1	567.2	1	785.2	0.8	610	1	644.4	1	636.1	13	316852	2	316840	26	39	316878	-999999	316854	0	36	TrialsPROC	PL_015_SCENE_01.png	2	2	66	SessionSelectionList														target	2	Place	2-Back	58	80	57	0	0	100	2	39	222064	1	13	72	220025	-1	221222	1	1197	2	2	2039	52	222077	-53	0																66												
WM080112	298051_fnca	2	1	1	903037926	1	75.032	75.031	2.0.10.147	2.0.10.242	2.0.10.242	1.0.0.439	7	234	2	3	Verdana	1	80	0	0	0	WM Stimuli\	0.9	839.666666666667	1	709.9	0.9	670.888888888889	1	567.2	1	785.2	0.8	610	1	644.4	1	636.1	13	316852	2	316840	26	39	316878	-999999	316854	0	36	TrialsPROC	PL_020_SCENE_06.png	2	2	67	SessionSelectionList														nonlure	3	Place	2-Back	59	80	58	0	0	100	1	40	224650	1	13	85	222610	-1	223177	1	567	3	3	2040	53	224663	-54	0																67												
WM080112	298051_fnca	2	1	1	903037926	1	75.032	75.031	2.0.10.147	2.0.10.242	2.0.10.242	1.0.0.439	7	234	2	3	Verdana	1	80	0	0	0	WM Stimuli\	0.9	839.666666666667	1	709.9	0.9	670.888888888889	1	567.2	1	785.2	0.8	610	1	644.4	1	636.1	13	316852	2	316840	26	39	316878	-999999	316854	0	36	TrialsPROC	PL_020_SCENE_06.png	2	2	68	SessionSelectionList														lure	3	Place	2-Back	60	80	59	0	0	100	2	39	227222	1	13	73	225183	-1	225926	1	743	3	3	2039	52	227235	-53	0																68												
WM080112	298051_fnca	2	1	1	903037926	1	75.032	75.031	2.0.10.147	2.0.10.242	2.0.10.242	1.0.0.439	7	234	2	3	Verdana	1	80	0	0	0	WM Stimuli\	0.9	839.666666666667	1	709.9	0.9	670.888888888889	1	567.2	1	785.2	0.8	610	1	644.4	1	636.1	13	316852	2	316840	26	39	316878	-999999	316854	0	36	TrialsPROC	PL_018_SCENE_04.png	2	2	69	SessionSelectionList														nonlure	3	Place	2-Back	61	80	60	0	0	100	3	39	229807	3	14	85	227768	-1	228557	1	789	3	3	2039	53	229821	-54	0																69												
WM080112	298051_fnca	2	1	1	903037926	1	75.032	75.031	2.0.10.147	2.0.10.242	2.0.10.242	1.0.0.439	7	234	2	3	Verdana	1	80	0	0	0	WM Stimuli\	0.9	839.666666666667	1	709.9	0.9	670.888888888889	1	567.2	1	785.2	0.8	610	1	644.4	1	636.1	13	316852	2	316840	26	39	316878	-999999	316854	0	37	Fix15secPROC	""	2	2	70	SessionSelectionList																																															6	230274	-7	0							70												
WM080112	298051_fnca	2	1	1	903037926	1	75.032	75.031	2.0.10.147	2.0.10.242	2.0.10.242	1.0.0.439	7	234	2	3	Verdana	1	80	0	0	0	WM Stimuli\	0.9	839.666666666667	1	709.9	0.9	670.888888888889	1	567.2	1	785.2	0.8	610	1	644.4	1	636.1	13	316852	2	316840	26	39	316878	-999999	316854	0	38	Cue0BackPROC	FC_020_F10.png	2	2	71	SessionSelectionList																																										40	245308	-41	0												71												
WM080112	298051_fnca	2	1	1	903037926	1	75.032	75.031	2.0.10.147	2.0.10.242	2.0.10.242	1.0.0.439	7	234	2	3	Verdana	1	80	0	0	0	WM Stimuli\	0.9	839.666666666667	1	709.9	0.9	670.888888888889	1	567.2	1	785.2	0.8	610	1	644.4	1	636.1	13	316852	2	316840	26	39	316878	-999999	316854	0	39	TrialsPROC	FC_024_F12.png	2	2	72	SessionSelectionList														nonlure	3	Face	0-Back	62	80	61	0	0	100	4	40	249893	1	13	85	247853	-1	248915	1	1062	3	3	2040	53	249906	-54	0																72												
WM080112	298051_fnca	2	1	1	903037926	1	75.032	75.031	2.0.10.147	2.0.10.242	2.0.10.242	1.0.0.439	7	234	2	3	Verdana	1	80	0	0	0	WM Stimuli\	0.9	839.666666666667	1	709.9	0.9	670.888888888889	1	567.2	1	785.2	0.8	610	1	644.4	1	636.1	13	316852	2	316840	26	39	316878	-999999	316854	0	39	TrialsPROC	FC_023_M12.png	2	2	73	SessionSelectionList														nonlure	3	Face	0-Back	63	80	62	0	0	100	5	39	252478	2	14	86	250439	-1	250936	1	497	3	3	2039	53	252492	-54	0																73												
WM080112	298051_fnca	2	1	1	903037926	1	75.032	75.031	2.0.10.147	2.0.10.242	2.0.10.242	1.0.0.439	7	234	2	3	Verdana	1	80	0	0	0	WM Stimuli\	0.9	839.666666666667	1	709.9	0.9	670.888888888889	1	567.2	1	785.2	0.8	610	1	644.4	1	636.1	13	316852	2	316840	26	39	316878	-999999	316854	0	39	TrialsPROC	FC_020_F10.png	2	2	74	SessionSelectionList														target	2	Face	0-Back	64	80	63	0	0	100	1	39	255050	3	14	72	253011	-1	253550	1	539	2	2	2039	53	255064	-54	0																74												
WM080112	298051_fnca	2	1	1	903037926	1	75.032	75.031	2.0.10.147	2.0.10.242	2.0.10.242	1.0.0.439	7	234	2	3	Verdana	1	80	0	0	0	WM Stimuli\	0.9	839.666666666667	1	709.9	0.9	670.888888888889	1	567.2	1	785.2	0.8	610	1	644.4	1	636.1	13	316852	2	316840	26	39	316878	-999999	316854	0	39	TrialsPROC	FC_024_F12.png	2	2	75	SessionSelectionList														lure	3	Face	0-Back	65	80	64	0	0	100	1	40	257623	2	13	72	255583	-1	256228	1	645	3	3	2040	53	257636	-54	0																75												
WM080112	298051_fnca	2	1	1	903037926	1	75.032	75.031	2.0.10.147	2.0.10.242	2.0.10.242	1.0.0.439	7	234	2	3	Verdana	1	80	0	0	0	WM Stimuli\	0.9	839.666666666667	1	709.9	0.9	670.888888888889	1	567.2	1	785.2	0.8	610	1	644.4	1	636.1	13	316852	2	316840	26	39	316878	-999999	316854	0	39	TrialsPROC	FC_020_F10.png	2	2	76	SessionSelectionList														target	2	Face	0-Back	66	80	65	0	0	100	1	39	260195	1	13	73	258156	-1	258720	1	564	2	2	2039	52	260208	-53	0																76												
WM080112	298051_fnca	2	1	1	903037926	1	75.032	75.031	2.0.10.147	2.0.10.242	2.0.10.242	1.0.0.439	7	234	2	3	Verdana	1	80	0	0	0	WM Stimuli\	0.9	839.666666666667	1	709.9	0.9	670.888888888889	1	567.2	1	785.2	0.8	610	1	644.4	1	636.1	13	316852	2	316840	26	39	316878	-999999	316854	0	39	TrialsPROC	FC_022_F11.png	2	2	77	SessionSelectionList														nonlure	3	Face	0-Back	67	80	66	0	0	100	1	40	262781	1	13	85	260741	-1	261299	1	558	3	3	2040	53	262794	-54	0																77												
WM080112	298051_fnca	2	1	1	903037926	1	75.032	75.031	2.0.10.147	2.0.10.242	2.0.10.242	1.0.0.439	7	234	2	3	Verdana	1	80	0	0	0	WM Stimuli\	0.9	839.666666666667	1	709.9	0.9	670.888888888889	1	567.2	1	785.2	0.8	610	1	644.4	1	636.1	13	316852	2	316840	26	39	316878	-999999	316854	0	39	TrialsPROC	FC_023_M12.png	2	2	78	SessionSelectionList														lure	3	Face	0-Back	68	80	67	0	0	100	2	39	265353	1	13	73	263314	-1	263832	1	518	3	3	2039	52	265366	-53	0																78												
WM080112	298051_fnca	2	1	1	903037926	1	75.032	75.031	2.0.10.147	2.0.10.242	2.0.10.242	1.0.0.439	7	234	2	3	Verdana	1	80	0	0	0	WM Stimuli\	0.9	839.666666666667	1	709.9	0.9	670.888888888889	1	567.2	1	785.2	0.8	610	1	644.4	1	636.1	13	316852	2	316840	26	39	316878	-999999	316854	0	39	TrialsPROC	FC_021_M11.png	2	2	79	SessionSelectionList														nonlure	3	Face	0-Back	69	80	68	0	0	100	3	39	267938	3	14	85	265899	-1	266383	1	484	3	3	2039	53	267952	-54	0																79												
WM080112	298051_fnca	2	1	1	903037926	1	75.032	75.031	2.0.10.147	2.0.10.242	2.0.10.242	1.0.0.439	7	234	2	3	Verdana	1	80	0	0	0	WM Stimuli\	0.9	839.666666666667	1	709.9	0.9	670.888888888889	1	567.2	1	785.2	0.8	610	1	644.4	1	636.1	13	316852	2	316840	26	39	316878	-999999	316854	0	39	TrialsPROC	FC_021_M11.png	2	2	80	SessionSelectionList														lure	3	Face	0-Back	70	80	69	0	0	100	4	39	270511	1	13	73	268472	-1	268860	1	388	3	3	2039	52	270524	-53	0																80												
WM080112	298051_fnca	2	1	1	903037926	1	75.032	75.031	2.0.10.147	2.0.10.242	2.0.10.242	1.0.0.439	7	234	2	3	Verdana	1	80	0	0	0	WM Stimuli\	0.9	839.666666666667	1	709.9	0.9	670.888888888889	1	567.2	1	785.2	0.8	610	1	644.4	1	636.1	13	316852	2	316840	26	39	316878	-999999	316854	0	39	TrialsPROC	FC_019_M10.png	2	2	81	SessionSelectionList														nonlure	3	Face	0-Back	71	80	70	0	0	100	5	39	273096	3	14	85	271057	-1	271474	1	417	3	3	2039	53	273110	-54	0																81												
WM080112	298051_fnca	2	1	1	903037926	1	75.032	75.031	2.0.10.147	2.0.10.242	2.0.10.242	1.0.0.439	7	234	2	3	Verdana	1	80	0	0	0	WM Stimuli\	0.9	839.666666666667	1	709.9	0.9	670.888888888889	1	567.2	1	785.2	0.8	610	1	644.4	1	636.1	13	316852	2	316840	26	39	316878	-999999	316854	0	40	Cue0BackPROC	PL_021_SCENE_07.png	2	2	82	SessionSelectionList																																										46	273603	-47	0												82												
WM080112	298051_fnca	2	1	1	903037926	1	75.032	75.031	2.0.10.147	2.0.10.242	2.0.10.242	1.0.0.439	7	234	2	3	Verdana	1	80	0	0	0	WM Stimuli\	0.9	839.666666666667	1	709.9	0.9	670.888888888889	1	567.2	1	785.2	0.8	610	1	644.4	1	636.1	13	316852	2	316840	26	39	316878	-999999	316854	0	41	TrialsPROC	PL_025_SCENE_18.png	2	2	83	SessionSelectionList														nonlure	3	Place	0-Back	72	80	71	0	0	100	6	39	278174	2	14	78	276135	-1	277096	1	961	3	3	2039	53	278188	-54	0																83												
WM080112	298051_fnca	2	1	1	903037926	1	75.032	75.031	2.0.10.147	2.0.10.242	2.0.10.242	1.0.0.439	7	234	2	3	Verdana	1	80	0	0	0	WM Stimuli\	0.9	839.666666666667	1	709.9	0.9	670.888888888889	1	567.2	1	785.2	0.8	610	1	644.4	1	636.1	13	316852	2	316840	26	39	316878	-999999	316854	0	41	TrialsPROC	PL_026_SCENE_24.png	2	2	84	SessionSelectionList														nonlure	3	Place	0-Back	73	80	72	0	0	100	7	39	280760	2	13	86	278721	-1	279359	1	638	3	3	2039	52	280773	-53	0																84												
WM080112	298051_fnca	2	1	1	903037926	1	75.032	75.031	2.0.10.147	2.0.10.242	2.0.10.242	1.0.0.439	7	234	2	3	Verdana	1	80	0	0	0	WM Stimuli\	0.9	839.666666666667	1	709.9	0.9	670.888888888889	1	567.2	1	785.2	0.8	610	1	644.4	1	636.1	13	316852	2	316840	26	39	316878	-999999	316854	0	41	TrialsPROC	PL_025_SCENE_18.png	2	2	85	SessionSelectionList														lure	3	Place	0-Back	74	80	73	0	0	100	8	39	283332	1	14	72	281293	-1	281840	1	547	3	3	2039	53	283346	-54	0																85												
WM080112	298051_fnca	2	1	1	903037926	1	75.032	75.031	2.0.10.147	2.0.10.242	2.0.10.242	1.0.0.439	7	234	2	3	Verdana	1	80	0	0	0	WM Stimuli\	0.9	839.666666666667	1	709.9	0.9	670.888888888889	1	567.2	1	785.2	0.8	610	1	644.4	1	636.1	13	316852	2	316840	26	39	316878	-999999	316854	0	41	TrialsPROC	PL_022_SCENE_08.png	2	2	86	SessionSelectionList														nonlure	3	Place	0-Back	75	80	74	0	0	100	9	39	285918	1	13	86	283879	-1	284300	1	421	3	3	2039	52	285931	-53	0																86												
WM080112	298051_fnca	2	1	1	903037926	1	75.032	75.031	2.0.10.147	2.0.10.242	2.0.10.242	1.0.0.439	7	234	2	3	Verdana	1	80	0	0	0	WM Stimuli\	0.9	839.666666666667	1	709.9	0.9	670.888888888889	1	567.2	1	785.2	0.8	610	1	644.4	1	636.1	13	316852	2	316840	26	39	316878	-999999	316854	0	41	TrialsPROC	PL_026_SCENE_24.png	2	2	87	SessionSelectionList														lure	3	Place	0-Back	76	80	75	0	0	100	10	39	288490	1	13	72	286451	-1	286927	1	476	3	3	2039	52	288503	-53	0																87												
WM080112	298051_fnca	2	1	1	903037926	1	75.032	75.031	2.0.10.147	2.0.10.242	2.0.10.242	1.0.0.439	7	234	2	3	Verdana	1	80	0	0	0	WM Stimuli\	0.9	839.666666666667	1	709.9	0.9	670.888888888889	1	567.2	1	785.2	0.8	610	1	644.4	1	636.1	13	316852	2	316840	26	39	316878	-999999	316854	0	41	TrialsPROC	PL_021_SCENE_07.png	2	2	88	SessionSelectionList														target	2	Place	0-Back	77	80	76	0	0	97	11	39	291062	2	14	72	289023	-1	290762	0	1739	3	2	2039	53	291076	-54	0																88												
WM080112	298051_fnca	2	1	1	903037926	1	75.032	75.031	2.0.10.147	2.0.10.242	2.0.10.242	1.0.0.439	7	234	2	3	Verdana	1	80	0	0	0	WM Stimuli\	0.9	839.666666666667	1	709.9	0.9	670.888888888889	1	567.2	1	785.2	0.8	610	1	644.4	1	636.1	13	316852	2	316840	26	39	316878	-999999	316854	0	41	TrialsPROC	PL_021_SCENE_07.png	2	2	89	SessionSelectionList														target	2	Place	0-Back	78	80	76	0	1	95	11	39	293634	2	14	72	291595	-1	0	0	0	""	2	2039	53	293648	-54	0																89												
WM080112	298051_fnca	2	1	1	903037926	1	75.032	75.031	2.0.10.147	2.0.10.242	2.0.10.242	1.0.0.439	7	234	2	3	Verdana	1	80	0	0	0	WM Stimuli\	0.9	839.666666666667	1	709.9	0.9	670.888888888889	1	567.2	1	785.2	0.8	610	1	644.4	1	636.1	13	316852	2	316840	26	39	316878	-999999	316854	0	41	TrialsPROC	PL_023_SCENE_09.png	2	2	90	SessionSelectionList														nonlure	3	Place	0-Back	79	80	77	0	0	95	1	39	296220	1	14	86	294181	-1	294771	1	590	3	3	2039	53	296234	-54	0																90												
WM080112	298051_fnca	2	1	1	903037926	1	75.032	75.031	2.0.10.147	2.0.10.242	2.0.10.242	1.0.0.439	7	234	2	3	Verdana	1	80	0	0	0	WM Stimuli\	0.9	839.666666666667	1	709.9	0.9	670.888888888889	1	567.2	1	785.2	0.8	610	1	644.4	1	636.1	13	316852	2	316840	26	39	316878	-999999	316854	0	41	TrialsPROC	PL_024_SCENE_10.png	2	2	91	SessionSelectionList														nonlure	3	Place	0-Back	80	80	78	0	0	95	2	40	298806	1	13	85	296766	-1	297559	1	793	3	3	2040	53	298819	-54	0																91												
WM080112	298051_fnca	2	1	1	903037926	1	75.032	75.031	2.0.10.147	2.0.10.242	2.0.10.242	1.0.0.439	7	234	2	3	Verdana	1	80	0	0	0	WM Stimuli\	0.9	839.666666666667	1	709.9	0.9	670.888888888889	1	567.2	1	785.2	0.8	610	1	644.4	1	636.1	13	316852	2	316840	26	39	316878	-999999	316854	0	41	TrialsPROC	PL_022_SCENE_08.png	2	2	92	SessionSelectionList														lure	3	Place	0-Back	80	80	79	0	0	95	3	39	301378	1	13	73	299339	-1	299793	1	454	3	3	2039	52	301391	-53	0																92												
WM080112	298051_fnca	2	1	1	903037926	1	75.032	75.031	2.0.10.147	2.0.10.242	2.0.10.242	1.0.0.439	7	234	2	3	Verdana	1	80	0	0	0	WM Stimuli\	0.9	839.666666666667	1	709.9	0.9	670.888888888889	1	567.2	1	785.2	0.8	610	1	644.4	1	636.1	13	316852	2	316840	26	39	316878	-999999	316854	0	42	Fix15secPROC	""	2	2	93	SessionSelectionList																																															6	301845	-7	0							93												
