ExperimentName	HCPID	RunNumber	Subject	Session	RandomSeed	Group	Laptop.RefreshRate	ScannerD2.RefreshRate	StudioVersion	RuntimeVersion	RuntimeVersionExpected	ExperimentVersion	triggercode	Allowed	Target	Nontarget	FontStyle	RunTrialNumber[Session]	TrialsPerRun[Session]	TotalRespGreater200[Session]	ConsecRTLess200[Session]	ConsecNonResp[Session]	StimuliDir	ACC_2_Back_Body	Avg_RT_For_Correct_Trials_2_Back_Body	ACC_0_Back_Body	Avg_RT_For_Correct_Trials_0_Back_Body	ACC_2_Back_Face	Avg_RT_For_Correct_Trials_2_Back_Face	ACC_0_Back_Face	Avg_RT_For_Correct_Trials_0_Back_Face	ACC_2_Back_Place	Avg_RT_For_Correct_Trials_2_Back_Place	ACC_0_Back_Place	Avg_RT_For_Correct_Trials_0_Back_Place	ACC_2_Back_Tools	Avg_RT_For_Correct_Trials_2_Back_Tools	ACC_0_Back_Tools	Avg_RT_For_Correct_Trials_0_Back_Tools	ExpInstrucFeelFreeToRest.OnsetDelay	ExpInstrucFeelFreeToRest.OnsetTime	ExpInstrucFeelFreeToRest.DurationError	ExpInstrucFeelFreeToRest.StartTime	ExpInstrucFeelFreeToRest.OnsetToOnsetTime	FeelFreeToRest.OnsetDelay	FeelFreeToRest.OnsetTime	FeelFreeToRest.DurationError	FeelFreeToRest.StartTime	FeelFreeToRest.OnsetToOnsetTime	SessionSelectionList	Procedure[Block]	Stimulus[Block]	RunNumberFilterValue	SessionSelectionList.Cycle	SessionSelectionList.Sample	Running[Block]	IntroButtonMap.OnsetDelay	IntroButtonMap.OnsetTime	IntroButtonMap.DurationError	IntroButtonMap.OnsetToOnsetTime	GetReady.OnsetDelay	GetReady.OnsetTime	GetReady.DurationError	GetReady.OnsetToOnsetTime	Cue2Back.OnsetDelay	Cue2Back.OnsetTime	Cue2Back.DurationError	Cue2Back.OnsetToOnsetTime	Run1Block1	TargetType	CorrectResponse	StimType	BlockType	RunTrialNumber[Block]	TrialsPerRun[Block]	TotalRespGreater200[Block]	ConsecRTLess200[Block]	ConsecNonResp[Block]	ControlAcc	ConsecSameResp	ExperimenterWindow.OnsetDelay	ExperimenterWindow.OnsetTime	ExperimenterWindow.DurationError	ExperimenterWindow.OnsetToOnsetTime	Stim.OnsetDelay	Stim.OnsetTime	Stim.DurationError	Stim.RTTime	Stim.ACC	Stim.RT	Stim.RESP	Stim.CRESP	Stim.OnsetToOnsetTime	Fix.OnsetDelay	Fix.OnsetTime	Fix.DurationError	Fix.OnsetToOnsetTime	CueTarget.OnsetDelay	CueTarget.OnsetTime	CueTarget.DurationError	CueTarget.OnsetToOnsetTime	Run1Block2	Fix15sec.OnsetDelay	Fix15sec.OnsetTime	Fix15sec.DurationError	Fix15sec.OnsetToOnsetTime	Run1Block3	Run1Block4	Run1Block5	Run1Block6	Run1Block7	Run1Block8	Block	Procedure[Trial]	Stimulus[Trial]	ReadyList	Running[Trial]	ReadyList.Cycle	ReadyList.Sample	SyncSlide.OnsetDelay	SyncSlide.OnsetTime	SyncSlide.DurationError	SyncSlide.FinishTime	SyncSlide.OnsetToOnsetTime	Trial
WM080112	245333_fnca	1	1	1	-372400631	1	75.035	75.031	2.0.10.147	2.0.10.242	2.0.10.242	1.0.0.439	7	234	2	3	Verdana	1	80	0	0	0	WM Stimuli\	0.9	931.888888888889	0.6	878	1	736.1	1	675.8	1	885	1	712.9	0.9	868.666666666667	1	702.8	12	561343	2	561332	27	39	561370	-999999	561345	0	1	TRSyncPROC	""	1	2	1	SessionSelectionList	131	35347	-999999	0	38	252751	-999999	0																																																	1	InitialTR	4	1	ReadyList	1	1	21	267545	-22	269523	0	1
WM080112	245333_fnca	1	1	1	-372400631	1	75.035	75.031	2.0.10.147	2.0.10.242	2.0.10.242	1.0.0.439	7	234	2	3	Verdana	1	80	0	0	0	WM Stimuli\	0.9	931.888888888889	0.6	878	1	736.1	1	675.8	1	885	1	712.9	0.9	868.666666666667	1	702.8	12	561343	2	561332	27	39	561370	-999999	561345	0	1	TRSyncPROC	""	1	2	1	SessionSelectionList	131	35347	-999999	0	38	252751	-999999	0																																																	1	InitialTR	3	2	ReadyList	1	2	20	269544	-21	271523	0	2
WM080112	245333_fnca	1	1	1	-372400631	1	75.035	75.031	2.0.10.147	2.0.10.242	2.0.10.242	1.0.0.439	7	234	2	3	Verdana	1	80	0	0	0	WM Stimuli\	0.9	931.888888888889	0.6	878	1	736.1	1	675.8	1	885	1	712.9	0.9	868.666666666667	1	702.8	12	561343	2	561332	27	39	561370	-999999	561345	0	1	TRSyncPROC	""	1	2	1	SessionSelectionList	131	35347	-999999	0	38	252751	-999999	0																																																	1	InitialTR	2	3	ReadyList	1	3	6	271530	-7	273523	0	3
WM080112	245333_fnca	1	1	1	-372400631	1	75.035	75.031	2.0.10.147	2.0.10.242	2.0.10.242	1.0.0.439	7	234	2	3	Verdana	1	80	0	0	0	WM Stimuli\	0.9	931.888888888889	0.6	878	1	736.1	1	675.8	1	885	1	712.9	0.9	868.666666666667	1	702.8	12	561343	2	561332	27	39	561370	-999999	561345	0	1	TRSyncPROC	""	1	2	1	SessionSelectionList	131	35347	-999999	0	38	252751	-999999	0																																																	1	InitialTR	1	4	ReadyList	1	4	5	273529	-6	275523	0	4
WM080112	245333_fnca	1	1	1	-372400631	1	75.035	75.031	2.0.10.147	2.0.10.242	2.0.10.242	1.0.0.439	7	234	2	3	Verdana	1	80	0	0	0	WM Stimuli\	0.9	931.888888888889	0.6	878	1	736.1	1	675.8	1	885	1	712.9	0.9	868.666666666667	1	702.8	12	561343	2	561332	27	39	561370	-999999	561345	0	2	Cue2BackPROC	""	1	2	2	SessionSelectionList									17	275541	-18	0																																													2												
WM080112	245333_fnca	1	1	1	-372400631	1	75.035	75.031	2.0.10.147	2.0.10.242	2.0.10.242	1.0.0.439	7	234	2	3	Verdana	1	80	0	0	0	WM Stimuli\	0.9	931.888888888889	0.6	878	1	736.1	1	675.8	1	885	1	712.9	0.9	868.666666666667	1	702.8	12	561343	2	561332	27	39	561370	-999999	561345	0	3	TrialsPROC	BP_002_BP10_BA.png	1	2	3	SessionSelectionList													1	nonlure	3	Body	2-Back	2	80	1	0	0	0	1	52	280166	3	14	90	278114	-1	279258	1	1144	3	3	2052	66	280180	-67	0																3												
WM080112	245333_fnca	1	1	1	-372400631	1	75.035	75.031	2.0.10.147	2.0.10.242	2.0.10.242	1.0.0.439	7	234	2	3	Verdana	1	80	0	0	0	WM Stimuli\	0.9	931.888888888889	0.6	878	1	736.1	1	675.8	1	885	1	712.9	0.9	868.666666666667	1	702.8	12	561343	2	561332	27	39	561370	-999999	561345	0	3	TrialsPROC	BP_001_BP1_BA.png	1	2	4	SessionSelectionList													2	nonlure	3	Body	2-Back	3	80	2	0	0	0	2	39	282725	2	14	72	280686	-1	281442	1	756	3	3	2039	53	282739	-54	0																4												
WM080112	245333_fnca	1	1	1	-372400631	1	75.035	75.031	2.0.10.147	2.0.10.242	2.0.10.242	1.0.0.439	7	234	2	3	Verdana	1	80	0	0	0	WM Stimuli\	0.9	931.888888888889	0.6	878	1	736.1	1	675.8	1	885	1	712.9	0.9	868.666666666667	1	702.8	12	561343	2	561332	27	39	561370	-999999	561345	0	3	TrialsPROC	BP_006_BP2_BA.png	1	2	5	SessionSelectionList													3	nonlure	3	Body	2-Back	4	80	3	0	0	0	3	39	285297	2	14	72	283258	-1	284125	1	867	3	3	2039	53	285311	-54	0																5												
WM080112	245333_fnca	1	1	1	-372400631	1	75.035	75.031	2.0.10.147	2.0.10.242	2.0.10.242	1.0.0.439	7	234	2	3	Verdana	1	80	0	0	0	WM Stimuli\	0.9	931.888888888889	0.6	878	1	736.1	1	675.8	1	885	1	712.9	0.9	868.666666666667	1	702.8	12	561343	2	561332	27	39	561370	-999999	561345	0	3	TrialsPROC	BP_001_BP1_BA.png	1	2	6	SessionSelectionList													4	target	2	Body	2-Back	5	80	4	0	0	0	1	40	287870	1	13	72	285830	-1	286411	1	581	2	2	2040	53	287883	-54	0																6												
WM080112	245333_fnca	1	1	1	-372400631	1	75.035	75.031	2.0.10.147	2.0.10.242	2.0.10.242	1.0.0.439	7	234	2	3	Verdana	1	80	0	0	0	WM Stimuli\	0.9	931.888888888889	0.6	878	1	736.1	1	675.8	1	885	1	712.9	0.9	868.666666666667	1	702.8	12	561343	2	561332	27	39	561370	-999999	561345	0	3	TrialsPROC	BP_005_BP19_BA.png	1	2	7	SessionSelectionList													5	nonlure	3	Body	2-Back	6	80	5	0	0	0	2	39	290455	2	14	86	288416	-1	289541	0	1125	2	3	2039	53	290469	-54	0																7												
WM080112	245333_fnca	1	1	1	-372400631	1	75.035	75.031	2.0.10.147	2.0.10.242	2.0.10.242	1.0.0.439	7	234	2	3	Verdana	1	80	0	0	0	WM Stimuli\	0.9	931.888888888889	0.6	878	1	736.1	1	675.8	1	885	1	712.9	0.9	868.666666666667	1	702.8	12	561343	2	561332	27	39	561370	-999999	561345	0	3	TrialsPROC	BP_003_BP16_BA.png	1	2	8	SessionSelectionList													6	nonlure	3	Body	2-Back	7	80	6	0	0	0	1	39	293027	2	14	72	290988	-1	292332	1	1344	3	3	2039	53	293041	-54	0																8												
WM080112	245333_fnca	1	1	1	-372400631	1	75.035	75.031	2.0.10.147	2.0.10.242	2.0.10.242	1.0.0.439	7	234	2	3	Verdana	1	80	0	0	0	WM Stimuli\	0.9	931.888888888889	0.6	878	1	736.1	1	675.8	1	885	1	712.9	0.9	868.666666666667	1	702.8	12	561343	2	561332	27	39	561370	-999999	561345	0	3	TrialsPROC	BP_006_BP2_BA.png	1	2	9	SessionSelectionList													7	lure	3	Body	2-Back	8	80	7	0	0	0	2	39	295586	2	14	59	293547	-1	294785	1	1238	3	3	2039	53	295600	-54	0																9												
WM080112	245333_fnca	1	1	1	-372400631	1	75.035	75.031	2.0.10.147	2.0.10.242	2.0.10.242	1.0.0.439	7	234	2	3	Verdana	1	80	0	0	0	WM Stimuli\	0.9	931.888888888889	0.6	878	1	736.1	1	675.8	1	885	1	712.9	0.9	868.666666666667	1	702.8	12	561343	2	561332	27	39	561370	-999999	561345	0	3	TrialsPROC	BP_004_BP18_BA.png	1	2	10	SessionSelectionList													8	nonlure	3	Body	2-Back	9	80	8	0	0	0	3	40	298159	1	13	72	296119	-1	296855	1	736	3	3	2040	53	298172	-54	0																10												
WM080112	245333_fnca	1	1	1	-372400631	1	75.035	75.031	2.0.10.147	2.0.10.242	2.0.10.242	1.0.0.439	7	234	2	3	Verdana	1	80	0	0	0	WM Stimuli\	0.9	931.888888888889	0.6	878	1	736.1	1	675.8	1	885	1	712.9	0.9	868.666666666667	1	702.8	12	561343	2	561332	27	39	561370	-999999	561345	0	3	TrialsPROC	BP_005_BP19_BA.png	1	2	11	SessionSelectionList													9	lure	3	Body	2-Back	10	80	9	0	0	0	4	39	300718	1	13	60	298679	-1	299815	1	1136	3	3	2039	52	300731	-53	0																11												
WM080112	245333_fnca	1	1	1	-372400631	1	75.035	75.031	2.0.10.147	2.0.10.242	2.0.10.242	1.0.0.439	7	234	2	3	Verdana	1	80	0	0	0	WM Stimuli\	0.9	931.888888888889	0.6	878	1	736.1	1	675.8	1	885	1	712.9	0.9	868.666666666667	1	702.8	12	561343	2	561332	27	39	561370	-999999	561345	0	3	TrialsPROC	BP_004_BP18_BA.png	1	2	12	SessionSelectionList													10	target	2	Body	2-Back	11	80	10	0	0	0	1	40	303277	1	13	58	301237	-1	301822	1	585	2	2	2040	53	303290	-54	0																12												
WM080112	245333_fnca	1	1	1	-372400631	1	75.035	75.031	2.0.10.147	2.0.10.242	2.0.10.242	1.0.0.439	7	234	2	3	Verdana	1	80	0	0	0	WM Stimuli\	0.9	931.888888888889	0.6	878	1	736.1	1	675.8	1	885	1	712.9	0.9	868.666666666667	1	702.8	12	561343	2	561332	27	39	561370	-999999	561345	0	4	Cue0BackPROC	FC_001_M1.png	1	2	13	SessionSelectionList																																										46	303783	-47	0												13												
WM080112	245333_fnca	1	1	1	-372400631	1	75.035	75.031	2.0.10.147	2.0.10.242	2.0.10.242	1.0.0.439	7	234	2	3	Verdana	1	80	0	0	0	WM Stimuli\	0.9	931.888888888889	0.6	878	1	736.1	1	675.8	1	885	1	712.9	0.9	868.666666666667	1	702.8	12	561343	2	561332	27	39	561370	-999999	561345	0	5	TrialsPROC	FC_005_M3.png	1	2	14	SessionSelectionList														nonlure	3	Face	0-Back	12	80	11	0	0	100	1	39	308354	2	14	78	306315	-1	307619	1	1304	3	3	2039	53	308368	-54	0					1											14												
WM080112	245333_fnca	1	1	1	-372400631	1	75.035	75.031	2.0.10.147	2.0.10.242	2.0.10.242	1.0.0.439	7	234	2	3	Verdana	1	80	0	0	0	WM Stimuli\	0.9	931.888888888889	0.6	878	1	736.1	1	675.8	1	885	1	712.9	0.9	868.666666666667	1	702.8	12	561343	2	561332	27	39	561370	-999999	561345	0	5	TrialsPROC	FC_001_M1.png	1	2	15	SessionSelectionList														target	2	Face	0-Back	13	80	12	0	0	100	1	39	310927	1	13	73	308888	-1	309389	1	501	2	2	2039	52	310940	-53	0					2											15												
WM080112	245333_fnca	1	1	1	-372400631	1	75.035	75.031	2.0.10.147	2.0.10.242	2.0.10.242	1.0.0.439	7	234	2	3	Verdana	1	80	0	0	0	WM Stimuli\	0.9	931.888888888889	0.6	878	1	736.1	1	675.8	1	885	1	712.9	0.9	868.666666666667	1	702.8	12	561343	2	561332	27	39	561370	-999999	561345	0	5	TrialsPROC	FC_003_M2.png	1	2	16	SessionSelectionList														nonlure	3	Face	0-Back	14	80	13	0	0	100	1	39	313512	2	14	85	311473	-1	312244	1	771	3	3	2039	53	313526	-54	0					3											16												
WM080112	245333_fnca	1	1	1	-372400631	1	75.035	75.031	2.0.10.147	2.0.10.242	2.0.10.242	1.0.0.439	7	234	2	3	Verdana	1	80	0	0	0	WM Stimuli\	0.9	931.888888888889	0.6	878	1	736.1	1	675.8	1	885	1	712.9	0.9	868.666666666667	1	702.8	12	561343	2	561332	27	39	561370	-999999	561345	0	5	TrialsPROC	FC_004_F2.png	1	2	17	SessionSelectionList														nonlure	3	Face	0-Back	15	80	14	0	0	100	2	40	316085	1	13	72	314045	-1	314641	1	596	3	3	2040	53	316098	-54	0					4											17												
WM080112	245333_fnca	1	1	1	-372400631	1	75.035	75.031	2.0.10.147	2.0.10.242	2.0.10.242	1.0.0.439	7	234	2	3	Verdana	1	80	0	0	0	WM Stimuli\	0.9	931.888888888889	0.6	878	1	736.1	1	675.8	1	885	1	712.9	0.9	868.666666666667	1	702.8	12	561343	2	561332	27	39	561370	-999999	561345	0	5	TrialsPROC	FC_004_F2.png	1	2	18	SessionSelectionList														lure	3	Face	0-Back	16	80	15	0	0	100	3	39	318657	1	14	73	316618	-1	317161	1	543	3	3	2039	53	318671	-54	0					5											18												
WM080112	245333_fnca	1	1	1	-372400631	1	75.035	75.031	2.0.10.147	2.0.10.242	2.0.10.242	1.0.0.439	7	234	2	3	Verdana	1	80	0	0	0	WM Stimuli\	0.9	931.888888888889	0.6	878	1	736.1	1	675.8	1	885	1	712.9	0.9	868.666666666667	1	702.8	12	561343	2	561332	27	39	561370	-999999	561345	0	5	TrialsPROC	FC_001_M1.png	1	2	19	SessionSelectionList														target	2	Face	0-Back	17	80	16	0	0	100	1	39	321229	2	14	72	319190	-1	319693	1	503	2	2	2039	53	321243	-54	0					6											19												
WM080112	245333_fnca	1	1	1	-372400631	1	75.035	75.031	2.0.10.147	2.0.10.242	2.0.10.242	1.0.0.439	7	234	2	3	Verdana	1	80	0	0	0	WM Stimuli\	0.9	931.888888888889	0.6	878	1	736.1	1	675.8	1	885	1	712.9	0.9	868.666666666667	1	702.8	12	561343	2	561332	27	39	561370	-999999	561345	0	5	TrialsPROC	FC_006_F3.png	1	2	20	SessionSelectionList														nonlure	3	Face	0-Back	18	80	17	0	0	100	1	39	323815	1	13	86	321776	-1	322378	1	602	3	3	2039	52	323828	-53	0					7											20												
WM080112	245333_fnca	1	1	1	-372400631	1	75.035	75.031	2.0.10.147	2.0.10.242	2.0.10.242	1.0.0.439	7	234	2	3	Verdana	1	80	0	0	0	WM Stimuli\	0.9	931.888888888889	0.6	878	1	736.1	1	675.8	1	885	1	712.9	0.9	868.666666666667	1	702.8	12	561343	2	561332	27	39	561370	-999999	561345	0	5	TrialsPROC	FC_006_F3.png	1	2	21	SessionSelectionList														lure	3	Face	0-Back	19	80	18	0	0	100	2	39	326387	1	14	72	324348	-1	324921	1	573	3	3	2039	53	326401	-54	0					8											21												
WM080112	245333_fnca	1	1	1	-372400631	1	75.035	75.031	2.0.10.147	2.0.10.242	2.0.10.242	1.0.0.439	7	234	2	3	Verdana	1	80	0	0	0	WM Stimuli\	0.9	931.888888888889	0.6	878	1	736.1	1	675.8	1	885	1	712.9	0.9	868.666666666667	1	702.8	12	561343	2	561332	27	39	561370	-999999	561345	0	5	TrialsPROC	FC_003_M2.png	1	2	22	SessionSelectionList														lure	3	Face	0-Back	20	80	19	0	0	100	3	39	328959	2	14	72	326920	-1	327667	1	747	3	3	2039	53	328973	-54	0					9											22												
WM080112	245333_fnca	1	1	1	-372400631	1	75.035	75.031	2.0.10.147	2.0.10.242	2.0.10.242	1.0.0.439	7	234	2	3	Verdana	1	80	0	0	0	WM Stimuli\	0.9	931.888888888889	0.6	878	1	736.1	1	675.8	1	885	1	712.9	0.9	868.666666666667	1	702.8	12	561343	2	561332	27	39	561370	-999999	561345	0	5	TrialsPROC	FC_002_F1.png	1	2	23	SessionSelectionList														nonlure	3	Face	0-Back	21	80	20	0	0	100	4	39	331545	1	14	86	329506	-1	330124	1	618	3	3	2039	53	331559	-54	0					10											23												
WM080112	245333_fnca	1	1	1	-372400631	1	75.035	75.031	2.0.10.147	2.0.10.242	2.0.10.242	1.0.0.439	7	234	2	3	Verdana	1	80	0	0	0	WM Stimuli\	0.9	931.888888888889	0.6	878	1	736.1	1	675.8	1	885	1	712.9	0.9	868.666666666667	1	702.8	12	561343	2	561332	27	39	561370	-999999	561345	0	6	Fix15secPROC	""	1	2	24	SessionSelectionList																																															6	332012	-7	0							24												
WM080112	245333_fnca	1	1	1	-372400631	1	75.035	75.031	2.0.10.147	2.0.10.242	2.0.10.242	1.0.0.439	7	234	2	3	Verdana	1	80	0	0	0	WM Stimuli\	0.9	931.888888888889	0.6	878	1	736.1	1	675.8	1	885	1	712.9	0.9	868.666666666667	1	702.8	12	561343	2	561332	27	39	561370	-999999	561345	0	7	Cue2BackPROC	""	1	2	25	SessionSelectionList									12	347018	-13	0																																													25												
WM080112	245333_fnca	1	1	1	-372400631	1	75.035	75.031	2.0.10.147	2.0.10.242	2.0.10.242	1.0.0.439	7	234	2	3	Verdana	1	80	0	0	0	WM Stimuli\	0.9	931.888888888889	0.6	878	1	736.1	1	675.8	1	885	1	712.9	0.9	868.666666666667	1	702.8	12	561343	2	561332	27	39	561370	-999999	561345	0	8	TrialsPROC	TO_001_TOOL1_BA.png	1	2	26	SessionSelectionList														nonlure	3	Tools	2-Back	22	80	21	0	0	100	5	39	351630	1	14	85	349591	-1	350711	1	1120	3	3	2039	53	351644	-54	0										1						26												
WM080112	245333_fnca	1	1	1	-372400631	1	75.035	75.031	2.0.10.147	2.0.10.242	2.0.10.242	1.0.0.439	7	234	2	3	Verdana	1	80	0	0	0	WM Stimuli\	0.9	931.888888888889	0.6	878	1	736.1	1	675.8	1	885	1	712.9	0.9	868.666666666667	1	702.8	12	561343	2	561332	27	39	561370	-999999	561345	0	8	TrialsPROC	TO_002_TOOL2_BA.png	1	2	27	SessionSelectionList														nonlure	3	Tools	2-Back	23	80	22	0	0	100	6	39	354202	2	14	72	352163	-1	352660	1	497	3	3	2039	53	354216	-54	0										2						27												
WM080112	245333_fnca	1	1	1	-372400631	1	75.035	75.031	2.0.10.147	2.0.10.242	2.0.10.242	1.0.0.439	7	234	2	3	Verdana	1	80	0	0	0	WM Stimuli\	0.9	931.888888888889	0.6	878	1	736.1	1	675.8	1	885	1	712.9	0.9	868.666666666667	1	702.8	12	561343	2	561332	27	39	561370	-999999	561345	0	8	TrialsPROC	TO_004_TOOL4_BA.png	1	2	28	SessionSelectionList														nonlure	3	Tools	2-Back	24	80	23	0	0	100	7	39	356774	2	14	72	354735	-1	355583	1	848	3	3	2039	53	356788	-54	0										3						28												
WM080112	245333_fnca	1	1	1	-372400631	1	75.035	75.031	2.0.10.147	2.0.10.242	2.0.10.242	1.0.0.439	7	234	2	3	Verdana	1	80	0	0	0	WM Stimuli\	0.9	931.888888888889	0.6	878	1	736.1	1	675.8	1	885	1	712.9	0.9	868.666666666667	1	702.8	12	561343	2	561332	27	39	561370	-999999	561345	0	8	TrialsPROC	TO_002_TOOL2_BA.png	1	2	29	SessionSelectionList														target	2	Tools	2-Back	25	80	24	0	0	100	1	39	359333	2	14	59	357294	-1	357959	1	665	2	2	2039	53	359347	-54	0										4						29												
WM080112	245333_fnca	1	1	1	-372400631	1	75.035	75.031	2.0.10.147	2.0.10.242	2.0.10.242	1.0.0.439	7	234	2	3	Verdana	1	80	0	0	0	WM Stimuli\	0.9	931.888888888889	0.6	878	1	736.1	1	675.8	1	885	1	712.9	0.9	868.666666666667	1	702.8	12	561343	2	561332	27	39	561370	-999999	561345	0	8	TrialsPROC	TO_001_TOOL1_BA.png	1	2	30	SessionSelectionList														lure	3	Tools	2-Back	26	80	25	0	0	100	1	39	361892	2	14	59	359853	-1	360971	1	1118	3	3	2039	53	361906	-54	0										5						30												
WM080112	245333_fnca	1	1	1	-372400631	1	75.035	75.031	2.0.10.147	2.0.10.242	2.0.10.242	1.0.0.439	7	234	2	3	Verdana	1	80	0	0	0	WM Stimuli\	0.9	931.888888888889	0.6	878	1	736.1	1	675.8	1	885	1	712.9	0.9	868.666666666667	1	702.8	12	561343	2	561332	27	39	561370	-999999	561345	0	8	TrialsPROC	TO_004_TOOL4_BA.png	1	2	31	SessionSelectionList														lure	3	Tools	2-Back	27	80	26	0	0	100	1	39	364451	2	14	59	362412	-1	362974	0	562	2	3	2039	53	364465	-54	0										6						31												
WM080112	245333_fnca	1	1	1	-372400631	1	75.035	75.031	2.0.10.147	2.0.10.242	2.0.10.242	1.0.0.439	7	234	2	3	Verdana	1	80	0	0	0	WM Stimuli\	0.9	931.888888888889	0.6	878	1	736.1	1	675.8	1	885	1	712.9	0.9	868.666666666667	1	702.8	12	561343	2	561332	27	39	561370	-999999	561345	0	8	TrialsPROC	TO_006_TOOL6_BA.png	1	2	32	SessionSelectionList														nonlure	3	Tools	2-Back	28	80	27	0	0	100	1	40	367024	1	13	72	364984	-1	365953	1	969	3	3	2040	53	367037	-54	0										7						32												
WM080112	245333_fnca	1	1	1	-372400631	1	75.035	75.031	2.0.10.147	2.0.10.242	2.0.10.242	1.0.0.439	7	234	2	3	Verdana	1	80	0	0	0	WM Stimuli\	0.9	931.888888888889	0.6	878	1	736.1	1	675.8	1	885	1	712.9	0.9	868.666666666667	1	702.8	12	561343	2	561332	27	39	561370	-999999	561345	0	8	TrialsPROC	TO_005_TOOL5_BA.png	1	2	33	SessionSelectionList														nonlure	3	Tools	2-Back	29	80	28	0	0	100	2	39	369596	1	14	73	367557	-1	368386	1	829	3	3	2039	53	369610	-54	0										8						33												
WM080112	245333_fnca	1	1	1	-372400631	1	75.035	75.031	2.0.10.147	2.0.10.242	2.0.10.242	1.0.0.439	7	234	2	3	Verdana	1	80	0	0	0	WM Stimuli\	0.9	931.888888888889	0.6	878	1	736.1	1	675.8	1	885	1	712.9	0.9	868.666666666667	1	702.8	12	561343	2	561332	27	39	561370	-999999	561345	0	8	TrialsPROC	TO_006_TOOL6_BA.png	1	2	34	SessionSelectionList														target	2	Tools	2-Back	30	80	29	0	0	100	1	39	372155	1	14	59	370116	-1	370716	1	600	2	2	2039	53	372169	-54	0										9						34												
WM080112	245333_fnca	1	1	1	-372400631	1	75.035	75.031	2.0.10.147	2.0.10.242	2.0.10.242	1.0.0.439	7	234	2	3	Verdana	1	80	0	0	0	WM Stimuli\	0.9	931.888888888889	0.6	878	1	736.1	1	675.8	1	885	1	712.9	0.9	868.666666666667	1	702.8	12	561343	2	561332	27	39	561370	-999999	561345	0	8	TrialsPROC	TO_003_TOOL3_BA.png	1	2	35	SessionSelectionList														nonlure	3	Tools	2-Back	31	80	30	0	0	100	1	39	374740	2	14	85	372701	-1	373873	1	1172	3	3	2039	53	374754	-54	0										10						35												
WM080112	245333_fnca	1	1	1	-372400631	1	75.035	75.031	2.0.10.147	2.0.10.242	2.0.10.242	1.0.0.439	7	234	2	3	Verdana	1	80	0	0	0	WM Stimuli\	0.9	931.888888888889	0.6	878	1	736.1	1	675.8	1	885	1	712.9	0.9	868.666666666667	1	702.8	12	561343	2	561332	27	39	561370	-999999	561345	0	9	Cue0BackPROC	BP_007_BP20_BA.png	1	2	36	SessionSelectionList																																										33	375234	-34	0												36												
WM080112	245333_fnca	1	1	1	-372400631	1	75.035	75.031	2.0.10.147	2.0.10.242	2.0.10.242	1.0.0.439	7	234	2	3	Verdana	1	80	0	0	0	WM Stimuli\	0.9	931.888888888889	0.6	878	1	736.1	1	675.8	1	885	1	712.9	0.9	868.666666666667	1	702.8	12	561343	2	561332	27	39	561370	-999999	561345	0	10	TrialsPROC	BP_007_BP20_BA.png	1	2	37	SessionSelectionList														target	2	Body	0-Back	32	80	30	0	1	91	1	40	379792	1	13	51	377752	-1	0	0	0	""	2	2040	53	379805	-54	0											1					37												
WM080112	245333_fnca	1	1	1	-372400631	1	75.035	75.031	2.0.10.147	2.0.10.242	2.0.10.242	1.0.0.439	7	234	2	3	Verdana	1	80	0	0	0	WM Stimuli\	0.9	931.888888888889	0.6	878	1	736.1	1	675.8	1	885	1	712.9	0.9	868.666666666667	1	702.8	12	561343	2	561332	27	39	561370	-999999	561345	0	10	TrialsPROC	BP_011_BP4_BA.png	1	2	38	SessionSelectionList														nonlure	3	Body	0-Back	33	80	30	0	2	83	1	39	382364	1	14	73	380325	-1	0	0	0	""	3	2039	53	382378	-54	0											2					38												
WM080112	245333_fnca	1	1	1	-372400631	1	75.035	75.031	2.0.10.147	2.0.10.242	2.0.10.242	1.0.0.439	7	234	2	3	Verdana	1	80	0	0	0	WM Stimuli\	0.9	931.888888888889	0.6	878	1	736.1	1	675.8	1	885	1	712.9	0.9	868.666666666667	1	702.8	12	561343	2	561332	27	39	561370	-999999	561345	0	10	TrialsPROC	BP_010_BP3_BA.png	1	2	39	SessionSelectionList														nonlure	3	Body	0-Back	34	80	31	0	0	85	1	39	384936	2	14	72	382897	-1	383741	1	844	3	3	2039	53	384950	-54	0											3					39												
WM080112	245333_fnca	1	1	1	-372400631	1	75.035	75.031	2.0.10.147	2.0.10.242	2.0.10.242	1.0.0.439	7	234	2	3	Verdana	1	80	0	0	0	WM Stimuli\	0.9	931.888888888889	0.6	878	1	736.1	1	675.8	1	885	1	712.9	0.9	868.666666666667	1	702.8	12	561343	2	561332	27	39	561370	-999999	561345	0	10	TrialsPROC	BP_008_BP21_BA.png	1	2	40	SessionSelectionList														nonlure	3	Body	0-Back	35	80	32	0	0	86	2	39	387508	2	14	72	385469	-1	386422	1	953	3	3	2039	53	387522	-54	0											4					40												
WM080112	245333_fnca	1	1	1	-372400631	1	75.035	75.031	2.0.10.147	2.0.10.242	2.0.10.242	1.0.0.439	7	234	2	3	Verdana	1	80	0	0	0	WM Stimuli\	0.9	931.888888888889	0.6	878	1	736.1	1	675.8	1	885	1	712.9	0.9	868.666666666667	1	702.8	12	561343	2	561332	27	39	561370	-999999	561345	0	10	TrialsPROC	BP_011_BP4_BA.png	1	2	41	SessionSelectionList														lure	3	Body	0-Back	36	80	33	0	0	80	1	38	390067	2	14	60	388029	-1	389138	0	1109	2	3	2038	52	390081	-53	0											5					41												
WM080112	245333_fnca	1	1	1	-372400631	1	75.035	75.031	2.0.10.147	2.0.10.242	2.0.10.242	1.0.0.439	7	234	2	3	Verdana	1	80	0	0	0	WM Stimuli\	0.9	931.888888888889	0.6	878	1	736.1	1	675.8	1	885	1	712.9	0.9	868.666666666667	1	702.8	12	561343	2	561332	27	39	561370	-999999	561345	0	10	TrialsPROC	BP_009_BP22_BA.png	1	2	42	SessionSelectionList														nonlure	3	Body	0-Back	37	80	34	0	0	81	1	39	392640	1	13	72	390601	-1	391374	1	773	3	3	2039	52	392653	-53	0											6					42												
WM080112	245333_fnca	1	1	1	-372400631	1	75.035	75.031	2.0.10.147	2.0.10.242	2.0.10.242	1.0.0.439	7	234	2	3	Verdana	1	80	0	0	0	WM Stimuli\	0.9	931.888888888889	0.6	878	1	736.1	1	675.8	1	885	1	712.9	0.9	868.666666666667	1	702.8	12	561343	2	561332	27	39	561370	-999999	561345	0	10	TrialsPROC	BP_009_BP22_BA.png	1	2	43	SessionSelectionList														lure	3	Body	0-Back	38	80	35	0	0	82	2	40	395199	1	13	58	393159	-1	393937	1	778	3	3	2040	53	395212	-54	0											7					43												
WM080112	245333_fnca	1	1	1	-372400631	1	75.035	75.031	2.0.10.147	2.0.10.242	2.0.10.242	1.0.0.439	7	234	2	3	Verdana	1	80	0	0	0	WM Stimuli\	0.9	931.888888888889	0.6	878	1	736.1	1	675.8	1	885	1	712.9	0.9	868.666666666667	1	702.8	12	561343	2	561332	27	39	561370	-999999	561345	0	10	TrialsPROC	BP_008_BP21_BA.png	1	2	44	SessionSelectionList														lure	3	Body	0-Back	39	80	36	0	0	83	3	40	397758	1	13	59	395718	-1	396646	1	928	3	3	2040	53	397771	-54	0											8					44												
WM080112	245333_fnca	1	1	1	-372400631	1	75.035	75.031	2.0.10.147	2.0.10.242	2.0.10.242	1.0.0.439	7	234	2	3	Verdana	1	80	0	0	0	WM Stimuli\	0.9	931.888888888889	0.6	878	1	736.1	1	675.8	1	885	1	712.9	0.9	868.666666666667	1	702.8	12	561343	2	561332	27	39	561370	-999999	561345	0	10	TrialsPROC	BP_007_BP20_BA.png	1	2	45	SessionSelectionList														target	2	Body	0-Back	40	80	37	0	0	79	4	40	400317	1	13	59	398277	-1	399024	0	747	3	2	2040	53	400330	-54	0											9					45												
WM080112	245333_fnca	1	1	1	-372400631	1	75.035	75.031	2.0.10.147	2.0.10.242	2.0.10.242	1.0.0.439	7	234	2	3	Verdana	1	80	0	0	0	WM Stimuli\	0.9	931.888888888889	0.6	878	1	736.1	1	675.8	1	885	1	712.9	0.9	868.666666666667	1	702.8	12	561343	2	561332	27	39	561370	-999999	561345	0	10	TrialsPROC	BP_012_BP5_BA.png	1	2	46	SessionSelectionList														nonlure	3	Body	0-Back	41	80	38	0	0	80	5	39	402889	1	14	73	400850	-1	401842	1	992	3	3	2039	53	402903	-54	0											10					46												
WM080112	245333_fnca	1	1	1	-372400631	1	75.035	75.031	2.0.10.147	2.0.10.242	2.0.10.242	1.0.0.439	7	234	2	3	Verdana	1	80	0	0	0	WM Stimuli\	0.9	931.888888888889	0.6	878	1	736.1	1	675.8	1	885	1	712.9	0.9	868.666666666667	1	702.8	12	561343	2	561332	27	39	561370	-999999	561345	0	11	Fix15secPROC	""	1	2	47	SessionSelectionList																																															6	403356	-7	0							47												
WM080112	245333_fnca	1	1	1	-372400631	1	75.035	75.031	2.0.10.147	2.0.10.242	2.0.10.242	1.0.0.439	7	234	2	3	Verdana	1	80	0	0	0	WM Stimuli\	0.9	931.888888888889	0.6	878	1	736.1	1	675.8	1	885	1	712.9	0.9	868.666666666667	1	702.8	12	561343	2	561332	27	39	561370	-999999	561345	0	12	Cue0BackPROC	PL_001_92012.png	1	2	48	SessionSelectionList																																										39	418389	-40	0												48												
WM080112	245333_fnca	1	1	1	-372400631	1	75.035	75.031	2.0.10.147	2.0.10.242	2.0.10.242	1.0.0.439	7	234	2	3	Verdana	1	80	0	0	0	WM Stimuli\	0.9	931.888888888889	0.6	878	1	736.1	1	675.8	1	885	1	712.9	0.9	868.666666666667	1	702.8	12	561343	2	561332	27	39	561370	-999999	561345	0	13	TrialsPROC	PL_003_92016.png	1	2	49	SessionSelectionList														nonlure	3	Place	0-Back	42	80	39	0	0	81	6	39	422974	1	14	85	420935	-1	421815	1	880	3	3	2039	53	422988	-54	0												1				49												
WM080112	245333_fnca	1	1	1	-372400631	1	75.035	75.031	2.0.10.147	2.0.10.242	2.0.10.242	1.0.0.439	7	234	2	3	Verdana	1	80	0	0	0	WM Stimuli\	0.9	931.888888888889	0.6	878	1	736.1	1	675.8	1	885	1	712.9	0.9	868.666666666667	1	702.8	12	561343	2	561332	27	39	561370	-999999	561345	0	13	TrialsPROC	PL_003_92016.png	1	2	50	SessionSelectionList														lure	3	Place	0-Back	43	80	40	0	0	82	7	39	425546	1	14	72	423507	-1	424733	1	1226	3	3	2039	53	425560	-54	0												2				50												
WM080112	245333_fnca	1	1	1	-372400631	1	75.035	75.031	2.0.10.147	2.0.10.242	2.0.10.242	1.0.0.439	7	234	2	3	Verdana	1	80	0	0	0	WM Stimuli\	0.9	931.888888888889	0.6	878	1	736.1	1	675.8	1	885	1	712.9	0.9	868.666666666667	1	702.8	12	561343	2	561332	27	39	561370	-999999	561345	0	13	TrialsPROC	PL_006_92025.png	1	2	51	SessionSelectionList														nonlure	3	Place	0-Back	44	80	41	0	0	83	8	39	428118	2	14	72	426079	-1	426743	1	664	3	3	2039	53	428132	-54	0												3				51												
WM080112	245333_fnca	1	1	1	-372400631	1	75.035	75.031	2.0.10.147	2.0.10.242	2.0.10.242	1.0.0.439	7	234	2	3	Verdana	1	80	0	0	0	WM Stimuli\	0.9	931.888888888889	0.6	878	1	736.1	1	675.8	1	885	1	712.9	0.9	868.666666666667	1	702.8	12	561343	2	561332	27	39	561370	-999999	561345	0	13	TrialsPROC	PL_001_92012.png	1	2	52	SessionSelectionList														target	2	Place	0-Back	45	80	42	0	0	83	1	40	430691	1	13	72	428651	-1	429246	1	595	2	2	2040	53	430704	-54	0												4				52												
WM080112	245333_fnca	1	1	1	-372400631	1	75.035	75.031	2.0.10.147	2.0.10.242	2.0.10.242	1.0.0.439	7	234	2	3	Verdana	1	80	0	0	0	WM Stimuli\	0.9	931.888888888889	0.6	878	1	736.1	1	675.8	1	885	1	712.9	0.9	868.666666666667	1	702.8	12	561343	2	561332	27	39	561370	-999999	561345	0	13	TrialsPROC	PL_004_92023.png	1	2	53	SessionSelectionList														nonlure	3	Place	0-Back	46	80	43	0	0	84	1	39	433263	1	14	73	431224	-1	431779	1	555	3	3	2039	53	433277	-54	0												5				53												
WM080112	245333_fnca	1	1	1	-372400631	1	75.035	75.031	2.0.10.147	2.0.10.242	2.0.10.242	1.0.0.439	7	234	2	3	Verdana	1	80	0	0	0	WM Stimuli\	0.9	931.888888888889	0.6	878	1	736.1	1	675.8	1	885	1	712.9	0.9	868.666666666667	1	702.8	12	561343	2	561332	27	39	561370	-999999	561345	0	13	TrialsPROC	PL_005_92024.png	1	2	54	SessionSelectionList														nonlure	3	Place	0-Back	47	80	44	0	0	85	2	39	435835	2	14	72	433796	-1	434512	1	716	3	3	2039	53	435849	-54	0												6				54												
WM080112	245333_fnca	1	1	1	-372400631	1	75.035	75.031	2.0.10.147	2.0.10.242	2.0.10.242	1.0.0.439	7	234	2	3	Verdana	1	80	0	0	0	WM Stimuli\	0.9	931.888888888889	0.6	878	1	736.1	1	675.8	1	885	1	712.9	0.9	868.666666666667	1	702.8	12	561343	2	561332	27	39	561370	-999999	561345	0	13	TrialsPROC	PL_001_92012.png	1	2	55	SessionSelectionList														target	2	Place	0-Back	48	80	45	0	0	85	1	39	438407	2	14	72	436368	-1	436964	1	596	2	2	2039	53	438421	-54	0												7				55												
WM080112	245333_fnca	1	1	1	-372400631	1	75.035	75.031	2.0.10.147	2.0.10.242	2.0.10.242	1.0.0.439	7	234	2	3	Verdana	1	80	0	0	0	WM Stimuli\	0.9	931.888888888889	0.6	878	1	736.1	1	675.8	1	885	1	712.9	0.9	868.666666666667	1	702.8	12	561343	2	561332	27	39	561370	-999999	561345	0	13	TrialsPROC	PL_002_92014.png	1	2	56	SessionSelectionList														nonlure	3	Place	0-Back	49	80	46	0	0	86	1	39	440993	1	14	86	438954	-1	439666	1	712	3	3	2039	53	441007	-54	0												8				56												
WM080112	245333_fnca	1	1	1	-372400631	1	75.035	75.031	2.0.10.147	2.0.10.242	2.0.10.242	1.0.0.439	7	234	2	3	Verdana	1	80	0	0	0	WM Stimuli\	0.9	931.888888888889	0.6	878	1	736.1	1	675.8	1	885	1	712.9	0.9	868.666666666667	1	702.8	12	561343	2	561332	27	39	561370	-999999	561345	0	13	TrialsPROC	PL_004_92023.png	1	2	57	SessionSelectionList														lure	3	Place	0-Back	50	80	47	0	0	86	2	39	443565	3	14	72	441526	-1	442115	1	589	3	3	2039	53	443579	-54	0												9				57												
WM080112	245333_fnca	1	1	1	-372400631	1	75.035	75.031	2.0.10.147	2.0.10.242	2.0.10.242	1.0.0.439	7	234	2	3	Verdana	1	80	0	0	0	WM Stimuli\	0.9	931.888888888889	0.6	878	1	736.1	1	675.8	1	885	1	712.9	0.9	868.666666666667	1	702.8	12	561343	2	561332	27	39	561370	-999999	561345	0	13	TrialsPROC	PL_006_92025.png	1	2	58	SessionSelectionList														lure	3	Place	0-Back	51	80	48	0	0	87	3	40	446138	1	13	72	444098	-1	444694	1	596	3	3	2040	53	446151	-54	0												10				58												
WM080112	245333_fnca	1	1	1	-372400631	1	75.035	75.031	2.0.10.147	2.0.10.242	2.0.10.242	1.0.0.439	7	234	2	3	Verdana	1	80	0	0	0	WM Stimuli\	0.9	931.888888888889	0.6	878	1	736.1	1	675.8	1	885	1	712.9	0.9	868.666666666667	1	702.8	12	561343	2	561332	27	39	561370	-999999	561345	0	14	Cue2BackPROC	""	1	2	59	SessionSelectionList									6	446604	-7	0																																													59												
WM080112	245333_fnca	1	1	1	-372400631	1	75.035	75.031	2.0.10.147	2.0.10.242	2.0.10.242	1.0.0.439	7	234	2	3	Verdana	1	80	0	0	0	WM Stimuli\	0.9	931.888888888889	0.6	878	1	736.1	1	675.8	1	885	1	712.9	0.9	868.666666666667	1	702.8	12	561343	2	561332	27	39	561370	-999999	561345	0	15	TrialsPROC	FC_010_F5.png	1	2	60	SessionSelectionList														nonlure	3	Face	2-Back	52	80	49	0	0	87	4	39	451215	2	14	78	449176	-1	449794	1	618	3	3	2039	53	451229	-54	0													1			60												
WM080112	245333_fnca	1	1	1	-372400631	1	75.035	75.031	2.0.10.147	2.0.10.242	2.0.10.242	1.0.0.439	7	234	2	3	Verdana	1	80	0	0	0	WM Stimuli\	0.9	931.888888888889	0.6	878	1	736.1	1	675.8	1	885	1	712.9	0.9	868.666666666667	1	702.8	12	561343	2	561332	27	39	561370	-999999	561345	0	15	TrialsPROC	FC_012_F6.png	1	2	61	SessionSelectionList														nonlure	3	Face	2-Back	53	80	50	0	0	87	5	39	453801	1	14	86	451762	-1	452472	1	710	3	3	2039	53	453815	-54	0													2			61												
WM080112	245333_fnca	1	1	1	-372400631	1	75.035	75.031	2.0.10.147	2.0.10.242	2.0.10.242	1.0.0.439	7	234	2	3	Verdana	1	80	0	0	0	WM Stimuli\	0.9	931.888888888889	0.6	878	1	736.1	1	675.8	1	885	1	712.9	0.9	868.666666666667	1	702.8	12	561343	2	561332	27	39	561370	-999999	561345	0	15	TrialsPROC	FC_010_F5.png	1	2	62	SessionSelectionList														target	2	Face	2-Back	54	80	51	0	0	87	1	39	456373	2	14	72	454334	-1	454945	1	611	2	2	2039	53	456387	-54	0													3			62												
WM080112	245333_fnca	1	1	1	-372400631	1	75.035	75.031	2.0.10.147	2.0.10.242	2.0.10.242	1.0.0.439	7	234	2	3	Verdana	1	80	0	0	0	WM Stimuli\	0.9	931.888888888889	0.6	878	1	736.1	1	675.8	1	885	1	712.9	0.9	868.666666666667	1	702.8	12	561343	2	561332	27	39	561370	-999999	561345	0	15	TrialsPROC	FC_008_F4.png	1	2	63	SessionSelectionList														nonlure	3	Face	2-Back	55	80	52	0	0	87	1	39	458959	1	14	86	456920	-1	457512	1	592	3	3	2039	53	458973	-54	0													4			63												
WM080112	245333_fnca	1	1	1	-372400631	1	75.035	75.031	2.0.10.147	2.0.10.242	2.0.10.242	1.0.0.439	7	234	2	3	Verdana	1	80	0	0	0	WM Stimuli\	0.9	931.888888888889	0.6	878	1	736.1	1	675.8	1	885	1	712.9	0.9	868.666666666667	1	702.8	12	561343	2	561332	27	39	561370	-999999	561345	0	15	TrialsPROC	FC_012_F6.png	1	2	64	SessionSelectionList														lure	3	Face	2-Back	56	80	53	0	0	87	2	39	461531	2	14	72	459492	-1	460325	1	833	3	3	2039	53	461545	-54	0													5			64												
WM080112	245333_fnca	1	1	1	-372400631	1	75.035	75.031	2.0.10.147	2.0.10.242	2.0.10.242	1.0.0.439	7	234	2	3	Verdana	1	80	0	0	0	WM Stimuli\	0.9	931.888888888889	0.6	878	1	736.1	1	675.8	1	885	1	712.9	0.9	868.666666666667	1	702.8	12	561343	2	561332	27	39	561370	-999999	561345	0	15	TrialsPROC	FC_008_F4.png	1	2	65	SessionSelectionList														target	2	Face	2-Back	57	80	54	0	0	87	1	40	464104	1	13	72	462064	-1	462568	1	504	2	2	2040	53	464117	-54	0													6			65												
WM080112	245333_fnca	1	1	1	-372400631	1	75.035	75.031	2.0.10.147	2.0.10.242	2.0.10.242	1.0.0.439	7	234	2	3	Verdana	1	80	0	0	0	WM Stimuli\	0.9	931.888888888889	0.6	878	1	736.1	1	675.8	1	885	1	712.9	0.9	868.666666666667	1	702.8	12	561343	2	561332	27	39	561370	-999999	561345	0	15	TrialsPROC	FC_007_M4.png	1	2	66	SessionSelectionList														nonlure	3	Face	2-Back	58	80	55	0	0	87	1	39	466676	1	14	73	464637	-1	465350	1	713	3	3	2039	53	466690	-54	0													7			66												
WM080112	245333_fnca	1	1	1	-372400631	1	75.035	75.031	2.0.10.147	2.0.10.242	2.0.10.242	1.0.0.439	7	234	2	3	Verdana	1	80	0	0	0	WM Stimuli\	0.9	931.888888888889	0.6	878	1	736.1	1	675.8	1	885	1	712.9	0.9	868.666666666667	1	702.8	12	561343	2	561332	27	39	561370	-999999	561345	0	15	TrialsPROC	FC_007_M4.png	1	2	67	SessionSelectionList														lure	3	Face	2-Back	59	80	56	0	0	87	2	39	469248	1	14	72	467209	-1	468214	1	1005	3	3	2039	53	469262	-54	0													8			67												
WM080112	245333_fnca	1	1	1	-372400631	1	75.035	75.031	2.0.10.147	2.0.10.242	2.0.10.242	1.0.0.439	7	234	2	3	Verdana	1	80	0	0	0	WM Stimuli\	0.9	931.888888888889	0.6	878	1	736.1	1	675.8	1	885	1	712.9	0.9	868.666666666667	1	702.8	12	561343	2	561332	27	39	561370	-999999	561345	0	15	TrialsPROC	FC_009_M5.png	1	2	68	SessionSelectionList														nonlure	3	Face	2-Back	60	80	57	0	0	87	3	39	471847	1	14	99	469808	-1	470641	1	833	3	3	2039	53	471861	-54	0													9			68												
WM080112	245333_fnca	1	1	1	-372400631	1	75.035	75.031	2.0.10.147	2.0.10.242	2.0.10.242	1.0.0.439	7	234	2	3	Verdana	1	80	0	0	0	WM Stimuli\	0.9	931.888888888889	0.6	878	1	736.1	1	675.8	1	885	1	712.9	0.9	868.666666666667	1	702.8	12	561343	2	561332	27	39	561370	-999999	561345	0	15	TrialsPROC	FC_011_M6.png	1	2	69	SessionSelectionList														nonlure	3	Face	2-Back	61	80	58	0	0	87	4	40	474433	1	13	85	472393	-1	473335	1	942	3	3	2040	53	474446	-54	0													10			69												
WM080112	245333_fnca	1	1	1	-372400631	1	75.035	75.031	2.0.10.147	2.0.10.242	2.0.10.242	1.0.0.439	7	234	2	3	Verdana	1	80	0	0	0	WM Stimuli\	0.9	931.888888888889	0.6	878	1	736.1	1	675.8	1	885	1	712.9	0.9	868.666666666667	1	702.8	12	561343	2	561332	27	39	561370	-999999	561345	0	16	Fix15secPROC	""	1	2	70	SessionSelectionList																																															6	474899	-7	0							70												
WM080112	245333_fnca	1	1	1	-372400631	1	75.035	75.031	2.0.10.147	2.0.10.242	2.0.10.242	1.0.0.439	7	234	2	3	Verdana	1	80	0	0	0	WM Stimuli\	0.9	931.888888888889	0.6	878	1	736.1	1	675.8	1	885	1	712.9	0.9	868.666666666667	1	702.8	12	561343	2	561332	27	39	561370	-999999	561345	0	17	Cue0BackPROC	TO_007_TOOL7_BA.png	1	2	71	SessionSelectionList																																										27	489920	-28	0												71												
WM080112	245333_fnca	1	1	1	-372400631	1	75.035	75.031	2.0.10.147	2.0.10.242	2.0.10.242	1.0.0.439	7	234	2	3	Verdana	1	80	0	0	0	WM Stimuli\	0.9	931.888888888889	0.6	878	1	736.1	1	675.8	1	885	1	712.9	0.9	868.666666666667	1	702.8	12	561343	2	561332	27	39	561370	-999999	561345	0	18	TrialsPROC	TO_010_TOOL10_BA.png	1	2	72	SessionSelectionList														nonlure	3	Tools	0-Back	62	80	59	0	0	87	5	39	494504	2	14	72	492465	-1	493502	1	1037	3	3	2039	53	494518	-54	0														1		72												
WM080112	245333_fnca	1	1	1	-372400631	1	75.035	75.031	2.0.10.147	2.0.10.242	2.0.10.242	1.0.0.439	7	234	2	3	Verdana	1	80	0	0	0	WM Stimuli\	0.9	931.888888888889	0.6	878	1	736.1	1	675.8	1	885	1	712.9	0.9	868.666666666667	1	702.8	12	561343	2	561332	27	39	561370	-999999	561345	0	18	TrialsPROC	TO_009_TOOL9_BA.png	1	2	73	SessionSelectionList														nonlure	3	Tools	0-Back	63	80	60	0	0	88	6	40	497077	1	13	72	495037	-1	495589	1	552	3	3	2040	53	497090	-54	0														2		73												
WM080112	245333_fnca	1	1	1	-372400631	1	75.035	75.031	2.0.10.147	2.0.10.242	2.0.10.242	1.0.0.439	7	234	2	3	Verdana	1	80	0	0	0	WM Stimuli\	0.9	931.888888888889	0.6	878	1	736.1	1	675.8	1	885	1	712.9	0.9	868.666666666667	1	702.8	12	561343	2	561332	27	39	561370	-999999	561345	0	18	TrialsPROC	TO_009_TOOL9_BA.png	1	2	74	SessionSelectionList														lure	3	Tools	0-Back	64	80	61	0	0	88	7	40	499636	1	13	59	497596	-1	498106	1	510	3	3	2040	53	499649	-54	0														3		74												
WM080112	245333_fnca	1	1	1	-372400631	1	75.035	75.031	2.0.10.147	2.0.10.242	2.0.10.242	1.0.0.439	7	234	2	3	Verdana	1	80	0	0	0	WM Stimuli\	0.9	931.888888888889	0.6	878	1	736.1	1	675.8	1	885	1	712.9	0.9	868.666666666667	1	702.8	12	561343	2	561332	27	39	561370	-999999	561345	0	18	TrialsPROC	TO_008_TOOL8_BA.png	1	2	75	SessionSelectionList														nonlure	3	Tools	0-Back	65	80	62	0	0	88	8	39	502208	1	14	73	500169	-1	501031	1	862	3	3	2039	53	502222	-54	0														4		75												
WM080112	245333_fnca	1	1	1	-372400631	1	75.035	75.031	2.0.10.147	2.0.10.242	2.0.10.242	1.0.0.439	7	234	2	3	Verdana	1	80	0	0	0	WM Stimuli\	0.9	931.888888888889	0.6	878	1	736.1	1	675.8	1	885	1	712.9	0.9	868.666666666667	1	702.8	12	561343	2	561332	27	39	561370	-999999	561345	0	18	TrialsPROC	TO_011_TOOL11_BA.png	1	2	76	SessionSelectionList														nonlure	3	Tools	0-Back	66	80	63	0	0	89	9	39	504807	1	14	99	502768	-1	503302	1	534	3	3	2039	53	504821	-54	0														5		76												
WM080112	245333_fnca	1	1	1	-372400631	1	75.035	75.031	2.0.10.147	2.0.10.242	2.0.10.242	1.0.0.439	7	234	2	3	Verdana	1	80	0	0	0	WM Stimuli\	0.9	931.888888888889	0.6	878	1	736.1	1	675.8	1	885	1	712.9	0.9	868.666666666667	1	702.8	12	561343	2	561332	27	39	561370	-999999	561345	0	18	TrialsPROC	TO_012_TOOL12_BA.png	1	2	77	SessionSelectionList														nonlure	3	Tools	0-Back	67	80	64	0	0	89	10	39	507379	1	14	72	505340	-1	505875	1	535	3	3	2039	53	507393	-54	0														6		77												
WM080112	245333_fnca	1	1	1	-372400631	1	75.035	75.031	2.0.10.147	2.0.10.242	2.0.10.242	1.0.0.439	7	234	2	3	Verdana	1	80	0	0	0	WM Stimuli\	0.9	931.888888888889	0.6	878	1	736.1	1	675.8	1	885	1	712.9	0.9	868.666666666667	1	702.8	12	561343	2	561332	27	39	561370	-999999	561345	0	18	TrialsPROC	TO_010_TOOL10_BA.png	1	2	78	SessionSelectionList														lure	3	Tools	0-Back	68	80	65	0	0	89	11	39	509938	1	14	59	507899	-1	509201	1	1302	3	3	2039	53	509952	-54	0														7		78												
WM080112	245333_fnca	1	1	1	-372400631	1	75.035	75.031	2.0.10.147	2.0.10.242	2.0.10.242	1.0.0.439	7	234	2	3	Verdana	1	80	0	0	0	WM Stimuli\	0.9	931.888888888889	0.6	878	1	736.1	1	675.8	1	885	1	712.9	0.9	868.666666666667	1	702.8	12	561343	2	561332	27	39	561370	-999999	561345	0	18	TrialsPROC	TO_007_TOOL7_BA.png	1	2	79	SessionSelectionList														target	2	Tools	0-Back	69	80	66	0	0	89	1	39	512497	2	14	59	510458	-1	511013	1	555	2	2	2039	53	512511	-54	0														8		79												
WM080112	245333_fnca	1	1	1	-372400631	1	75.035	75.031	2.0.10.147	2.0.10.242	2.0.10.242	1.0.0.439	7	234	2	3	Verdana	1	80	0	0	0	WM Stimuli\	0.9	931.888888888889	0.6	878	1	736.1	1	675.8	1	885	1	712.9	0.9	868.666666666667	1	702.8	12	561343	2	561332	27	39	561370	-999999	561345	0	18	TrialsPROC	TO_008_TOOL8_BA.png	1	2	80	SessionSelectionList														lure	3	Tools	0-Back	70	80	67	0	0	90	1	39	515056	1	14	59	513017	-1	513639	1	622	3	3	2039	53	515070	-54	0														9		80												
WM080112	245333_fnca	1	1	1	-372400631	1	75.035	75.031	2.0.10.147	2.0.10.242	2.0.10.242	1.0.0.439	7	234	2	3	Verdana	1	80	0	0	0	WM Stimuli\	0.9	931.888888888889	0.6	878	1	736.1	1	675.8	1	885	1	712.9	0.9	868.666666666667	1	702.8	12	561343	2	561332	27	39	561370	-999999	561345	0	18	TrialsPROC	TO_007_TOOL7_BA.png	1	2	81	SessionSelectionList														target	2	Tools	0-Back	71	80	68	0	0	90	1	39	517615	1	14	59	515576	-1	516095	1	519	2	2	2039	53	517629	-54	0														10		81												
WM080112	245333_fnca	1	1	1	-372400631	1	75.035	75.031	2.0.10.147	2.0.10.242	2.0.10.242	1.0.0.439	7	234	2	3	Verdana	1	80	0	0	0	WM Stimuli\	0.9	931.888888888889	0.6	878	1	736.1	1	675.8	1	885	1	712.9	0.9	868.666666666667	1	702.8	12	561343	2	561332	27	39	561370	-999999	561345	0	19	Cue2BackPROC	""	1	2	82	SessionSelectionList									5	518081	-6	0																																													82												
WM080112	245333_fnca	1	1	1	-372400631	1	75.035	75.031	2.0.10.147	2.0.10.242	2.0.10.242	1.0.0.439	7	234	2	3	Verdana	1	80	0	0	0	WM Stimuli\	0.9	931.888888888889	0.6	878	1	736.1	1	675.8	1	885	1	712.9	0.9	868.666666666667	1	702.8	12	561343	2	561332	27	39	561370	-999999	561345	0	20	TrialsPROC	PL_007_92026.png	1	2	83	SessionSelectionList														nonlure	3	Place	2-Back	72	80	69	0	0	90	1	39	522679	2	14	64	520640	-1	522294	1	1654	3	3	2039	53	522693	-54	0															1	83												
WM080112	245333_fnca	1	1	1	-372400631	1	75.035	75.031	2.0.10.147	2.0.10.242	2.0.10.242	1.0.0.439	7	234	2	3	Verdana	1	80	0	0	0	WM Stimuli\	0.9	931.888888888889	0.6	878	1	736.1	1	675.8	1	885	1	712.9	0.9	868.666666666667	1	702.8	12	561343	2	561332	27	39	561370	-999999	561345	0	20	TrialsPROC	PL_007_92026.png	1	2	84	SessionSelectionList														lure	3	Place	2-Back	73	80	70	0	0	90	2	40	525252	1	13	72	523212	-1	524087	1	875	3	3	2040	53	525265	-54	0															2	84												
WM080112	245333_fnca	1	1	1	-372400631	1	75.035	75.031	2.0.10.147	2.0.10.242	2.0.10.242	1.0.0.439	7	234	2	3	Verdana	1	80	0	0	0	WM Stimuli\	0.9	931.888888888889	0.6	878	1	736.1	1	675.8	1	885	1	712.9	0.9	868.666666666667	1	702.8	12	561343	2	561332	27	39	561370	-999999	561345	0	20	TrialsPROC	PL_010_92038.png	1	2	85	SessionSelectionList														nonlure	3	Place	2-Back	74	80	71	0	0	90	3	39	527837	2	14	86	525798	-1	526922	1	1124	3	3	2039	53	527851	-54	0															3	85												
WM080112	245333_fnca	1	1	1	-372400631	1	75.035	75.031	2.0.10.147	2.0.10.242	2.0.10.242	1.0.0.439	7	234	2	3	Verdana	1	80	0	0	0	WM Stimuli\	0.9	931.888888888889	0.6	878	1	736.1	1	675.8	1	885	1	712.9	0.9	868.666666666667	1	702.8	12	561343	2	561332	27	39	561370	-999999	561345	0	20	TrialsPROC	PL_009_92037.png	1	2	86	SessionSelectionList														nonlure	3	Place	2-Back	75	80	72	0	0	90	4	39	530409	2	14	72	528370	-1	529028	1	658	3	3	2039	53	530423	-54	0															4	86												
WM080112	245333_fnca	1	1	1	-372400631	1	75.035	75.031	2.0.10.147	2.0.10.242	2.0.10.242	1.0.0.439	7	234	2	3	Verdana	1	80	0	0	0	WM Stimuli\	0.9	931.888888888889	0.6	878	1	736.1	1	675.8	1	885	1	712.9	0.9	868.666666666667	1	702.8	12	561343	2	561332	27	39	561370	-999999	561345	0	20	TrialsPROC	PL_010_92038.png	1	2	87	SessionSelectionList														target	2	Place	2-Back	76	80	73	0	0	90	1	39	532982	1	14	73	530943	-1	531667	1	724	2	2	2039	53	532996	-54	0															5	87												
WM080112	245333_fnca	1	1	1	-372400631	1	75.035	75.031	2.0.10.147	2.0.10.242	2.0.10.242	1.0.0.439	7	234	2	3	Verdana	1	80	0	0	0	WM Stimuli\	0.9	931.888888888889	0.6	878	1	736.1	1	675.8	1	885	1	712.9	0.9	868.666666666667	1	702.8	12	561343	2	561332	27	39	561370	-999999	561345	0	20	TrialsPROC	PL_009_92037.png	1	2	88	SessionSelectionList														target	2	Place	2-Back	77	80	74	0	0	90	2	39	535554	1	14	72	533515	-1	534409	1	894	2	2	2039	53	535568	-54	0															6	88												
WM080112	245333_fnca	1	1	1	-372400631	1	75.035	75.031	2.0.10.147	2.0.10.242	2.0.10.242	1.0.0.439	7	234	2	3	Verdana	1	80	0	0	0	WM Stimuli\	0.9	931.888888888889	0.6	878	1	736.1	1	675.8	1	885	1	712.9	0.9	868.666666666667	1	702.8	12	561343	2	561332	27	39	561370	-999999	561345	0	20	TrialsPROC	PL_008_92033.png	1	2	89	SessionSelectionList														nonlure	3	Place	2-Back	78	80	75	0	0	90	1	39	538126	2	14	72	536087	-1	536852	1	765	3	3	2039	53	538140	-54	0															7	89												
WM080112	245333_fnca	1	1	1	-372400631	1	75.035	75.031	2.0.10.147	2.0.10.242	2.0.10.242	1.0.0.439	7	234	2	3	Verdana	1	80	0	0	0	WM Stimuli\	0.9	931.888888888889	0.6	878	1	736.1	1	675.8	1	885	1	712.9	0.9	868.666666666667	1	702.8	12	561343	2	561332	27	39	561370	-999999	561345	0	20	TrialsPROC	PL_012_92047.png	1	2	90	SessionSelectionList														nonlure	3	Place	2-Back	79	80	76	0	0	90	2	39	540712	1	14	86	538673	-1	539354	1	681	3	3	2039	53	540726	-54	0															8	90												
WM080112	245333_fnca	1	1	1	-372400631	1	75.035	75.031	2.0.10.147	2.0.10.242	2.0.10.242	1.0.0.439	7	234	2	3	Verdana	1	80	0	0	0	WM Stimuli\	0.9	931.888888888889	0.6	878	1	736.1	1	675.8	1	885	1	712.9	0.9	868.666666666667	1	702.8	12	561343	2	561332	27	39	561370	-999999	561345	0	20	TrialsPROC	PL_012_92047.png	1	2	91	SessionSelectionList														lure	3	Place	2-Back	80	80	77	0	0	90	3	39	543284	2	14	72	541245	-1	541967	1	722	3	3	2039	53	543298	-54	0															9	91												
WM080112	245333_fnca	1	1	1	-372400631	1	75.035	75.031	2.0.10.147	2.0.10.242	2.0.10.242	1.0.0.439	7	234	2	3	Verdana	1	80	0	0	0	WM Stimuli\	0.9	931.888888888889	0.6	878	1	736.1	1	675.8	1	885	1	712.9	0.9	868.666666666667	1	702.8	12	561343	2	561332	27	39	561370	-999999	561345	0	20	TrialsPROC	PL_011_92044.png	1	2	92	SessionSelectionList														nonlure	3	Place	2-Back	80	80	78	0	0	90	4	39	545870	1	14	86	543831	-1	544584	1	753	3	3	2039	53	545884	-54	0															10	92												
WM080112	245333_fnca	1	1	1	-372400631	1	75.035	75.031	2.0.10.147	2.0.10.242	2.0.10.242	1.0.0.439	7	234	2	3	Verdana	1	80	0	0	0	WM Stimuli\	0.9	931.888888888889	0.6	878	1	736.1	1	675.8	1	885	1	712.9	0.9	868.666666666667	1	702.8	12	561343	2	561332	27	39	561370	-999999	561345	0	21	Fix15secPROC	""	1	2	93	SessionSelectionList																																															6	546337	-7	0							93												
