ExperimentName	HCPID	RunNumber	Subject	Session	RandomSeed	Group	Laptop.RefreshRate	ScannerD2.RefreshRate	StudioVersion	RuntimeVersion	RuntimeVersionExpected	ExperimentVersion	triggercode	Allowed	Target	Nontarget	FontStyle	RunTrialNumber[Session]	TrialsPerRun[Session]	TotalRespGreater200[Session]	ConsecRTLess200[Session]	ConsecNonResp[Session]	StimuliDir	ACC_2_Back_Body	Avg_RT_For_Correct_Trials_2_Back_Body	ACC_0_Back_Body	Avg_RT_For_Correct_Trials_0_Back_Body	ACC_2_Back_Face	Avg_RT_For_Correct_Trials_2_Back_Face	ACC_0_Back_Face	Avg_RT_For_Correct_Trials_0_Back_Face	ACC_2_Back_Place	Avg_RT_For_Correct_Trials_2_Back_Place	ACC_0_Back_Place	Avg_RT_For_Correct_Trials_0_Back_Place	ACC_2_Back_Tools	Avg_RT_For_Correct_Trials_2_Back_Tools	ACC_0_Back_Tools	Avg_RT_For_Correct_Trials_0_Back_Tools	ExpInstrucFeelFreeToRest.OnsetDelay	ExpInstrucFeelFreeToRest.OnsetTime	ExpInstrucFeelFreeToRest.DurationError	ExpInstrucFeelFreeToRest.StartTime	ExpInstrucFeelFreeToRest.OnsetToOnsetTime	FeelFreeToRest.OnsetDelay	FeelFreeToRest.OnsetTime	FeelFreeToRest.DurationError	FeelFreeToRest.StartTime	FeelFreeToRest.OnsetToOnsetTime	SessionSelectionList	Procedure[Block]	Stimulus[Block]	RunNumberFilterValue	SessionSelectionList.Cycle	SessionSelectionList.Sample	Running[Block]	IntroButtonMap.OnsetDelay	IntroButtonMap.OnsetTime	IntroButtonMap.DurationError	IntroButtonMap.OnsetToOnsetTime	GetReady.OnsetDelay	GetReady.OnsetTime	GetReady.DurationError	GetReady.OnsetToOnsetTime	Cue2Back.OnsetDelay	Cue2Back.OnsetTime	Cue2Back.DurationError	Cue2Back.OnsetToOnsetTime	Run1Block1	TargetType	CorrectResponse	StimType	BlockType	RunTrialNumber[Block]	TrialsPerRun[Block]	TotalRespGreater200[Block]	ConsecRTLess200[Block]	ConsecNonResp[Block]	ControlAcc	ConsecSameResp	ExperimenterWindow.OnsetDelay	ExperimenterWindow.OnsetTime	ExperimenterWindow.DurationError	ExperimenterWindow.OnsetToOnsetTime	Stim.OnsetDelay	Stim.OnsetTime	Stim.DurationError	Stim.RTTime	Stim.ACC	Stim.RT	Stim.RESP	Stim.CRESP	Stim.OnsetToOnsetTime	Fix.OnsetDelay	Fix.OnsetTime	Fix.DurationError	Fix.OnsetToOnsetTime	CueTarget.OnsetDelay	CueTarget.OnsetTime	CueTarget.DurationError	CueTarget.OnsetToOnsetTime	Run1Block2	Fix15sec.OnsetDelay	Fix15sec.OnsetTime	Fix15sec.DurationError	Fix15sec.OnsetToOnsetTime	Run1Block3	Run1Block4	Run1Block5	Run1Block6	Run1Block7	Run1Block8	Block	Procedure[Trial]	Stimulus[Trial]	ReadyList	Running[Trial]	ReadyList.Cycle	ReadyList.Sample	SyncSlide.OnsetDelay	SyncSlide.OnsetTime	SyncSlide.DurationError	SyncSlide.FinishTime	SyncSlide.OnsetToOnsetTime	Trial
WM080112	212318_fncb	2	1	1	-1313085922	1	75.031	75.031	2.0.10.147	2.0.10.242	2.0.10.242	1.0.0.439	7	234	2	3	Verdana	1	80	0	0	0	WM Stimuli\	1	717.3	1	647.2	0.9	660.888888888889	1	554.6	1	588.2	1	698	1	671.4	1	622.9	13	318618	2	318606	27	40	318645	-999999	318621	0	22	TRSyncPROC	""	2	2	1	SessionSelectionList	114	9905	-999999	0	36	10798	-999999	0																																																	1	InitialTR	4	1	ReadyList	1	1	18	25339	-19	27320	0	1
WM080112	212318_fncb	2	1	1	-1313085922	1	75.031	75.031	2.0.10.147	2.0.10.242	2.0.10.242	1.0.0.439	7	234	2	3	Verdana	1	80	0	0	0	WM Stimuli\	1	717.3	1	647.2	0.9	660.888888888889	1	554.6	1	588.2	1	698	1	671.4	1	622.9	13	318618	2	318606	27	40	318645	-999999	318621	0	22	TRSyncPROC	""	2	2	1	SessionSelectionList	114	9905	-999999	0	36	10798	-999999	0																																																	1	InitialTR	3	2	ReadyList	1	2	17	27338	-18	29320	0	2
WM080112	212318_fncb	2	1	1	-1313085922	1	75.031	75.031	2.0.10.147	2.0.10.242	2.0.10.242	1.0.0.439	7	234	2	3	Verdana	1	80	0	0	0	WM Stimuli\	1	717.3	1	647.2	0.9	660.888888888889	1	554.6	1	588.2	1	698	1	671.4	1	622.9	13	318618	2	318606	27	40	318645	-999999	318621	0	22	TRSyncPROC	""	2	2	1	SessionSelectionList	114	9905	-999999	0	36	10798	-999999	0																																																	1	InitialTR	2	3	ReadyList	1	3	3	29324	-4	31320	0	3
WM080112	212318_fncb	2	1	1	-1313085922	1	75.031	75.031	2.0.10.147	2.0.10.242	2.0.10.242	1.0.0.439	7	234	2	3	Verdana	1	80	0	0	0	WM Stimuli\	1	717.3	1	647.2	0.9	660.888888888889	1	554.6	1	588.2	1	698	1	671.4	1	622.9	13	318618	2	318606	27	40	318645	-999999	318621	0	22	TRSyncPROC	""	2	2	1	SessionSelectionList	114	9905	-999999	0	36	10798	-999999	0																																																	1	InitialTR	1	4	ReadyList	1	4	15	31336	-16	33320	0	4
WM080112	212318_fncb	2	1	1	-1313085922	1	75.031	75.031	2.0.10.147	2.0.10.242	2.0.10.242	1.0.0.439	7	234	2	3	Verdana	1	80	0	0	0	WM Stimuli\	1	717.3	1	647.2	0.9	660.888888888889	1	554.6	1	588.2	1	698	1	671.4	1	622.9	13	318618	2	318606	27	40	318645	-999999	318621	0	23	Cue2BackPROC	""	2	2	2	SessionSelectionList									15	33336	-16	0																																													2												
WM080112	212318_fncb	2	1	1	-1313085922	1	75.031	75.031	2.0.10.147	2.0.10.242	2.0.10.242	1.0.0.439	7	234	2	3	Verdana	1	80	0	0	0	WM Stimuli\	1	717.3	1	647.2	0.9	660.888888888889	1	554.6	1	588.2	1	698	1	671.4	1	622.9	13	318618	2	318606	27	40	318645	-999999	318621	0	24	TrialsPROC	TO_014_TOOL14_BA.png	2	2	3	SessionSelectionList														nonlure	3	Tools	2-Back	2	80	1	0	0	0	1	53	37947	3	14	73	35894	-1	36580	1	686	3	3	2053	67	37961	-68	0																3												
WM080112	212318_fncb	2	1	1	-1313085922	1	75.031	75.031	2.0.10.147	2.0.10.242	2.0.10.242	1.0.0.439	7	234	2	3	Verdana	1	80	0	0	0	WM Stimuli\	1	717.3	1	647.2	0.9	660.888888888889	1	554.6	1	588.2	1	698	1	671.4	1	622.9	13	318618	2	318606	27	40	318645	-999999	318621	0	24	TrialsPROC	TO_013_TOOL13_BA.png	2	2	4	SessionSelectionList														nonlure	3	Tools	2-Back	3	80	2	0	0	0	2	40	40493	2	13	59	38453	-1	39042	1	589	3	3	2040	53	40506	-54	0																4												
WM080112	212318_fncb	2	1	1	-1313085922	1	75.031	75.031	2.0.10.147	2.0.10.242	2.0.10.242	1.0.0.439	7	234	2	3	Verdana	1	80	0	0	0	WM Stimuli\	1	717.3	1	647.2	0.9	660.888888888889	1	554.6	1	588.2	1	698	1	671.4	1	622.9	13	318618	2	318606	27	40	318645	-999999	318621	0	24	TrialsPROC	TO_016_TOOL16_BA.png	2	2	5	SessionSelectionList														nonlure	3	Tools	2-Back	4	80	3	0	0	0	3	40	43052	1	13	59	41012	-1	41586	1	574	3	3	2040	53	43065	-54	0																5												
WM080112	212318_fncb	2	1	1	-1313085922	1	75.031	75.031	2.0.10.147	2.0.10.242	2.0.10.242	1.0.0.439	7	234	2	3	Verdana	1	80	0	0	0	WM Stimuli\	1	717.3	1	647.2	0.9	660.888888888889	1	554.6	1	588.2	1	698	1	671.4	1	622.9	13	318618	2	318606	27	40	318645	-999999	318621	0	24	TrialsPROC	TO_014_TOOL14_BA.png	2	2	6	SessionSelectionList														lure	3	Tools	2-Back	5	80	4	0	0	0	4	39	45624	1	13	73	43585	-1	44570	1	985	3	3	2039	52	45637	-53	0																6												
WM080112	212318_fncb	2	1	1	-1313085922	1	75.031	75.031	2.0.10.147	2.0.10.242	2.0.10.242	1.0.0.439	7	234	2	3	Verdana	1	80	0	0	0	WM Stimuli\	1	717.3	1	647.2	0.9	660.888888888889	1	554.6	1	588.2	1	698	1	671.4	1	622.9	13	318618	2	318606	27	40	318645	-999999	318621	0	24	TrialsPROC	TO_016_TOOL16_BA.png	2	2	7	SessionSelectionList														target	2	Tools	2-Back	6	80	5	0	0	0	1	39	48183	1	13	59	46144	-1	46743	1	599	2	2	2039	52	48196	-53	0																7												
WM080112	212318_fncb	2	1	1	-1313085922	1	75.031	75.031	2.0.10.147	2.0.10.242	2.0.10.242	1.0.0.439	7	234	2	3	Verdana	1	80	0	0	0	WM Stimuli\	1	717.3	1	647.2	0.9	660.888888888889	1	554.6	1	588.2	1	698	1	671.4	1	622.9	13	318618	2	318606	27	40	318645	-999999	318621	0	24	TrialsPROC	TO_018_TOOL18_BA.png	2	2	8	SessionSelectionList														nonlure	3	Tools	2-Back	7	80	6	0	0	0	1	40	50742	1	13	58	48702	-1	49327	1	625	3	3	2040	53	50755	-54	0																8												
WM080112	212318_fncb	2	1	1	-1313085922	1	75.031	75.031	2.0.10.147	2.0.10.242	2.0.10.242	1.0.0.439	7	234	2	3	Verdana	1	80	0	0	0	WM Stimuli\	1	717.3	1	647.2	0.9	660.888888888889	1	554.6	1	588.2	1	698	1	671.4	1	622.9	13	318618	2	318606	27	40	318645	-999999	318621	0	24	TrialsPROC	TO_017_TOOL17_BA.png	2	2	9	SessionSelectionList														nonlure	3	Tools	2-Back	8	80	7	0	0	0	2	40	53301	1	13	59	51261	-1	51773	1	512	3	3	2040	53	53314	-54	0																9												
WM080112	212318_fncb	2	1	1	-1313085922	1	75.031	75.031	2.0.10.147	2.0.10.242	2.0.10.242	1.0.0.439	7	234	2	3	Verdana	1	80	0	0	0	WM Stimuli\	1	717.3	1	647.2	0.9	660.888888888889	1	554.6	1	588.2	1	698	1	671.4	1	622.9	13	318618	2	318606	27	40	318645	-999999	318621	0	24	TrialsPROC	TO_018_TOOL18_BA.png	2	2	10	SessionSelectionList														target	2	Tools	2-Back	9	80	8	0	0	0	1	40	55860	1	13	59	53820	-1	54390	1	570	2	2	2040	53	55873	-54	0																10												
WM080112	212318_fncb	2	1	1	-1313085922	1	75.031	75.031	2.0.10.147	2.0.10.242	2.0.10.242	1.0.0.439	7	234	2	3	Verdana	1	80	0	0	0	WM Stimuli\	1	717.3	1	647.2	0.9	660.888888888889	1	554.6	1	588.2	1	698	1	671.4	1	622.9	13	318618	2	318606	27	40	318645	-999999	318621	0	24	TrialsPROC	TO_015_TOOL15_BA.png	2	2	11	SessionSelectionList														nonlure	3	Tools	2-Back	10	80	9	0	0	0	1	39	58418	2	14	59	56379	-1	56920	1	541	3	3	2039	53	58432	-54	0																11												
WM080112	212318_fncb	2	1	1	-1313085922	1	75.031	75.031	2.0.10.147	2.0.10.242	2.0.10.242	1.0.0.439	7	234	2	3	Verdana	1	80	0	0	0	WM Stimuli\	1	717.3	1	647.2	0.9	660.888888888889	1	554.6	1	588.2	1	698	1	671.4	1	622.9	13	318618	2	318606	27	40	318645	-999999	318621	0	24	TrialsPROC	TO_017_TOOL17_BA.png	2	2	12	SessionSelectionList														lure	3	Tools	2-Back	11	80	10	0	0	0	2	39	60977	2	14	59	58938	-1	59971	1	1033	3	3	2039	53	60991	-54	0																12												
WM080112	212318_fncb	2	1	1	-1313085922	1	75.031	75.031	2.0.10.147	2.0.10.242	2.0.10.242	1.0.0.439	7	234	2	3	Verdana	1	80	0	0	0	WM Stimuli\	1	717.3	1	647.2	0.9	660.888888888889	1	554.6	1	588.2	1	698	1	671.4	1	622.9	13	318618	2	318606	27	40	318645	-999999	318621	0	25	Cue0BackPROC	BP_013_BP7_BA.png	2	2	13	SessionSelectionList																																										19	61457	-20	0												13												
WM080112	212318_fncb	2	1	1	-1313085922	1	75.031	75.031	2.0.10.147	2.0.10.242	2.0.10.242	1.0.0.439	7	234	2	3	Verdana	1	80	0	0	0	WM Stimuli\	1	717.3	1	647.2	0.9	660.888888888889	1	554.6	1	588.2	1	698	1	671.4	1	622.9	13	318618	2	318606	27	40	318645	-999999	318621	0	26	TrialsPROC	BP_015_H10-T_BA.png	2	2	14	SessionSelectionList														nonlure	3	Body	0-Back	12	80	11	0	0	100	3	39	66042	1	14	65	64003	-1	64717	1	714	3	3	2039	53	66056	-54	0																14												
WM080112	212318_fncb	2	1	1	-1313085922	1	75.031	75.031	2.0.10.147	2.0.10.242	2.0.10.242	1.0.0.439	7	234	2	3	Verdana	1	80	0	0	0	WM Stimuli\	1	717.3	1	647.2	0.9	660.888888888889	1	554.6	1	588.2	1	698	1	671.4	1	622.9	13	318618	2	318606	27	40	318645	-999999	318621	0	26	TrialsPROC	BP_018_H13-T_BA.png	2	2	15	SessionSelectionList														nonlure	3	Body	0-Back	13	80	12	0	0	100	4	39	68601	1	14	59	66562	-1	67192	1	630	3	3	2039	53	68615	-54	0																15												
WM080112	212318_fncb	2	1	1	-1313085922	1	75.031	75.031	2.0.10.147	2.0.10.242	2.0.10.242	1.0.0.439	7	234	2	3	Verdana	1	80	0	0	0	WM Stimuli\	1	717.3	1	647.2	0.9	660.888888888889	1	554.6	1	588.2	1	698	1	671.4	1	622.9	13	318618	2	318606	27	40	318645	-999999	318621	0	26	TrialsPROC	BP_014_BP9_BA.png	2	2	16	SessionSelectionList														nonlure	3	Body	0-Back	14	80	13	0	0	100	5	39	71160	1	14	59	69121	-1	69726	1	605	3	3	2039	53	71174	-54	0																16												
WM080112	212318_fncb	2	1	1	-1313085922	1	75.031	75.031	2.0.10.147	2.0.10.242	2.0.10.242	1.0.0.439	7	234	2	3	Verdana	1	80	0	0	0	WM Stimuli\	1	717.3	1	647.2	0.9	660.888888888889	1	554.6	1	588.2	1	698	1	671.4	1	622.9	13	318618	2	318606	27	40	318645	-999999	318621	0	26	TrialsPROC	BP_018_H13-T_BA.png	2	2	17	SessionSelectionList														lure	3	Body	0-Back	15	80	14	0	0	100	6	39	73719	1	13	59	71680	-1	72316	1	636	3	3	2039	52	73732	-53	0																17												
WM080112	212318_fncb	2	1	1	-1313085922	1	75.031	75.031	2.0.10.147	2.0.10.242	2.0.10.242	1.0.0.439	7	234	2	3	Verdana	1	80	0	0	0	WM Stimuli\	1	717.3	1	647.2	0.9	660.888888888889	1	554.6	1	588.2	1	698	1	671.4	1	622.9	13	318618	2	318606	27	40	318645	-999999	318621	0	26	TrialsPROC	BP_013_BP7_BA.png	2	2	18	SessionSelectionList														target	2	Body	0-Back	16	80	15	0	0	100	1	39	76278	1	13	59	74239	-1	74893	1	654	2	2	2039	52	76291	-53	0																18												
WM080112	212318_fncb	2	1	1	-1313085922	1	75.031	75.031	2.0.10.147	2.0.10.242	2.0.10.242	1.0.0.439	7	234	2	3	Verdana	1	80	0	0	0	WM Stimuli\	1	717.3	1	647.2	0.9	660.888888888889	1	554.6	1	588.2	1	698	1	671.4	1	622.9	13	318618	2	318606	27	40	318645	-999999	318621	0	26	TrialsPROC	BP_015_H10-T_BA.png	2	2	19	SessionSelectionList														lure	3	Body	0-Back	17	80	16	0	0	100	1	39	78837	1	13	59	76798	-1	77393	1	595	3	3	2039	52	78850	-53	0																19												
WM080112	212318_fncb	2	1	1	-1313085922	1	75.031	75.031	2.0.10.147	2.0.10.242	2.0.10.242	1.0.0.439	7	234	2	3	Verdana	1	80	0	0	0	WM Stimuli\	1	717.3	1	647.2	0.9	660.888888888889	1	554.6	1	588.2	1	698	1	671.4	1	622.9	13	318618	2	318606	27	40	318645	-999999	318621	0	26	TrialsPROC	BP_016_H11-T_BA.png	2	2	20	SessionSelectionList														nonlure	3	Body	0-Back	18	80	17	0	0	100	2	39	81396	1	13	59	79357	-1	79971	1	614	3	3	2039	52	81409	-53	0																20												
WM080112	212318_fncb	2	1	1	-1313085922	1	75.031	75.031	2.0.10.147	2.0.10.242	2.0.10.242	1.0.0.439	7	234	2	3	Verdana	1	80	0	0	0	WM Stimuli\	1	717.3	1	647.2	0.9	660.888888888889	1	554.6	1	588.2	1	698	1	671.4	1	622.9	13	318618	2	318606	27	40	318645	-999999	318621	0	26	TrialsPROC	BP_013_BP7_BA.png	2	2	21	SessionSelectionList														target	2	Body	0-Back	19	80	18	0	0	100	1	39	83968	1	14	72	81929	-1	82572	1	643	2	2	2039	53	83982	-54	0																21												
WM080112	212318_fncb	2	1	1	-1313085922	1	75.031	75.031	2.0.10.147	2.0.10.242	2.0.10.242	1.0.0.439	7	234	2	3	Verdana	1	80	0	0	0	WM Stimuli\	1	717.3	1	647.2	0.9	660.888888888889	1	554.6	1	588.2	1	698	1	671.4	1	622.9	13	318618	2	318606	27	40	318645	-999999	318621	0	26	TrialsPROC	BP_017_H12-T_BA.png	2	2	22	SessionSelectionList														nonlure	3	Body	0-Back	20	80	19	0	0	100	1	39	86527	1	13	59	84488	-1	85248	1	760	3	3	2039	52	86540	-53	0																22												
WM080112	212318_fncb	2	1	1	-1313085922	1	75.031	75.031	2.0.10.147	2.0.10.242	2.0.10.242	1.0.0.439	7	234	2	3	Verdana	1	80	0	0	0	WM Stimuli\	1	717.3	1	647.2	0.9	660.888888888889	1	554.6	1	588.2	1	698	1	671.4	1	622.9	13	318618	2	318606	27	40	318645	-999999	318621	0	26	TrialsPROC	BP_014_BP9_BA.png	2	2	23	SessionSelectionList														lure	3	Body	0-Back	21	80	20	0	0	100	2	39	89086	1	13	59	87047	-1	87668	1	621	3	3	2039	52	89099	-53	0																23												
WM080112	212318_fncb	2	1	1	-1313085922	1	75.031	75.031	2.0.10.147	2.0.10.242	2.0.10.242	1.0.0.439	7	234	2	3	Verdana	1	80	0	0	0	WM Stimuli\	1	717.3	1	647.2	0.9	660.888888888889	1	554.6	1	588.2	1	698	1	671.4	1	622.9	13	318618	2	318606	27	40	318645	-999999	318621	0	27	Fix15secPROC	""	2	2	24	SessionSelectionList																																															6	89553	-7	0							24												
WM080112	212318_fncb	2	1	1	-1313085922	1	75.031	75.031	2.0.10.147	2.0.10.242	2.0.10.242	1.0.0.439	7	234	2	3	Verdana	1	80	0	0	0	WM Stimuli\	1	717.3	1	647.2	0.9	660.888888888889	1	554.6	1	588.2	1	698	1	671.4	1	622.9	13	318618	2	318606	27	40	318645	-999999	318621	0	28	Cue2BackPROC	""	2	2	25	SessionSelectionList									12	104559	-13	0																																													25												
WM080112	212318_fncb	2	1	1	-1313085922	1	75.031	75.031	2.0.10.147	2.0.10.242	2.0.10.242	1.0.0.439	7	234	2	3	Verdana	1	80	0	0	0	WM Stimuli\	1	717.3	1	647.2	0.9	660.888888888889	1	554.6	1	588.2	1	698	1	671.4	1	622.9	13	318618	2	318606	27	40	318645	-999999	318621	0	29	TrialsPROC	FC_015_M8.png	2	2	26	SessionSelectionList														nonlure	3	Face	2-Back	22	80	21	0	0	100	3	40	109158	1	13	71	107118	-1	108039	1	921	3	3	2040	53	109171	-54	0																26												
WM080112	212318_fncb	2	1	1	-1313085922	1	75.031	75.031	2.0.10.147	2.0.10.242	2.0.10.242	1.0.0.439	7	234	2	3	Verdana	1	80	0	0	0	WM Stimuli\	1	717.3	1	647.2	0.9	660.888888888889	1	554.6	1	588.2	1	698	1	671.4	1	622.9	13	318618	2	318606	27	40	318645	-999999	318621	0	29	TrialsPROC	FC_018_F9.png	2	2	27	SessionSelectionList														nonlure	3	Face	2-Back	23	80	22	0	0	100	4	39	111730	1	13	73	109691	-1	110328	1	637	3	3	2039	52	111743	-53	0																27												
WM080112	212318_fncb	2	1	1	-1313085922	1	75.031	75.031	2.0.10.147	2.0.10.242	2.0.10.242	1.0.0.439	7	234	2	3	Verdana	1	80	0	0	0	WM Stimuli\	1	717.3	1	647.2	0.9	660.888888888889	1	554.6	1	588.2	1	698	1	671.4	1	622.9	13	318618	2	318606	27	40	318645	-999999	318621	0	29	TrialsPROC	FC_018_F9.png	2	2	28	SessionSelectionList														lure	3	Face	2-Back	24	80	23	0	0	100	5	39	114302	2	14	72	112263	-1	112973	1	710	3	3	2039	53	114316	-54	0																28												
WM080112	212318_fncb	2	1	1	-1313085922	1	75.031	75.031	2.0.10.147	2.0.10.242	2.0.10.242	1.0.0.439	7	234	2	3	Verdana	1	80	0	0	0	WM Stimuli\	1	717.3	1	647.2	0.9	660.888888888889	1	554.6	1	588.2	1	698	1	671.4	1	622.9	13	318618	2	318606	27	40	318645	-999999	318621	0	29	TrialsPROC	FC_017_M9.png	2	2	29	SessionSelectionList														nonlure	3	Face	2-Back	25	80	24	0	0	100	6	39	116874	3	14	72	114835	-1	115413	1	578	3	3	2039	53	116888	-54	0																29												
WM080112	212318_fncb	2	1	1	-1313085922	1	75.031	75.031	2.0.10.147	2.0.10.242	2.0.10.242	1.0.0.439	7	234	2	3	Verdana	1	80	0	0	0	WM Stimuli\	1	717.3	1	647.2	0.9	660.888888888889	1	554.6	1	588.2	1	698	1	671.4	1	622.9	13	318618	2	318606	27	40	318645	-999999	318621	0	29	TrialsPROC	FC_017_M9.png	2	2	30	SessionSelectionList														lure	3	Face	2-Back	26	80	25	0	0	100	7	40	119447	1	13	72	117407	-1	118097	1	690	3	3	2040	53	119460	-54	0																30												
WM080112	212318_fncb	2	1	1	-1313085922	1	75.031	75.031	2.0.10.147	2.0.10.242	2.0.10.242	1.0.0.439	7	234	2	3	Verdana	1	80	0	0	0	WM Stimuli\	1	717.3	1	647.2	0.9	660.888888888889	1	554.6	1	588.2	1	698	1	671.4	1	622.9	13	318618	2	318606	27	40	318645	-999999	318621	0	29	TrialsPROC	FC_016_F8.png	2	2	31	SessionSelectionList														nonlure	3	Face	2-Back	27	80	26	0	0	100	8	39	122019	1	13	73	119980	-1	120664	1	684	3	3	2039	52	122032	-53	0																31												
WM080112	212318_fncb	2	1	1	-1313085922	1	75.031	75.031	2.0.10.147	2.0.10.242	2.0.10.242	1.0.0.439	7	234	2	3	Verdana	1	80	0	0	0	WM Stimuli\	1	717.3	1	647.2	0.9	660.888888888889	1	554.6	1	588.2	1	698	1	671.4	1	622.9	13	318618	2	318606	27	40	318645	-999999	318621	0	29	TrialsPROC	FC_013_M7.png	2	2	32	SessionSelectionList														nonlure	3	Face	2-Back	28	80	27	0	0	100	9	39	124591	2	14	72	122552	-1	123193	1	641	3	3	2039	53	124605	-54	0																32												
WM080112	212318_fncb	2	1	1	-1313085922	1	75.031	75.031	2.0.10.147	2.0.10.242	2.0.10.242	1.0.0.439	7	234	2	3	Verdana	1	80	0	0	0	WM Stimuli\	1	717.3	1	647.2	0.9	660.888888888889	1	554.6	1	588.2	1	698	1	671.4	1	622.9	13	318618	2	318606	27	40	318645	-999999	318621	0	29	TrialsPROC	FC_014_F7.png	2	2	33	SessionSelectionList														nonlure	3	Face	2-Back	29	80	28	0	0	100	10	39	127163	2	14	72	125124	-1	125651	1	527	3	3	2039	53	127177	-54	0																33												
WM080112	212318_fncb	2	1	1	-1313085922	1	75.031	75.031	2.0.10.147	2.0.10.242	2.0.10.242	1.0.0.439	7	234	2	3	Verdana	1	80	0	0	0	WM Stimuli\	1	717.3	1	647.2	0.9	660.888888888889	1	554.6	1	588.2	1	698	1	671.4	1	622.9	13	318618	2	318606	27	40	318645	-999999	318621	0	29	TrialsPROC	FC_013_M7.png	2	2	34	SessionSelectionList														target	2	Face	2-Back	30	80	29	0	0	100	1	39	129736	1	13	73	127697	-1	128257	1	560	2	2	2039	52	129749	-53	0																34												
WM080112	212318_fncb	2	1	1	-1313085922	1	75.031	75.031	2.0.10.147	2.0.10.242	2.0.10.242	1.0.0.439	7	234	2	3	Verdana	1	80	0	0	0	WM Stimuli\	1	717.3	1	647.2	0.9	660.888888888889	1	554.6	1	588.2	1	698	1	671.4	1	622.9	13	318618	2	318606	27	40	318645	-999999	318621	0	29	TrialsPROC	FC_014_F7.png	2	2	35	SessionSelectionList														target	2	Face	2-Back	31	80	30	0	0	100	1	39	132308	1	14	72	130269	-1	130826	0	557	3	2	2039	53	132322	-54	0																35												
WM080112	212318_fncb	2	1	1	-1313085922	1	75.031	75.031	2.0.10.147	2.0.10.242	2.0.10.242	1.0.0.439	7	234	2	3	Verdana	1	80	0	0	0	WM Stimuli\	1	717.3	1	647.2	0.9	660.888888888889	1	554.6	1	588.2	1	698	1	671.4	1	622.9	13	318618	2	318606	27	40	318645	-999999	318621	0	30	Cue0BackPROC	TO_019_TOOL19_BA.png	2	2	36	SessionSelectionList																																										19	132788	-20	0												36												
WM080112	212318_fncb	2	1	1	-1313085922	1	75.031	75.031	2.0.10.147	2.0.10.242	2.0.10.242	1.0.0.439	7	234	2	3	Verdana	1	80	0	0	0	WM Stimuli\	1	717.3	1	647.2	0.9	660.888888888889	1	554.6	1	588.2	1	698	1	671.4	1	622.9	13	318618	2	318606	27	40	318645	-999999	318621	0	31	TrialsPROC	TO_019_TOOL19_BA.png	2	2	37	SessionSelectionList														target	2	Tools	0-Back	32	80	31	0	0	100	1	39	137359	2	14	51	135320	-1	136392	1	1072	2	2	2039	53	137373	-54	0																37												
WM080112	212318_fncb	2	1	1	-1313085922	1	75.031	75.031	2.0.10.147	2.0.10.242	2.0.10.242	1.0.0.439	7	234	2	3	Verdana	1	80	0	0	0	WM Stimuli\	1	717.3	1	647.2	0.9	660.888888888889	1	554.6	1	588.2	1	698	1	671.4	1	622.9	13	318618	2	318606	27	40	318645	-999999	318621	0	31	TrialsPROC	TO_024_TOOL24_BA.png	2	2	38	SessionSelectionList														nonlure	3	Tools	0-Back	33	80	32	0	0	100	1	39	139918	2	14	59	137879	-1	138565	1	686	3	3	2039	53	139932	-54	0																38												
WM080112	212318_fncb	2	1	1	-1313085922	1	75.031	75.031	2.0.10.147	2.0.10.242	2.0.10.242	1.0.0.439	7	234	2	3	Verdana	1	80	0	0	0	WM Stimuli\	1	717.3	1	647.2	0.9	660.888888888889	1	554.6	1	588.2	1	698	1	671.4	1	622.9	13	318618	2	318606	27	40	318645	-999999	318621	0	31	TrialsPROC	TO_019_TOOL19_BA.png	2	2	39	SessionSelectionList														target	2	Tools	0-Back	34	80	33	0	0	100	1	39	142477	2	14	59	140438	-1	140983	1	545	2	2	2039	53	142491	-54	0																39												
WM080112	212318_fncb	2	1	1	-1313085922	1	75.031	75.031	2.0.10.147	2.0.10.242	2.0.10.242	1.0.0.439	7	234	2	3	Verdana	1	80	0	0	0	WM Stimuli\	1	717.3	1	647.2	0.9	660.888888888889	1	554.6	1	588.2	1	698	1	671.4	1	622.9	13	318618	2	318606	27	40	318645	-999999	318621	0	31	TrialsPROC	TO_023_TOOL23_BA.png	2	2	40	SessionSelectionList														nonlure	3	Tools	0-Back	35	80	34	0	0	100	1	39	145036	1	14	59	142997	-1	143601	1	604	3	3	2039	53	145050	-54	0																40												
WM080112	212318_fncb	2	1	1	-1313085922	1	75.031	75.031	2.0.10.147	2.0.10.242	2.0.10.242	1.0.0.439	7	234	2	3	Verdana	1	80	0	0	0	WM Stimuli\	1	717.3	1	647.2	0.9	660.888888888889	1	554.6	1	588.2	1	698	1	671.4	1	622.9	13	318618	2	318606	27	40	318645	-999999	318621	0	31	TrialsPROC	TO_020_TOOL20_BA.png	2	2	41	SessionSelectionList														nonlure	3	Tools	0-Back	36	80	35	0	0	100	2	39	147595	1	14	59	145556	-1	146011	1	455	3	3	2039	53	147609	-54	0																41												
WM080112	212318_fncb	2	1	1	-1313085922	1	75.031	75.031	2.0.10.147	2.0.10.242	2.0.10.242	1.0.0.439	7	234	2	3	Verdana	1	80	0	0	0	WM Stimuli\	1	717.3	1	647.2	0.9	660.888888888889	1	554.6	1	588.2	1	698	1	671.4	1	622.9	13	318618	2	318606	27	40	318645	-999999	318621	0	31	TrialsPROC	TO_020_TOOL20_BA.png	2	2	42	SessionSelectionList														lure	3	Tools	0-Back	37	80	36	0	0	100	3	39	150154	1	14	59	148115	-1	148543	1	428	3	3	2039	53	150168	-54	0																42												
WM080112	212318_fncb	2	1	1	-1313085922	1	75.031	75.031	2.0.10.147	2.0.10.242	2.0.10.242	1.0.0.439	7	234	2	3	Verdana	1	80	0	0	0	WM Stimuli\	1	717.3	1	647.2	0.9	660.888888888889	1	554.6	1	588.2	1	698	1	671.4	1	622.9	13	318618	2	318606	27	40	318645	-999999	318621	0	31	TrialsPROC	TO_022_TOOL22_BA.png	2	2	43	SessionSelectionList														nonlure	3	Tools	0-Back	38	80	37	0	0	100	4	39	152713	1	13	59	150674	-1	151183	1	509	3	3	2039	52	152726	-53	0																43												
WM080112	212318_fncb	2	1	1	-1313085922	1	75.031	75.031	2.0.10.147	2.0.10.242	2.0.10.242	1.0.0.439	7	234	2	3	Verdana	1	80	0	0	0	WM Stimuli\	1	717.3	1	647.2	0.9	660.888888888889	1	554.6	1	588.2	1	698	1	671.4	1	622.9	13	318618	2	318606	27	40	318645	-999999	318621	0	31	TrialsPROC	TO_022_TOOL22_BA.png	2	2	44	SessionSelectionList														lure	3	Tools	0-Back	39	80	38	0	0	100	5	39	155272	1	13	59	153233	-1	154022	1	789	3	3	2039	52	155285	-53	0																44												
WM080112	212318_fncb	2	1	1	-1313085922	1	75.031	75.031	2.0.10.147	2.0.10.242	2.0.10.242	1.0.0.439	7	234	2	3	Verdana	1	80	0	0	0	WM Stimuli\	1	717.3	1	647.2	0.9	660.888888888889	1	554.6	1	588.2	1	698	1	671.4	1	622.9	13	318618	2	318606	27	40	318645	-999999	318621	0	31	TrialsPROC	TO_021_TOOL21_BA.png	2	2	45	SessionSelectionList														nonlure	3	Tools	0-Back	40	80	39	0	0	100	6	39	157831	2	13	59	155792	-1	156442	1	650	3	3	2039	52	157844	-53	0																45												
WM080112	212318_fncb	2	1	1	-1313085922	1	75.031	75.031	2.0.10.147	2.0.10.242	2.0.10.242	1.0.0.439	7	234	2	3	Verdana	1	80	0	0	0	WM Stimuli\	1	717.3	1	647.2	0.9	660.888888888889	1	554.6	1	588.2	1	698	1	671.4	1	622.9	13	318618	2	318606	27	40	318645	-999999	318621	0	31	TrialsPROC	TO_021_TOOL21_BA.png	2	2	46	SessionSelectionList														lure	3	Tools	0-Back	41	80	40	0	0	100	7	39	160390	1	13	59	158351	-1	158842	1	491	3	3	2039	52	160403	-53	0																46												
WM080112	212318_fncb	2	1	1	-1313085922	1	75.031	75.031	2.0.10.147	2.0.10.242	2.0.10.242	1.0.0.439	7	234	2	3	Verdana	1	80	0	0	0	WM Stimuli\	1	717.3	1	647.2	0.9	660.888888888889	1	554.6	1	588.2	1	698	1	671.4	1	622.9	13	318618	2	318606	27	40	318645	-999999	318621	0	32	Fix15secPROC	""	2	2	47	SessionSelectionList																																															5	160856	-6	0							47												
WM080112	212318_fncb	2	1	1	-1313085922	1	75.031	75.031	2.0.10.147	2.0.10.242	2.0.10.242	1.0.0.439	7	234	2	3	Verdana	1	80	0	0	0	WM Stimuli\	1	717.3	1	647.2	0.9	660.888888888889	1	554.6	1	588.2	1	698	1	671.4	1	622.9	13	318618	2	318606	27	40	318645	-999999	318621	0	33	Cue2BackPROC	""	2	2	48	SessionSelectionList									12	175863	-13	0																																													48												
WM080112	212318_fncb	2	1	1	-1313085922	1	75.031	75.031	2.0.10.147	2.0.10.242	2.0.10.242	1.0.0.439	7	234	2	3	Verdana	1	80	0	0	0	WM Stimuli\	1	717.3	1	647.2	0.9	660.888888888889	1	554.6	1	588.2	1	698	1	671.4	1	622.9	13	318618	2	318606	27	40	318645	-999999	318621	0	34	TrialsPROC	BP_020_H17-T_BA.png	2	2	49	SessionSelectionList														nonlure	3	Body	2-Back	42	80	41	0	0	100	8	39	180448	2	14	58	178409	-1	179186	1	777	3	3	2039	53	180462	-54	0																49												
WM080112	212318_fncb	2	1	1	-1313085922	1	75.031	75.031	2.0.10.147	2.0.10.242	2.0.10.242	1.0.0.439	7	234	2	3	Verdana	1	80	0	0	0	WM Stimuli\	1	717.3	1	647.2	0.9	660.888888888889	1	554.6	1	588.2	1	698	1	671.4	1	622.9	13	318618	2	318606	27	40	318645	-999999	318621	0	34	TrialsPROC	BP_019_H14-T_BA.png	2	2	50	SessionSelectionList														nonlure	3	Body	2-Back	43	80	42	0	0	100	9	39	183007	1	14	59	180968	-1	181540	1	572	3	3	2039	53	183021	-54	0																50												
WM080112	212318_fncb	2	1	1	-1313085922	1	75.031	75.031	2.0.10.147	2.0.10.242	2.0.10.242	1.0.0.439	7	234	2	3	Verdana	1	80	0	0	0	WM Stimuli\	1	717.3	1	647.2	0.9	660.888888888889	1	554.6	1	588.2	1	698	1	671.4	1	622.9	13	318618	2	318606	27	40	318645	-999999	318621	0	34	TrialsPROC	BP_020_H17-T_BA.png	2	2	51	SessionSelectionList														target	2	Body	2-Back	44	80	43	0	0	100	1	39	185566	1	14	59	183527	-1	184103	1	576	2	2	2039	53	185580	-54	0																51												
WM080112	212318_fncb	2	1	1	-1313085922	1	75.031	75.031	2.0.10.147	2.0.10.242	2.0.10.242	1.0.0.439	7	234	2	3	Verdana	1	80	0	0	0	WM Stimuli\	1	717.3	1	647.2	0.9	660.888888888889	1	554.6	1	588.2	1	698	1	671.4	1	622.9	13	318618	2	318606	27	40	318645	-999999	318621	0	34	TrialsPROC	BP_019_H14-T_BA.png	2	2	52	SessionSelectionList														target	2	Body	2-Back	45	80	44	0	0	100	2	39	188125	1	14	59	186086	-1	186877	1	791	2	2	2039	53	188139	-54	0																52												
WM080112	212318_fncb	2	1	1	-1313085922	1	75.031	75.031	2.0.10.147	2.0.10.242	2.0.10.242	1.0.0.439	7	234	2	3	Verdana	1	80	0	0	0	WM Stimuli\	1	717.3	1	647.2	0.9	660.888888888889	1	554.6	1	588.2	1	698	1	671.4	1	622.9	13	318618	2	318606	27	40	318645	-999999	318621	0	34	TrialsPROC	BP_024_H3-T_BA.png	2	2	53	SessionSelectionList														nonlure	3	Body	2-Back	46	80	45	0	0	100	1	39	190684	1	13	59	188645	-1	189659	1	1014	3	3	2039	52	190697	-53	0																53												
WM080112	212318_fncb	2	1	1	-1313085922	1	75.031	75.031	2.0.10.147	2.0.10.242	2.0.10.242	1.0.0.439	7	234	2	3	Verdana	1	80	0	0	0	WM Stimuli\	1	717.3	1	647.2	0.9	660.888888888889	1	554.6	1	588.2	1	698	1	671.4	1	622.9	13	318618	2	318606	27	40	318645	-999999	318621	0	34	TrialsPROC	BP_024_H3-T_BA.png	2	2	54	SessionSelectionList														lure	3	Body	2-Back	47	80	46	0	0	100	2	39	193243	1	13	59	191204	-1	192108	1	904	3	3	2039	52	193256	-53	0																54												
WM080112	212318_fncb	2	1	1	-1313085922	1	75.031	75.031	2.0.10.147	2.0.10.242	2.0.10.242	1.0.0.439	7	234	2	3	Verdana	1	80	0	0	0	WM Stimuli\	1	717.3	1	647.2	0.9	660.888888888889	1	554.6	1	588.2	1	698	1	671.4	1	622.9	13	318618	2	318606	27	40	318645	-999999	318621	0	34	TrialsPROC	BP_025_H5-T_BA.png	2	2	55	SessionSelectionList														nonlure	3	Body	2-Back	48	80	47	0	0	100	3	39	195802	1	13	59	193763	-1	194401	1	638	3	3	2039	52	195815	-53	0																55												
WM080112	212318_fncb	2	1	1	-1313085922	1	75.031	75.031	2.0.10.147	2.0.10.242	2.0.10.242	1.0.0.439	7	234	2	3	Verdana	1	80	0	0	0	WM Stimuli\	1	717.3	1	647.2	0.9	660.888888888889	1	554.6	1	588.2	1	698	1	671.4	1	622.9	13	318618	2	318606	27	40	318645	-999999	318621	0	34	TrialsPROC	BP_023_H25-T_BA.png	2	2	56	SessionSelectionList														nonlure	3	Body	2-Back	49	80	48	0	0	100	4	39	198374	1	14	72	196335	-1	197047	1	712	3	3	2039	53	198388	-54	0																56												
WM080112	212318_fncb	2	1	1	-1313085922	1	75.031	75.031	2.0.10.147	2.0.10.242	2.0.10.242	1.0.0.439	7	234	2	3	Verdana	1	80	0	0	0	WM Stimuli\	1	717.3	1	647.2	0.9	660.888888888889	1	554.6	1	588.2	1	698	1	671.4	1	622.9	13	318618	2	318606	27	40	318645	-999999	318621	0	34	TrialsPROC	BP_022_H24-T_BA.png	2	2	57	SessionSelectionList														nonlure	3	Body	2-Back	50	80	49	0	0	100	5	39	200933	1	14	59	198894	-1	199506	1	612	3	3	2039	53	200947	-54	0																57												
WM080112	212318_fncb	2	1	1	-1313085922	1	75.031	75.031	2.0.10.147	2.0.10.242	2.0.10.242	1.0.0.439	7	234	2	3	Verdana	1	80	0	0	0	WM Stimuli\	1	717.3	1	647.2	0.9	660.888888888889	1	554.6	1	588.2	1	698	1	671.4	1	622.9	13	318618	2	318606	27	40	318645	-999999	318621	0	34	TrialsPROC	BP_022_H24-T_BA.png	2	2	58	SessionSelectionList														lure	3	Body	2-Back	51	80	50	0	0	100	6	39	203492	1	13	59	201453	-1	202030	1	577	3	3	2039	52	203505	-53	0																58												
WM080112	212318_fncb	2	1	1	-1313085922	1	75.031	75.031	2.0.10.147	2.0.10.242	2.0.10.242	1.0.0.439	7	234	2	3	Verdana	1	80	0	0	0	WM Stimuli\	1	717.3	1	647.2	0.9	660.888888888889	1	554.6	1	588.2	1	698	1	671.4	1	622.9	13	318618	2	318606	27	40	318645	-999999	318621	0	35	Cue2BackPROC	""	2	2	59	SessionSelectionList									5	203958	-6	0																																													59												
WM080112	212318_fncb	2	1	1	-1313085922	1	75.031	75.031	2.0.10.147	2.0.10.242	2.0.10.242	1.0.0.439	7	234	2	3	Verdana	1	80	0	0	0	WM Stimuli\	1	717.3	1	647.2	0.9	660.888888888889	1	554.6	1	588.2	1	698	1	671.4	1	622.9	13	318618	2	318606	27	40	318645	-999999	318621	0	36	TrialsPROC	PL_019_SCENE_05.png	2	2	60	SessionSelectionList														nonlure	3	Place	2-Back	52	80	51	0	0	100	7	39	208556	2	14	64	206517	-1	207248	1	731	3	3	2039	53	208570	-54	0																60												
WM080112	212318_fncb	2	1	1	-1313085922	1	75.031	75.031	2.0.10.147	2.0.10.242	2.0.10.242	1.0.0.439	7	234	2	3	Verdana	1	80	0	0	0	WM Stimuli\	1	717.3	1	647.2	0.9	660.888888888889	1	554.6	1	588.2	1	698	1	671.4	1	622.9	13	318618	2	318606	27	40	318645	-999999	318621	0	36	TrialsPROC	PL_017_SCENE_03.png	2	2	61	SessionSelectionList														nonlure	3	Place	2-Back	53	80	52	0	0	100	8	39	211129	1	13	73	209090	-1	209504	1	414	3	3	2039	52	211142	-53	0																61												
WM080112	212318_fncb	2	1	1	-1313085922	1	75.031	75.031	2.0.10.147	2.0.10.242	2.0.10.242	1.0.0.439	7	234	2	3	Verdana	1	80	0	0	0	WM Stimuli\	1	717.3	1	647.2	0.9	660.888888888889	1	554.6	1	588.2	1	698	1	671.4	1	622.9	13	318618	2	318606	27	40	318645	-999999	318621	0	36	TrialsPROC	PL_017_SCENE_03.png	2	2	62	SessionSelectionList														lure	3	Place	2-Back	54	80	53	0	0	100	9	39	213701	1	14	72	211662	-1	212351	1	689	3	3	2039	53	213715	-54	0																62												
WM080112	212318_fncb	2	1	1	-1313085922	1	75.031	75.031	2.0.10.147	2.0.10.242	2.0.10.242	1.0.0.439	7	234	2	3	Verdana	1	80	0	0	0	WM Stimuli\	1	717.3	1	647.2	0.9	660.888888888889	1	554.6	1	588.2	1	698	1	671.4	1	622.9	13	318618	2	318606	27	40	318645	-999999	318621	0	36	TrialsPROC	PL_016_SCENE_02.png	2	2	63	SessionSelectionList														nonlure	3	Place	2-Back	55	80	54	0	0	100	10	39	216273	2	14	72	214234	-1	214730	1	496	3	3	2039	53	216287	-54	0																63												
WM080112	212318_fncb	2	1	1	-1313085922	1	75.031	75.031	2.0.10.147	2.0.10.242	2.0.10.242	1.0.0.439	7	234	2	3	Verdana	1	80	0	0	0	WM Stimuli\	1	717.3	1	647.2	0.9	660.888888888889	1	554.6	1	588.2	1	698	1	671.4	1	622.9	13	318618	2	318606	27	40	318645	-999999	318621	0	36	TrialsPROC	PL_015_SCENE_01.png	2	2	64	SessionSelectionList														nonlure	3	Place	2-Back	56	80	55	0	0	100	11	40	218846	1	13	72	216806	-1	217422	1	616	3	3	2040	53	218859	-54	0																64												
WM080112	212318_fncb	2	1	1	-1313085922	1	75.031	75.031	2.0.10.147	2.0.10.242	2.0.10.242	1.0.0.439	7	234	2	3	Verdana	1	80	0	0	0	WM Stimuli\	1	717.3	1	647.2	0.9	660.888888888889	1	554.6	1	588.2	1	698	1	671.4	1	622.9	13	318618	2	318606	27	40	318645	-999999	318621	0	36	TrialsPROC	PL_016_SCENE_02.png	2	2	65	SessionSelectionList														target	2	Place	2-Back	57	80	56	0	0	100	1	39	221418	1	13	73	219379	-1	219866	1	487	2	2	2039	52	221431	-53	0																65												
WM080112	212318_fncb	2	1	1	-1313085922	1	75.031	75.031	2.0.10.147	2.0.10.242	2.0.10.242	1.0.0.439	7	234	2	3	Verdana	1	80	0	0	0	WM Stimuli\	1	717.3	1	647.2	0.9	660.888888888889	1	554.6	1	588.2	1	698	1	671.4	1	622.9	13	318618	2	318606	27	40	318645	-999999	318621	0	36	TrialsPROC	PL_015_SCENE_01.png	2	2	66	SessionSelectionList														target	2	Place	2-Back	58	80	57	0	0	100	2	39	223990	2	14	72	221951	-1	222453	1	502	2	2	2039	53	224004	-54	0																66												
WM080112	212318_fncb	2	1	1	-1313085922	1	75.031	75.031	2.0.10.147	2.0.10.242	2.0.10.242	1.0.0.439	7	234	2	3	Verdana	1	80	0	0	0	WM Stimuli\	1	717.3	1	647.2	0.9	660.888888888889	1	554.6	1	588.2	1	698	1	671.4	1	622.9	13	318618	2	318606	27	40	318645	-999999	318621	0	36	TrialsPROC	PL_020_SCENE_06.png	2	2	67	SessionSelectionList														nonlure	3	Place	2-Back	59	80	58	0	0	100	1	39	226562	2	14	72	224523	-1	225159	1	636	3	3	2039	53	226576	-54	0																67												
WM080112	212318_fncb	2	1	1	-1313085922	1	75.031	75.031	2.0.10.147	2.0.10.242	2.0.10.242	1.0.0.439	7	234	2	3	Verdana	1	80	0	0	0	WM Stimuli\	1	717.3	1	647.2	0.9	660.888888888889	1	554.6	1	588.2	1	698	1	671.4	1	622.9	13	318618	2	318606	27	40	318645	-999999	318621	0	36	TrialsPROC	PL_020_SCENE_06.png	2	2	68	SessionSelectionList														lure	3	Place	2-Back	60	80	59	0	0	100	2	40	229135	1	13	72	227095	-1	227872	1	777	3	3	2040	53	229148	-54	0																68												
WM080112	212318_fncb	2	1	1	-1313085922	1	75.031	75.031	2.0.10.147	2.0.10.242	2.0.10.242	1.0.0.439	7	234	2	3	Verdana	1	80	0	0	0	WM Stimuli\	1	717.3	1	647.2	0.9	660.888888888889	1	554.6	1	588.2	1	698	1	671.4	1	622.9	13	318618	2	318606	27	40	318645	-999999	318621	0	36	TrialsPROC	PL_018_SCENE_04.png	2	2	69	SessionSelectionList														nonlure	3	Place	2-Back	61	80	60	0	0	100	3	39	231707	1	13	73	229668	-1	230202	1	534	3	3	2039	52	231720	-53	0																69												
WM080112	212318_fncb	2	1	1	-1313085922	1	75.031	75.031	2.0.10.147	2.0.10.242	2.0.10.242	1.0.0.439	7	234	2	3	Verdana	1	80	0	0	0	WM Stimuli\	1	717.3	1	647.2	0.9	660.888888888889	1	554.6	1	588.2	1	698	1	671.4	1	622.9	13	318618	2	318606	27	40	318645	-999999	318621	0	37	Fix15secPROC	""	2	2	70	SessionSelectionList																																															6	232174	-7	0							70												
WM080112	212318_fncb	2	1	1	-1313085922	1	75.031	75.031	2.0.10.147	2.0.10.242	2.0.10.242	1.0.0.439	7	234	2	3	Verdana	1	80	0	0	0	WM Stimuli\	1	717.3	1	647.2	0.9	660.888888888889	1	554.6	1	588.2	1	698	1	671.4	1	622.9	13	318618	2	318606	27	40	318645	-999999	318621	0	38	Cue0BackPROC	FC_020_F10.png	2	2	71	SessionSelectionList																																										26	247194	-27	0												71												
WM080112	212318_fncb	2	1	1	-1313085922	1	75.031	75.031	2.0.10.147	2.0.10.242	2.0.10.242	1.0.0.439	7	234	2	3	Verdana	1	80	0	0	0	WM Stimuli\	1	717.3	1	647.2	0.9	660.888888888889	1	554.6	1	588.2	1	698	1	671.4	1	622.9	13	318618	2	318606	27	40	318645	-999999	318621	0	39	TrialsPROC	FC_024_F12.png	2	2	72	SessionSelectionList														nonlure	3	Face	0-Back	62	80	61	0	0	100	4	40	251779	1	13	71	249739	-1	250475	1	736	3	3	2040	53	251792	-54	0																72												
WM080112	212318_fncb	2	1	1	-1313085922	1	75.031	75.031	2.0.10.147	2.0.10.242	2.0.10.242	1.0.0.439	7	234	2	3	Verdana	1	80	0	0	0	WM Stimuli\	1	717.3	1	647.2	0.9	660.888888888889	1	554.6	1	588.2	1	698	1	671.4	1	622.9	13	318618	2	318606	27	40	318645	-999999	318621	0	39	TrialsPROC	FC_023_M12.png	2	2	73	SessionSelectionList														nonlure	3	Face	0-Back	63	80	62	0	0	100	5	39	254351	1	13	73	252312	-1	252771	1	459	3	3	2039	52	254364	-53	0																73												
WM080112	212318_fncb	2	1	1	-1313085922	1	75.031	75.031	2.0.10.147	2.0.10.242	2.0.10.242	1.0.0.439	7	234	2	3	Verdana	1	80	0	0	0	WM Stimuli\	1	717.3	1	647.2	0.9	660.888888888889	1	554.6	1	588.2	1	698	1	671.4	1	622.9	13	318618	2	318606	27	40	318645	-999999	318621	0	39	TrialsPROC	FC_020_F10.png	2	2	74	SessionSelectionList														target	2	Face	0-Back	64	80	63	0	0	100	1	39	256923	2	14	72	254884	-1	255364	1	480	2	2	2039	53	256937	-54	0																74												
WM080112	212318_fncb	2	1	1	-1313085922	1	75.031	75.031	2.0.10.147	2.0.10.242	2.0.10.242	1.0.0.439	7	234	2	3	Verdana	1	80	0	0	0	WM Stimuli\	1	717.3	1	647.2	0.9	660.888888888889	1	554.6	1	588.2	1	698	1	671.4	1	622.9	13	318618	2	318606	27	40	318645	-999999	318621	0	39	TrialsPROC	FC_024_F12.png	2	2	75	SessionSelectionList														lure	3	Face	0-Back	65	80	64	0	0	100	1	39	259495	2	14	72	257456	-1	258061	1	605	3	3	2039	53	259509	-54	0																75												
WM080112	212318_fncb	2	1	1	-1313085922	1	75.031	75.031	2.0.10.147	2.0.10.242	2.0.10.242	1.0.0.439	7	234	2	3	Verdana	1	80	0	0	0	WM Stimuli\	1	717.3	1	647.2	0.9	660.888888888889	1	554.6	1	588.2	1	698	1	671.4	1	622.9	13	318618	2	318606	27	40	318645	-999999	318621	0	39	TrialsPROC	FC_020_F10.png	2	2	76	SessionSelectionList														target	2	Face	0-Back	66	80	65	0	0	100	1	39	262068	1	13	73	260029	-1	260610	1	581	2	2	2039	52	262081	-53	0																76												
WM080112	212318_fncb	2	1	1	-1313085922	1	75.031	75.031	2.0.10.147	2.0.10.242	2.0.10.242	1.0.0.439	7	234	2	3	Verdana	1	80	0	0	0	WM Stimuli\	1	717.3	1	647.2	0.9	660.888888888889	1	554.6	1	588.2	1	698	1	671.4	1	622.9	13	318618	2	318606	27	40	318645	-999999	318621	0	39	TrialsPROC	FC_022_F11.png	2	2	77	SessionSelectionList														nonlure	3	Face	0-Back	67	80	66	0	0	100	1	39	264640	1	14	72	262601	-1	263214	1	613	3	3	2039	53	264654	-54	0																77												
WM080112	212318_fncb	2	1	1	-1313085922	1	75.031	75.031	2.0.10.147	2.0.10.242	2.0.10.242	1.0.0.439	7	234	2	3	Verdana	1	80	0	0	0	WM Stimuli\	1	717.3	1	647.2	0.9	660.888888888889	1	554.6	1	588.2	1	698	1	671.4	1	622.9	13	318618	2	318606	27	40	318645	-999999	318621	0	39	TrialsPROC	FC_023_M12.png	2	2	78	SessionSelectionList														lure	3	Face	0-Back	68	80	67	0	0	100	2	39	267212	2	14	72	265173	-1	265717	1	544	3	3	2039	53	267226	-54	0																78												
WM080112	212318_fncb	2	1	1	-1313085922	1	75.031	75.031	2.0.10.147	2.0.10.242	2.0.10.242	1.0.0.439	7	234	2	3	Verdana	1	80	0	0	0	WM Stimuli\	1	717.3	1	647.2	0.9	660.888888888889	1	554.6	1	588.2	1	698	1	671.4	1	622.9	13	318618	2	318606	27	40	318645	-999999	318621	0	39	TrialsPROC	FC_021_M11.png	2	2	79	SessionSelectionList														nonlure	3	Face	0-Back	69	80	68	0	0	100	3	39	269784	2	14	72	267745	-1	268270	1	525	3	3	2039	53	269798	-54	0																79												
WM080112	212318_fncb	2	1	1	-1313085922	1	75.031	75.031	2.0.10.147	2.0.10.242	2.0.10.242	1.0.0.439	7	234	2	3	Verdana	1	80	0	0	0	WM Stimuli\	1	717.3	1	647.2	0.9	660.888888888889	1	554.6	1	588.2	1	698	1	671.4	1	622.9	13	318618	2	318606	27	40	318645	-999999	318621	0	39	TrialsPROC	FC_021_M11.png	2	2	80	SessionSelectionList														lure	3	Face	0-Back	70	80	69	0	0	100	4	39	272357	1	13	73	270318	-1	270887	1	569	3	3	2039	52	272370	-53	0																80												
WM080112	212318_fncb	2	1	1	-1313085922	1	75.031	75.031	2.0.10.147	2.0.10.242	2.0.10.242	1.0.0.439	7	234	2	3	Verdana	1	80	0	0	0	WM Stimuli\	1	717.3	1	647.2	0.9	660.888888888889	1	554.6	1	588.2	1	698	1	671.4	1	622.9	13	318618	2	318606	27	40	318645	-999999	318621	0	39	TrialsPROC	FC_019_M10.png	2	2	81	SessionSelectionList														nonlure	3	Face	0-Back	71	80	70	0	0	100	5	39	274929	1	14	72	272890	-1	273324	1	434	3	3	2039	53	274943	-54	0																81												
WM080112	212318_fncb	2	1	1	-1313085922	1	75.031	75.031	2.0.10.147	2.0.10.242	2.0.10.242	1.0.0.439	7	234	2	3	Verdana	1	80	0	0	0	WM Stimuli\	1	717.3	1	647.2	0.9	660.888888888889	1	554.6	1	588.2	1	698	1	671.4	1	622.9	13	318618	2	318606	27	40	318645	-999999	318621	0	40	Cue0BackPROC	PL_021_SCENE_07.png	2	2	82	SessionSelectionList																																										19	275409	-20	0												82												
WM080112	212318_fncb	2	1	1	-1313085922	1	75.031	75.031	2.0.10.147	2.0.10.242	2.0.10.242	1.0.0.439	7	234	2	3	Verdana	1	80	0	0	0	WM Stimuli\	1	717.3	1	647.2	0.9	660.888888888889	1	554.6	1	588.2	1	698	1	671.4	1	622.9	13	318618	2	318606	27	40	318645	-999999	318621	0	41	TrialsPROC	PL_025_SCENE_18.png	2	2	83	SessionSelectionList														nonlure	3	Place	0-Back	72	80	71	0	0	100	6	40	279994	1	13	64	277954	-1	278655	1	701	3	3	2040	53	280007	-54	0																83												
WM080112	212318_fncb	2	1	1	-1313085922	1	75.031	75.031	2.0.10.147	2.0.10.242	2.0.10.242	1.0.0.439	7	234	2	3	Verdana	1	80	0	0	0	WM Stimuli\	1	717.3	1	647.2	0.9	660.888888888889	1	554.6	1	588.2	1	698	1	671.4	1	622.9	13	318618	2	318606	27	40	318645	-999999	318621	0	41	TrialsPROC	PL_026_SCENE_24.png	2	2	84	SessionSelectionList														nonlure	3	Place	0-Back	73	80	72	0	0	100	7	39	282566	1	13	73	280527	-1	280999	1	472	3	3	2039	52	282579	-53	0																84												
WM080112	212318_fncb	2	1	1	-1313085922	1	75.031	75.031	2.0.10.147	2.0.10.242	2.0.10.242	1.0.0.439	7	234	2	3	Verdana	1	80	0	0	0	WM Stimuli\	1	717.3	1	647.2	0.9	660.888888888889	1	554.6	1	588.2	1	698	1	671.4	1	622.9	13	318618	2	318606	27	40	318645	-999999	318621	0	41	TrialsPROC	PL_025_SCENE_18.png	2	2	85	SessionSelectionList														lure	3	Place	0-Back	74	80	73	0	0	100	8	39	285138	2	14	72	283099	-1	284615	1	1516	3	3	2039	53	285152	-54	0																85												
WM080112	212318_fncb	2	1	1	-1313085922	1	75.031	75.031	2.0.10.147	2.0.10.242	2.0.10.242	1.0.0.439	7	234	2	3	Verdana	1	80	0	0	0	WM Stimuli\	1	717.3	1	647.2	0.9	660.888888888889	1	554.6	1	588.2	1	698	1	671.4	1	622.9	13	318618	2	318606	27	40	318645	-999999	318621	0	41	TrialsPROC	PL_022_SCENE_08.png	2	2	86	SessionSelectionList														nonlure	3	Place	0-Back	75	80	74	0	0	100	9	39	287710	2	14	72	285671	-1	286331	1	660	3	3	2039	53	287724	-54	0																86												
WM080112	212318_fncb	2	1	1	-1313085922	1	75.031	75.031	2.0.10.147	2.0.10.242	2.0.10.242	1.0.0.439	7	234	2	3	Verdana	1	80	0	0	0	WM Stimuli\	1	717.3	1	647.2	0.9	660.888888888889	1	554.6	1	588.2	1	698	1	671.4	1	622.9	13	318618	2	318606	27	40	318645	-999999	318621	0	41	TrialsPROC	PL_026_SCENE_24.png	2	2	87	SessionSelectionList														lure	3	Place	0-Back	76	80	75	0	0	100	10	52	290296	1	14	73	288244	-1	288762	1	518	3	3	2052	66	290310	-67	0																87												
WM080112	212318_fncb	2	1	1	-1313085922	1	75.031	75.031	2.0.10.147	2.0.10.242	2.0.10.242	1.0.0.439	7	234	2	3	Verdana	1	80	0	0	0	WM Stimuli\	1	717.3	1	647.2	0.9	660.888888888889	1	554.6	1	588.2	1	698	1	671.4	1	622.9	13	318618	2	318606	27	40	318645	-999999	318621	0	41	TrialsPROC	PL_021_SCENE_07.png	2	2	88	SessionSelectionList														target	2	Place	0-Back	77	80	76	0	0	100	1	39	292855	1	14	72	290816	-1	291473	1	657	2	2	2039	53	292869	-54	0																88												
WM080112	212318_fncb	2	1	1	-1313085922	1	75.031	75.031	2.0.10.147	2.0.10.242	2.0.10.242	1.0.0.439	7	234	2	3	Verdana	1	80	0	0	0	WM Stimuli\	1	717.3	1	647.2	0.9	660.888888888889	1	554.6	1	588.2	1	698	1	671.4	1	622.9	13	318618	2	318606	27	40	318645	-999999	318621	0	41	TrialsPROC	PL_021_SCENE_07.png	2	2	89	SessionSelectionList														target	2	Place	0-Back	78	80	77	0	0	100	2	39	295427	2	14	72	293388	-1	293914	1	526	2	2	2039	53	295441	-54	0																89												
WM080112	212318_fncb	2	1	1	-1313085922	1	75.031	75.031	2.0.10.147	2.0.10.242	2.0.10.242	1.0.0.439	7	234	2	3	Verdana	1	80	0	0	0	WM Stimuli\	1	717.3	1	647.2	0.9	660.888888888889	1	554.6	1	588.2	1	698	1	671.4	1	622.9	13	318618	2	318606	27	40	318645	-999999	318621	0	41	TrialsPROC	PL_023_SCENE_09.png	2	2	90	SessionSelectionList														nonlure	3	Place	0-Back	79	80	78	0	0	100	1	39	297999	2	14	72	295960	-1	296525	1	565	3	3	2039	53	298013	-54	0																90												
WM080112	212318_fncb	2	1	1	-1313085922	1	75.031	75.031	2.0.10.147	2.0.10.242	2.0.10.242	1.0.0.439	7	234	2	3	Verdana	1	80	0	0	0	WM Stimuli\	1	717.3	1	647.2	0.9	660.888888888889	1	554.6	1	588.2	1	698	1	671.4	1	622.9	13	318618	2	318606	27	40	318645	-999999	318621	0	41	TrialsPROC	PL_024_SCENE_10.png	2	2	91	SessionSelectionList														nonlure	3	Place	0-Back	80	80	79	0	0	100	2	39	300572	1	13	73	298533	-1	299089	1	556	3	3	2039	52	300585	-53	0																91												
WM080112	212318_fncb	2	1	1	-1313085922	1	75.031	75.031	2.0.10.147	2.0.10.242	2.0.10.242	1.0.0.439	7	234	2	3	Verdana	1	80	0	0	0	WM Stimuli\	1	717.3	1	647.2	0.9	660.888888888889	1	554.6	1	588.2	1	698	1	671.4	1	622.9	13	318618	2	318606	27	40	318645	-999999	318621	0	41	TrialsPROC	PL_022_SCENE_08.png	2	2	92	SessionSelectionList														lure	3	Place	0-Back	80	80	80	0	0	100	3	39	303144	2	14	72	301105	-1	301914	1	809	3	3	2039	53	303158	-54	0																92												
WM080112	212318_fncb	2	1	1	-1313085922	1	75.031	75.031	2.0.10.147	2.0.10.242	2.0.10.242	1.0.0.439	7	234	2	3	Verdana	1	80	0	0	0	WM Stimuli\	1	717.3	1	647.2	0.9	660.888888888889	1	554.6	1	588.2	1	698	1	671.4	1	622.9	13	318618	2	318606	27	40	318645	-999999	318621	0	42	Fix15secPROC	""	2	2	93	SessionSelectionList																																															6	303611	-7	0							93												
