ExperimentName	HCPID	RunNumber	Subject	Session	RandomSeed	Group	Laptop.RefreshRate	ScannerD2.RefreshRate	StudioVersion	RuntimeVersion	RuntimeVersionExpected	ExperimentVersion	triggercode	Allowed	Target	Nontarget	FontStyle	RunTrialNumber[Session]	TrialsPerRun[Session]	TotalRespGreater200[Session]	ConsecRTLess200[Session]	ConsecNonResp[Session]	StimuliDir	ACC_2_Back_Body	Avg_RT_For_Correct_Trials_2_Back_Body	ACC_0_Back_Body	Avg_RT_For_Correct_Trials_0_Back_Body	ACC_2_Back_Face	Avg_RT_For_Correct_Trials_2_Back_Face	ACC_0_Back_Face	Avg_RT_For_Correct_Trials_0_Back_Face	ACC_2_Back_Place	Avg_RT_For_Correct_Trials_2_Back_Place	ACC_0_Back_Place	Avg_RT_For_Correct_Trials_0_Back_Place	ACC_2_Back_Tools	Avg_RT_For_Correct_Trials_2_Back_Tools	ACC_0_Back_Tools	Avg_RT_For_Correct_Trials_0_Back_Tools	ExpInstrucFeelFreeToRest.OnsetDelay	ExpInstrucFeelFreeToRest.OnsetTime	ExpInstrucFeelFreeToRest.DurationError	ExpInstrucFeelFreeToRest.StartTime	ExpInstrucFeelFreeToRest.OnsetToOnsetTime	FeelFreeToRest.OnsetDelay	FeelFreeToRest.OnsetTime	FeelFreeToRest.DurationError	FeelFreeToRest.StartTime	FeelFreeToRest.OnsetToOnsetTime	SessionSelectionList	Procedure[Block]	Stimulus[Block]	RunNumberFilterValue	SessionSelectionList.Cycle	SessionSelectionList.Sample	Running[Block]	IntroButtonMap.OnsetDelay	IntroButtonMap.OnsetTime	IntroButtonMap.DurationError	IntroButtonMap.OnsetToOnsetTime	GetReady.OnsetDelay	GetReady.OnsetTime	GetReady.DurationError	GetReady.OnsetToOnsetTime	Cue2Back.OnsetDelay	Cue2Back.OnsetTime	Cue2Back.DurationError	Cue2Back.OnsetToOnsetTime	Run1Block1	TargetType	CorrectResponse	StimType	BlockType	RunTrialNumber[Block]	TrialsPerRun[Block]	TotalRespGreater200[Block]	ConsecRTLess200[Block]	ConsecNonResp[Block]	ControlAcc	ConsecSameResp	ExperimenterWindow.OnsetDelay	ExperimenterWindow.OnsetTime	ExperimenterWindow.DurationError	ExperimenterWindow.OnsetToOnsetTime	Stim.OnsetDelay	Stim.OnsetTime	Stim.DurationError	Stim.RTTime	Stim.ACC	Stim.RT	Stim.RESP	Stim.CRESP	Stim.OnsetToOnsetTime	Fix.OnsetDelay	Fix.OnsetTime	Fix.DurationError	Fix.OnsetToOnsetTime	CueTarget.OnsetDelay	CueTarget.OnsetTime	CueTarget.DurationError	CueTarget.OnsetToOnsetTime	Run1Block2	Fix15sec.OnsetDelay	Fix15sec.OnsetTime	Fix15sec.DurationError	Fix15sec.OnsetToOnsetTime	Run1Block3	Run1Block4	Run1Block5	Run1Block6	Run1Block7	Run1Block8	Block	Procedure[Trial]	Stimulus[Trial]	ReadyList	Running[Trial]	ReadyList.Cycle	ReadyList.Sample	SyncSlide.OnsetDelay	SyncSlide.OnsetTime	SyncSlide.DurationError	SyncSlide.FinishTime	SyncSlide.OnsetToOnsetTime	Trial
WM080112	201111_fnca	2	1	1	2125423260	1	75.032	75.031	2.0.10.147	2.0.10.242	2.0.10.242	1.0.0.439	7	234	2	3	Verdana	1	80	0	0	0	WM Stimuli\	0.8	1096	1	748.1	0.7	1107.57142857143	1	649.6	0.8	1262	0.9	879.444444444444	0.6	952.666666666667	1	737.8	13	359058	2	359046	27	40	359085	-999999	359061	0	22	TRSyncPROC	""	2	2	1	SessionSelectionList	105	7922	-999999	0	32	9255	-999999	0																																																	1	InitialTR	4	1	ReadyList	1	1	22	65552	-23	67529	0	1
WM080112	201111_fnca	2	1	1	2125423260	1	75.032	75.031	2.0.10.147	2.0.10.242	2.0.10.242	1.0.0.439	7	234	2	3	Verdana	1	80	0	0	0	WM Stimuli\	0.8	1096	1	748.1	0.7	1107.57142857143	1	649.6	0.8	1262	0.9	879.444444444444	0.6	952.666666666667	1	737.8	13	359058	2	359046	27	40	359085	-999999	359061	0	22	TRSyncPROC	""	2	2	1	SessionSelectionList	105	7922	-999999	0	32	9255	-999999	0																																																	1	InitialTR	3	2	ReadyList	1	2	8	67538	-9	69529	0	2
WM080112	201111_fnca	2	1	1	2125423260	1	75.032	75.031	2.0.10.147	2.0.10.242	2.0.10.242	1.0.0.439	7	234	2	3	Verdana	1	80	0	0	0	WM Stimuli\	0.8	1096	1	748.1	0.7	1107.57142857143	1	649.6	0.8	1262	0.9	879.444444444444	0.6	952.666666666667	1	737.8	13	359058	2	359046	27	40	359085	-999999	359061	0	22	TRSyncPROC	""	2	2	1	SessionSelectionList	105	7922	-999999	0	32	9255	-999999	0																																																	1	InitialTR	2	3	ReadyList	1	3	7	69537	-8	71529	0	3
WM080112	201111_fnca	2	1	1	2125423260	1	75.032	75.031	2.0.10.147	2.0.10.242	2.0.10.242	1.0.0.439	7	234	2	3	Verdana	1	80	0	0	0	WM Stimuli\	0.8	1096	1	748.1	0.7	1107.57142857143	1	649.6	0.8	1262	0.9	879.444444444444	0.6	952.666666666667	1	737.8	13	359058	2	359046	27	40	359085	-999999	359061	0	22	TRSyncPROC	""	2	2	1	SessionSelectionList	105	7922	-999999	0	32	9255	-999999	0																																																	1	InitialTR	1	4	ReadyList	1	4	6	71536	-7	73529	0	4
WM080112	201111_fnca	2	1	1	2125423260	1	75.032	75.031	2.0.10.147	2.0.10.242	2.0.10.242	1.0.0.439	7	234	2	3	Verdana	1	80	0	0	0	WM Stimuli\	0.8	1096	1	748.1	0.7	1107.57142857143	1	649.6	0.8	1262	0.9	879.444444444444	0.6	952.666666666667	1	737.8	13	359058	2	359046	27	40	359085	-999999	359061	0	23	Cue2BackPROC	""	2	2	2	SessionSelectionList									5	73535	-6	0																																													2												
WM080112	201111_fnca	2	1	1	2125423260	1	75.032	75.031	2.0.10.147	2.0.10.242	2.0.10.242	1.0.0.439	7	234	2	3	Verdana	1	80	0	0	0	WM Stimuli\	0.8	1096	1	748.1	0.7	1107.57142857143	1	649.6	0.8	1262	0.9	879.444444444444	0.6	952.666666666667	1	737.8	13	359058	2	359046	27	40	359085	-999999	359061	0	24	TrialsPROC	TO_014_TOOL14_BA.png	2	2	3	SessionSelectionList														nonlure	3	Tools	2-Back	2	80	1	0	0	0	1	52	78160	3	14	78	76108	-1	77529	1	1421	3	3	2052	66	78174	-67	0																3												
WM080112	201111_fnca	2	1	1	2125423260	1	75.032	75.031	2.0.10.147	2.0.10.242	2.0.10.242	1.0.0.439	7	234	2	3	Verdana	1	80	0	0	0	WM Stimuli\	0.8	1096	1	748.1	0.7	1107.57142857143	1	649.6	0.8	1262	0.9	879.444444444444	0.6	952.666666666667	1	737.8	13	359058	2	359046	27	40	359085	-999999	359061	0	24	TrialsPROC	TO_013_TOOL13_BA.png	2	2	4	SessionSelectionList														nonlure	3	Tools	2-Back	3	80	2	0	0	0	2	39	80706	2	13	59	78667	-1	79583	1	916	3	3	2039	52	80719	-53	0																4												
WM080112	201111_fnca	2	1	1	2125423260	1	75.032	75.031	2.0.10.147	2.0.10.242	2.0.10.242	1.0.0.439	7	234	2	3	Verdana	1	80	0	0	0	WM Stimuli\	0.8	1096	1	748.1	0.7	1107.57142857143	1	649.6	0.8	1262	0.9	879.444444444444	0.6	952.666666666667	1	737.8	13	359058	2	359046	27	40	359085	-999999	359061	0	24	TrialsPROC	TO_016_TOOL16_BA.png	2	2	5	SessionSelectionList														nonlure	3	Tools	2-Back	4	80	3	0	0	0	3	39	83265	1	13	59	81226	-1	82156	1	930	3	3	2039	52	83278	-53	0																5												
WM080112	201111_fnca	2	1	1	2125423260	1	75.032	75.031	2.0.10.147	2.0.10.242	2.0.10.242	1.0.0.439	7	234	2	3	Verdana	1	80	0	0	0	WM Stimuli\	0.8	1096	1	748.1	0.7	1107.57142857143	1	649.6	0.8	1262	0.9	879.444444444444	0.6	952.666666666667	1	737.8	13	359058	2	359046	27	40	359085	-999999	359061	0	24	TrialsPROC	TO_014_TOOL14_BA.png	2	2	6	SessionSelectionList														lure	3	Tools	2-Back	5	80	3	0	1	0	3	39	85837	1	13	72	83798	-1	84607	0	809	4	3	2039	52	85850	-53	0																6												
WM080112	201111_fnca	2	1	1	2125423260	1	75.032	75.031	2.0.10.147	2.0.10.242	2.0.10.242	1.0.0.439	7	234	2	3	Verdana	1	80	0	0	0	WM Stimuli\	0.8	1096	1	748.1	0.7	1107.57142857143	1	649.6	0.8	1262	0.9	879.444444444444	0.6	952.666666666667	1	737.8	13	359058	2	359046	27	40	359085	-999999	359061	0	24	TrialsPROC	TO_016_TOOL16_BA.png	2	2	7	SessionSelectionList														target	2	Tools	2-Back	6	80	3	0	2	0	3	39	88396	1	13	59	86357	-1	87591	0	1234	4	2	2039	52	88409	-53	0																7												
WM080112	201111_fnca	2	1	1	2125423260	1	75.032	75.031	2.0.10.147	2.0.10.242	2.0.10.242	1.0.0.439	7	234	2	3	Verdana	1	80	0	0	0	WM Stimuli\	0.8	1096	1	748.1	0.7	1107.57142857143	1	649.6	0.8	1262	0.9	879.444444444444	0.6	952.666666666667	1	737.8	13	359058	2	359046	27	40	359085	-999999	359061	0	24	TrialsPROC	TO_018_TOOL18_BA.png	2	2	8	SessionSelectionList														nonlure	3	Tools	2-Back	7	80	4	0	0	0	1	39	90955	1	13	59	88916	-1	89658	1	742	3	3	2039	52	90968	-53	0																8												
WM080112	201111_fnca	2	1	1	2125423260	1	75.032	75.031	2.0.10.147	2.0.10.242	2.0.10.242	1.0.0.439	7	234	2	3	Verdana	1	80	0	0	0	WM Stimuli\	0.8	1096	1	748.1	0.7	1107.57142857143	1	649.6	0.8	1262	0.9	879.444444444444	0.6	952.666666666667	1	737.8	13	359058	2	359046	27	40	359085	-999999	359061	0	24	TrialsPROC	TO_017_TOOL17_BA.png	2	2	9	SessionSelectionList														nonlure	3	Tools	2-Back	8	80	5	0	0	0	2	39	93514	1	13	59	91475	-1	92241	1	766	3	3	2039	52	93527	-53	0																9												
WM080112	201111_fnca	2	1	1	2125423260	1	75.032	75.031	2.0.10.147	2.0.10.242	2.0.10.242	1.0.0.439	7	234	2	3	Verdana	1	80	0	0	0	WM Stimuli\	0.8	1096	1	748.1	0.7	1107.57142857143	1	649.6	0.8	1262	0.9	879.444444444444	0.6	952.666666666667	1	737.8	13	359058	2	359046	27	40	359085	-999999	359061	0	24	TrialsPROC	TO_018_TOOL18_BA.png	2	2	10	SessionSelectionList														target	2	Tools	2-Back	9	80	5	0	1	0	2	39	96073	1	13	59	94034	-1	94673	0	639	4	2	2039	52	96086	-53	0																10												
WM080112	201111_fnca	2	1	1	2125423260	1	75.032	75.031	2.0.10.147	2.0.10.242	2.0.10.242	1.0.0.439	7	234	2	3	Verdana	1	80	0	0	0	WM Stimuli\	0.8	1096	1	748.1	0.7	1107.57142857143	1	649.6	0.8	1262	0.9	879.444444444444	0.6	952.666666666667	1	737.8	13	359058	2	359046	27	40	359085	-999999	359061	0	24	TrialsPROC	TO_015_TOOL15_BA.png	2	2	11	SessionSelectionList														nonlure	3	Tools	2-Back	10	80	6	0	0	0	1	40	98632	1	13	58	96592	-1	97533	1	941	3	3	2040	53	98645	-54	0																11												
WM080112	201111_fnca	2	1	1	2125423260	1	75.032	75.031	2.0.10.147	2.0.10.242	2.0.10.242	1.0.0.439	7	234	2	3	Verdana	1	80	0	0	0	WM Stimuli\	0.8	1096	1	748.1	0.7	1107.57142857143	1	649.6	0.8	1262	0.9	879.444444444444	0.6	952.666666666667	1	737.8	13	359058	2	359046	27	40	359085	-999999	359061	0	24	TrialsPROC	TO_017_TOOL17_BA.png	2	2	12	SessionSelectionList														lure	3	Tools	2-Back	11	80	6	0	1	0	1	40	101191	1	13	59	99151	-1	99911	0	760	4	3	2040	53	101204	-54	0																12												
WM080112	201111_fnca	2	1	1	2125423260	1	75.032	75.031	2.0.10.147	2.0.10.242	2.0.10.242	1.0.0.439	7	234	2	3	Verdana	1	80	0	0	0	WM Stimuli\	0.8	1096	1	748.1	0.7	1107.57142857143	1	649.6	0.8	1262	0.9	879.444444444444	0.6	952.666666666667	1	737.8	13	359058	2	359046	27	40	359085	-999999	359061	0	25	Cue0BackPROC	BP_013_BP7_BA.png	2	2	13	SessionSelectionList																																										19	101670	-20	0												13												
WM080112	201111_fnca	2	1	1	2125423260	1	75.032	75.031	2.0.10.147	2.0.10.242	2.0.10.242	1.0.0.439	7	234	2	3	Verdana	1	80	0	0	0	WM Stimuli\	0.8	1096	1	748.1	0.7	1107.57142857143	1	649.6	0.8	1262	0.9	879.444444444444	0.6	952.666666666667	1	737.8	13	359058	2	359046	27	40	359085	-999999	359061	0	26	TrialsPROC	BP_015_H10-T_BA.png	2	2	14	SessionSelectionList														nonlure	3	Body	0-Back	12	80	7	0	0	100	1	39	106255	2	14	65	104216	-1	105132	1	916	3	3	2039	53	106269	-54	0																14												
WM080112	201111_fnca	2	1	1	2125423260	1	75.032	75.031	2.0.10.147	2.0.10.242	2.0.10.242	1.0.0.439	7	234	2	3	Verdana	1	80	0	0	0	WM Stimuli\	0.8	1096	1	748.1	0.7	1107.57142857143	1	649.6	0.8	1262	0.9	879.444444444444	0.6	952.666666666667	1	737.8	13	359058	2	359046	27	40	359085	-999999	359061	0	26	TrialsPROC	BP_018_H13-T_BA.png	2	2	15	SessionSelectionList														nonlure	3	Body	0-Back	13	80	8	0	0	100	2	39	108814	2	14	59	106775	-1	107374	1	599	3	3	2039	53	108828	-54	0																15												
WM080112	201111_fnca	2	1	1	2125423260	1	75.032	75.031	2.0.10.147	2.0.10.242	2.0.10.242	1.0.0.439	7	234	2	3	Verdana	1	80	0	0	0	WM Stimuli\	0.8	1096	1	748.1	0.7	1107.57142857143	1	649.6	0.8	1262	0.9	879.444444444444	0.6	952.666666666667	1	737.8	13	359058	2	359046	27	40	359085	-999999	359061	0	26	TrialsPROC	BP_014_BP9_BA.png	2	2	16	SessionSelectionList														nonlure	3	Body	0-Back	14	80	9	0	0	100	3	39	111373	1	14	59	109334	-1	110556	1	1222	3	3	2039	53	111387	-54	0																16												
WM080112	201111_fnca	2	1	1	2125423260	1	75.032	75.031	2.0.10.147	2.0.10.242	2.0.10.242	1.0.0.439	7	234	2	3	Verdana	1	80	0	0	0	WM Stimuli\	0.8	1096	1	748.1	0.7	1107.57142857143	1	649.6	0.8	1262	0.9	879.444444444444	0.6	952.666666666667	1	737.8	13	359058	2	359046	27	40	359085	-999999	359061	0	26	TrialsPROC	BP_018_H13-T_BA.png	2	2	17	SessionSelectionList														lure	3	Body	0-Back	15	80	10	0	0	100	4	39	113932	1	13	59	111893	-1	112542	1	649	3	3	2039	52	113945	-53	0																17												
WM080112	201111_fnca	2	1	1	2125423260	1	75.032	75.031	2.0.10.147	2.0.10.242	2.0.10.242	1.0.0.439	7	234	2	3	Verdana	1	80	0	0	0	WM Stimuli\	0.8	1096	1	748.1	0.7	1107.57142857143	1	649.6	0.8	1262	0.9	879.444444444444	0.6	952.666666666667	1	737.8	13	359058	2	359046	27	40	359085	-999999	359061	0	26	TrialsPROC	BP_013_BP7_BA.png	2	2	18	SessionSelectionList														target	2	Body	0-Back	16	80	11	0	0	100	1	39	116491	1	13	59	114452	-1	115095	1	643	2	2	2039	52	116504	-53	0																18												
WM080112	201111_fnca	2	1	1	2125423260	1	75.032	75.031	2.0.10.147	2.0.10.242	2.0.10.242	1.0.0.439	7	234	2	3	Verdana	1	80	0	0	0	WM Stimuli\	0.8	1096	1	748.1	0.7	1107.57142857143	1	649.6	0.8	1262	0.9	879.444444444444	0.6	952.666666666667	1	737.8	13	359058	2	359046	27	40	359085	-999999	359061	0	26	TrialsPROC	BP_015_H10-T_BA.png	2	2	19	SessionSelectionList														lure	3	Body	0-Back	17	80	12	0	0	100	1	39	119050	1	13	59	117011	-1	117658	1	647	3	3	2039	52	119063	-53	0																19												
WM080112	201111_fnca	2	1	1	2125423260	1	75.032	75.031	2.0.10.147	2.0.10.242	2.0.10.242	1.0.0.439	7	234	2	3	Verdana	1	80	0	0	0	WM Stimuli\	0.8	1096	1	748.1	0.7	1107.57142857143	1	649.6	0.8	1262	0.9	879.444444444444	0.6	952.666666666667	1	737.8	13	359058	2	359046	27	40	359085	-999999	359061	0	26	TrialsPROC	BP_016_H11-T_BA.png	2	2	20	SessionSelectionList														nonlure	3	Body	0-Back	18	80	13	0	0	100	2	39	121622	2	14	72	119583	-1	120249	1	666	3	3	2039	53	121636	-54	0																20												
WM080112	201111_fnca	2	1	1	2125423260	1	75.032	75.031	2.0.10.147	2.0.10.242	2.0.10.242	1.0.0.439	7	234	2	3	Verdana	1	80	0	0	0	WM Stimuli\	0.8	1096	1	748.1	0.7	1107.57142857143	1	649.6	0.8	1262	0.9	879.444444444444	0.6	952.666666666667	1	737.8	13	359058	2	359046	27	40	359085	-999999	359061	0	26	TrialsPROC	BP_013_BP7_BA.png	2	2	21	SessionSelectionList														target	2	Body	0-Back	19	80	14	0	0	100	1	39	124181	2	14	59	122142	-1	122911	1	769	2	2	2039	53	124195	-54	0																21												
WM080112	201111_fnca	2	1	1	2125423260	1	75.032	75.031	2.0.10.147	2.0.10.242	2.0.10.242	1.0.0.439	7	234	2	3	Verdana	1	80	0	0	0	WM Stimuli\	0.8	1096	1	748.1	0.7	1107.57142857143	1	649.6	0.8	1262	0.9	879.444444444444	0.6	952.666666666667	1	737.8	13	359058	2	359046	27	40	359085	-999999	359061	0	26	TrialsPROC	BP_017_H12-T_BA.png	2	2	22	SessionSelectionList														nonlure	3	Body	0-Back	20	80	15	0	0	100	1	39	126740	1	14	59	124701	-1	125347	1	646	3	3	2039	53	126754	-54	0																22												
WM080112	201111_fnca	2	1	1	2125423260	1	75.032	75.031	2.0.10.147	2.0.10.242	2.0.10.242	1.0.0.439	7	234	2	3	Verdana	1	80	0	0	0	WM Stimuli\	0.8	1096	1	748.1	0.7	1107.57142857143	1	649.6	0.8	1262	0.9	879.444444444444	0.6	952.666666666667	1	737.8	13	359058	2	359046	27	40	359085	-999999	359061	0	26	TrialsPROC	BP_014_BP9_BA.png	2	2	23	SessionSelectionList														lure	3	Body	0-Back	21	80	16	0	0	100	2	39	129299	1	13	59	127260	-1	127984	1	724	3	3	2039	52	129312	-53	0																23												
WM080112	201111_fnca	2	1	1	2125423260	1	75.032	75.031	2.0.10.147	2.0.10.242	2.0.10.242	1.0.0.439	7	234	2	3	Verdana	1	80	0	0	0	WM Stimuli\	0.8	1096	1	748.1	0.7	1107.57142857143	1	649.6	0.8	1262	0.9	879.444444444444	0.6	952.666666666667	1	737.8	13	359058	2	359046	27	40	359085	-999999	359061	0	27	Fix15secPROC	""	2	2	24	SessionSelectionList																																															6	129766	-7	0							24												
WM080112	201111_fnca	2	1	1	2125423260	1	75.032	75.031	2.0.10.147	2.0.10.242	2.0.10.242	1.0.0.439	7	234	2	3	Verdana	1	80	0	0	0	WM Stimuli\	0.8	1096	1	748.1	0.7	1107.57142857143	1	649.6	0.8	1262	0.9	879.444444444444	0.6	952.666666666667	1	737.8	13	359058	2	359046	27	40	359085	-999999	359061	0	28	Cue2BackPROC	""	2	2	25	SessionSelectionList									13	144773	-14	0																																													25												
WM080112	201111_fnca	2	1	1	2125423260	1	75.032	75.031	2.0.10.147	2.0.10.242	2.0.10.242	1.0.0.439	7	234	2	3	Verdana	1	80	0	0	0	WM Stimuli\	0.8	1096	1	748.1	0.7	1107.57142857143	1	649.6	0.8	1262	0.9	879.444444444444	0.6	952.666666666667	1	737.8	13	359058	2	359046	27	40	359085	-999999	359061	0	29	TrialsPROC	FC_015_M8.png	2	2	26	SessionSelectionList														nonlure	3	Face	2-Back	22	80	17	0	0	100	3	39	149371	1	13	72	147332	-1	148572	1	1240	3	3	2039	52	149384	-53	0																26												
WM080112	201111_fnca	2	1	1	2125423260	1	75.032	75.031	2.0.10.147	2.0.10.242	2.0.10.242	1.0.0.439	7	234	2	3	Verdana	1	80	0	0	0	WM Stimuli\	0.8	1096	1	748.1	0.7	1107.57142857143	1	649.6	0.8	1262	0.9	879.444444444444	0.6	952.666666666667	1	737.8	13	359058	2	359046	27	40	359085	-999999	359061	0	29	TrialsPROC	FC_018_F9.png	2	2	27	SessionSelectionList														nonlure	3	Face	2-Back	23	80	18	0	0	100	4	39	151943	1	13	72	149904	-1	150790	1	886	3	3	2039	52	151956	-53	0																27												
WM080112	201111_fnca	2	1	1	2125423260	1	75.032	75.031	2.0.10.147	2.0.10.242	2.0.10.242	1.0.0.439	7	234	2	3	Verdana	1	80	0	0	0	WM Stimuli\	0.8	1096	1	748.1	0.7	1107.57142857143	1	649.6	0.8	1262	0.9	879.444444444444	0.6	952.666666666667	1	737.8	13	359058	2	359046	27	40	359085	-999999	359061	0	29	TrialsPROC	FC_018_F9.png	2	2	28	SessionSelectionList														lure	3	Face	2-Back	24	80	19	0	0	100	5	39	154515	2	14	72	152476	-1	154281	1	1805	3	3	2039	53	154529	-54	0																28												
WM080112	201111_fnca	2	1	1	2125423260	1	75.032	75.031	2.0.10.147	2.0.10.242	2.0.10.242	1.0.0.439	7	234	2	3	Verdana	1	80	0	0	0	WM Stimuli\	0.8	1096	1	748.1	0.7	1107.57142857143	1	649.6	0.8	1262	0.9	879.444444444444	0.6	952.666666666667	1	737.8	13	359058	2	359046	27	40	359085	-999999	359061	0	29	TrialsPROC	FC_017_M9.png	2	2	29	SessionSelectionList														nonlure	3	Face	2-Back	25	80	19	0	1	100	5	40	157088	1	13	72	155048	-1	155998	0	950	4	3	2040	53	157101	-54	0																29												
WM080112	201111_fnca	2	1	1	2125423260	1	75.032	75.031	2.0.10.147	2.0.10.242	2.0.10.242	1.0.0.439	7	234	2	3	Verdana	1	80	0	0	0	WM Stimuli\	0.8	1096	1	748.1	0.7	1107.57142857143	1	649.6	0.8	1262	0.9	879.444444444444	0.6	952.666666666667	1	737.8	13	359058	2	359046	27	40	359085	-999999	359061	0	29	TrialsPROC	FC_017_M9.png	2	2	30	SessionSelectionList														lure	3	Face	2-Back	26	80	20	0	0	100	1	39	159660	1	13	73	157621	-1	158680	1	1059	3	3	2039	52	159673	-53	0																30												
WM080112	201111_fnca	2	1	1	2125423260	1	75.032	75.031	2.0.10.147	2.0.10.242	2.0.10.242	1.0.0.439	7	234	2	3	Verdana	1	80	0	0	0	WM Stimuli\	0.8	1096	1	748.1	0.7	1107.57142857143	1	649.6	0.8	1262	0.9	879.444444444444	0.6	952.666666666667	1	737.8	13	359058	2	359046	27	40	359085	-999999	359061	0	29	TrialsPROC	FC_016_F8.png	2	2	31	SessionSelectionList														nonlure	3	Face	2-Back	27	80	21	0	0	100	2	39	162232	2	14	72	160193	-1	161140	1	947	3	3	2039	53	162246	-54	0																31												
WM080112	201111_fnca	2	1	1	2125423260	1	75.032	75.031	2.0.10.147	2.0.10.242	2.0.10.242	1.0.0.439	7	234	2	3	Verdana	1	80	0	0	0	WM Stimuli\	0.8	1096	1	748.1	0.7	1107.57142857143	1	649.6	0.8	1262	0.9	879.444444444444	0.6	952.666666666667	1	737.8	13	359058	2	359046	27	40	359085	-999999	359061	0	29	TrialsPROC	FC_013_M7.png	2	2	32	SessionSelectionList														nonlure	3	Face	2-Back	28	80	22	0	0	100	3	39	164804	2	14	72	162765	-1	163676	1	911	3	3	2039	53	164818	-54	0																32												
WM080112	201111_fnca	2	1	1	2125423260	1	75.032	75.031	2.0.10.147	2.0.10.242	2.0.10.242	1.0.0.439	7	234	2	3	Verdana	1	80	0	0	0	WM Stimuli\	0.8	1096	1	748.1	0.7	1107.57142857143	1	649.6	0.8	1262	0.9	879.444444444444	0.6	952.666666666667	1	737.8	13	359058	2	359046	27	40	359085	-999999	359061	0	29	TrialsPROC	FC_014_F7.png	2	2	33	SessionSelectionList														nonlure	3	Face	2-Back	29	80	23	0	0	100	4	39	167377	1	13	73	165338	-1	166243	1	905	3	3	2039	52	167390	-53	0																33												
WM080112	201111_fnca	2	1	1	2125423260	1	75.032	75.031	2.0.10.147	2.0.10.242	2.0.10.242	1.0.0.439	7	234	2	3	Verdana	1	80	0	0	0	WM Stimuli\	0.8	1096	1	748.1	0.7	1107.57142857143	1	649.6	0.8	1262	0.9	879.444444444444	0.6	952.666666666667	1	737.8	13	359058	2	359046	27	40	359085	-999999	359061	0	29	TrialsPROC	FC_013_M7.png	2	2	34	SessionSelectionList														target	2	Face	2-Back	30	80	23	0	1	100	4	39	169949	1	13	72	167910	-1	168775	0	865	4	2	2039	52	169962	-53	0																34												
WM080112	201111_fnca	2	1	1	2125423260	1	75.032	75.031	2.0.10.147	2.0.10.242	2.0.10.242	1.0.0.439	7	234	2	3	Verdana	1	80	0	0	0	WM Stimuli\	0.8	1096	1	748.1	0.7	1107.57142857143	1	649.6	0.8	1262	0.9	879.444444444444	0.6	952.666666666667	1	737.8	13	359058	2	359046	27	40	359085	-999999	359061	0	29	TrialsPROC	FC_014_F7.png	2	2	35	SessionSelectionList														target	2	Face	2-Back	31	80	23	0	2	100	4	39	172521	2	14	72	170482	-1	171544	0	1062	4	2	2039	53	172535	-54	0																35												
WM080112	201111_fnca	2	1	1	2125423260	1	75.032	75.031	2.0.10.147	2.0.10.242	2.0.10.242	1.0.0.439	7	234	2	3	Verdana	1	80	0	0	0	WM Stimuli\	0.8	1096	1	748.1	0.7	1107.57142857143	1	649.6	0.8	1262	0.9	879.444444444444	0.6	952.666666666667	1	737.8	13	359058	2	359046	27	40	359085	-999999	359061	0	30	Cue0BackPROC	TO_019_TOOL19_BA.png	2	2	36	SessionSelectionList																																										19	173001	-20	0												36												
WM080112	201111_fnca	2	1	1	2125423260	1	75.032	75.031	2.0.10.147	2.0.10.242	2.0.10.242	1.0.0.439	7	234	2	3	Verdana	1	80	0	0	0	WM Stimuli\	0.8	1096	1	748.1	0.7	1107.57142857143	1	649.6	0.8	1262	0.9	879.444444444444	0.6	952.666666666667	1	737.8	13	359058	2	359046	27	40	359085	-999999	359061	0	31	TrialsPROC	TO_019_TOOL19_BA.png	2	2	37	SessionSelectionList														target	2	Tools	0-Back	32	80	24	0	0	100	1	40	177573	1	13	51	175533	-1	176672	1	1139	2	2	2040	53	177586	-54	0																37												
WM080112	201111_fnca	2	1	1	2125423260	1	75.032	75.031	2.0.10.147	2.0.10.242	2.0.10.242	1.0.0.439	7	234	2	3	Verdana	1	80	0	0	0	WM Stimuli\	0.8	1096	1	748.1	0.7	1107.57142857143	1	649.6	0.8	1262	0.9	879.444444444444	0.6	952.666666666667	1	737.8	13	359058	2	359046	27	40	359085	-999999	359061	0	31	TrialsPROC	TO_024_TOOL24_BA.png	2	2	38	SessionSelectionList														nonlure	3	Tools	0-Back	33	80	25	0	0	100	1	39	180131	2	14	59	178092	-1	178840	1	748	3	3	2039	53	180145	-54	0																38												
WM080112	201111_fnca	2	1	1	2125423260	1	75.032	75.031	2.0.10.147	2.0.10.242	2.0.10.242	1.0.0.439	7	234	2	3	Verdana	1	80	0	0	0	WM Stimuli\	0.8	1096	1	748.1	0.7	1107.57142857143	1	649.6	0.8	1262	0.9	879.444444444444	0.6	952.666666666667	1	737.8	13	359058	2	359046	27	40	359085	-999999	359061	0	31	TrialsPROC	TO_019_TOOL19_BA.png	2	2	39	SessionSelectionList														target	2	Tools	0-Back	34	80	26	0	0	100	1	39	182690	2	14	59	180651	-1	181328	1	677	2	2	2039	53	182704	-54	0																39												
WM080112	201111_fnca	2	1	1	2125423260	1	75.032	75.031	2.0.10.147	2.0.10.242	2.0.10.242	1.0.0.439	7	234	2	3	Verdana	1	80	0	0	0	WM Stimuli\	0.8	1096	1	748.1	0.7	1107.57142857143	1	649.6	0.8	1262	0.9	879.444444444444	0.6	952.666666666667	1	737.8	13	359058	2	359046	27	40	359085	-999999	359061	0	31	TrialsPROC	TO_023_TOOL23_BA.png	2	2	40	SessionSelectionList														nonlure	3	Tools	0-Back	35	80	27	0	0	100	1	39	185250	1	13	60	183211	-1	184021	1	810	3	3	2039	52	185263	-53	0																40												
WM080112	201111_fnca	2	1	1	2125423260	1	75.032	75.031	2.0.10.147	2.0.10.242	2.0.10.242	1.0.0.439	7	234	2	3	Verdana	1	80	0	0	0	WM Stimuli\	0.8	1096	1	748.1	0.7	1107.57142857143	1	649.6	0.8	1262	0.9	879.444444444444	0.6	952.666666666667	1	737.8	13	359058	2	359046	27	40	359085	-999999	359061	0	31	TrialsPROC	TO_020_TOOL20_BA.png	2	2	41	SessionSelectionList														nonlure	3	Tools	0-Back	36	80	28	0	0	100	2	39	187808	2	14	58	185769	-1	186402	1	633	3	3	2039	53	187822	-54	0																41												
WM080112	201111_fnca	2	1	1	2125423260	1	75.032	75.031	2.0.10.147	2.0.10.242	2.0.10.242	1.0.0.439	7	234	2	3	Verdana	1	80	0	0	0	WM Stimuli\	0.8	1096	1	748.1	0.7	1107.57142857143	1	649.6	0.8	1262	0.9	879.444444444444	0.6	952.666666666667	1	737.8	13	359058	2	359046	27	40	359085	-999999	359061	0	31	TrialsPROC	TO_020_TOOL20_BA.png	2	2	42	SessionSelectionList														lure	3	Tools	0-Back	37	80	29	0	0	100	3	39	190367	2	14	59	188328	-1	189008	1	680	3	3	2039	53	190381	-54	0																42												
WM080112	201111_fnca	2	1	1	2125423260	1	75.032	75.031	2.0.10.147	2.0.10.242	2.0.10.242	1.0.0.439	7	234	2	3	Verdana	1	80	0	0	0	WM Stimuli\	0.8	1096	1	748.1	0.7	1107.57142857143	1	649.6	0.8	1262	0.9	879.444444444444	0.6	952.666666666667	1	737.8	13	359058	2	359046	27	40	359085	-999999	359061	0	31	TrialsPROC	TO_022_TOOL22_BA.png	2	2	43	SessionSelectionList														nonlure	3	Tools	0-Back	38	80	30	0	0	100	4	39	192926	2	14	59	190887	-1	191647	1	760	3	3	2039	53	192940	-54	0																43												
WM080112	201111_fnca	2	1	1	2125423260	1	75.032	75.031	2.0.10.147	2.0.10.242	2.0.10.242	1.0.0.439	7	234	2	3	Verdana	1	80	0	0	0	WM Stimuli\	0.8	1096	1	748.1	0.7	1107.57142857143	1	649.6	0.8	1262	0.9	879.444444444444	0.6	952.666666666667	1	737.8	13	359058	2	359046	27	40	359085	-999999	359061	0	31	TrialsPROC	TO_022_TOOL22_BA.png	2	2	44	SessionSelectionList														lure	3	Tools	0-Back	39	80	31	0	0	100	5	39	195485	2	14	59	193446	-1	194086	1	640	3	3	2039	53	195499	-54	0																44												
WM080112	201111_fnca	2	1	1	2125423260	1	75.032	75.031	2.0.10.147	2.0.10.242	2.0.10.242	1.0.0.439	7	234	2	3	Verdana	1	80	0	0	0	WM Stimuli\	0.8	1096	1	748.1	0.7	1107.57142857143	1	649.6	0.8	1262	0.9	879.444444444444	0.6	952.666666666667	1	737.8	13	359058	2	359046	27	40	359085	-999999	359061	0	31	TrialsPROC	TO_021_TOOL21_BA.png	2	2	45	SessionSelectionList														nonlure	3	Tools	0-Back	40	80	32	0	0	100	6	39	198044	1	14	59	196005	-1	196723	1	718	3	3	2039	53	198058	-54	0																45												
WM080112	201111_fnca	2	1	1	2125423260	1	75.032	75.031	2.0.10.147	2.0.10.242	2.0.10.242	1.0.0.439	7	234	2	3	Verdana	1	80	0	0	0	WM Stimuli\	0.8	1096	1	748.1	0.7	1107.57142857143	1	649.6	0.8	1262	0.9	879.444444444444	0.6	952.666666666667	1	737.8	13	359058	2	359046	27	40	359085	-999999	359061	0	31	TrialsPROC	TO_021_TOOL21_BA.png	2	2	46	SessionSelectionList														lure	3	Tools	0-Back	41	80	33	0	0	100	7	39	200603	1	14	59	198564	-1	199137	1	573	3	3	2039	53	200617	-54	0																46												
WM080112	201111_fnca	2	1	1	2125423260	1	75.032	75.031	2.0.10.147	2.0.10.242	2.0.10.242	1.0.0.439	7	234	2	3	Verdana	1	80	0	0	0	WM Stimuli\	0.8	1096	1	748.1	0.7	1107.57142857143	1	649.6	0.8	1262	0.9	879.444444444444	0.6	952.666666666667	1	737.8	13	359058	2	359046	27	40	359085	-999999	359061	0	32	Fix15secPROC	""	2	2	47	SessionSelectionList																																															6	201070	-7	0							47												
WM080112	201111_fnca	2	1	1	2125423260	1	75.032	75.031	2.0.10.147	2.0.10.242	2.0.10.242	1.0.0.439	7	234	2	3	Verdana	1	80	0	0	0	WM Stimuli\	0.8	1096	1	748.1	0.7	1107.57142857143	1	649.6	0.8	1262	0.9	879.444444444444	0.6	952.666666666667	1	737.8	13	359058	2	359046	27	40	359085	-999999	359061	0	33	Cue2BackPROC	""	2	2	48	SessionSelectionList									13	216077	-14	0																																													48												
WM080112	201111_fnca	2	1	1	2125423260	1	75.032	75.031	2.0.10.147	2.0.10.242	2.0.10.242	1.0.0.439	7	234	2	3	Verdana	1	80	0	0	0	WM Stimuli\	0.8	1096	1	748.1	0.7	1107.57142857143	1	649.6	0.8	1262	0.9	879.444444444444	0.6	952.666666666667	1	737.8	13	359058	2	359046	27	40	359085	-999999	359061	0	34	TrialsPROC	BP_020_H17-T_BA.png	2	2	49	SessionSelectionList														nonlure	3	Body	2-Back	42	80	34	0	0	100	8	39	220675	1	13	72	218636	-1	219830	1	1194	3	3	2039	52	220688	-53	0																49												
WM080112	201111_fnca	2	1	1	2125423260	1	75.032	75.031	2.0.10.147	2.0.10.242	2.0.10.242	1.0.0.439	7	234	2	3	Verdana	1	80	0	0	0	WM Stimuli\	0.8	1096	1	748.1	0.7	1107.57142857143	1	649.6	0.8	1262	0.9	879.444444444444	0.6	952.666666666667	1	737.8	13	359058	2	359046	27	40	359085	-999999	359061	0	34	TrialsPROC	BP_019_H14-T_BA.png	2	2	50	SessionSelectionList														nonlure	3	Body	2-Back	43	80	35	0	0	100	9	39	223247	3	14	72	221208	-1	222175	1	967	3	3	2039	53	223261	-54	0																50												
WM080112	201111_fnca	2	1	1	2125423260	1	75.032	75.031	2.0.10.147	2.0.10.242	2.0.10.242	1.0.0.439	7	234	2	3	Verdana	1	80	0	0	0	WM Stimuli\	0.8	1096	1	748.1	0.7	1107.57142857143	1	649.6	0.8	1262	0.9	879.444444444444	0.6	952.666666666667	1	737.8	13	359058	2	359046	27	40	359085	-999999	359061	0	34	TrialsPROC	BP_020_H17-T_BA.png	2	2	51	SessionSelectionList														target	2	Body	2-Back	44	80	35	0	1	100	9	39	225806	1	13	59	223767	-1	224740	0	973	4	2	2039	52	225819	-53	0																51												
WM080112	201111_fnca	2	1	1	2125423260	1	75.032	75.031	2.0.10.147	2.0.10.242	2.0.10.242	1.0.0.439	7	234	2	3	Verdana	1	80	0	0	0	WM Stimuli\	0.8	1096	1	748.1	0.7	1107.57142857143	1	649.6	0.8	1262	0.9	879.444444444444	0.6	952.666666666667	1	737.8	13	359058	2	359046	27	40	359085	-999999	359061	0	34	TrialsPROC	BP_019_H14-T_BA.png	2	2	52	SessionSelectionList														target	2	Body	2-Back	45	80	35	0	2	100	9	39	228365	1	13	59	226326	-1	227195	0	869	4	2	2039	52	228378	-53	0																52												
WM080112	201111_fnca	2	1	1	2125423260	1	75.032	75.031	2.0.10.147	2.0.10.242	2.0.10.242	1.0.0.439	7	234	2	3	Verdana	1	80	0	0	0	WM Stimuli\	0.8	1096	1	748.1	0.7	1107.57142857143	1	649.6	0.8	1262	0.9	879.444444444444	0.6	952.666666666667	1	737.8	13	359058	2	359046	27	40	359085	-999999	359061	0	34	TrialsPROC	BP_024_H3-T_BA.png	2	2	53	SessionSelectionList														nonlure	3	Body	2-Back	46	80	36	0	0	100	1	39	230937	3	14	72	228898	-1	229946	1	1048	3	3	2039	53	230951	-54	0																53												
WM080112	201111_fnca	2	1	1	2125423260	1	75.032	75.031	2.0.10.147	2.0.10.242	2.0.10.242	1.0.0.439	7	234	2	3	Verdana	1	80	0	0	0	WM Stimuli\	0.8	1096	1	748.1	0.7	1107.57142857143	1	649.6	0.8	1262	0.9	879.444444444444	0.6	952.666666666667	1	737.8	13	359058	2	359046	27	40	359085	-999999	359061	0	34	TrialsPROC	BP_024_H3-T_BA.png	2	2	54	SessionSelectionList														lure	3	Body	2-Back	47	80	37	0	0	100	2	39	233496	2	14	59	231457	-1	232832	1	1375	3	3	2039	53	233510	-54	0																54												
WM080112	201111_fnca	2	1	1	2125423260	1	75.032	75.031	2.0.10.147	2.0.10.242	2.0.10.242	1.0.0.439	7	234	2	3	Verdana	1	80	0	0	0	WM Stimuli\	0.8	1096	1	748.1	0.7	1107.57142857143	1	649.6	0.8	1262	0.9	879.444444444444	0.6	952.666666666667	1	737.8	13	359058	2	359046	27	40	359085	-999999	359061	0	34	TrialsPROC	BP_025_H5-T_BA.png	2	2	55	SessionSelectionList														nonlure	3	Body	2-Back	48	80	38	0	0	100	3	39	236068	2	14	72	234029	-1	235315	1	1286	3	3	2039	53	236082	-54	0																55												
WM080112	201111_fnca	2	1	1	2125423260	1	75.032	75.031	2.0.10.147	2.0.10.242	2.0.10.242	1.0.0.439	7	234	2	3	Verdana	1	80	0	0	0	WM Stimuli\	0.8	1096	1	748.1	0.7	1107.57142857143	1	649.6	0.8	1262	0.9	879.444444444444	0.6	952.666666666667	1	737.8	13	359058	2	359046	27	40	359085	-999999	359061	0	34	TrialsPROC	BP_023_H25-T_BA.png	2	2	56	SessionSelectionList														nonlure	3	Body	2-Back	49	80	39	0	0	100	4	39	238641	1	13	73	236602	-1	237626	1	1024	3	3	2039	52	238654	-53	0																56												
WM080112	201111_fnca	2	1	1	2125423260	1	75.032	75.031	2.0.10.147	2.0.10.242	2.0.10.242	1.0.0.439	7	234	2	3	Verdana	1	80	0	0	0	WM Stimuli\	0.8	1096	1	748.1	0.7	1107.57142857143	1	649.6	0.8	1262	0.9	879.444444444444	0.6	952.666666666667	1	737.8	13	359058	2	359046	27	40	359085	-999999	359061	0	34	TrialsPROC	BP_022_H24-T_BA.png	2	2	57	SessionSelectionList														nonlure	3	Body	2-Back	50	80	40	0	0	100	5	39	241200	1	13	59	239161	-1	239919	1	758	3	3	2039	52	241213	-53	0																57												
WM080112	201111_fnca	2	1	1	2125423260	1	75.032	75.031	2.0.10.147	2.0.10.242	2.0.10.242	1.0.0.439	7	234	2	3	Verdana	1	80	0	0	0	WM Stimuli\	0.8	1096	1	748.1	0.7	1107.57142857143	1	649.6	0.8	1262	0.9	879.444444444444	0.6	952.666666666667	1	737.8	13	359058	2	359046	27	40	359085	-999999	359061	0	34	TrialsPROC	BP_022_H24-T_BA.png	2	2	58	SessionSelectionList														lure	3	Body	2-Back	51	80	41	0	0	100	6	39	243759	1	13	59	241720	-1	242836	1	1116	3	3	2039	52	243772	-53	0																58												
WM080112	201111_fnca	2	1	1	2125423260	1	75.032	75.031	2.0.10.147	2.0.10.242	2.0.10.242	1.0.0.439	7	234	2	3	Verdana	1	80	0	0	0	WM Stimuli\	0.8	1096	1	748.1	0.7	1107.57142857143	1	649.6	0.8	1262	0.9	879.444444444444	0.6	952.666666666667	1	737.8	13	359058	2	359046	27	40	359085	-999999	359061	0	35	Cue2BackPROC	""	2	2	59	SessionSelectionList									5	244225	-6	0																																													59												
WM080112	201111_fnca	2	1	1	2125423260	1	75.032	75.031	2.0.10.147	2.0.10.242	2.0.10.242	1.0.0.439	7	234	2	3	Verdana	1	80	0	0	0	WM Stimuli\	0.8	1096	1	748.1	0.7	1107.57142857143	1	649.6	0.8	1262	0.9	879.444444444444	0.6	952.666666666667	1	737.8	13	359058	2	359046	27	40	359085	-999999	359061	0	36	TrialsPROC	PL_019_SCENE_05.png	2	2	60	SessionSelectionList														nonlure	3	Place	2-Back	52	80	42	0	0	100	7	39	248823	3	14	64	246784	-1	248514	1	1730	3	3	2039	53	248837	-54	0																60												
WM080112	201111_fnca	2	1	1	2125423260	1	75.032	75.031	2.0.10.147	2.0.10.242	2.0.10.242	1.0.0.439	7	234	2	3	Verdana	1	80	0	0	0	WM Stimuli\	0.8	1096	1	748.1	0.7	1107.57142857143	1	649.6	0.8	1262	0.9	879.444444444444	0.6	952.666666666667	1	737.8	13	359058	2	359046	27	40	359085	-999999	359061	0	36	TrialsPROC	PL_017_SCENE_03.png	2	2	61	SessionSelectionList														nonlure	3	Place	2-Back	53	80	43	0	0	100	8	40	251396	1	13	72	249356	-1	250101	1	745	3	3	2040	53	251409	-54	0																61												
WM080112	201111_fnca	2	1	1	2125423260	1	75.032	75.031	2.0.10.147	2.0.10.242	2.0.10.242	1.0.0.439	7	234	2	3	Verdana	1	80	0	0	0	WM Stimuli\	0.8	1096	1	748.1	0.7	1107.57142857143	1	649.6	0.8	1262	0.9	879.444444444444	0.6	952.666666666667	1	737.8	13	359058	2	359046	27	40	359085	-999999	359061	0	36	TrialsPROC	PL_017_SCENE_03.png	2	2	62	SessionSelectionList														lure	3	Place	2-Back	54	80	44	0	0	100	9	39	253968	1	13	73	251929	-1	252974	1	1045	3	3	2039	52	253981	-53	0																62												
WM080112	201111_fnca	2	1	1	2125423260	1	75.032	75.031	2.0.10.147	2.0.10.242	2.0.10.242	1.0.0.439	7	234	2	3	Verdana	1	80	0	0	0	WM Stimuli\	0.8	1096	1	748.1	0.7	1107.57142857143	1	649.6	0.8	1262	0.9	879.444444444444	0.6	952.666666666667	1	737.8	13	359058	2	359046	27	40	359085	-999999	359061	0	36	TrialsPROC	PL_016_SCENE_02.png	2	2	63	SessionSelectionList														nonlure	3	Place	2-Back	55	80	45	0	0	100	10	39	256553	2	14	85	254514	-1	255719	1	1205	3	3	2039	53	256567	-54	0																63												
WM080112	201111_fnca	2	1	1	2125423260	1	75.032	75.031	2.0.10.147	2.0.10.242	2.0.10.242	1.0.0.439	7	234	2	3	Verdana	1	80	0	0	0	WM Stimuli\	0.8	1096	1	748.1	0.7	1107.57142857143	1	649.6	0.8	1262	0.9	879.444444444444	0.6	952.666666666667	1	737.8	13	359058	2	359046	27	40	359085	-999999	359061	0	36	TrialsPROC	PL_015_SCENE_01.png	2	2	64	SessionSelectionList														nonlure	3	Place	2-Back	56	80	46	0	0	100	11	39	259139	1	13	86	257100	-1	258832	1	1732	3	3	2039	52	259152	-53	0																64												
WM080112	201111_fnca	2	1	1	2125423260	1	75.032	75.031	2.0.10.147	2.0.10.242	2.0.10.242	1.0.0.439	7	234	2	3	Verdana	1	80	0	0	0	WM Stimuli\	0.8	1096	1	748.1	0.7	1107.57142857143	1	649.6	0.8	1262	0.9	879.444444444444	0.6	952.666666666667	1	737.8	13	359058	2	359046	27	40	359085	-999999	359061	0	36	TrialsPROC	PL_016_SCENE_02.png	2	2	65	SessionSelectionList														target	2	Place	2-Back	57	80	47	0	0	100	12	39	261711	3	14	72	259672	-1	261547	0	1875	3	2	2039	53	261725	-54	0																65												
WM080112	201111_fnca	2	1	1	2125423260	1	75.032	75.031	2.0.10.147	2.0.10.242	2.0.10.242	1.0.0.439	7	234	2	3	Verdana	1	80	0	0	0	WM Stimuli\	0.8	1096	1	748.1	0.7	1107.57142857143	1	649.6	0.8	1262	0.9	879.444444444444	0.6	952.666666666667	1	737.8	13	359058	2	359046	27	40	359085	-999999	359061	0	36	TrialsPROC	PL_015_SCENE_01.png	2	2	66	SessionSelectionList														target	2	Place	2-Back	58	80	47	0	1	100	12	40	264284	1	13	72	262244	-1	263993	0	1749	4	2	2040	53	264297	-54	0																66												
WM080112	201111_fnca	2	1	1	2125423260	1	75.032	75.031	2.0.10.147	2.0.10.242	2.0.10.242	1.0.0.439	7	234	2	3	Verdana	1	80	0	0	0	WM Stimuli\	0.8	1096	1	748.1	0.7	1107.57142857143	1	649.6	0.8	1262	0.9	879.444444444444	0.6	952.666666666667	1	737.8	13	359058	2	359046	27	40	359085	-999999	359061	0	36	TrialsPROC	PL_020_SCENE_06.png	2	2	67	SessionSelectionList														nonlure	3	Place	2-Back	59	80	48	0	0	100	1	39	266869	2	14	86	264830	-1	265909	1	1079	3	3	2039	53	266883	-54	0																67												
WM080112	201111_fnca	2	1	1	2125423260	1	75.032	75.031	2.0.10.147	2.0.10.242	2.0.10.242	1.0.0.439	7	234	2	3	Verdana	1	80	0	0	0	WM Stimuli\	0.8	1096	1	748.1	0.7	1107.57142857143	1	649.6	0.8	1262	0.9	879.444444444444	0.6	952.666666666667	1	737.8	13	359058	2	359046	27	40	359085	-999999	359061	0	36	TrialsPROC	PL_020_SCENE_06.png	2	2	68	SessionSelectionList														lure	3	Place	2-Back	60	80	49	0	0	100	2	39	269441	2	14	72	267402	-1	268430	1	1028	3	3	2039	53	269455	-54	0																68												
WM080112	201111_fnca	2	1	1	2125423260	1	75.032	75.031	2.0.10.147	2.0.10.242	2.0.10.242	1.0.0.439	7	234	2	3	Verdana	1	80	0	0	0	WM Stimuli\	0.8	1096	1	748.1	0.7	1107.57142857143	1	649.6	0.8	1262	0.9	879.444444444444	0.6	952.666666666667	1	737.8	13	359058	2	359046	27	40	359085	-999999	359061	0	36	TrialsPROC	PL_018_SCENE_04.png	2	2	69	SessionSelectionList														nonlure	3	Place	2-Back	61	80	50	0	0	100	3	39	272027	1	13	86	269988	-1	271520	1	1532	3	3	2039	52	272040	-53	0																69												
WM080112	201111_fnca	2	1	1	2125423260	1	75.032	75.031	2.0.10.147	2.0.10.242	2.0.10.242	1.0.0.439	7	234	2	3	Verdana	1	80	0	0	0	WM Stimuli\	0.8	1096	1	748.1	0.7	1107.57142857143	1	649.6	0.8	1262	0.9	879.444444444444	0.6	952.666666666667	1	737.8	13	359058	2	359046	27	40	359085	-999999	359061	0	37	Fix15secPROC	""	2	2	70	SessionSelectionList																																															6	272494	-7	0							70												
WM080112	201111_fnca	2	1	1	2125423260	1	75.032	75.031	2.0.10.147	2.0.10.242	2.0.10.242	1.0.0.439	7	234	2	3	Verdana	1	80	0	0	0	WM Stimuli\	0.8	1096	1	748.1	0.7	1107.57142857143	1	649.6	0.8	1262	0.9	879.444444444444	0.6	952.666666666667	1	737.8	13	359058	2	359046	27	40	359085	-999999	359061	0	38	Cue0BackPROC	FC_020_F10.png	2	2	71	SessionSelectionList																																										39	287527	-40	0												71												
WM080112	201111_fnca	2	1	1	2125423260	1	75.032	75.031	2.0.10.147	2.0.10.242	2.0.10.242	1.0.0.439	7	234	2	3	Verdana	1	80	0	0	0	WM Stimuli\	0.8	1096	1	748.1	0.7	1107.57142857143	1	649.6	0.8	1262	0.9	879.444444444444	0.6	952.666666666667	1	737.8	13	359058	2	359046	27	40	359085	-999999	359061	0	39	TrialsPROC	FC_024_F12.png	2	2	72	SessionSelectionList														nonlure	3	Face	0-Back	62	80	51	0	0	100	4	39	292112	2	14	85	290073	-1	290836	1	763	3	3	2039	53	292126	-54	0																72												
WM080112	201111_fnca	2	1	1	2125423260	1	75.032	75.031	2.0.10.147	2.0.10.242	2.0.10.242	1.0.0.439	7	234	2	3	Verdana	1	80	0	0	0	WM Stimuli\	0.8	1096	1	748.1	0.7	1107.57142857143	1	649.6	0.8	1262	0.9	879.444444444444	0.6	952.666666666667	1	737.8	13	359058	2	359046	27	40	359085	-999999	359061	0	39	TrialsPROC	FC_023_M12.png	2	2	73	SessionSelectionList														nonlure	3	Face	0-Back	63	80	52	0	0	100	5	39	294698	1	13	86	292659	-1	293310	1	651	3	3	2039	52	294711	-53	0																73												
WM080112	201111_fnca	2	1	1	2125423260	1	75.032	75.031	2.0.10.147	2.0.10.242	2.0.10.242	1.0.0.439	7	234	2	3	Verdana	1	80	0	0	0	WM Stimuli\	0.8	1096	1	748.1	0.7	1107.57142857143	1	649.6	0.8	1262	0.9	879.444444444444	0.6	952.666666666667	1	737.8	13	359058	2	359046	27	40	359085	-999999	359061	0	39	TrialsPROC	FC_020_F10.png	2	2	74	SessionSelectionList														target	2	Face	0-Back	64	80	53	0	0	100	1	39	297270	1	13	72	295231	-1	295804	1	573	2	2	2039	52	297283	-53	0																74												
WM080112	201111_fnca	2	1	1	2125423260	1	75.032	75.031	2.0.10.147	2.0.10.242	2.0.10.242	1.0.0.439	7	234	2	3	Verdana	1	80	0	0	0	WM Stimuli\	0.8	1096	1	748.1	0.7	1107.57142857143	1	649.6	0.8	1262	0.9	879.444444444444	0.6	952.666666666667	1	737.8	13	359058	2	359046	27	40	359085	-999999	359061	0	39	TrialsPROC	FC_024_F12.png	2	2	75	SessionSelectionList														lure	3	Face	0-Back	65	80	54	0	0	100	1	39	299842	2	14	72	297803	-1	298526	1	723	3	3	2039	53	299856	-54	0																75												
WM080112	201111_fnca	2	1	1	2125423260	1	75.032	75.031	2.0.10.147	2.0.10.242	2.0.10.242	1.0.0.439	7	234	2	3	Verdana	1	80	0	0	0	WM Stimuli\	0.8	1096	1	748.1	0.7	1107.57142857143	1	649.6	0.8	1262	0.9	879.444444444444	0.6	952.666666666667	1	737.8	13	359058	2	359046	27	40	359085	-999999	359061	0	39	TrialsPROC	FC_020_F10.png	2	2	76	SessionSelectionList														target	2	Face	0-Back	66	80	55	0	0	100	1	40	302415	1	13	72	300375	-1	300887	1	512	2	2	2040	53	302428	-54	0																76												
WM080112	201111_fnca	2	1	1	2125423260	1	75.032	75.031	2.0.10.147	2.0.10.242	2.0.10.242	1.0.0.439	7	234	2	3	Verdana	1	80	0	0	0	WM Stimuli\	0.8	1096	1	748.1	0.7	1107.57142857143	1	649.6	0.8	1262	0.9	879.444444444444	0.6	952.666666666667	1	737.8	13	359058	2	359046	27	40	359085	-999999	359061	0	39	TrialsPROC	FC_022_F11.png	2	2	77	SessionSelectionList														nonlure	3	Face	0-Back	67	80	56	0	0	100	1	39	305000	2	14	86	302961	-1	303626	1	665	3	3	2039	53	305014	-54	0																77												
WM080112	201111_fnca	2	1	1	2125423260	1	75.032	75.031	2.0.10.147	2.0.10.242	2.0.10.242	1.0.0.439	7	234	2	3	Verdana	1	80	0	0	0	WM Stimuli\	0.8	1096	1	748.1	0.7	1107.57142857143	1	649.6	0.8	1262	0.9	879.444444444444	0.6	952.666666666667	1	737.8	13	359058	2	359046	27	40	359085	-999999	359061	0	39	TrialsPROC	FC_023_M12.png	2	2	78	SessionSelectionList														lure	3	Face	0-Back	68	80	57	0	0	100	2	39	307572	2	14	72	305533	-1	306291	1	758	3	3	2039	53	307586	-54	0																78												
WM080112	201111_fnca	2	1	1	2125423260	1	75.032	75.031	2.0.10.147	2.0.10.242	2.0.10.242	1.0.0.439	7	234	2	3	Verdana	1	80	0	0	0	WM Stimuli\	0.8	1096	1	748.1	0.7	1107.57142857143	1	649.6	0.8	1262	0.9	879.444444444444	0.6	952.666666666667	1	737.8	13	359058	2	359046	27	40	359085	-999999	359061	0	39	TrialsPROC	FC_021_M11.png	2	2	79	SessionSelectionList														nonlure	3	Face	0-Back	69	80	58	0	0	100	3	39	310158	1	14	86	308119	-1	308748	1	629	3	3	2039	53	310172	-54	0																79												
WM080112	201111_fnca	2	1	1	2125423260	1	75.032	75.031	2.0.10.147	2.0.10.242	2.0.10.242	1.0.0.439	7	234	2	3	Verdana	1	80	0	0	0	WM Stimuli\	0.8	1096	1	748.1	0.7	1107.57142857143	1	649.6	0.8	1262	0.9	879.444444444444	0.6	952.666666666667	1	737.8	13	359058	2	359046	27	40	359085	-999999	359061	0	39	TrialsPROC	FC_021_M11.png	2	2	80	SessionSelectionList														lure	3	Face	0-Back	70	80	59	0	0	100	4	39	312730	2	14	72	310691	-1	311276	1	585	3	3	2039	53	312744	-54	0																80												
WM080112	201111_fnca	2	1	1	2125423260	1	75.032	75.031	2.0.10.147	2.0.10.242	2.0.10.242	1.0.0.439	7	234	2	3	Verdana	1	80	0	0	0	WM Stimuli\	0.8	1096	1	748.1	0.7	1107.57142857143	1	649.6	0.8	1262	0.9	879.444444444444	0.6	952.666666666667	1	737.8	13	359058	2	359046	27	40	359085	-999999	359061	0	39	TrialsPROC	FC_019_M10.png	2	2	81	SessionSelectionList														nonlure	3	Face	0-Back	71	80	60	0	0	100	5	39	315316	1	13	86	313277	-1	313914	1	637	3	3	2039	52	315329	-53	0																81												
WM080112	201111_fnca	2	1	1	2125423260	1	75.032	75.031	2.0.10.147	2.0.10.242	2.0.10.242	1.0.0.439	7	234	2	3	Verdana	1	80	0	0	0	WM Stimuli\	0.8	1096	1	748.1	0.7	1107.57142857143	1	649.6	0.8	1262	0.9	879.444444444444	0.6	952.666666666667	1	737.8	13	359058	2	359046	27	40	359085	-999999	359061	0	40	Cue0BackPROC	PL_021_SCENE_07.png	2	2	82	SessionSelectionList																																										45	315822	-46	0												82												
WM080112	201111_fnca	2	1	1	2125423260	1	75.032	75.031	2.0.10.147	2.0.10.242	2.0.10.242	1.0.0.439	7	234	2	3	Verdana	1	80	0	0	0	WM Stimuli\	0.8	1096	1	748.1	0.7	1107.57142857143	1	649.6	0.8	1262	0.9	879.444444444444	0.6	952.666666666667	1	737.8	13	359058	2	359046	27	40	359085	-999999	359061	0	41	TrialsPROC	PL_025_SCENE_18.png	2	2	83	SessionSelectionList														nonlure	3	Place	0-Back	72	80	61	0	0	100	6	39	320394	1	13	78	318355	-1	319858	1	1503	3	3	2039	52	320407	-53	0																83												
WM080112	201111_fnca	2	1	1	2125423260	1	75.032	75.031	2.0.10.147	2.0.10.242	2.0.10.242	1.0.0.439	7	234	2	3	Verdana	1	80	0	0	0	WM Stimuli\	0.8	1096	1	748.1	0.7	1107.57142857143	1	649.6	0.8	1262	0.9	879.444444444444	0.6	952.666666666667	1	737.8	13	359058	2	359046	27	40	359085	-999999	359061	0	41	TrialsPROC	PL_026_SCENE_24.png	2	2	84	SessionSelectionList														nonlure	3	Place	0-Back	73	80	62	0	0	100	7	39	322979	2	14	85	320940	-1	321724	1	784	3	3	2039	53	322993	-54	0																84												
WM080112	201111_fnca	2	1	1	2125423260	1	75.032	75.031	2.0.10.147	2.0.10.242	2.0.10.242	1.0.0.439	7	234	2	3	Verdana	1	80	0	0	0	WM Stimuli\	0.8	1096	1	748.1	0.7	1107.57142857143	1	649.6	0.8	1262	0.9	879.444444444444	0.6	952.666666666667	1	737.8	13	359058	2	359046	27	40	359085	-999999	359061	0	41	TrialsPROC	PL_025_SCENE_18.png	2	2	85	SessionSelectionList														lure	3	Place	0-Back	74	80	62	0	1	97	7	39	325552	1	13	73	323513	-1	0	0	0	""	3	2039	52	325565	-53	0																85												
WM080112	201111_fnca	2	1	1	2125423260	1	75.032	75.031	2.0.10.147	2.0.10.242	2.0.10.242	1.0.0.439	7	234	2	3	Verdana	1	80	0	0	0	WM Stimuli\	0.8	1096	1	748.1	0.7	1107.57142857143	1	649.6	0.8	1262	0.9	879.444444444444	0.6	952.666666666667	1	737.8	13	359058	2	359046	27	40	359085	-999999	359061	0	41	TrialsPROC	PL_022_SCENE_08.png	2	2	86	SessionSelectionList														nonlure	3	Place	0-Back	75	80	63	0	0	97	1	39	328137	2	14	85	326098	-1	327133	1	1035	3	3	2039	53	328151	-54	0																86												
WM080112	201111_fnca	2	1	1	2125423260	1	75.032	75.031	2.0.10.147	2.0.10.242	2.0.10.242	1.0.0.439	7	234	2	3	Verdana	1	80	0	0	0	WM Stimuli\	0.8	1096	1	748.1	0.7	1107.57142857143	1	649.6	0.8	1262	0.9	879.444444444444	0.6	952.666666666667	1	737.8	13	359058	2	359046	27	40	359085	-999999	359061	0	41	TrialsPROC	PL_026_SCENE_24.png	2	2	87	SessionSelectionList														lure	3	Place	0-Back	76	80	64	0	0	97	2	40	330710	1	13	72	328670	-1	329598	1	928	3	3	2040	53	330723	-54	0																87												
WM080112	201111_fnca	2	1	1	2125423260	1	75.032	75.031	2.0.10.147	2.0.10.242	2.0.10.242	1.0.0.439	7	234	2	3	Verdana	1	80	0	0	0	WM Stimuli\	0.8	1096	1	748.1	0.7	1107.57142857143	1	649.6	0.8	1262	0.9	879.444444444444	0.6	952.666666666667	1	737.8	13	359058	2	359046	27	40	359085	-999999	359061	0	41	TrialsPROC	PL_021_SCENE_07.png	2	2	88	SessionSelectionList														target	2	Place	0-Back	77	80	65	0	0	97	1	39	333282	2	13	73	331243	-1	332060	1	817	2	2	2039	52	333295	-53	0																88												
WM080112	201111_fnca	2	1	1	2125423260	1	75.032	75.031	2.0.10.147	2.0.10.242	2.0.10.242	1.0.0.439	7	234	2	3	Verdana	1	80	0	0	0	WM Stimuli\	0.8	1096	1	748.1	0.7	1107.57142857143	1	649.6	0.8	1262	0.9	879.444444444444	0.6	952.666666666667	1	737.8	13	359058	2	359046	27	40	359085	-999999	359061	0	41	TrialsPROC	PL_021_SCENE_07.png	2	2	89	SessionSelectionList														target	2	Place	0-Back	78	80	66	0	0	97	2	39	335854	2	14	72	333815	-1	334517	1	702	2	2	2039	53	335868	-54	0																89												
WM080112	201111_fnca	2	1	1	2125423260	1	75.032	75.031	2.0.10.147	2.0.10.242	2.0.10.242	1.0.0.439	7	234	2	3	Verdana	1	80	0	0	0	WM Stimuli\	0.8	1096	1	748.1	0.7	1107.57142857143	1	649.6	0.8	1262	0.9	879.444444444444	0.6	952.666666666667	1	737.8	13	359058	2	359046	27	40	359085	-999999	359061	0	41	TrialsPROC	PL_023_SCENE_09.png	2	2	90	SessionSelectionList														nonlure	3	Place	0-Back	79	80	67	0	0	97	1	39	338440	1	13	86	336401	-1	337058	1	657	3	3	2039	52	338453	-53	0																90												
WM080112	201111_fnca	2	1	1	2125423260	1	75.032	75.031	2.0.10.147	2.0.10.242	2.0.10.242	1.0.0.439	7	234	2	3	Verdana	1	80	0	0	0	WM Stimuli\	0.8	1096	1	748.1	0.7	1107.57142857143	1	649.6	0.8	1262	0.9	879.444444444444	0.6	952.666666666667	1	737.8	13	359058	2	359046	27	40	359085	-999999	359061	0	41	TrialsPROC	PL_024_SCENE_10.png	2	2	91	SessionSelectionList														nonlure	3	Place	0-Back	80	80	68	0	0	97	2	39	341012	1	13	72	338973	-1	339813	1	840	3	3	2039	52	341025	-53	0																91												
WM080112	201111_fnca	2	1	1	2125423260	1	75.032	75.031	2.0.10.147	2.0.10.242	2.0.10.242	1.0.0.439	7	234	2	3	Verdana	1	80	0	0	0	WM Stimuli\	0.8	1096	1	748.1	0.7	1107.57142857143	1	649.6	0.8	1262	0.9	879.444444444444	0.6	952.666666666667	1	737.8	13	359058	2	359046	27	40	359085	-999999	359061	0	41	TrialsPROC	PL_022_SCENE_08.png	2	2	92	SessionSelectionList														lure	3	Place	0-Back	80	80	69	0	0	98	3	39	343584	2	14	72	341545	-1	342194	1	649	3	3	2039	53	343598	-54	0																92												
WM080112	201111_fnca	2	1	1	2125423260	1	75.032	75.031	2.0.10.147	2.0.10.242	2.0.10.242	1.0.0.439	7	234	2	3	Verdana	1	80	0	0	0	WM Stimuli\	0.8	1096	1	748.1	0.7	1107.57142857143	1	649.6	0.8	1262	0.9	879.444444444444	0.6	952.666666666667	1	737.8	13	359058	2	359046	27	40	359085	-999999	359061	0	42	Fix15secPROC	""	2	2	93	SessionSelectionList																																															6	344051	-7	0							93												
