ExperimentName	HCPID	RunNumber	Subject	Session	RandomSeed	Group	Laptop.RefreshRate	ScannerD2.RefreshRate	StudioVersion	RuntimeVersion	RuntimeVersionExpected	ExperimentVersion	triggercode	Allowed	Target	Nontarget	FontStyle	RunTrialNumber[Session]	TrialsPerRun[Session]	TotalRespGreater200[Session]	ConsecRTLess200[Session]	ConsecNonResp[Session]	StimuliDir	ACC_2_Back_Body	Avg_RT_For_Correct_Trials_2_Back_Body	ACC_0_Back_Body	Avg_RT_For_Correct_Trials_0_Back_Body	ACC_2_Back_Face	Avg_RT_For_Correct_Trials_2_Back_Face	ACC_0_Back_Face	Avg_RT_For_Correct_Trials_0_Back_Face	ACC_2_Back_Place	Avg_RT_For_Correct_Trials_2_Back_Place	ACC_0_Back_Place	Avg_RT_For_Correct_Trials_0_Back_Place	ACC_2_Back_Tools	Avg_RT_For_Correct_Trials_2_Back_Tools	ACC_0_Back_Tools	Avg_RT_For_Correct_Trials_0_Back_Tools	ExpInstrucFeelFreeToRest.OnsetDelay	ExpInstrucFeelFreeToRest.OnsetTime	ExpInstrucFeelFreeToRest.DurationError	ExpInstrucFeelFreeToRest.StartTime	ExpInstrucFeelFreeToRest.OnsetToOnsetTime	FeelFreeToRest.OnsetDelay	FeelFreeToRest.OnsetTime	FeelFreeToRest.DurationError	FeelFreeToRest.StartTime	FeelFreeToRest.OnsetToOnsetTime	SessionSelectionList	Procedure[Block]	Stimulus[Block]	RunNumberFilterValue	SessionSelectionList.Cycle	SessionSelectionList.Sample	Running[Block]	IntroButtonMap.OnsetDelay	IntroButtonMap.OnsetTime	IntroButtonMap.DurationError	IntroButtonMap.OnsetToOnsetTime	GetReady.OnsetDelay	GetReady.OnsetTime	GetReady.DurationError	GetReady.OnsetToOnsetTime	Cue2Back.OnsetDelay	Cue2Back.OnsetTime	Cue2Back.DurationError	Cue2Back.OnsetToOnsetTime	Run1Block1	TargetType	CorrectResponse	StimType	BlockType	RunTrialNumber[Block]	TrialsPerRun[Block]	TotalRespGreater200[Block]	ConsecRTLess200[Block]	ConsecNonResp[Block]	ControlAcc	ConsecSameResp	ExperimenterWindow.OnsetDelay	ExperimenterWindow.OnsetTime	ExperimenterWindow.DurationError	ExperimenterWindow.OnsetToOnsetTime	Stim.OnsetDelay	Stim.OnsetTime	Stim.DurationError	Stim.RTTime	Stim.ACC	Stim.RT	Stim.RESP	Stim.CRESP	Stim.OnsetToOnsetTime	Fix.OnsetDelay	Fix.OnsetTime	Fix.DurationError	Fix.OnsetToOnsetTime	CueTarget.OnsetDelay	CueTarget.OnsetTime	CueTarget.DurationError	CueTarget.OnsetToOnsetTime	Run1Block2	Fix15sec.OnsetDelay	Fix15sec.OnsetTime	Fix15sec.DurationError	Fix15sec.OnsetToOnsetTime	Run1Block3	Run1Block4	Run1Block5	Run1Block6	Run1Block7	Run1Block8	Block	Procedure[Trial]	Stimulus[Trial]	ReadyList	Running[Trial]	ReadyList.Cycle	ReadyList.Sample	SyncSlide.OnsetDelay	SyncSlide.OnsetTime	SyncSlide.DurationError	SyncSlide.FinishTime	SyncSlide.OnsetToOnsetTime	Trial
WM080112	239944_fnca	2	1	1	2108196994	1	75.032	75.031	2.0.10.147	2.0.10.242	2.0.10.242	1.0.0.439	7	234	2	3	Verdana	1	80	0	0	0	WM Stimuli\	0.5	1073.8	0.9	819.888888888889	0.7	1035.57142857143	1	787	0.6	1133.66666666667	1	878.7	0.5	917	1	930.1	12	325912	3	325901	27	39	325939	-999999	325915	0	22	TRSyncPROC	""	2	2	1	SessionSelectionList	103	13201	-999999	0	30	17573	-999999	0																																																	1	InitialTR	4	1	ReadyList	1	1	20	31434	-21	33413	0	1
WM080112	239944_fnca	2	1	1	2108196994	1	75.032	75.031	2.0.10.147	2.0.10.242	2.0.10.242	1.0.0.439	7	234	2	3	Verdana	1	80	0	0	0	WM Stimuli\	0.5	1073.8	0.9	819.888888888889	0.7	1035.57142857143	1	787	0.6	1133.66666666667	1	878.7	0.5	917	1	930.1	12	325912	3	325901	27	39	325939	-999999	325915	0	22	TRSyncPROC	""	2	2	1	SessionSelectionList	103	13201	-999999	0	30	17573	-999999	0																																																	1	InitialTR	3	2	ReadyList	1	2	19	33433	-20	35413	0	2
WM080112	239944_fnca	2	1	1	2108196994	1	75.032	75.031	2.0.10.147	2.0.10.242	2.0.10.242	1.0.0.439	7	234	2	3	Verdana	1	80	0	0	0	WM Stimuli\	0.5	1073.8	0.9	819.888888888889	0.7	1035.57142857143	1	787	0.6	1133.66666666667	1	878.7	0.5	917	1	930.1	12	325912	3	325901	27	39	325939	-999999	325915	0	22	TRSyncPROC	""	2	2	1	SessionSelectionList	103	13201	-999999	0	30	17573	-999999	0																																																	1	InitialTR	2	3	ReadyList	1	3	5	35419	-6	37413	0	3
WM080112	239944_fnca	2	1	1	2108196994	1	75.032	75.031	2.0.10.147	2.0.10.242	2.0.10.242	1.0.0.439	7	234	2	3	Verdana	1	80	0	0	0	WM Stimuli\	0.5	1073.8	0.9	819.888888888889	0.7	1035.57142857143	1	787	0.6	1133.66666666667	1	878.7	0.5	917	1	930.1	12	325912	3	325901	27	39	325939	-999999	325915	0	22	TRSyncPROC	""	2	2	1	SessionSelectionList	103	13201	-999999	0	30	17573	-999999	0																																																	1	InitialTR	1	4	ReadyList	1	4	4	37418	-5	39413	0	4
WM080112	239944_fnca	2	1	1	2108196994	1	75.032	75.031	2.0.10.147	2.0.10.242	2.0.10.242	1.0.0.439	7	234	2	3	Verdana	1	80	0	0	0	WM Stimuli\	0.5	1073.8	0.9	819.888888888889	0.7	1035.57142857143	1	787	0.6	1133.66666666667	1	878.7	0.5	917	1	930.1	12	325912	3	325901	27	39	325939	-999999	325915	0	23	Cue2BackPROC	""	2	2	2	SessionSelectionList									16	39430	-17	0																																													2												
WM080112	239944_fnca	2	1	1	2108196994	1	75.032	75.031	2.0.10.147	2.0.10.242	2.0.10.242	1.0.0.439	7	234	2	3	Verdana	1	80	0	0	0	WM Stimuli\	0.5	1073.8	0.9	819.888888888889	0.7	1035.57142857143	1	787	0.6	1133.66666666667	1	878.7	0.5	917	1	930.1	12	325912	3	325901	27	39	325939	-999999	325915	0	24	TrialsPROC	TO_014_TOOL14_BA.png	2	2	3	SessionSelectionList														nonlure	3	Tools	2-Back	2	80	1	0	0	0	1	53	44069	2	13	102	42016	-1	43330	0	1314	2	3	2053	66	44082	-67	0																3												
WM080112	239944_fnca	2	1	1	2108196994	1	75.032	75.031	2.0.10.147	2.0.10.242	2.0.10.242	1.0.0.439	7	234	2	3	Verdana	1	80	0	0	0	WM Stimuli\	0.5	1073.8	0.9	819.888888888889	0.7	1035.57142857143	1	787	0.6	1133.66666666667	1	878.7	0.5	917	1	930.1	12	325912	3	325901	27	39	325939	-999999	325915	0	24	TrialsPROC	TO_013_TOOL13_BA.png	2	2	4	SessionSelectionList														nonlure	3	Tools	2-Back	3	80	2	0	0	0	2	39	46654	2	14	99	44615	-1	45622	0	1007	2	3	2039	53	46668	-54	0																4												
WM080112	239944_fnca	2	1	1	2108196994	1	75.032	75.031	2.0.10.147	2.0.10.242	2.0.10.242	1.0.0.439	7	234	2	3	Verdana	1	80	0	0	0	WM Stimuli\	0.5	1073.8	0.9	819.888888888889	0.7	1035.57142857143	1	787	0.6	1133.66666666667	1	878.7	0.5	917	1	930.1	12	325912	3	325901	27	39	325939	-999999	325915	0	24	TrialsPROC	TO_016_TOOL16_BA.png	2	2	5	SessionSelectionList														nonlure	3	Tools	2-Back	4	80	3	0	0	0	1	39	49253	1	13	99	47214	-1	48006	1	792	3	3	2039	52	49266	-53	0																5												
WM080112	239944_fnca	2	1	1	2108196994	1	75.032	75.031	2.0.10.147	2.0.10.242	2.0.10.242	1.0.0.439	7	234	2	3	Verdana	1	80	0	0	0	WM Stimuli\	0.5	1073.8	0.9	819.888888888889	0.7	1035.57142857143	1	787	0.6	1133.66666666667	1	878.7	0.5	917	1	930.1	12	325912	3	325901	27	39	325939	-999999	325915	0	24	TrialsPROC	TO_014_TOOL14_BA.png	2	2	6	SessionSelectionList														lure	3	Tools	2-Back	5	80	3	0	1	0	1	39	51825	2	14	72	49786	-1	0	0	0	""	3	2039	53	51839	-54	0																6												
WM080112	239944_fnca	2	1	1	2108196994	1	75.032	75.031	2.0.10.147	2.0.10.242	2.0.10.242	1.0.0.439	7	234	2	3	Verdana	1	80	0	0	0	WM Stimuli\	0.5	1073.8	0.9	819.888888888889	0.7	1035.57142857143	1	787	0.6	1133.66666666667	1	878.7	0.5	917	1	930.1	12	325912	3	325901	27	39	325939	-999999	325915	0	24	TrialsPROC	TO_016_TOOL16_BA.png	2	2	7	SessionSelectionList														target	2	Tools	2-Back	6	80	4	0	0	0	1	39	54384	2	14	59	52345	-1	53205	0	860	3	2	2039	53	54398	-54	0																7												
WM080112	239944_fnca	2	1	1	2108196994	1	75.032	75.031	2.0.10.147	2.0.10.242	2.0.10.242	1.0.0.439	7	234	2	3	Verdana	1	80	0	0	0	WM Stimuli\	0.5	1073.8	0.9	819.888888888889	0.7	1035.57142857143	1	787	0.6	1133.66666666667	1	878.7	0.5	917	1	930.1	12	325912	3	325901	27	39	325939	-999999	325915	0	24	TrialsPROC	TO_018_TOOL18_BA.png	2	2	8	SessionSelectionList														nonlure	3	Tools	2-Back	7	80	5	0	0	0	2	39	56983	2	14	99	54944	-1	55869	1	925	3	3	2039	53	56997	-54	0																8												
WM080112	239944_fnca	2	1	1	2108196994	1	75.032	75.031	2.0.10.147	2.0.10.242	2.0.10.242	1.0.0.439	7	234	2	3	Verdana	1	80	0	0	0	WM Stimuli\	0.5	1073.8	0.9	819.888888888889	0.7	1035.57142857143	1	787	0.6	1133.66666666667	1	878.7	0.5	917	1	930.1	12	325912	3	325901	27	39	325939	-999999	325915	0	24	TrialsPROC	TO_017_TOOL17_BA.png	2	2	9	SessionSelectionList														nonlure	3	Tools	2-Back	8	80	6	0	0	0	3	39	59569	1	13	86	57530	-1	58609	1	1079	3	3	2039	52	59582	-53	0																9												
WM080112	239944_fnca	2	1	1	2108196994	1	75.032	75.031	2.0.10.147	2.0.10.242	2.0.10.242	1.0.0.439	7	234	2	3	Verdana	1	80	0	0	0	WM Stimuli\	0.5	1073.8	0.9	819.888888888889	0.7	1035.57142857143	1	787	0.6	1133.66666666667	1	878.7	0.5	917	1	930.1	12	325912	3	325901	27	39	325939	-999999	325915	0	24	TrialsPROC	TO_018_TOOL18_BA.png	2	2	10	SessionSelectionList														target	2	Tools	2-Back	9	80	7	0	0	0	1	39	62128	1	13	59	60089	-1	61028	1	939	2	2	2039	52	62141	-53	0																10												
WM080112	239944_fnca	2	1	1	2108196994	1	75.032	75.031	2.0.10.147	2.0.10.242	2.0.10.242	1.0.0.439	7	234	2	3	Verdana	1	80	0	0	0	WM Stimuli\	0.5	1073.8	0.9	819.888888888889	0.7	1035.57142857143	1	787	0.6	1133.66666666667	1	878.7	0.5	917	1	930.1	12	325912	3	325901	27	39	325939	-999999	325915	0	24	TrialsPROC	TO_015_TOOL15_BA.png	2	2	11	SessionSelectionList														nonlure	3	Tools	2-Back	10	80	8	0	0	0	1	39	64727	1	13	99	62688	-1	63538	1	850	3	3	2039	52	64740	-53	0																11												
WM080112	239944_fnca	2	1	1	2108196994	1	75.032	75.031	2.0.10.147	2.0.10.242	2.0.10.242	1.0.0.439	7	234	2	3	Verdana	1	80	0	0	0	WM Stimuli\	0.5	1073.8	0.9	819.888888888889	0.7	1035.57142857143	1	787	0.6	1133.66666666667	1	878.7	0.5	917	1	930.1	12	325912	3	325901	27	39	325939	-999999	325915	0	24	TrialsPROC	TO_017_TOOL17_BA.png	2	2	12	SessionSelectionList														lure	3	Tools	2-Back	11	80	9	0	0	0	1	40	67286	1	13	58	65246	-1	66313	0	1067	2	3	2040	53	67299	-54	0																12												
WM080112	239944_fnca	2	1	1	2108196994	1	75.032	75.031	2.0.10.147	2.0.10.242	2.0.10.242	1.0.0.439	7	234	2	3	Verdana	1	80	0	0	0	WM Stimuli\	0.5	1073.8	0.9	819.888888888889	0.7	1035.57142857143	1	787	0.6	1133.66666666667	1	878.7	0.5	917	1	930.1	12	325912	3	325901	27	39	325939	-999999	325915	0	25	Cue0BackPROC	BP_013_BP7_BA.png	2	2	13	SessionSelectionList																																										33	67779	-34	0												13												
WM080112	239944_fnca	2	1	1	2108196994	1	75.032	75.031	2.0.10.147	2.0.10.242	2.0.10.242	1.0.0.439	7	234	2	3	Verdana	1	80	0	0	0	WM Stimuli\	0.5	1073.8	0.9	819.888888888889	0.7	1035.57142857143	1	787	0.6	1133.66666666667	1	878.7	0.5	917	1	930.1	12	325912	3	325901	27	39	325939	-999999	325915	0	26	TrialsPROC	BP_015_H10-T_BA.png	2	2	14	SessionSelectionList														nonlure	3	Body	0-Back	12	80	9	0	1	0	1	39	72377	2	13	92	70338	-1	0	0	0	""	3	2039	52	72390	-53	0																14												
WM080112	239944_fnca	2	1	1	2108196994	1	75.032	75.031	2.0.10.147	2.0.10.242	2.0.10.242	1.0.0.439	7	234	2	3	Verdana	1	80	0	0	0	WM Stimuli\	0.5	1073.8	0.9	819.888888888889	0.7	1035.57142857143	1	787	0.6	1133.66666666667	1	878.7	0.5	917	1	930.1	12	325912	3	325901	27	39	325939	-999999	325915	0	26	TrialsPROC	BP_018_H13-T_BA.png	2	2	15	SessionSelectionList														nonlure	3	Body	0-Back	13	80	10	0	0	50	1	39	74962	2	14	85	72923	-1	74082	1	1159	3	3	2039	53	74976	-54	0																15												
WM080112	239944_fnca	2	1	1	2108196994	1	75.032	75.031	2.0.10.147	2.0.10.242	2.0.10.242	1.0.0.439	7	234	2	3	Verdana	1	80	0	0	0	WM Stimuli\	0.5	1073.8	0.9	819.888888888889	0.7	1035.57142857143	1	787	0.6	1133.66666666667	1	878.7	0.5	917	1	930.1	12	325912	3	325901	27	39	325939	-999999	325915	0	26	TrialsPROC	BP_014_BP9_BA.png	2	2	16	SessionSelectionList														nonlure	3	Body	0-Back	14	80	11	0	0	67	2	39	77521	2	14	59	75482	-1	76253	1	771	3	3	2039	53	77535	-54	0																16												
WM080112	239944_fnca	2	1	1	2108196994	1	75.032	75.031	2.0.10.147	2.0.10.242	2.0.10.242	1.0.0.439	7	234	2	3	Verdana	1	80	0	0	0	WM Stimuli\	0.5	1073.8	0.9	819.888888888889	0.7	1035.57142857143	1	787	0.6	1133.66666666667	1	878.7	0.5	917	1	930.1	12	325912	3	325901	27	39	325939	-999999	325915	0	26	TrialsPROC	BP_018_H13-T_BA.png	2	2	17	SessionSelectionList														lure	3	Body	0-Back	15	80	12	0	0	75	3	39	80080	2	14	59	78041	-1	79147	1	1106	3	3	2039	53	80094	-54	0																17												
WM080112	239944_fnca	2	1	1	2108196994	1	75.032	75.031	2.0.10.147	2.0.10.242	2.0.10.242	1.0.0.439	7	234	2	3	Verdana	1	80	0	0	0	WM Stimuli\	0.5	1073.8	0.9	819.888888888889	0.7	1035.57142857143	1	787	0.6	1133.66666666667	1	878.7	0.5	917	1	930.1	12	325912	3	325901	27	39	325939	-999999	325915	0	26	TrialsPROC	BP_013_BP7_BA.png	2	2	18	SessionSelectionList														target	2	Body	0-Back	16	80	13	0	0	80	1	38	82639	2	14	60	80601	-1	81465	1	864	2	2	2038	52	82653	-53	0																18												
WM080112	239944_fnca	2	1	1	2108196994	1	75.032	75.031	2.0.10.147	2.0.10.242	2.0.10.242	1.0.0.439	7	234	2	3	Verdana	1	80	0	0	0	WM Stimuli\	0.5	1073.8	0.9	819.888888888889	0.7	1035.57142857143	1	787	0.6	1133.66666666667	1	878.7	0.5	917	1	930.1	12	325912	3	325901	27	39	325939	-999999	325915	0	26	TrialsPROC	BP_015_H10-T_BA.png	2	2	19	SessionSelectionList														lure	3	Body	0-Back	17	80	14	0	0	83	1	39	85198	2	14	58	83159	-1	83671	1	512	3	3	2039	53	85212	-54	0																19												
WM080112	239944_fnca	2	1	1	2108196994	1	75.032	75.031	2.0.10.147	2.0.10.242	2.0.10.242	1.0.0.439	7	234	2	3	Verdana	1	80	0	0	0	WM Stimuli\	0.5	1073.8	0.9	819.888888888889	0.7	1035.57142857143	1	787	0.6	1133.66666666667	1	878.7	0.5	917	1	930.1	12	325912	3	325901	27	39	325939	-999999	325915	0	26	TrialsPROC	BP_016_H11-T_BA.png	2	2	20	SessionSelectionList														nonlure	3	Body	0-Back	18	80	15	0	0	86	2	39	87797	2	14	99	85758	-1	86328	1	570	3	3	2039	53	87811	-54	0																20												
WM080112	239944_fnca	2	1	1	2108196994	1	75.032	75.031	2.0.10.147	2.0.10.242	2.0.10.242	1.0.0.439	7	234	2	3	Verdana	1	80	0	0	0	WM Stimuli\	0.5	1073.8	0.9	819.888888888889	0.7	1035.57142857143	1	787	0.6	1133.66666666667	1	878.7	0.5	917	1	930.1	12	325912	3	325901	27	39	325939	-999999	325915	0	26	TrialsPROC	BP_013_BP7_BA.png	2	2	21	SessionSelectionList														target	2	Body	0-Back	19	80	16	0	0	88	1	39	90356	2	14	59	88317	-1	88981	1	664	2	2	2039	53	90370	-54	0																21												
WM080112	239944_fnca	2	1	1	2108196994	1	75.032	75.031	2.0.10.147	2.0.10.242	2.0.10.242	1.0.0.439	7	234	2	3	Verdana	1	80	0	0	0	WM Stimuli\	0.5	1073.8	0.9	819.888888888889	0.7	1035.57142857143	1	787	0.6	1133.66666666667	1	878.7	0.5	917	1	930.1	12	325912	3	325901	27	39	325939	-999999	325915	0	26	TrialsPROC	BP_017_H12-T_BA.png	2	2	22	SessionSelectionList														nonlure	3	Body	0-Back	20	80	17	0	0	89	1	39	92955	1	13	99	90916	-1	91705	1	789	3	3	2039	52	92968	-53	0																22												
WM080112	239944_fnca	2	1	1	2108196994	1	75.032	75.031	2.0.10.147	2.0.10.242	2.0.10.242	1.0.0.439	7	234	2	3	Verdana	1	80	0	0	0	WM Stimuli\	0.5	1073.8	0.9	819.888888888889	0.7	1035.57142857143	1	787	0.6	1133.66666666667	1	878.7	0.5	917	1	930.1	12	325912	3	325901	27	39	325939	-999999	325915	0	26	TrialsPROC	BP_014_BP9_BA.png	2	2	23	SessionSelectionList														lure	3	Body	0-Back	21	80	18	0	0	90	2	39	95514	1	13	59	93475	-1	94419	1	944	3	3	2039	52	95527	-53	0																23												
WM080112	239944_fnca	2	1	1	2108196994	1	75.032	75.031	2.0.10.147	2.0.10.242	2.0.10.242	1.0.0.439	7	234	2	3	Verdana	1	80	0	0	0	WM Stimuli\	0.5	1073.8	0.9	819.888888888889	0.7	1035.57142857143	1	787	0.6	1133.66666666667	1	878.7	0.5	917	1	930.1	12	325912	3	325901	27	39	325939	-999999	325915	0	27	Fix15secPROC	""	2	2	24	SessionSelectionList																																															6	95981	-7	0							24												
WM080112	239944_fnca	2	1	1	2108196994	1	75.032	75.031	2.0.10.147	2.0.10.242	2.0.10.242	1.0.0.439	7	234	2	3	Verdana	1	80	0	0	0	WM Stimuli\	0.5	1073.8	0.9	819.888888888889	0.7	1035.57142857143	1	787	0.6	1133.66666666667	1	878.7	0.5	917	1	930.1	12	325912	3	325901	27	39	325939	-999999	325915	0	28	Cue2BackPROC	""	2	2	25	SessionSelectionList									13	110988	-14	0																																													25												
WM080112	239944_fnca	2	1	1	2108196994	1	75.032	75.031	2.0.10.147	2.0.10.242	2.0.10.242	1.0.0.439	7	234	2	3	Verdana	1	80	0	0	0	WM Stimuli\	0.5	1073.8	0.9	819.888888888889	0.7	1035.57142857143	1	787	0.6	1133.66666666667	1	878.7	0.5	917	1	930.1	12	325912	3	325901	27	39	325939	-999999	325915	0	29	TrialsPROC	FC_015_M8.png	2	2	26	SessionSelectionList														nonlure	3	Face	2-Back	22	80	19	0	0	90	1	39	115599	1	14	85	113560	-1	115133	0	1573	2	3	2039	53	115613	-54	0																26												
WM080112	239944_fnca	2	1	1	2108196994	1	75.032	75.031	2.0.10.147	2.0.10.242	2.0.10.242	1.0.0.439	7	234	2	3	Verdana	1	80	0	0	0	WM Stimuli\	0.5	1073.8	0.9	819.888888888889	0.7	1035.57142857143	1	787	0.6	1133.66666666667	1	878.7	0.5	917	1	930.1	12	325912	3	325901	27	39	325939	-999999	325915	0	29	TrialsPROC	FC_018_F9.png	2	2	27	SessionSelectionList														nonlure	3	Face	2-Back	23	80	20	0	0	90	2	39	118198	1	13	99	116159	-1	117191	0	1032	2	3	2039	52	118211	-53	0																27												
WM080112	239944_fnca	2	1	1	2108196994	1	75.032	75.031	2.0.10.147	2.0.10.242	2.0.10.242	1.0.0.439	7	234	2	3	Verdana	1	80	0	0	0	WM Stimuli\	0.5	1073.8	0.9	819.888888888889	0.7	1035.57142857143	1	787	0.6	1133.66666666667	1	878.7	0.5	917	1	930.1	12	325912	3	325901	27	39	325939	-999999	325915	0	29	TrialsPROC	FC_018_F9.png	2	2	28	SessionSelectionList														lure	3	Face	2-Back	24	80	21	0	0	90	1	39	120770	2	14	72	118731	-1	119526	1	795	3	3	2039	53	120784	-54	0																28												
WM080112	239944_fnca	2	1	1	2108196994	1	75.032	75.031	2.0.10.147	2.0.10.242	2.0.10.242	1.0.0.439	7	234	2	3	Verdana	1	80	0	0	0	WM Stimuli\	0.5	1073.8	0.9	819.888888888889	0.7	1035.57142857143	1	787	0.6	1133.66666666667	1	878.7	0.5	917	1	930.1	12	325912	3	325901	27	39	325939	-999999	325915	0	29	TrialsPROC	FC_017_M9.png	2	2	29	SessionSelectionList														nonlure	3	Face	2-Back	25	80	22	0	0	90	2	39	123369	2	14	99	121330	-1	122436	1	1106	3	3	2039	53	123383	-54	0																29												
WM080112	239944_fnca	2	1	1	2108196994	1	75.032	75.031	2.0.10.147	2.0.10.242	2.0.10.242	1.0.0.439	7	234	2	3	Verdana	1	80	0	0	0	WM Stimuli\	0.5	1073.8	0.9	819.888888888889	0.7	1035.57142857143	1	787	0.6	1133.66666666667	1	878.7	0.5	917	1	930.1	12	325912	3	325901	27	39	325939	-999999	325915	0	29	TrialsPROC	FC_017_M9.png	2	2	30	SessionSelectionList														lure	3	Face	2-Back	26	80	23	0	0	90	3	39	125941	2	14	72	123902	-1	125611	1	1709	3	3	2039	53	125955	-54	0																30												
WM080112	239944_fnca	2	1	1	2108196994	1	75.032	75.031	2.0.10.147	2.0.10.242	2.0.10.242	1.0.0.439	7	234	2	3	Verdana	1	80	0	0	0	WM Stimuli\	0.5	1073.8	0.9	819.888888888889	0.7	1035.57142857143	1	787	0.6	1133.66666666667	1	878.7	0.5	917	1	930.1	12	325912	3	325901	27	39	325939	-999999	325915	0	29	TrialsPROC	FC_016_F8.png	2	2	31	SessionSelectionList														nonlure	3	Face	2-Back	27	80	24	0	0	90	4	39	128540	2	14	99	126501	-1	127662	1	1161	3	3	2039	53	128554	-54	0																31												
WM080112	239944_fnca	2	1	1	2108196994	1	75.032	75.031	2.0.10.147	2.0.10.242	2.0.10.242	1.0.0.439	7	234	2	3	Verdana	1	80	0	0	0	WM Stimuli\	0.5	1073.8	0.9	819.888888888889	0.7	1035.57142857143	1	787	0.6	1133.66666666667	1	878.7	0.5	917	1	930.1	12	325912	3	325901	27	39	325939	-999999	325915	0	29	TrialsPROC	FC_013_M7.png	2	2	32	SessionSelectionList														nonlure	3	Face	2-Back	28	80	25	0	0	90	5	39	131139	2	14	99	129100	-1	130111	1	1011	3	3	2039	53	131153	-54	0																32												
WM080112	239944_fnca	2	1	1	2108196994	1	75.032	75.031	2.0.10.147	2.0.10.242	2.0.10.242	1.0.0.439	7	234	2	3	Verdana	1	80	0	0	0	WM Stimuli\	0.5	1073.8	0.9	819.888888888889	0.7	1035.57142857143	1	787	0.6	1133.66666666667	1	878.7	0.5	917	1	930.1	12	325912	3	325901	27	39	325939	-999999	325915	0	29	TrialsPROC	FC_014_F7.png	2	2	33	SessionSelectionList														nonlure	3	Face	2-Back	29	80	26	0	0	90	6	39	133738	2	14	99	131699	-1	132707	1	1008	3	3	2039	53	133752	-54	0																33												
WM080112	239944_fnca	2	1	1	2108196994	1	75.032	75.031	2.0.10.147	2.0.10.242	2.0.10.242	1.0.0.439	7	234	2	3	Verdana	1	80	0	0	0	WM Stimuli\	0.5	1073.8	0.9	819.888888888889	0.7	1035.57142857143	1	787	0.6	1133.66666666667	1	878.7	0.5	917	1	930.1	12	325912	3	325901	27	39	325939	-999999	325915	0	29	TrialsPROC	FC_013_M7.png	2	2	34	SessionSelectionList														target	2	Face	2-Back	30	80	27	0	0	90	1	40	136311	1	13	72	134271	-1	134730	1	459	2	2	2040	53	136324	-54	0																34												
WM080112	239944_fnca	2	1	1	2108196994	1	75.032	75.031	2.0.10.147	2.0.10.242	2.0.10.242	1.0.0.439	7	234	2	3	Verdana	1	80	0	0	0	WM Stimuli\	0.5	1073.8	0.9	819.888888888889	0.7	1035.57142857143	1	787	0.6	1133.66666666667	1	878.7	0.5	917	1	930.1	12	325912	3	325901	27	39	325939	-999999	325915	0	29	TrialsPROC	FC_014_F7.png	2	2	35	SessionSelectionList														target	2	Face	2-Back	31	80	28	0	0	90	1	39	138883	1	13	73	136844	-1	138032	0	1188	3	2	2039	52	138896	-53	0																35												
WM080112	239944_fnca	2	1	1	2108196994	1	75.032	75.031	2.0.10.147	2.0.10.242	2.0.10.242	1.0.0.439	7	234	2	3	Verdana	1	80	0	0	0	WM Stimuli\	0.5	1073.8	0.9	819.888888888889	0.7	1035.57142857143	1	787	0.6	1133.66666666667	1	878.7	0.5	917	1	930.1	12	325912	3	325901	27	39	325939	-999999	325915	0	30	Cue0BackPROC	TO_019_TOOL19_BA.png	2	2	36	SessionSelectionList																																										45	139389	-46	0												36												
WM080112	239944_fnca	2	1	1	2108196994	1	75.032	75.031	2.0.10.147	2.0.10.242	2.0.10.242	1.0.0.439	7	234	2	3	Verdana	1	80	0	0	0	WM Stimuli\	0.5	1073.8	0.9	819.888888888889	0.7	1035.57142857143	1	787	0.6	1133.66666666667	1	878.7	0.5	917	1	930.1	12	325912	3	325901	27	39	325939	-999999	325915	0	31	TrialsPROC	TO_019_TOOL19_BA.png	2	2	37	SessionSelectionList														target	2	Tools	0-Back	32	80	29	0	0	91	1	39	143934	1	14	51	141895	-1	142476	1	581	2	2	2039	53	143948	-54	0																37												
WM080112	239944_fnca	2	1	1	2108196994	1	75.032	75.031	2.0.10.147	2.0.10.242	2.0.10.242	1.0.0.439	7	234	2	3	Verdana	1	80	0	0	0	WM Stimuli\	0.5	1073.8	0.9	819.888888888889	0.7	1035.57142857143	1	787	0.6	1133.66666666667	1	878.7	0.5	917	1	930.1	12	325912	3	325901	27	39	325939	-999999	325915	0	31	TrialsPROC	TO_024_TOOL24_BA.png	2	2	38	SessionSelectionList														nonlure	3	Tools	0-Back	33	80	30	0	0	92	1	39	146533	1	13	99	144494	-1	145088	1	594	3	3	2039	52	146546	-53	0																38												
WM080112	239944_fnca	2	1	1	2108196994	1	75.032	75.031	2.0.10.147	2.0.10.242	2.0.10.242	1.0.0.439	7	234	2	3	Verdana	1	80	0	0	0	WM Stimuli\	0.5	1073.8	0.9	819.888888888889	0.7	1035.57142857143	1	787	0.6	1133.66666666667	1	878.7	0.5	917	1	930.1	12	325912	3	325901	27	39	325939	-999999	325915	0	31	TrialsPROC	TO_019_TOOL19_BA.png	2	2	39	SessionSelectionList														target	2	Tools	0-Back	34	80	31	0	0	92	1	39	149092	1	13	59	147053	-1	147837	1	784	2	2	2039	52	149105	-53	0																39												
WM080112	239944_fnca	2	1	1	2108196994	1	75.032	75.031	2.0.10.147	2.0.10.242	2.0.10.242	1.0.0.439	7	234	2	3	Verdana	1	80	0	0	0	WM Stimuli\	0.5	1073.8	0.9	819.888888888889	0.7	1035.57142857143	1	787	0.6	1133.66666666667	1	878.7	0.5	917	1	930.1	12	325912	3	325901	27	39	325939	-999999	325915	0	31	TrialsPROC	TO_023_TOOL23_BA.png	2	2	40	SessionSelectionList														nonlure	3	Tools	0-Back	35	80	32	0	0	93	1	40	151678	1	13	85	149638	-1	150232	1	594	3	3	2040	53	151691	-54	0																40												
WM080112	239944_fnca	2	1	1	2108196994	1	75.032	75.031	2.0.10.147	2.0.10.242	2.0.10.242	1.0.0.439	7	234	2	3	Verdana	1	80	0	0	0	WM Stimuli\	0.5	1073.8	0.9	819.888888888889	0.7	1035.57142857143	1	787	0.6	1133.66666666667	1	878.7	0.5	917	1	930.1	12	325912	3	325901	27	39	325939	-999999	325915	0	31	TrialsPROC	TO_020_TOOL20_BA.png	2	2	41	SessionSelectionList														nonlure	3	Tools	0-Back	36	80	33	0	0	93	2	39	154263	2	14	86	152224	-1	153014	1	790	3	3	2039	53	154277	-54	0																41												
WM080112	239944_fnca	2	1	1	2108196994	1	75.032	75.031	2.0.10.147	2.0.10.242	2.0.10.242	1.0.0.439	7	234	2	3	Verdana	1	80	0	0	0	WM Stimuli\	0.5	1073.8	0.9	819.888888888889	0.7	1035.57142857143	1	787	0.6	1133.66666666667	1	878.7	0.5	917	1	930.1	12	325912	3	325901	27	39	325939	-999999	325915	0	31	TrialsPROC	TO_020_TOOL20_BA.png	2	2	42	SessionSelectionList														lure	3	Tools	0-Back	37	80	34	0	0	94	3	39	156822	1	14	59	154783	-1	155590	1	807	3	3	2039	53	156836	-54	0																42												
WM080112	239944_fnca	2	1	1	2108196994	1	75.032	75.031	2.0.10.147	2.0.10.242	2.0.10.242	1.0.0.439	7	234	2	3	Verdana	1	80	0	0	0	WM Stimuli\	0.5	1073.8	0.9	819.888888888889	0.7	1035.57142857143	1	787	0.6	1133.66666666667	1	878.7	0.5	917	1	930.1	12	325912	3	325901	27	39	325939	-999999	325915	0	31	TrialsPROC	TO_022_TOOL22_BA.png	2	2	43	SessionSelectionList														nonlure	3	Tools	0-Back	38	80	35	0	0	94	4	39	159421	1	13	99	157382	-1	158167	1	785	3	3	2039	52	159434	-53	0																43												
WM080112	239944_fnca	2	1	1	2108196994	1	75.032	75.031	2.0.10.147	2.0.10.242	2.0.10.242	1.0.0.439	7	234	2	3	Verdana	1	80	0	0	0	WM Stimuli\	0.5	1073.8	0.9	819.888888888889	0.7	1035.57142857143	1	787	0.6	1133.66666666667	1	878.7	0.5	917	1	930.1	12	325912	3	325901	27	39	325939	-999999	325915	0	31	TrialsPROC	TO_022_TOOL22_BA.png	2	2	44	SessionSelectionList														lure	3	Tools	0-Back	39	80	36	0	0	94	5	39	161980	1	13	59	159941	-1	161265	1	1324	3	3	2039	52	161993	-53	0																44												
WM080112	239944_fnca	2	1	1	2108196994	1	75.032	75.031	2.0.10.147	2.0.10.242	2.0.10.242	1.0.0.439	7	234	2	3	Verdana	1	80	0	0	0	WM Stimuli\	0.5	1073.8	0.9	819.888888888889	0.7	1035.57142857143	1	787	0.6	1133.66666666667	1	878.7	0.5	917	1	930.1	12	325912	3	325901	27	39	325939	-999999	325915	0	31	TrialsPROC	TO_021_TOOL21_BA.png	2	2	45	SessionSelectionList														nonlure	3	Tools	0-Back	40	80	37	0	0	95	6	40	164566	1	13	85	162526	-1	164057	1	1531	3	3	2040	53	164579	-54	0																45												
WM080112	239944_fnca	2	1	1	2108196994	1	75.032	75.031	2.0.10.147	2.0.10.242	2.0.10.242	1.0.0.439	7	234	2	3	Verdana	1	80	0	0	0	WM Stimuli\	0.5	1073.8	0.9	819.888888888889	0.7	1035.57142857143	1	787	0.6	1133.66666666667	1	878.7	0.5	917	1	930.1	12	325912	3	325901	27	39	325939	-999999	325915	0	31	TrialsPROC	TO_021_TOOL21_BA.png	2	2	46	SessionSelectionList														lure	3	Tools	0-Back	41	80	38	0	0	95	7	40	167125	1	13	59	165085	-1	166596	1	1511	3	3	2040	53	167138	-54	0																46												
WM080112	239944_fnca	2	1	1	2108196994	1	75.032	75.031	2.0.10.147	2.0.10.242	2.0.10.242	1.0.0.439	7	234	2	3	Verdana	1	80	0	0	0	WM Stimuli\	0.5	1073.8	0.9	819.888888888889	0.7	1035.57142857143	1	787	0.6	1133.66666666667	1	878.7	0.5	917	1	930.1	12	325912	3	325901	27	39	325939	-999999	325915	0	32	Fix15secPROC	""	2	2	47	SessionSelectionList																																															6	167591	-7	0							47												
WM080112	239944_fnca	2	1	1	2108196994	1	75.032	75.031	2.0.10.147	2.0.10.242	2.0.10.242	1.0.0.439	7	234	2	3	Verdana	1	80	0	0	0	WM Stimuli\	0.5	1073.8	0.9	819.888888888889	0.7	1035.57142857143	1	787	0.6	1133.66666666667	1	878.7	0.5	917	1	930.1	12	325912	3	325901	27	39	325939	-999999	325915	0	33	Cue2BackPROC	""	2	2	48	SessionSelectionList									13	182598	-14	0																																													48												
WM080112	239944_fnca	2	1	1	2108196994	1	75.032	75.031	2.0.10.147	2.0.10.242	2.0.10.242	1.0.0.439	7	234	2	3	Verdana	1	80	0	0	0	WM Stimuli\	0.5	1073.8	0.9	819.888888888889	0.7	1035.57142857143	1	787	0.6	1133.66666666667	1	878.7	0.5	917	1	930.1	12	325912	3	325901	27	39	325939	-999999	325915	0	34	TrialsPROC	BP_020_H17-T_BA.png	2	2	49	SessionSelectionList														nonlure	3	Body	2-Back	42	80	39	0	0	95	1	40	187210	1	13	85	185170	-1	186287	0	1117	2	3	2040	53	187223	-54	0																49												
WM080112	239944_fnca	2	1	1	2108196994	1	75.032	75.031	2.0.10.147	2.0.10.242	2.0.10.242	1.0.0.439	7	234	2	3	Verdana	1	80	0	0	0	WM Stimuli\	0.5	1073.8	0.9	819.888888888889	0.7	1035.57142857143	1	787	0.6	1133.66666666667	1	878.7	0.5	917	1	930.1	12	325912	3	325901	27	39	325939	-999999	325915	0	34	TrialsPROC	BP_019_H14-T_BA.png	2	2	50	SessionSelectionList														nonlure	3	Body	2-Back	43	80	39	0	1	95	1	39	189808	2	14	99	187769	-1	0	0	0	""	3	2039	53	189822	-54	0																50												
WM080112	239944_fnca	2	1	1	2108196994	1	75.032	75.031	2.0.10.147	2.0.10.242	2.0.10.242	1.0.0.439	7	234	2	3	Verdana	1	80	0	0	0	WM Stimuli\	0.5	1073.8	0.9	819.888888888889	0.7	1035.57142857143	1	787	0.6	1133.66666666667	1	878.7	0.5	917	1	930.1	12	325912	3	325901	27	39	325939	-999999	325915	0	34	TrialsPROC	BP_020_H17-T_BA.png	2	2	51	SessionSelectionList														target	2	Body	2-Back	44	80	40	0	0	95	1	38	192367	2	14	60	190329	-1	191696	0	1367	3	2	2038	52	192381	-53	0																51												
WM080112	239944_fnca	2	1	1	2108196994	1	75.032	75.031	2.0.10.147	2.0.10.242	2.0.10.242	1.0.0.439	7	234	2	3	Verdana	1	80	0	0	0	WM Stimuli\	0.5	1073.8	0.9	819.888888888889	0.7	1035.57142857143	1	787	0.6	1133.66666666667	1	878.7	0.5	917	1	930.1	12	325912	3	325901	27	39	325939	-999999	325915	0	34	TrialsPROC	BP_019_H14-T_BA.png	2	2	52	SessionSelectionList														target	2	Body	2-Back	45	80	41	0	0	95	1	38	194926	2	14	59	192888	-1	193579	1	691	2	2	2038	52	194940	-53	0																52												
WM080112	239944_fnca	2	1	1	2108196994	1	75.032	75.031	2.0.10.147	2.0.10.242	2.0.10.242	1.0.0.439	7	234	2	3	Verdana	1	80	0	0	0	WM Stimuli\	0.5	1073.8	0.9	819.888888888889	0.7	1035.57142857143	1	787	0.6	1133.66666666667	1	878.7	0.5	917	1	930.1	12	325912	3	325901	27	39	325939	-999999	325915	0	34	TrialsPROC	BP_024_H3-T_BA.png	2	2	53	SessionSelectionList														nonlure	3	Body	2-Back	46	80	42	0	0	95	1	39	197525	2	14	98	195486	-1	196250	1	764	3	3	2039	53	197539	-54	0																53												
WM080112	239944_fnca	2	1	1	2108196994	1	75.032	75.031	2.0.10.147	2.0.10.242	2.0.10.242	1.0.0.439	7	234	2	3	Verdana	1	80	0	0	0	WM Stimuli\	0.5	1073.8	0.9	819.888888888889	0.7	1035.57142857143	1	787	0.6	1133.66666666667	1	878.7	0.5	917	1	930.1	12	325912	3	325901	27	39	325939	-999999	325915	0	34	TrialsPROC	BP_024_H3-T_BA.png	2	2	54	SessionSelectionList														lure	3	Body	2-Back	47	80	43	0	0	95	1	39	200084	2	14	59	198045	-1	198767	0	722	2	3	2039	53	200098	-54	0																54												
WM080112	239944_fnca	2	1	1	2108196994	1	75.032	75.031	2.0.10.147	2.0.10.242	2.0.10.242	1.0.0.439	7	234	2	3	Verdana	1	80	0	0	0	WM Stimuli\	0.5	1073.8	0.9	819.888888888889	0.7	1035.57142857143	1	787	0.6	1133.66666666667	1	878.7	0.5	917	1	930.1	12	325912	3	325901	27	39	325939	-999999	325915	0	34	TrialsPROC	BP_025_H5-T_BA.png	2	2	55	SessionSelectionList														nonlure	3	Body	2-Back	48	80	44	0	0	95	1	40	202657	1	13	72	200617	-1	201758	1	1141	3	3	2040	53	202670	-54	0																55												
WM080112	239944_fnca	2	1	1	2108196994	1	75.032	75.031	2.0.10.147	2.0.10.242	2.0.10.242	1.0.0.439	7	234	2	3	Verdana	1	80	0	0	0	WM Stimuli\	0.5	1073.8	0.9	819.888888888889	0.7	1035.57142857143	1	787	0.6	1133.66666666667	1	878.7	0.5	917	1	930.1	12	325912	3	325901	27	39	325939	-999999	325915	0	34	TrialsPROC	BP_023_H25-T_BA.png	2	2	56	SessionSelectionList														nonlure	3	Body	2-Back	49	80	45	0	0	95	2	39	205242	2	14	86	203203	-1	204674	1	1471	3	3	2039	53	205256	-54	0																56												
WM080112	239944_fnca	2	1	1	2108196994	1	75.032	75.031	2.0.10.147	2.0.10.242	2.0.10.242	1.0.0.439	7	234	2	3	Verdana	1	80	0	0	0	WM Stimuli\	0.5	1073.8	0.9	819.888888888889	0.7	1035.57142857143	1	787	0.6	1133.66666666667	1	878.7	0.5	917	1	930.1	12	325912	3	325901	27	39	325939	-999999	325915	0	34	TrialsPROC	BP_022_H24-T_BA.png	2	2	57	SessionSelectionList														nonlure	3	Body	2-Back	50	80	46	0	0	95	3	39	207828	1	13	86	205789	-1	207091	1	1302	3	3	2039	52	207841	-53	0																57												
WM080112	239944_fnca	2	1	1	2108196994	1	75.032	75.031	2.0.10.147	2.0.10.242	2.0.10.242	1.0.0.439	7	234	2	3	Verdana	1	80	0	0	0	WM Stimuli\	0.5	1073.8	0.9	819.888888888889	0.7	1035.57142857143	1	787	0.6	1133.66666666667	1	878.7	0.5	917	1	930.1	12	325912	3	325901	27	39	325939	-999999	325915	0	34	TrialsPROC	BP_022_H24-T_BA.png	2	2	58	SessionSelectionList														lure	3	Body	2-Back	51	80	46	0	1	95	3	39	210387	1	13	59	208348	-1	0	0	0	""	3	2039	52	210400	-53	0																58												
WM080112	239944_fnca	2	1	1	2108196994	1	75.032	75.031	2.0.10.147	2.0.10.242	2.0.10.242	1.0.0.439	7	234	2	3	Verdana	1	80	0	0	0	WM Stimuli\	0.5	1073.8	0.9	819.888888888889	0.7	1035.57142857143	1	787	0.6	1133.66666666667	1	878.7	0.5	917	1	930.1	12	325912	3	325901	27	39	325939	-999999	325915	0	35	Cue2BackPROC	""	2	2	59	SessionSelectionList									5	210853	-6	0																																													59												
WM080112	239944_fnca	2	1	1	2108196994	1	75.032	75.031	2.0.10.147	2.0.10.242	2.0.10.242	1.0.0.439	7	234	2	3	Verdana	1	80	0	0	0	WM Stimuli\	0.5	1073.8	0.9	819.888888888889	0.7	1035.57142857143	1	787	0.6	1133.66666666667	1	878.7	0.5	917	1	930.1	12	325912	3	325901	27	39	325939	-999999	325915	0	36	TrialsPROC	PL_019_SCENE_05.png	2	2	60	SessionSelectionList														nonlure	3	Place	2-Back	52	80	46	0	2	95	3	39	215478	1	13	91	213439	-1	0	0	0	""	3	2039	52	215491	-53	0																60												
WM080112	239944_fnca	2	1	1	2108196994	1	75.032	75.031	2.0.10.147	2.0.10.242	2.0.10.242	1.0.0.439	7	234	2	3	Verdana	1	80	0	0	0	WM Stimuli\	0.5	1073.8	0.9	819.888888888889	0.7	1035.57142857143	1	787	0.6	1133.66666666667	1	878.7	0.5	917	1	930.1	12	325912	3	325901	27	39	325939	-999999	325915	0	36	TrialsPROC	PL_017_SCENE_03.png	2	2	61	SessionSelectionList														nonlure	3	Place	2-Back	53	80	46	0	3	95	3	39	218077	1	13	99	216038	-1	0	0	0	""	3	2039	52	218090	-53	0																61												
WM080112	239944_fnca	2	1	1	2108196994	1	75.032	75.031	2.0.10.147	2.0.10.242	2.0.10.242	1.0.0.439	7	234	2	3	Verdana	1	80	0	0	0	WM Stimuli\	0.5	1073.8	0.9	819.888888888889	0.7	1035.57142857143	1	787	0.6	1133.66666666667	1	878.7	0.5	917	1	930.1	12	325912	3	325901	27	39	325939	-999999	325915	0	36	TrialsPROC	PL_017_SCENE_03.png	2	2	62	SessionSelectionList														lure	3	Place	2-Back	54	80	47	0	0	95	1	39	220649	2	14	72	218610	-1	219866	1	1256	3	3	2039	53	220663	-54	0																62												
WM080112	239944_fnca	2	1	1	2108196994	1	75.032	75.031	2.0.10.147	2.0.10.242	2.0.10.242	1.0.0.439	7	234	2	3	Verdana	1	80	0	0	0	WM Stimuli\	0.5	1073.8	0.9	819.888888888889	0.7	1035.57142857143	1	787	0.6	1133.66666666667	1	878.7	0.5	917	1	930.1	12	325912	3	325901	27	39	325939	-999999	325915	0	36	TrialsPROC	PL_016_SCENE_02.png	2	2	63	SessionSelectionList														nonlure	3	Place	2-Back	55	80	48	0	0	95	2	39	223248	1	13	99	221209	-1	222456	1	1247	3	3	2039	52	223261	-53	0																63												
WM080112	239944_fnca	2	1	1	2108196994	1	75.032	75.031	2.0.10.147	2.0.10.242	2.0.10.242	1.0.0.439	7	234	2	3	Verdana	1	80	0	0	0	WM Stimuli\	0.5	1073.8	0.9	819.888888888889	0.7	1035.57142857143	1	787	0.6	1133.66666666667	1	878.7	0.5	917	1	930.1	12	325912	3	325901	27	39	325939	-999999	325915	0	36	TrialsPROC	PL_015_SCENE_01.png	2	2	64	SessionSelectionList														nonlure	3	Place	2-Back	56	80	49	0	0	95	3	39	225847	1	13	99	223808	-1	224797	1	989	3	3	2039	52	225860	-53	0																64												
WM080112	239944_fnca	2	1	1	2108196994	1	75.032	75.031	2.0.10.147	2.0.10.242	2.0.10.242	1.0.0.439	7	234	2	3	Verdana	1	80	0	0	0	WM Stimuli\	0.5	1073.8	0.9	819.888888888889	0.7	1035.57142857143	1	787	0.6	1133.66666666667	1	878.7	0.5	917	1	930.1	12	325912	3	325901	27	39	325939	-999999	325915	0	36	TrialsPROC	PL_016_SCENE_02.png	2	2	65	SessionSelectionList														target	2	Place	2-Back	57	80	50	0	0	95	1	39	228419	2	14	72	226380	-1	226897	1	517	2	2	2039	53	228433	-54	0																65												
WM080112	239944_fnca	2	1	1	2108196994	1	75.032	75.031	2.0.10.147	2.0.10.242	2.0.10.242	1.0.0.439	7	234	2	3	Verdana	1	80	0	0	0	WM Stimuli\	0.5	1073.8	0.9	819.888888888889	0.7	1035.57142857143	1	787	0.6	1133.66666666667	1	878.7	0.5	917	1	930.1	12	325912	3	325901	27	39	325939	-999999	325915	0	36	TrialsPROC	PL_015_SCENE_01.png	2	2	66	SessionSelectionList														target	2	Place	2-Back	58	80	51	0	0	95	1	40	230992	1	13	72	228952	-1	229950	0	998	3	2	2040	53	231005	-54	0																66												
WM080112	239944_fnca	2	1	1	2108196994	1	75.032	75.031	2.0.10.147	2.0.10.242	2.0.10.242	1.0.0.439	7	234	2	3	Verdana	1	80	0	0	0	WM Stimuli\	0.5	1073.8	0.9	819.888888888889	0.7	1035.57142857143	1	787	0.6	1133.66666666667	1	878.7	0.5	917	1	930.1	12	325912	3	325901	27	39	325939	-999999	325915	0	36	TrialsPROC	PL_020_SCENE_06.png	2	2	67	SessionSelectionList														nonlure	3	Place	2-Back	59	80	52	0	0	95	2	39	233590	2	14	99	231551	-1	232795	1	1244	3	3	2039	53	233604	-54	0																67												
WM080112	239944_fnca	2	1	1	2108196994	1	75.032	75.031	2.0.10.147	2.0.10.242	2.0.10.242	1.0.0.439	7	234	2	3	Verdana	1	80	0	0	0	WM Stimuli\	0.5	1073.8	0.9	819.888888888889	0.7	1035.57142857143	1	787	0.6	1133.66666666667	1	878.7	0.5	917	1	930.1	12	325912	3	325901	27	39	325939	-999999	325915	0	36	TrialsPROC	PL_020_SCENE_06.png	2	2	68	SessionSelectionList														lure	3	Place	2-Back	60	80	53	0	0	95	1	39	236163	1	13	73	234124	-1	235612	0	1488	2	3	2039	52	236176	-53	0																68												
WM080112	239944_fnca	2	1	1	2108196994	1	75.032	75.031	2.0.10.147	2.0.10.242	2.0.10.242	1.0.0.439	7	234	2	3	Verdana	1	80	0	0	0	WM Stimuli\	0.5	1073.8	0.9	819.888888888889	0.7	1035.57142857143	1	787	0.6	1133.66666666667	1	878.7	0.5	917	1	930.1	12	325912	3	325901	27	39	325939	-999999	325915	0	36	TrialsPROC	PL_018_SCENE_04.png	2	2	69	SessionSelectionList														nonlure	3	Place	2-Back	61	80	54	0	0	95	1	40	238762	1	13	98	236722	-1	238271	1	1549	3	3	2040	53	238775	-54	0																69												
WM080112	239944_fnca	2	1	1	2108196994	1	75.032	75.031	2.0.10.147	2.0.10.242	2.0.10.242	1.0.0.439	7	234	2	3	Verdana	1	80	0	0	0	WM Stimuli\	0.5	1073.8	0.9	819.888888888889	0.7	1035.57142857143	1	787	0.6	1133.66666666667	1	878.7	0.5	917	1	930.1	12	325912	3	325901	27	39	325939	-999999	325915	0	37	Fix15secPROC	""	2	2	70	SessionSelectionList																																															6	239228	-7	0							70												
WM080112	239944_fnca	2	1	1	2108196994	1	75.032	75.031	2.0.10.147	2.0.10.242	2.0.10.242	1.0.0.439	7	234	2	3	Verdana	1	80	0	0	0	WM Stimuli\	0.5	1073.8	0.9	819.888888888889	0.7	1035.57142857143	1	787	0.6	1133.66666666667	1	878.7	0.5	917	1	930.1	12	325912	3	325901	27	39	325939	-999999	325915	0	38	Cue0BackPROC	FC_020_F10.png	2	2	71	SessionSelectionList																																										53	254275	-54	0												71												
WM080112	239944_fnca	2	1	1	2108196994	1	75.032	75.031	2.0.10.147	2.0.10.242	2.0.10.242	1.0.0.439	7	234	2	3	Verdana	1	80	0	0	0	WM Stimuli\	0.5	1073.8	0.9	819.888888888889	0.7	1035.57142857143	1	787	0.6	1133.66666666667	1	878.7	0.5	917	1	930.1	12	325912	3	325901	27	39	325939	-999999	325915	0	39	TrialsPROC	FC_024_F12.png	2	2	72	SessionSelectionList														nonlure	3	Face	0-Back	62	80	55	0	0	95	2	39	258860	1	14	99	256821	-1	257756	1	935	3	3	2039	53	258874	-54	0																72												
WM080112	239944_fnca	2	1	1	2108196994	1	75.032	75.031	2.0.10.147	2.0.10.242	2.0.10.242	1.0.0.439	7	234	2	3	Verdana	1	80	0	0	0	WM Stimuli\	0.5	1073.8	0.9	819.888888888889	0.7	1035.57142857143	1	787	0.6	1133.66666666667	1	878.7	0.5	917	1	930.1	12	325912	3	325901	27	39	325939	-999999	325915	0	39	TrialsPROC	FC_023_M12.png	2	2	73	SessionSelectionList														nonlure	3	Face	0-Back	63	80	56	0	0	95	3	39	261446	1	13	86	259407	-1	260272	1	865	3	3	2039	52	261459	-53	0																73												
WM080112	239944_fnca	2	1	1	2108196994	1	75.032	75.031	2.0.10.147	2.0.10.242	2.0.10.242	1.0.0.439	7	234	2	3	Verdana	1	80	0	0	0	WM Stimuli\	0.5	1073.8	0.9	819.888888888889	0.7	1035.57142857143	1	787	0.6	1133.66666666667	1	878.7	0.5	917	1	930.1	12	325912	3	325901	27	39	325939	-999999	325915	0	39	TrialsPROC	FC_020_F10.png	2	2	74	SessionSelectionList														target	2	Face	0-Back	64	80	57	0	0	96	1	39	264018	1	13	72	261979	-1	262625	1	646	2	2	2039	52	264031	-53	0																74												
WM080112	239944_fnca	2	1	1	2108196994	1	75.032	75.031	2.0.10.147	2.0.10.242	2.0.10.242	1.0.0.439	7	234	2	3	Verdana	1	80	0	0	0	WM Stimuli\	0.5	1073.8	0.9	819.888888888889	0.7	1035.57142857143	1	787	0.6	1133.66666666667	1	878.7	0.5	917	1	930.1	12	325912	3	325901	27	39	325939	-999999	325915	0	39	TrialsPROC	FC_024_F12.png	2	2	75	SessionSelectionList														lure	3	Face	0-Back	65	80	58	0	0	96	1	39	266590	2	14	72	264551	-1	265139	1	588	3	3	2039	53	266604	-54	0																75												
WM080112	239944_fnca	2	1	1	2108196994	1	75.032	75.031	2.0.10.147	2.0.10.242	2.0.10.242	1.0.0.439	7	234	2	3	Verdana	1	80	0	0	0	WM Stimuli\	0.5	1073.8	0.9	819.888888888889	0.7	1035.57142857143	1	787	0.6	1133.66666666667	1	878.7	0.5	917	1	930.1	12	325912	3	325901	27	39	325939	-999999	325915	0	39	TrialsPROC	FC_020_F10.png	2	2	76	SessionSelectionList														target	2	Face	0-Back	66	80	59	0	0	96	1	39	269162	2	14	72	267123	-1	267688	1	565	2	2	2039	53	269176	-54	0																76												
WM080112	239944_fnca	2	1	1	2108196994	1	75.032	75.031	2.0.10.147	2.0.10.242	2.0.10.242	1.0.0.439	7	234	2	3	Verdana	1	80	0	0	0	WM Stimuli\	0.5	1073.8	0.9	819.888888888889	0.7	1035.57142857143	1	787	0.6	1133.66666666667	1	878.7	0.5	917	1	930.1	12	325912	3	325901	27	39	325939	-999999	325915	0	39	TrialsPROC	FC_022_F11.png	2	2	77	SessionSelectionList														nonlure	3	Face	0-Back	67	80	60	0	0	96	1	39	271761	2	14	99	269722	-1	270381	1	659	3	3	2039	53	271775	-54	0																77												
WM080112	239944_fnca	2	1	1	2108196994	1	75.032	75.031	2.0.10.147	2.0.10.242	2.0.10.242	1.0.0.439	7	234	2	3	Verdana	1	80	0	0	0	WM Stimuli\	0.5	1073.8	0.9	819.888888888889	0.7	1035.57142857143	1	787	0.6	1133.66666666667	1	878.7	0.5	917	1	930.1	12	325912	3	325901	27	39	325939	-999999	325915	0	39	TrialsPROC	FC_023_M12.png	2	2	78	SessionSelectionList														lure	3	Face	0-Back	68	80	61	0	0	96	2	39	274334	1	13	73	272295	-1	272978	1	683	3	3	2039	52	274347	-53	0																78												
WM080112	239944_fnca	2	1	1	2108196994	1	75.032	75.031	2.0.10.147	2.0.10.242	2.0.10.242	1.0.0.439	7	234	2	3	Verdana	1	80	0	0	0	WM Stimuli\	0.5	1073.8	0.9	819.888888888889	0.7	1035.57142857143	1	787	0.6	1133.66666666667	1	878.7	0.5	917	1	930.1	12	325912	3	325901	27	39	325939	-999999	325915	0	39	TrialsPROC	FC_021_M11.png	2	2	79	SessionSelectionList														nonlure	3	Face	0-Back	69	80	62	0	0	96	3	40	276933	1	13	98	274893	-1	276092	1	1199	3	3	2040	53	276946	-54	0																79												
WM080112	239944_fnca	2	1	1	2108196994	1	75.032	75.031	2.0.10.147	2.0.10.242	2.0.10.242	1.0.0.439	7	234	2	3	Verdana	1	80	0	0	0	WM Stimuli\	0.5	1073.8	0.9	819.888888888889	0.7	1035.57142857143	1	787	0.6	1133.66666666667	1	878.7	0.5	917	1	930.1	12	325912	3	325901	27	39	325939	-999999	325915	0	39	TrialsPROC	FC_021_M11.png	2	2	80	SessionSelectionList														lure	3	Face	0-Back	70	80	63	0	0	97	4	39	279505	1	13	73	277466	-1	278488	1	1022	3	3	2039	52	279518	-53	0																80												
WM080112	239944_fnca	2	1	1	2108196994	1	75.032	75.031	2.0.10.147	2.0.10.242	2.0.10.242	1.0.0.439	7	234	2	3	Verdana	1	80	0	0	0	WM Stimuli\	0.5	1073.8	0.9	819.888888888889	0.7	1035.57142857143	1	787	0.6	1133.66666666667	1	878.7	0.5	917	1	930.1	12	325912	3	325901	27	39	325939	-999999	325915	0	39	TrialsPROC	FC_019_M10.png	2	2	81	SessionSelectionList														nonlure	3	Face	0-Back	71	80	64	0	0	97	5	39	282104	1	13	99	280065	-1	280773	1	708	3	3	2039	52	282117	-53	0																81												
WM080112	239944_fnca	2	1	1	2108196994	1	75.032	75.031	2.0.10.147	2.0.10.242	2.0.10.242	1.0.0.439	7	234	2	3	Verdana	1	80	0	0	0	WM Stimuli\	0.5	1073.8	0.9	819.888888888889	0.7	1035.57142857143	1	787	0.6	1133.66666666667	1	878.7	0.5	917	1	930.1	12	325912	3	325901	27	39	325939	-999999	325915	0	40	Cue0BackPROC	PL_021_SCENE_07.png	2	2	82	SessionSelectionList																																										59	282624	-60	0												82												
WM080112	239944_fnca	2	1	1	2108196994	1	75.032	75.031	2.0.10.147	2.0.10.242	2.0.10.242	1.0.0.439	7	234	2	3	Verdana	1	80	0	0	0	WM Stimuli\	0.5	1073.8	0.9	819.888888888889	0.7	1035.57142857143	1	787	0.6	1133.66666666667	1	878.7	0.5	917	1	930.1	12	325912	3	325901	27	39	325939	-999999	325915	0	41	TrialsPROC	PL_025_SCENE_18.png	2	2	83	SessionSelectionList														nonlure	3	Place	0-Back	72	80	65	0	0	97	6	39	287195	1	13	91	285156	-1	285855	1	699	3	3	2039	52	287208	-53	0																83												
WM080112	239944_fnca	2	1	1	2108196994	1	75.032	75.031	2.0.10.147	2.0.10.242	2.0.10.242	1.0.0.439	7	234	2	3	Verdana	1	80	0	0	0	WM Stimuli\	0.5	1073.8	0.9	819.888888888889	0.7	1035.57142857143	1	787	0.6	1133.66666666667	1	878.7	0.5	917	1	930.1	12	325912	3	325901	27	39	325939	-999999	325915	0	41	TrialsPROC	PL_026_SCENE_24.png	2	2	84	SessionSelectionList														nonlure	3	Place	0-Back	73	80	66	0	0	97	7	39	289794	1	13	99	287755	-1	288448	1	693	3	3	2039	52	289807	-53	0																84												
WM080112	239944_fnca	2	1	1	2108196994	1	75.032	75.031	2.0.10.147	2.0.10.242	2.0.10.242	1.0.0.439	7	234	2	3	Verdana	1	80	0	0	0	WM Stimuli\	0.5	1073.8	0.9	819.888888888889	0.7	1035.57142857143	1	787	0.6	1133.66666666667	1	878.7	0.5	917	1	930.1	12	325912	3	325901	27	39	325939	-999999	325915	0	41	TrialsPROC	PL_025_SCENE_18.png	2	2	85	SessionSelectionList														lure	3	Place	0-Back	74	80	67	0	0	97	8	39	292366	2	14	72	290327	-1	291549	1	1222	3	3	2039	53	292380	-54	0																85												
WM080112	239944_fnca	2	1	1	2108196994	1	75.032	75.031	2.0.10.147	2.0.10.242	2.0.10.242	1.0.0.439	7	234	2	3	Verdana	1	80	0	0	0	WM Stimuli\	0.5	1073.8	0.9	819.888888888889	0.7	1035.57142857143	1	787	0.6	1133.66666666667	1	878.7	0.5	917	1	930.1	12	325912	3	325901	27	39	325939	-999999	325915	0	41	TrialsPROC	PL_022_SCENE_08.png	2	2	86	SessionSelectionList														nonlure	3	Place	0-Back	75	80	68	0	0	97	9	39	294965	2	14	99	292926	-1	293888	1	962	3	3	2039	53	294979	-54	0																86												
WM080112	239944_fnca	2	1	1	2108196994	1	75.032	75.031	2.0.10.147	2.0.10.242	2.0.10.242	1.0.0.439	7	234	2	3	Verdana	1	80	0	0	0	WM Stimuli\	0.5	1073.8	0.9	819.888888888889	0.7	1035.57142857143	1	787	0.6	1133.66666666667	1	878.7	0.5	917	1	930.1	12	325912	3	325901	27	39	325939	-999999	325915	0	41	TrialsPROC	PL_026_SCENE_24.png	2	2	87	SessionSelectionList														lure	3	Place	0-Back	76	80	69	0	0	97	10	39	297537	2	14	72	295498	-1	296760	1	1262	3	3	2039	53	297551	-54	0																87												
WM080112	239944_fnca	2	1	1	2108196994	1	75.032	75.031	2.0.10.147	2.0.10.242	2.0.10.242	1.0.0.439	7	234	2	3	Verdana	1	80	0	0	0	WM Stimuli\	0.5	1073.8	0.9	819.888888888889	0.7	1035.57142857143	1	787	0.6	1133.66666666667	1	878.7	0.5	917	1	930.1	12	325912	3	325901	27	39	325939	-999999	325915	0	41	TrialsPROC	PL_021_SCENE_07.png	2	2	88	SessionSelectionList														target	2	Place	0-Back	77	80	70	0	0	97	1	39	300110	1	13	73	298071	-1	298744	1	673	2	2	2039	52	300123	-53	0																88												
WM080112	239944_fnca	2	1	1	2108196994	1	75.032	75.031	2.0.10.147	2.0.10.242	2.0.10.242	1.0.0.439	7	234	2	3	Verdana	1	80	0	0	0	WM Stimuli\	0.5	1073.8	0.9	819.888888888889	0.7	1035.57142857143	1	787	0.6	1133.66666666667	1	878.7	0.5	917	1	930.1	12	325912	3	325901	27	39	325939	-999999	325915	0	41	TrialsPROC	PL_021_SCENE_07.png	2	2	89	SessionSelectionList														target	2	Place	0-Back	78	80	71	0	0	97	2	39	302682	1	13	72	300643	-1	301413	1	770	2	2	2039	52	302695	-53	0																89												
WM080112	239944_fnca	2	1	1	2108196994	1	75.032	75.031	2.0.10.147	2.0.10.242	2.0.10.242	1.0.0.439	7	234	2	3	Verdana	1	80	0	0	0	WM Stimuli\	0.5	1073.8	0.9	819.888888888889	0.7	1035.57142857143	1	787	0.6	1133.66666666667	1	878.7	0.5	917	1	930.1	12	325912	3	325901	27	39	325939	-999999	325915	0	41	TrialsPROC	PL_023_SCENE_09.png	2	2	90	SessionSelectionList														nonlure	3	Place	0-Back	79	80	72	0	0	97	1	39	305281	1	13	99	303242	-1	304198	1	956	3	3	2039	52	305294	-53	0																90												
WM080112	239944_fnca	2	1	1	2108196994	1	75.032	75.031	2.0.10.147	2.0.10.242	2.0.10.242	1.0.0.439	7	234	2	3	Verdana	1	80	0	0	0	WM Stimuli\	0.5	1073.8	0.9	819.888888888889	0.7	1035.57142857143	1	787	0.6	1133.66666666667	1	878.7	0.5	917	1	930.1	12	325912	3	325901	27	39	325939	-999999	325915	0	41	TrialsPROC	PL_024_SCENE_10.png	2	2	91	SessionSelectionList														nonlure	3	Place	0-Back	80	80	73	0	0	97	2	40	307867	1	13	85	305827	-1	306675	1	848	3	3	2040	53	307880	-54	0																91												
WM080112	239944_fnca	2	1	1	2108196994	1	75.032	75.031	2.0.10.147	2.0.10.242	2.0.10.242	1.0.0.439	7	234	2	3	Verdana	1	80	0	0	0	WM Stimuli\	0.5	1073.8	0.9	819.888888888889	0.7	1035.57142857143	1	787	0.6	1133.66666666667	1	878.7	0.5	917	1	930.1	12	325912	3	325901	27	39	325939	-999999	325915	0	41	TrialsPROC	PL_022_SCENE_08.png	2	2	92	SessionSelectionList														lure	3	Place	0-Back	80	80	74	0	0	98	3	39	310439	1	13	73	308400	-1	309102	1	702	3	3	2039	52	310452	-53	0																92												
WM080112	239944_fnca	2	1	1	2108196994	1	75.032	75.031	2.0.10.147	2.0.10.242	2.0.10.242	1.0.0.439	7	234	2	3	Verdana	1	80	0	0	0	WM Stimuli\	0.5	1073.8	0.9	819.888888888889	0.7	1035.57142857143	1	787	0.6	1133.66666666667	1	878.7	0.5	917	1	930.1	12	325912	3	325901	27	39	325939	-999999	325915	0	42	Fix15secPROC	""	2	2	93	SessionSelectionList																																															5	310905	-6	0							93												
