ExperimentName	HCPID	RunNumber	Subject	Session	RandomSeed	Group	Laptop.RefreshRate	ScannerD2.RefreshRate	StudioVersion	RuntimeVersion	RuntimeVersionExpected	ExperimentVersion	triggercode	Allowed	Target	Nontarget	FontStyle	RunTrialNumber[Session]	TrialsPerRun[Session]	TotalRespGreater200[Session]	ConsecRTLess200[Session]	ConsecNonResp[Session]	StimuliDir	ACC_2_Back_Body	Avg_RT_For_Correct_Trials_2_Back_Body	ACC_0_Back_Body	Avg_RT_For_Correct_Trials_0_Back_Body	ACC_2_Back_Face	Avg_RT_For_Correct_Trials_2_Back_Face	ACC_0_Back_Face	Avg_RT_For_Correct_Trials_0_Back_Face	ACC_2_Back_Place	Avg_RT_For_Correct_Trials_2_Back_Place	ACC_0_Back_Place	Avg_RT_For_Correct_Trials_0_Back_Place	ACC_2_Back_Tools	Avg_RT_For_Correct_Trials_2_Back_Tools	ACC_0_Back_Tools	Avg_RT_For_Correct_Trials_0_Back_Tools	ExpInstrucFeelFreeToRest.OnsetDelay	ExpInstrucFeelFreeToRest.OnsetTime	ExpInstrucFeelFreeToRest.DurationError	ExpInstrucFeelFreeToRest.StartTime	ExpInstrucFeelFreeToRest.OnsetToOnsetTime	FeelFreeToRest.OnsetDelay	FeelFreeToRest.OnsetTime	FeelFreeToRest.DurationError	FeelFreeToRest.StartTime	FeelFreeToRest.OnsetToOnsetTime	SessionSelectionList	Procedure[Block]	Stimulus[Block]	RunNumberFilterValue	SessionSelectionList.Cycle	SessionSelectionList.Sample	Running[Block]	IntroButtonMap.OnsetDelay	IntroButtonMap.OnsetTime	IntroButtonMap.DurationError	IntroButtonMap.OnsetToOnsetTime	GetReady.OnsetDelay	GetReady.OnsetTime	GetReady.DurationError	GetReady.OnsetToOnsetTime	Cue2Back.OnsetDelay	Cue2Back.OnsetTime	Cue2Back.DurationError	Cue2Back.OnsetToOnsetTime	Run1Block1	TargetType	CorrectResponse	StimType	BlockType	RunTrialNumber[Block]	TrialsPerRun[Block]	TotalRespGreater200[Block]	ConsecRTLess200[Block]	ConsecNonResp[Block]	ControlAcc	ConsecSameResp	ExperimenterWindow.OnsetDelay	ExperimenterWindow.OnsetTime	ExperimenterWindow.DurationError	ExperimenterWindow.OnsetToOnsetTime	Stim.OnsetDelay	Stim.OnsetTime	Stim.DurationError	Stim.RTTime	Stim.ACC	Stim.RT	Stim.RESP	Stim.CRESP	Stim.OnsetToOnsetTime	Fix.OnsetDelay	Fix.OnsetTime	Fix.DurationError	Fix.OnsetToOnsetTime	CueTarget.OnsetDelay	CueTarget.OnsetTime	CueTarget.DurationError	CueTarget.OnsetToOnsetTime	Run1Block2	Fix15sec.OnsetDelay	Fix15sec.OnsetTime	Fix15sec.DurationError	Fix15sec.OnsetToOnsetTime	Run1Block3	Run1Block4	Run1Block5	Run1Block6	Run1Block7	Run1Block8	Block	Procedure[Trial]	Stimulus[Trial]	ReadyList	Running[Trial]	ReadyList.Cycle	ReadyList.Sample	SyncSlide.OnsetDelay	SyncSlide.OnsetTime	SyncSlide.DurationError	SyncSlide.FinishTime	SyncSlide.OnsetToOnsetTime	Trial
WM080112	280739_fnca	2	1	1	225956920	1	75.032	75.031	2.0.10.147	2.0.10.242	2.0.10.242	1.0.0.439	7	234	2	3	Verdana	1	80	0	0	0	WM Stimuli\	1	1066.8	1	739.7	0.9	1048.55555555556	1	678.4	0.8	1136.75	0.8	977	1	798	0.9	773.111111111111	13	320203	2	320191	13	26	320216	-999999	320206	0	22	TRSyncPROC	""	2	2	1	SessionSelectionList	101	6840	-999999	0	38	11331	-999999	0																																																	1	InitialTR	4	1	ReadyList	1	1	13	26711	-14	28697	0	1
WM080112	280739_fnca	2	1	1	225956920	1	75.032	75.031	2.0.10.147	2.0.10.242	2.0.10.242	1.0.0.439	7	234	2	3	Verdana	1	80	0	0	0	WM Stimuli\	1	1066.8	1	739.7	0.9	1048.55555555556	1	678.4	0.8	1136.75	0.8	977	1	798	0.9	773.111111111111	13	320203	2	320191	13	26	320216	-999999	320206	0	22	TRSyncPROC	""	2	2	1	SessionSelectionList	101	6840	-999999	0	38	11331	-999999	0																																																	1	InitialTR	3	2	ReadyList	1	2	12	28710	-13	30697	0	2
WM080112	280739_fnca	2	1	1	225956920	1	75.032	75.031	2.0.10.147	2.0.10.242	2.0.10.242	1.0.0.439	7	234	2	3	Verdana	1	80	0	0	0	WM Stimuli\	1	1066.8	1	739.7	0.9	1048.55555555556	1	678.4	0.8	1136.75	0.8	977	1	798	0.9	773.111111111111	13	320203	2	320191	13	26	320216	-999999	320206	0	22	TRSyncPROC	""	2	2	1	SessionSelectionList	101	6840	-999999	0	38	11331	-999999	0																																																	1	InitialTR	2	3	ReadyList	1	3	12	30710	-13	32697	0	3
WM080112	280739_fnca	2	1	1	225956920	1	75.032	75.031	2.0.10.147	2.0.10.242	2.0.10.242	1.0.0.439	7	234	2	3	Verdana	1	80	0	0	0	WM Stimuli\	1	1066.8	1	739.7	0.9	1048.55555555556	1	678.4	0.8	1136.75	0.8	977	1	798	0.9	773.111111111111	13	320203	2	320191	13	26	320216	-999999	320206	0	22	TRSyncPROC	""	2	2	1	SessionSelectionList	101	6840	-999999	0	38	11331	-999999	0																																																	1	InitialTR	1	4	ReadyList	1	4	11	32709	-12	34697	0	4
WM080112	280739_fnca	2	1	1	225956920	1	75.032	75.031	2.0.10.147	2.0.10.242	2.0.10.242	1.0.0.439	7	234	2	3	Verdana	1	80	0	0	0	WM Stimuli\	1	1066.8	1	739.7	0.9	1048.55555555556	1	678.4	0.8	1136.75	0.8	977	1	798	0.9	773.111111111111	13	320203	2	320191	13	26	320216	-999999	320206	0	23	Cue2BackPROC	""	2	2	2	SessionSelectionList									10	34708	-11	0																																													2												
WM080112	280739_fnca	2	1	1	225956920	1	75.032	75.031	2.0.10.147	2.0.10.242	2.0.10.242	1.0.0.439	7	234	2	3	Verdana	1	80	0	0	0	WM Stimuli\	1	1066.8	1	739.7	0.9	1048.55555555556	1	678.4	0.8	1136.75	0.8	977	1	798	0.9	773.111111111111	13	320203	2	320191	13	26	320216	-999999	320206	0	24	TrialsPROC	TO_014_TOOL14_BA.png	2	2	3	SessionSelectionList														nonlure	3	Tools	2-Back	2	80	1	0	0	0	1	53	39333	3	13	82	37280	-1	37834	1	554	3	3	2053	66	39346	-67	0																3												
WM080112	280739_fnca	2	1	1	225956920	1	75.032	75.031	2.0.10.147	2.0.10.242	2.0.10.242	1.0.0.439	7	234	2	3	Verdana	1	80	0	0	0	WM Stimuli\	1	1066.8	1	739.7	0.9	1048.55555555556	1	678.4	0.8	1136.75	0.8	977	1	798	0.9	773.111111111111	13	320203	2	320191	13	26	320216	-999999	320206	0	24	TrialsPROC	TO_013_TOOL13_BA.png	2	2	4	SessionSelectionList														nonlure	3	Tools	2-Back	3	80	2	0	0	0	2	39	41878	3	14	59	39839	-1	40450	1	611	3	3	2039	53	41892	-54	0																4												
WM080112	280739_fnca	2	1	1	225956920	1	75.032	75.031	2.0.10.147	2.0.10.242	2.0.10.242	1.0.0.439	7	234	2	3	Verdana	1	80	0	0	0	WM Stimuli\	1	1066.8	1	739.7	0.9	1048.55555555556	1	678.4	0.8	1136.75	0.8	977	1	798	0.9	773.111111111111	13	320203	2	320191	13	26	320216	-999999	320206	0	24	TrialsPROC	TO_016_TOOL16_BA.png	2	2	5	SessionSelectionList														nonlure	3	Tools	2-Back	4	80	3	0	0	0	3	39	44437	3	14	59	42398	-1	43123	1	725	3	3	2039	53	44451	-54	0																5												
WM080112	280739_fnca	2	1	1	225956920	1	75.032	75.031	2.0.10.147	2.0.10.242	2.0.10.242	1.0.0.439	7	234	2	3	Verdana	1	80	0	0	0	WM Stimuli\	1	1066.8	1	739.7	0.9	1048.55555555556	1	678.4	0.8	1136.75	0.8	977	1	798	0.9	773.111111111111	13	320203	2	320191	13	26	320216	-999999	320206	0	24	TrialsPROC	TO_014_TOOL14_BA.png	2	2	6	SessionSelectionList														lure	3	Tools	2-Back	5	80	4	0	0	0	4	40	47010	1	13	72	44970	-1	46336	1	1366	3	3	2040	53	47023	-54	0																6												
WM080112	280739_fnca	2	1	1	225956920	1	75.032	75.031	2.0.10.147	2.0.10.242	2.0.10.242	1.0.0.439	7	234	2	3	Verdana	1	80	0	0	0	WM Stimuli\	1	1066.8	1	739.7	0.9	1048.55555555556	1	678.4	0.8	1136.75	0.8	977	1	798	0.9	773.111111111111	13	320203	2	320191	13	26	320216	-999999	320206	0	24	TrialsPROC	TO_016_TOOL16_BA.png	2	2	7	SessionSelectionList														target	2	Tools	2-Back	6	80	5	0	0	0	1	38	49568	3	14	60	47530	-1	48600	1	1070	2	2	2038	52	49582	-53	0																7												
WM080112	280739_fnca	2	1	1	225956920	1	75.032	75.031	2.0.10.147	2.0.10.242	2.0.10.242	1.0.0.439	7	234	2	3	Verdana	1	80	0	0	0	WM Stimuli\	1	1066.8	1	739.7	0.9	1048.55555555556	1	678.4	0.8	1136.75	0.8	977	1	798	0.9	773.111111111111	13	320203	2	320191	13	26	320216	-999999	320206	0	24	TrialsPROC	TO_018_TOOL18_BA.png	2	2	8	SessionSelectionList														nonlure	3	Tools	2-Back	7	80	6	0	0	0	1	38	52127	2	14	59	50089	-1	51163	1	1074	3	3	2038	52	52141	-53	0																8												
WM080112	280739_fnca	2	1	1	225956920	1	75.032	75.031	2.0.10.147	2.0.10.242	2.0.10.242	1.0.0.439	7	234	2	3	Verdana	1	80	0	0	0	WM Stimuli\	1	1066.8	1	739.7	0.9	1048.55555555556	1	678.4	0.8	1136.75	0.8	977	1	798	0.9	773.111111111111	13	320203	2	320191	13	26	320216	-999999	320206	0	24	TrialsPROC	TO_017_TOOL17_BA.png	2	2	9	SessionSelectionList														nonlure	3	Tools	2-Back	8	80	7	0	0	0	2	39	54686	2	14	58	52647	-1	53344	1	697	3	3	2039	53	54700	-54	0																9												
WM080112	280739_fnca	2	1	1	225956920	1	75.032	75.031	2.0.10.147	2.0.10.242	2.0.10.242	1.0.0.439	7	234	2	3	Verdana	1	80	0	0	0	WM Stimuli\	1	1066.8	1	739.7	0.9	1048.55555555556	1	678.4	0.8	1136.75	0.8	977	1	798	0.9	773.111111111111	13	320203	2	320191	13	26	320216	-999999	320206	0	24	TrialsPROC	TO_018_TOOL18_BA.png	2	2	10	SessionSelectionList														target	2	Tools	2-Back	9	80	8	0	0	0	1	39	57245	3	14	59	55206	-1	55744	1	538	2	2	2039	53	57259	-54	0																10												
WM080112	280739_fnca	2	1	1	225956920	1	75.032	75.031	2.0.10.147	2.0.10.242	2.0.10.242	1.0.0.439	7	234	2	3	Verdana	1	80	0	0	0	WM Stimuli\	1	1066.8	1	739.7	0.9	1048.55555555556	1	678.4	0.8	1136.75	0.8	977	1	798	0.9	773.111111111111	13	320203	2	320191	13	26	320216	-999999	320206	0	24	TrialsPROC	TO_015_TOOL15_BA.png	2	2	11	SessionSelectionList														nonlure	3	Tools	2-Back	10	80	9	0	0	0	1	39	59804	2	14	59	57765	-1	58525	1	760	3	3	2039	53	59818	-54	0																11												
WM080112	280739_fnca	2	1	1	225956920	1	75.032	75.031	2.0.10.147	2.0.10.242	2.0.10.242	1.0.0.439	7	234	2	3	Verdana	1	80	0	0	0	WM Stimuli\	1	1066.8	1	739.7	0.9	1048.55555555556	1	678.4	0.8	1136.75	0.8	977	1	798	0.9	773.111111111111	13	320203	2	320191	13	26	320216	-999999	320206	0	24	TrialsPROC	TO_017_TOOL17_BA.png	2	2	12	SessionSelectionList														lure	3	Tools	2-Back	11	80	10	0	0	0	2	39	62363	3	14	59	60324	-1	60909	1	585	3	3	2039	53	62377	-54	0																12												
WM080112	280739_fnca	2	1	1	225956920	1	75.032	75.031	2.0.10.147	2.0.10.242	2.0.10.242	1.0.0.439	7	234	2	3	Verdana	1	80	0	0	0	WM Stimuli\	1	1066.8	1	739.7	0.9	1048.55555555556	1	678.4	0.8	1136.75	0.8	977	1	798	0.9	773.111111111111	13	320203	2	320191	13	26	320216	-999999	320206	0	25	Cue0BackPROC	BP_013_BP7_BA.png	2	2	13	SessionSelectionList																																										19	62843	-20	0												13												
WM080112	280739_fnca	2	1	1	225956920	1	75.032	75.031	2.0.10.147	2.0.10.242	2.0.10.242	1.0.0.439	7	234	2	3	Verdana	1	80	0	0	0	WM Stimuli\	1	1066.8	1	739.7	0.9	1048.55555555556	1	678.4	0.8	1136.75	0.8	977	1	798	0.9	773.111111111111	13	320203	2	320191	13	26	320216	-999999	320206	0	26	TrialsPROC	BP_015_H10-T_BA.png	2	2	14	SessionSelectionList														nonlure	3	Body	0-Back	12	80	11	0	0	100	3	39	67428	1	13	65	65389	-1	66258	1	869	3	3	2039	52	67441	-53	0																14												
WM080112	280739_fnca	2	1	1	225956920	1	75.032	75.031	2.0.10.147	2.0.10.242	2.0.10.242	1.0.0.439	7	234	2	3	Verdana	1	80	0	0	0	WM Stimuli\	1	1066.8	1	739.7	0.9	1048.55555555556	1	678.4	0.8	1136.75	0.8	977	1	798	0.9	773.111111111111	13	320203	2	320191	13	26	320216	-999999	320206	0	26	TrialsPROC	BP_018_H13-T_BA.png	2	2	15	SessionSelectionList														nonlure	3	Body	0-Back	13	80	12	0	0	100	4	39	70000	2	13	72	67961	-1	68598	1	637	3	3	2039	52	70013	-53	0																15												
WM080112	280739_fnca	2	1	1	225956920	1	75.032	75.031	2.0.10.147	2.0.10.242	2.0.10.242	1.0.0.439	7	234	2	3	Verdana	1	80	0	0	0	WM Stimuli\	1	1066.8	1	739.7	0.9	1048.55555555556	1	678.4	0.8	1136.75	0.8	977	1	798	0.9	773.111111111111	13	320203	2	320191	13	26	320216	-999999	320206	0	26	TrialsPROC	BP_014_BP9_BA.png	2	2	16	SessionSelectionList														nonlure	3	Body	0-Back	14	80	13	0	0	100	5	39	72559	1	13	59	70520	-1	71421	1	901	3	3	2039	52	72572	-53	0																16												
WM080112	280739_fnca	2	1	1	225956920	1	75.032	75.031	2.0.10.147	2.0.10.242	2.0.10.242	1.0.0.439	7	234	2	3	Verdana	1	80	0	0	0	WM Stimuli\	1	1066.8	1	739.7	0.9	1048.55555555556	1	678.4	0.8	1136.75	0.8	977	1	798	0.9	773.111111111111	13	320203	2	320191	13	26	320216	-999999	320206	0	26	TrialsPROC	BP_018_H13-T_BA.png	2	2	17	SessionSelectionList														lure	3	Body	0-Back	15	80	14	0	0	100	6	39	75118	1	13	59	73079	-1	73851	1	772	3	3	2039	52	75131	-53	0																17												
WM080112	280739_fnca	2	1	1	225956920	1	75.032	75.031	2.0.10.147	2.0.10.242	2.0.10.242	1.0.0.439	7	234	2	3	Verdana	1	80	0	0	0	WM Stimuli\	1	1066.8	1	739.7	0.9	1048.55555555556	1	678.4	0.8	1136.75	0.8	977	1	798	0.9	773.111111111111	13	320203	2	320191	13	26	320216	-999999	320206	0	26	TrialsPROC	BP_013_BP7_BA.png	2	2	18	SessionSelectionList														target	2	Body	0-Back	16	80	15	0	0	100	1	39	77677	1	13	59	75638	-1	76445	1	807	2	2	2039	52	77690	-53	0																18												
WM080112	280739_fnca	2	1	1	225956920	1	75.032	75.031	2.0.10.147	2.0.10.242	2.0.10.242	1.0.0.439	7	234	2	3	Verdana	1	80	0	0	0	WM Stimuli\	1	1066.8	1	739.7	0.9	1048.55555555556	1	678.4	0.8	1136.75	0.8	977	1	798	0.9	773.111111111111	13	320203	2	320191	13	26	320216	-999999	320206	0	26	TrialsPROC	BP_015_H10-T_BA.png	2	2	19	SessionSelectionList														lure	3	Body	0-Back	17	80	16	0	0	100	1	39	80236	2	13	59	78197	-1	78887	1	690	3	3	2039	52	80249	-53	0																19												
WM080112	280739_fnca	2	1	1	225956920	1	75.032	75.031	2.0.10.147	2.0.10.242	2.0.10.242	1.0.0.439	7	234	2	3	Verdana	1	80	0	0	0	WM Stimuli\	1	1066.8	1	739.7	0.9	1048.55555555556	1	678.4	0.8	1136.75	0.8	977	1	798	0.9	773.111111111111	13	320203	2	320191	13	26	320216	-999999	320206	0	26	TrialsPROC	BP_016_H11-T_BA.png	2	2	20	SessionSelectionList														nonlure	3	Body	0-Back	18	80	17	0	0	100	2	39	82808	2	13	72	80769	-1	81497	1	728	3	3	2039	52	82821	-53	0																20												
WM080112	280739_fnca	2	1	1	225956920	1	75.032	75.031	2.0.10.147	2.0.10.242	2.0.10.242	1.0.0.439	7	234	2	3	Verdana	1	80	0	0	0	WM Stimuli\	1	1066.8	1	739.7	0.9	1048.55555555556	1	678.4	0.8	1136.75	0.8	977	1	798	0.9	773.111111111111	13	320203	2	320191	13	26	320216	-999999	320206	0	26	TrialsPROC	BP_013_BP7_BA.png	2	2	21	SessionSelectionList														target	2	Body	0-Back	19	80	18	0	0	100	1	39	85367	2	13	59	83328	-1	83921	1	593	2	2	2039	52	85380	-53	0																21												
WM080112	280739_fnca	2	1	1	225956920	1	75.032	75.031	2.0.10.147	2.0.10.242	2.0.10.242	1.0.0.439	7	234	2	3	Verdana	1	80	0	0	0	WM Stimuli\	1	1066.8	1	739.7	0.9	1048.55555555556	1	678.4	0.8	1136.75	0.8	977	1	798	0.9	773.111111111111	13	320203	2	320191	13	26	320216	-999999	320206	0	26	TrialsPROC	BP_017_H12-T_BA.png	2	2	22	SessionSelectionList														nonlure	3	Body	0-Back	20	80	19	0	0	100	1	39	87926	1	13	59	85887	-1	86610	1	723	3	3	2039	52	87939	-53	0																22												
WM080112	280739_fnca	2	1	1	225956920	1	75.032	75.031	2.0.10.147	2.0.10.242	2.0.10.242	1.0.0.439	7	234	2	3	Verdana	1	80	0	0	0	WM Stimuli\	1	1066.8	1	739.7	0.9	1048.55555555556	1	678.4	0.8	1136.75	0.8	977	1	798	0.9	773.111111111111	13	320203	2	320191	13	26	320216	-999999	320206	0	26	TrialsPROC	BP_014_BP9_BA.png	2	2	23	SessionSelectionList														lure	3	Body	0-Back	21	80	20	0	0	100	2	39	90485	2	13	59	88446	-1	89123	1	677	3	3	2039	52	90498	-53	0																23												
WM080112	280739_fnca	2	1	1	225956920	1	75.032	75.031	2.0.10.147	2.0.10.242	2.0.10.242	1.0.0.439	7	234	2	3	Verdana	1	80	0	0	0	WM Stimuli\	1	1066.8	1	739.7	0.9	1048.55555555556	1	678.4	0.8	1136.75	0.8	977	1	798	0.9	773.111111111111	13	320203	2	320191	13	26	320216	-999999	320206	0	27	Fix15secPROC	""	2	2	24	SessionSelectionList																																															5	90951	-6	0							24												
WM080112	280739_fnca	2	1	1	225956920	1	75.032	75.031	2.0.10.147	2.0.10.242	2.0.10.242	1.0.0.439	7	234	2	3	Verdana	1	80	0	0	0	WM Stimuli\	1	1066.8	1	739.7	0.9	1048.55555555556	1	678.4	0.8	1136.75	0.8	977	1	798	0.9	773.111111111111	13	320203	2	320191	13	26	320216	-999999	320206	0	28	Cue2BackPROC	""	2	2	25	SessionSelectionList									12	105958	-13	0																																													25												
WM080112	280739_fnca	2	1	1	225956920	1	75.032	75.031	2.0.10.147	2.0.10.242	2.0.10.242	1.0.0.439	7	234	2	3	Verdana	1	80	0	0	0	WM Stimuli\	1	1066.8	1	739.7	0.9	1048.55555555556	1	678.4	0.8	1136.75	0.8	977	1	798	0.9	773.111111111111	13	320203	2	320191	13	26	320216	-999999	320206	0	29	TrialsPROC	FC_015_M8.png	2	2	26	SessionSelectionList														nonlure	3	Face	2-Back	22	80	21	0	0	100	3	39	110556	3	14	71	108517	-1	109603	1	1086	3	3	2039	53	110570	-54	0																26												
WM080112	280739_fnca	2	1	1	225956920	1	75.032	75.031	2.0.10.147	2.0.10.242	2.0.10.242	1.0.0.439	7	234	2	3	Verdana	1	80	0	0	0	WM Stimuli\	1	1066.8	1	739.7	0.9	1048.55555555556	1	678.4	0.8	1136.75	0.8	977	1	798	0.9	773.111111111111	13	320203	2	320191	13	26	320216	-999999	320206	0	29	TrialsPROC	FC_018_F9.png	2	2	27	SessionSelectionList														nonlure	3	Face	2-Back	23	80	22	0	0	100	4	39	113129	1	13	73	111090	-1	111658	1	568	3	3	2039	52	113142	-53	0																27												
WM080112	280739_fnca	2	1	1	225956920	1	75.032	75.031	2.0.10.147	2.0.10.242	2.0.10.242	1.0.0.439	7	234	2	3	Verdana	1	80	0	0	0	WM Stimuli\	1	1066.8	1	739.7	0.9	1048.55555555556	1	678.4	0.8	1136.75	0.8	977	1	798	0.9	773.111111111111	13	320203	2	320191	13	26	320216	-999999	320206	0	29	TrialsPROC	FC_018_F9.png	2	2	28	SessionSelectionList														lure	3	Face	2-Back	24	80	23	0	0	100	5	39	115701	2	13	72	113662	-1	114506	1	844	3	3	2039	52	115714	-53	0																28												
WM080112	280739_fnca	2	1	1	225956920	1	75.032	75.031	2.0.10.147	2.0.10.242	2.0.10.242	1.0.0.439	7	234	2	3	Verdana	1	80	0	0	0	WM Stimuli\	1	1066.8	1	739.7	0.9	1048.55555555556	1	678.4	0.8	1136.75	0.8	977	1	798	0.9	773.111111111111	13	320203	2	320191	13	26	320216	-999999	320206	0	29	TrialsPROC	FC_017_M9.png	2	2	29	SessionSelectionList														nonlure	3	Face	2-Back	25	80	24	0	0	100	6	39	118273	3	14	72	116234	-1	117106	1	872	3	3	2039	53	118287	-54	0																29												
WM080112	280739_fnca	2	1	1	225956920	1	75.032	75.031	2.0.10.147	2.0.10.242	2.0.10.242	1.0.0.439	7	234	2	3	Verdana	1	80	0	0	0	WM Stimuli\	1	1066.8	1	739.7	0.9	1048.55555555556	1	678.4	0.8	1136.75	0.8	977	1	798	0.9	773.111111111111	13	320203	2	320191	13	26	320216	-999999	320206	0	29	TrialsPROC	FC_017_M9.png	2	2	30	SessionSelectionList														lure	3	Face	2-Back	26	80	25	0	0	100	7	40	120846	1	13	72	118806	-1	120255	1	1449	3	3	2040	53	120859	-54	0																30												
WM080112	280739_fnca	2	1	1	225956920	1	75.032	75.031	2.0.10.147	2.0.10.242	2.0.10.242	1.0.0.439	7	234	2	3	Verdana	1	80	0	0	0	WM Stimuli\	1	1066.8	1	739.7	0.9	1048.55555555556	1	678.4	0.8	1136.75	0.8	977	1	798	0.9	773.111111111111	13	320203	2	320191	13	26	320216	-999999	320206	0	29	TrialsPROC	FC_016_F8.png	2	2	31	SessionSelectionList														nonlure	3	Face	2-Back	27	80	26	0	0	100	8	39	123418	2	13	73	121379	-1	122353	1	974	3	3	2039	52	123431	-53	0																31												
WM080112	280739_fnca	2	1	1	225956920	1	75.032	75.031	2.0.10.147	2.0.10.242	2.0.10.242	1.0.0.439	7	234	2	3	Verdana	1	80	0	0	0	WM Stimuli\	1	1066.8	1	739.7	0.9	1048.55555555556	1	678.4	0.8	1136.75	0.8	977	1	798	0.9	773.111111111111	13	320203	2	320191	13	26	320216	-999999	320206	0	29	TrialsPROC	FC_013_M7.png	2	2	32	SessionSelectionList														nonlure	3	Face	2-Back	28	80	27	0	0	100	9	39	125990	3	14	72	123951	-1	125000	1	1049	3	3	2039	53	126004	-54	0																32												
WM080112	280739_fnca	2	1	1	225956920	1	75.032	75.031	2.0.10.147	2.0.10.242	2.0.10.242	1.0.0.439	7	234	2	3	Verdana	1	80	0	0	0	WM Stimuli\	1	1066.8	1	739.7	0.9	1048.55555555556	1	678.4	0.8	1136.75	0.8	977	1	798	0.9	773.111111111111	13	320203	2	320191	13	26	320216	-999999	320206	0	29	TrialsPROC	FC_014_F7.png	2	2	33	SessionSelectionList														nonlure	3	Face	2-Back	29	80	28	0	0	100	10	39	128562	2	14	72	126523	-1	128044	1	1521	3	3	2039	53	128576	-54	0																33												
WM080112	280739_fnca	2	1	1	225956920	1	75.032	75.031	2.0.10.147	2.0.10.242	2.0.10.242	1.0.0.439	7	234	2	3	Verdana	1	80	0	0	0	WM Stimuli\	1	1066.8	1	739.7	0.9	1048.55555555556	1	678.4	0.8	1136.75	0.8	977	1	798	0.9	773.111111111111	13	320203	2	320191	13	26	320216	-999999	320206	0	29	TrialsPROC	FC_013_M7.png	2	2	34	SessionSelectionList														target	2	Face	2-Back	30	80	29	0	0	100	1	40	131135	1	13	72	129095	-1	130169	1	1074	2	2	2040	53	131148	-54	0																34												
WM080112	280739_fnca	2	1	1	225956920	1	75.032	75.031	2.0.10.147	2.0.10.242	2.0.10.242	1.0.0.439	7	234	2	3	Verdana	1	80	0	0	0	WM Stimuli\	1	1066.8	1	739.7	0.9	1048.55555555556	1	678.4	0.8	1136.75	0.8	977	1	798	0.9	773.111111111111	13	320203	2	320191	13	26	320216	-999999	320206	0	29	TrialsPROC	FC_014_F7.png	2	2	35	SessionSelectionList														target	2	Face	2-Back	31	80	30	0	0	100	1	39	133707	1	13	73	131668	-1	132522	0	854	3	2	2039	52	133720	-53	0																35												
WM080112	280739_fnca	2	1	1	225956920	1	75.032	75.031	2.0.10.147	2.0.10.242	2.0.10.242	1.0.0.439	7	234	2	3	Verdana	1	80	0	0	0	WM Stimuli\	1	1066.8	1	739.7	0.9	1048.55555555556	1	678.4	0.8	1136.75	0.8	977	1	798	0.9	773.111111111111	13	320203	2	320191	13	26	320216	-999999	320206	0	30	Cue0BackPROC	TO_019_TOOL19_BA.png	2	2	36	SessionSelectionList																																										19	134187	-20	0												36												
WM080112	280739_fnca	2	1	1	225956920	1	75.032	75.031	2.0.10.147	2.0.10.242	2.0.10.242	1.0.0.439	7	234	2	3	Verdana	1	80	0	0	0	WM Stimuli\	1	1066.8	1	739.7	0.9	1048.55555555556	1	678.4	0.8	1136.75	0.8	977	1	798	0.9	773.111111111111	13	320203	2	320191	13	26	320216	-999999	320206	0	31	TrialsPROC	TO_019_TOOL19_BA.png	2	2	37	SessionSelectionList														target	2	Tools	0-Back	32	80	31	0	0	91	2	39	138758	1	14	51	136719	-1	137890	0	1171	3	2	2039	53	138772	-54	0																37												
WM080112	280739_fnca	2	1	1	225956920	1	75.032	75.031	2.0.10.147	2.0.10.242	2.0.10.242	1.0.0.439	7	234	2	3	Verdana	1	80	0	0	0	WM Stimuli\	1	1066.8	1	739.7	0.9	1048.55555555556	1	678.4	0.8	1136.75	0.8	977	1	798	0.9	773.111111111111	13	320203	2	320191	13	26	320216	-999999	320206	0	31	TrialsPROC	TO_024_TOOL24_BA.png	2	2	38	SessionSelectionList														nonlure	3	Tools	0-Back	33	80	32	0	0	92	3	39	141317	1	13	59	139278	-1	140309	1	1031	3	3	2039	52	141330	-53	0																38												
WM080112	280739_fnca	2	1	1	225956920	1	75.032	75.031	2.0.10.147	2.0.10.242	2.0.10.242	1.0.0.439	7	234	2	3	Verdana	1	80	0	0	0	WM Stimuli\	1	1066.8	1	739.7	0.9	1048.55555555556	1	678.4	0.8	1136.75	0.8	977	1	798	0.9	773.111111111111	13	320203	2	320191	13	26	320216	-999999	320206	0	31	TrialsPROC	TO_019_TOOL19_BA.png	2	2	39	SessionSelectionList														target	2	Tools	0-Back	34	80	33	0	0	92	1	39	143876	2	13	59	141837	-1	142539	1	702	2	2	2039	52	143889	-53	0																39												
WM080112	280739_fnca	2	1	1	225956920	1	75.032	75.031	2.0.10.147	2.0.10.242	2.0.10.242	1.0.0.439	7	234	2	3	Verdana	1	80	0	0	0	WM Stimuli\	1	1066.8	1	739.7	0.9	1048.55555555556	1	678.4	0.8	1136.75	0.8	977	1	798	0.9	773.111111111111	13	320203	2	320191	13	26	320216	-999999	320206	0	31	TrialsPROC	TO_023_TOOL23_BA.png	2	2	40	SessionSelectionList														nonlure	3	Tools	0-Back	35	80	34	0	0	93	1	39	146448	2	14	72	144409	-1	145212	1	803	3	3	2039	53	146462	-54	0																40												
WM080112	280739_fnca	2	1	1	225956920	1	75.032	75.031	2.0.10.147	2.0.10.242	2.0.10.242	1.0.0.439	7	234	2	3	Verdana	1	80	0	0	0	WM Stimuli\	1	1066.8	1	739.7	0.9	1048.55555555556	1	678.4	0.8	1136.75	0.8	977	1	798	0.9	773.111111111111	13	320203	2	320191	13	26	320216	-999999	320206	0	31	TrialsPROC	TO_020_TOOL20_BA.png	2	2	41	SessionSelectionList														nonlure	3	Tools	0-Back	36	80	35	0	0	93	2	39	149007	2	14	59	146968	-1	147653	1	685	3	3	2039	53	149021	-54	0																41												
WM080112	280739_fnca	2	1	1	225956920	1	75.032	75.031	2.0.10.147	2.0.10.242	2.0.10.242	1.0.0.439	7	234	2	3	Verdana	1	80	0	0	0	WM Stimuli\	1	1066.8	1	739.7	0.9	1048.55555555556	1	678.4	0.8	1136.75	0.8	977	1	798	0.9	773.111111111111	13	320203	2	320191	13	26	320216	-999999	320206	0	31	TrialsPROC	TO_020_TOOL20_BA.png	2	2	42	SessionSelectionList														lure	3	Tools	0-Back	37	80	36	0	0	94	3	39	151566	1	14	59	149527	-1	150278	1	751	3	3	2039	53	151580	-54	0																42												
WM080112	280739_fnca	2	1	1	225956920	1	75.032	75.031	2.0.10.147	2.0.10.242	2.0.10.242	1.0.0.439	7	234	2	3	Verdana	1	80	0	0	0	WM Stimuli\	1	1066.8	1	739.7	0.9	1048.55555555556	1	678.4	0.8	1136.75	0.8	977	1	798	0.9	773.111111111111	13	320203	2	320191	13	26	320216	-999999	320206	0	31	TrialsPROC	TO_022_TOOL22_BA.png	2	2	43	SessionSelectionList														nonlure	3	Tools	0-Back	38	80	37	0	0	94	4	39	154125	2	13	59	152086	-1	152738	1	652	3	3	2039	52	154138	-53	0																43												
WM080112	280739_fnca	2	1	1	225956920	1	75.032	75.031	2.0.10.147	2.0.10.242	2.0.10.242	1.0.0.439	7	234	2	3	Verdana	1	80	0	0	0	WM Stimuli\	1	1066.8	1	739.7	0.9	1048.55555555556	1	678.4	0.8	1136.75	0.8	977	1	798	0.9	773.111111111111	13	320203	2	320191	13	26	320216	-999999	320206	0	31	TrialsPROC	TO_022_TOOL22_BA.png	2	2	44	SessionSelectionList														lure	3	Tools	0-Back	39	80	38	0	0	94	5	39	156684	2	13	59	154645	-1	155268	1	623	3	3	2039	52	156697	-53	0																44												
WM080112	280739_fnca	2	1	1	225956920	1	75.032	75.031	2.0.10.147	2.0.10.242	2.0.10.242	1.0.0.439	7	234	2	3	Verdana	1	80	0	0	0	WM Stimuli\	1	1066.8	1	739.7	0.9	1048.55555555556	1	678.4	0.8	1136.75	0.8	977	1	798	0.9	773.111111111111	13	320203	2	320191	13	26	320216	-999999	320206	0	31	TrialsPROC	TO_021_TOOL21_BA.png	2	2	45	SessionSelectionList														nonlure	3	Tools	0-Back	40	80	39	0	0	95	6	39	159243	1	13	59	157204	-1	158147	1	943	3	3	2039	52	159256	-53	0																45												
WM080112	280739_fnca	2	1	1	225956920	1	75.032	75.031	2.0.10.147	2.0.10.242	2.0.10.242	1.0.0.439	7	234	2	3	Verdana	1	80	0	0	0	WM Stimuli\	1	1066.8	1	739.7	0.9	1048.55555555556	1	678.4	0.8	1136.75	0.8	977	1	798	0.9	773.111111111111	13	320203	2	320191	13	26	320216	-999999	320206	0	31	TrialsPROC	TO_021_TOOL21_BA.png	2	2	46	SessionSelectionList														lure	3	Tools	0-Back	41	80	40	0	0	95	7	39	161802	1	13	59	159763	-1	160531	1	768	3	3	2039	52	161815	-53	0																46												
WM080112	280739_fnca	2	1	1	225956920	1	75.032	75.031	2.0.10.147	2.0.10.242	2.0.10.242	1.0.0.439	7	234	2	3	Verdana	1	80	0	0	0	WM Stimuli\	1	1066.8	1	739.7	0.9	1048.55555555556	1	678.4	0.8	1136.75	0.8	977	1	798	0.9	773.111111111111	13	320203	2	320191	13	26	320216	-999999	320206	0	32	Fix15secPROC	""	2	2	47	SessionSelectionList																																															5	162268	-6	0							47												
WM080112	280739_fnca	2	1	1	225956920	1	75.032	75.031	2.0.10.147	2.0.10.242	2.0.10.242	1.0.0.439	7	234	2	3	Verdana	1	80	0	0	0	WM Stimuli\	1	1066.8	1	739.7	0.9	1048.55555555556	1	678.4	0.8	1136.75	0.8	977	1	798	0.9	773.111111111111	13	320203	2	320191	13	26	320216	-999999	320206	0	33	Cue2BackPROC	""	2	2	48	SessionSelectionList									12	177275	-13	0																																													48												
WM080112	280739_fnca	2	1	1	225956920	1	75.032	75.031	2.0.10.147	2.0.10.242	2.0.10.242	1.0.0.439	7	234	2	3	Verdana	1	80	0	0	0	WM Stimuli\	1	1066.8	1	739.7	0.9	1048.55555555556	1	678.4	0.8	1136.75	0.8	977	1	798	0.9	773.111111111111	13	320203	2	320191	13	26	320216	-999999	320206	0	34	TrialsPROC	BP_020_H17-T_BA.png	2	2	49	SessionSelectionList														nonlure	3	Body	2-Back	42	80	41	0	0	95	8	40	181874	1	13	71	179834	-1	180943	1	1109	3	3	2040	53	181887	-54	0																49												
WM080112	280739_fnca	2	1	1	225956920	1	75.032	75.031	2.0.10.147	2.0.10.242	2.0.10.242	1.0.0.439	7	234	2	3	Verdana	1	80	0	0	0	WM Stimuli\	1	1066.8	1	739.7	0.9	1048.55555555556	1	678.4	0.8	1136.75	0.8	977	1	798	0.9	773.111111111111	13	320203	2	320191	13	26	320216	-999999	320206	0	34	TrialsPROC	BP_019_H14-T_BA.png	2	2	50	SessionSelectionList														nonlure	3	Body	2-Back	43	80	42	0	0	95	9	39	184446	2	13	73	182407	-1	183137	1	730	3	3	2039	52	184459	-53	0																50												
WM080112	280739_fnca	2	1	1	225956920	1	75.032	75.031	2.0.10.147	2.0.10.242	2.0.10.242	1.0.0.439	7	234	2	3	Verdana	1	80	0	0	0	WM Stimuli\	1	1066.8	1	739.7	0.9	1048.55555555556	1	678.4	0.8	1136.75	0.8	977	1	798	0.9	773.111111111111	13	320203	2	320191	13	26	320216	-999999	320206	0	34	TrialsPROC	BP_020_H17-T_BA.png	2	2	51	SessionSelectionList														target	2	Body	2-Back	44	80	43	0	0	95	1	39	187005	2	13	59	184966	-1	185685	1	719	2	2	2039	52	187018	-53	0																51												
WM080112	280739_fnca	2	1	1	225956920	1	75.032	75.031	2.0.10.147	2.0.10.242	2.0.10.242	1.0.0.439	7	234	2	3	Verdana	1	80	0	0	0	WM Stimuli\	1	1066.8	1	739.7	0.9	1048.55555555556	1	678.4	0.8	1136.75	0.8	977	1	798	0.9	773.111111111111	13	320203	2	320191	13	26	320216	-999999	320206	0	34	TrialsPROC	BP_019_H14-T_BA.png	2	2	52	SessionSelectionList														target	2	Body	2-Back	45	80	44	0	0	95	2	39	189577	1	13	72	187538	-1	189024	1	1486	2	2	2039	52	189590	-53	0																52												
WM080112	280739_fnca	2	1	1	225956920	1	75.032	75.031	2.0.10.147	2.0.10.242	2.0.10.242	1.0.0.439	7	234	2	3	Verdana	1	80	0	0	0	WM Stimuli\	1	1066.8	1	739.7	0.9	1048.55555555556	1	678.4	0.8	1136.75	0.8	977	1	798	0.9	773.111111111111	13	320203	2	320191	13	26	320216	-999999	320206	0	34	TrialsPROC	BP_024_H3-T_BA.png	2	2	53	SessionSelectionList														nonlure	3	Body	2-Back	46	80	45	0	0	95	1	39	192149	3	14	72	190110	-1	191371	1	1261	3	3	2039	53	192163	-54	0																53												
WM080112	280739_fnca	2	1	1	225956920	1	75.032	75.031	2.0.10.147	2.0.10.242	2.0.10.242	1.0.0.439	7	234	2	3	Verdana	1	80	0	0	0	WM Stimuli\	1	1066.8	1	739.7	0.9	1048.55555555556	1	678.4	0.8	1136.75	0.8	977	1	798	0.9	773.111111111111	13	320203	2	320191	13	26	320216	-999999	320206	0	34	TrialsPROC	BP_024_H3-T_BA.png	2	2	54	SessionSelectionList														lure	3	Body	2-Back	47	80	46	0	0	95	2	39	194708	3	14	59	192669	-1	193827	1	1158	3	3	2039	53	194722	-54	0																54												
WM080112	280739_fnca	2	1	1	225956920	1	75.032	75.031	2.0.10.147	2.0.10.242	2.0.10.242	1.0.0.439	7	234	2	3	Verdana	1	80	0	0	0	WM Stimuli\	1	1066.8	1	739.7	0.9	1048.55555555556	1	678.4	0.8	1136.75	0.8	977	1	798	0.9	773.111111111111	13	320203	2	320191	13	26	320216	-999999	320206	0	34	TrialsPROC	BP_025_H5-T_BA.png	2	2	55	SessionSelectionList														nonlure	3	Body	2-Back	48	80	47	0	0	95	3	39	197267	1	14	59	195228	-1	196213	1	985	3	3	2039	53	197281	-54	0																55												
WM080112	280739_fnca	2	1	1	225956920	1	75.032	75.031	2.0.10.147	2.0.10.242	2.0.10.242	1.0.0.439	7	234	2	3	Verdana	1	80	0	0	0	WM Stimuli\	1	1066.8	1	739.7	0.9	1048.55555555556	1	678.4	0.8	1136.75	0.8	977	1	798	0.9	773.111111111111	13	320203	2	320191	13	26	320216	-999999	320206	0	34	TrialsPROC	BP_023_H25-T_BA.png	2	2	56	SessionSelectionList														nonlure	3	Body	2-Back	49	80	48	0	0	95	4	39	199839	3	14	72	197800	-1	198942	1	1142	3	3	2039	53	199853	-54	0																56												
WM080112	280739_fnca	2	1	1	225956920	1	75.032	75.031	2.0.10.147	2.0.10.242	2.0.10.242	1.0.0.439	7	234	2	3	Verdana	1	80	0	0	0	WM Stimuli\	1	1066.8	1	739.7	0.9	1048.55555555556	1	678.4	0.8	1136.75	0.8	977	1	798	0.9	773.111111111111	13	320203	2	320191	13	26	320216	-999999	320206	0	34	TrialsPROC	BP_022_H24-T_BA.png	2	2	57	SessionSelectionList														nonlure	3	Body	2-Back	50	80	49	0	0	95	5	40	202412	2	13	72	200372	-1	201142	1	770	3	3	2040	53	202425	-54	0																57												
WM080112	280739_fnca	2	1	1	225956920	1	75.032	75.031	2.0.10.147	2.0.10.242	2.0.10.242	1.0.0.439	7	234	2	3	Verdana	1	80	0	0	0	WM Stimuli\	1	1066.8	1	739.7	0.9	1048.55555555556	1	678.4	0.8	1136.75	0.8	977	1	798	0.9	773.111111111111	13	320203	2	320191	13	26	320216	-999999	320206	0	34	TrialsPROC	BP_022_H24-T_BA.png	2	2	58	SessionSelectionList														lure	3	Body	2-Back	51	80	50	0	0	95	6	40	204971	1	13	59	202931	-1	204239	1	1308	3	3	2040	53	204984	-54	0																58												
WM080112	280739_fnca	2	1	1	225956920	1	75.032	75.031	2.0.10.147	2.0.10.242	2.0.10.242	1.0.0.439	7	234	2	3	Verdana	1	80	0	0	0	WM Stimuli\	1	1066.8	1	739.7	0.9	1048.55555555556	1	678.4	0.8	1136.75	0.8	977	1	798	0.9	773.111111111111	13	320203	2	320191	13	26	320216	-999999	320206	0	35	Cue2BackPROC	""	2	2	59	SessionSelectionList									6	205437	-7	0																																													59												
WM080112	280739_fnca	2	1	1	225956920	1	75.032	75.031	2.0.10.147	2.0.10.242	2.0.10.242	1.0.0.439	7	234	2	3	Verdana	1	80	0	0	0	WM Stimuli\	1	1066.8	1	739.7	0.9	1048.55555555556	1	678.4	0.8	1136.75	0.8	977	1	798	0.9	773.111111111111	13	320203	2	320191	13	26	320216	-999999	320206	0	36	TrialsPROC	PL_019_SCENE_05.png	2	2	60	SessionSelectionList														nonlure	3	Place	2-Back	52	80	50	0	1	95	6	39	210035	2	14	65	207996	-1	0	0	0	""	3	2039	53	210049	-54	0																60												
WM080112	280739_fnca	2	1	1	225956920	1	75.032	75.031	2.0.10.147	2.0.10.242	2.0.10.242	1.0.0.439	7	234	2	3	Verdana	1	80	0	0	0	WM Stimuli\	1	1066.8	1	739.7	0.9	1048.55555555556	1	678.4	0.8	1136.75	0.8	977	1	798	0.9	773.111111111111	13	320203	2	320191	13	26	320216	-999999	320206	0	36	TrialsPROC	PL_017_SCENE_03.png	2	2	61	SessionSelectionList														nonlure	3	Place	2-Back	53	80	51	0	0	95	1	39	212607	3	14	72	210568	-1	212257	1	1689	3	3	2039	53	212621	-54	0																61												
WM080112	280739_fnca	2	1	1	225956920	1	75.032	75.031	2.0.10.147	2.0.10.242	2.0.10.242	1.0.0.439	7	234	2	3	Verdana	1	80	0	0	0	WM Stimuli\	1	1066.8	1	739.7	0.9	1048.55555555556	1	678.4	0.8	1136.75	0.8	977	1	798	0.9	773.111111111111	13	320203	2	320191	13	26	320216	-999999	320206	0	36	TrialsPROC	PL_017_SCENE_03.png	2	2	62	SessionSelectionList														lure	3	Place	2-Back	54	80	52	0	0	95	2	39	215180	2	13	73	213141	-1	214051	1	910	3	3	2039	52	215193	-53	0																62												
WM080112	280739_fnca	2	1	1	225956920	1	75.032	75.031	2.0.10.147	2.0.10.242	2.0.10.242	1.0.0.439	7	234	2	3	Verdana	1	80	0	0	0	WM Stimuli\	1	1066.8	1	739.7	0.9	1048.55555555556	1	678.4	0.8	1136.75	0.8	977	1	798	0.9	773.111111111111	13	320203	2	320191	13	26	320216	-999999	320206	0	36	TrialsPROC	PL_016_SCENE_02.png	2	2	63	SessionSelectionList														nonlure	3	Place	2-Back	55	80	53	0	0	95	3	39	217752	1	13	72	215713	-1	217140	1	1427	3	3	2039	52	217765	-53	0																63												
WM080112	280739_fnca	2	1	1	225956920	1	75.032	75.031	2.0.10.147	2.0.10.242	2.0.10.242	1.0.0.439	7	234	2	3	Verdana	1	80	0	0	0	WM Stimuli\	1	1066.8	1	739.7	0.9	1048.55555555556	1	678.4	0.8	1136.75	0.8	977	1	798	0.9	773.111111111111	13	320203	2	320191	13	26	320216	-999999	320206	0	36	TrialsPROC	PL_015_SCENE_01.png	2	2	64	SessionSelectionList														nonlure	3	Place	2-Back	56	80	54	0	0	95	4	39	220324	3	14	72	218285	-1	219118	1	833	3	3	2039	53	220338	-54	0																64												
WM080112	280739_fnca	2	1	1	225956920	1	75.032	75.031	2.0.10.147	2.0.10.242	2.0.10.242	1.0.0.439	7	234	2	3	Verdana	1	80	0	0	0	WM Stimuli\	1	1066.8	1	739.7	0.9	1048.55555555556	1	678.4	0.8	1136.75	0.8	977	1	798	0.9	773.111111111111	13	320203	2	320191	13	26	320216	-999999	320206	0	36	TrialsPROC	PL_016_SCENE_02.png	2	2	65	SessionSelectionList														target	2	Place	2-Back	57	80	55	0	0	95	1	39	222896	3	14	72	220857	-1	222343	1	1486	2	2	2039	53	222910	-54	0																65												
WM080112	280739_fnca	2	1	1	225956920	1	75.032	75.031	2.0.10.147	2.0.10.242	2.0.10.242	1.0.0.439	7	234	2	3	Verdana	1	80	0	0	0	WM Stimuli\	1	1066.8	1	739.7	0.9	1048.55555555556	1	678.4	0.8	1136.75	0.8	977	1	798	0.9	773.111111111111	13	320203	2	320191	13	26	320216	-999999	320206	0	36	TrialsPROC	PL_015_SCENE_01.png	2	2	66	SessionSelectionList														target	2	Place	2-Back	58	80	56	0	0	95	1	39	225469	1	13	73	223430	-1	224872	0	1442	3	2	2039	52	225482	-53	0																66												
WM080112	280739_fnca	2	1	1	225956920	1	75.032	75.031	2.0.10.147	2.0.10.242	2.0.10.242	1.0.0.439	7	234	2	3	Verdana	1	80	0	0	0	WM Stimuli\	1	1066.8	1	739.7	0.9	1048.55555555556	1	678.4	0.8	1136.75	0.8	977	1	798	0.9	773.111111111111	13	320203	2	320191	13	26	320216	-999999	320206	0	36	TrialsPROC	PL_020_SCENE_06.png	2	2	67	SessionSelectionList														nonlure	3	Place	2-Back	59	80	57	0	0	95	2	39	228054	3	14	85	226015	-1	227314	1	1299	3	3	2039	53	228068	-54	0																67												
WM080112	280739_fnca	2	1	1	225956920	1	75.032	75.031	2.0.10.147	2.0.10.242	2.0.10.242	1.0.0.439	7	234	2	3	Verdana	1	80	0	0	0	WM Stimuli\	1	1066.8	1	739.7	0.9	1048.55555555556	1	678.4	0.8	1136.75	0.8	977	1	798	0.9	773.111111111111	13	320203	2	320191	13	26	320216	-999999	320206	0	36	TrialsPROC	PL_020_SCENE_06.png	2	2	68	SessionSelectionList														lure	3	Place	2-Back	60	80	58	0	0	95	3	40	230627	1	13	72	228587	-1	229344	1	757	3	3	2040	53	230640	-54	0																68												
WM080112	280739_fnca	2	1	1	225956920	1	75.032	75.031	2.0.10.147	2.0.10.242	2.0.10.242	1.0.0.439	7	234	2	3	Verdana	1	80	0	0	0	WM Stimuli\	1	1066.8	1	739.7	0.9	1048.55555555556	1	678.4	0.8	1136.75	0.8	977	1	798	0.9	773.111111111111	13	320203	2	320191	13	26	320216	-999999	320206	0	36	TrialsPROC	PL_018_SCENE_04.png	2	2	69	SessionSelectionList														nonlure	3	Place	2-Back	61	80	59	0	0	95	4	39	233212	2	14	86	231173	-1	231866	1	693	3	3	2039	53	233226	-54	0																69												
WM080112	280739_fnca	2	1	1	225956920	1	75.032	75.031	2.0.10.147	2.0.10.242	2.0.10.242	1.0.0.439	7	234	2	3	Verdana	1	80	0	0	0	WM Stimuli\	1	1066.8	1	739.7	0.9	1048.55555555556	1	678.4	0.8	1136.75	0.8	977	1	798	0.9	773.111111111111	13	320203	2	320191	13	26	320216	-999999	320206	0	37	Fix15secPROC	""	2	2	70	SessionSelectionList																																															6	233679	-7	0							70												
WM080112	280739_fnca	2	1	1	225956920	1	75.032	75.031	2.0.10.147	2.0.10.242	2.0.10.242	1.0.0.439	7	234	2	3	Verdana	1	80	0	0	0	WM Stimuli\	1	1066.8	1	739.7	0.9	1048.55555555556	1	678.4	0.8	1136.75	0.8	977	1	798	0.9	773.111111111111	13	320203	2	320191	13	26	320216	-999999	320206	0	38	Cue0BackPROC	FC_020_F10.png	2	2	71	SessionSelectionList																																										39	248712	-40	0												71												
WM080112	280739_fnca	2	1	1	225956920	1	75.032	75.031	2.0.10.147	2.0.10.242	2.0.10.242	1.0.0.439	7	234	2	3	Verdana	1	80	0	0	0	WM Stimuli\	1	1066.8	1	739.7	0.9	1048.55555555556	1	678.4	0.8	1136.75	0.8	977	1	798	0.9	773.111111111111	13	320203	2	320191	13	26	320216	-999999	320206	0	39	TrialsPROC	FC_024_F12.png	2	2	72	SessionSelectionList														nonlure	3	Face	0-Back	62	80	60	0	0	95	5	39	253297	2	14	85	251258	-1	252322	1	1064	3	3	2039	53	253311	-54	0																72												
WM080112	280739_fnca	2	1	1	225956920	1	75.032	75.031	2.0.10.147	2.0.10.242	2.0.10.242	1.0.0.439	7	234	2	3	Verdana	1	80	0	0	0	WM Stimuli\	1	1066.8	1	739.7	0.9	1048.55555555556	1	678.4	0.8	1136.75	0.8	977	1	798	0.9	773.111111111111	13	320203	2	320191	13	26	320216	-999999	320206	0	39	TrialsPROC	FC_023_M12.png	2	2	73	SessionSelectionList														nonlure	3	Face	0-Back	63	80	61	0	0	95	6	39	255883	1	13	86	253844	-1	254485	1	641	3	3	2039	52	255896	-53	0																73												
WM080112	280739_fnca	2	1	1	225956920	1	75.032	75.031	2.0.10.147	2.0.10.242	2.0.10.242	1.0.0.439	7	234	2	3	Verdana	1	80	0	0	0	WM Stimuli\	1	1066.8	1	739.7	0.9	1048.55555555556	1	678.4	0.8	1136.75	0.8	977	1	798	0.9	773.111111111111	13	320203	2	320191	13	26	320216	-999999	320206	0	39	TrialsPROC	FC_020_F10.png	2	2	74	SessionSelectionList														target	2	Face	0-Back	64	80	62	0	0	96	1	39	258455	1	13	72	256416	-1	257115	1	699	2	2	2039	52	258468	-53	0																74												
WM080112	280739_fnca	2	1	1	225956920	1	75.032	75.031	2.0.10.147	2.0.10.242	2.0.10.242	1.0.0.439	7	234	2	3	Verdana	1	80	0	0	0	WM Stimuli\	1	1066.8	1	739.7	0.9	1048.55555555556	1	678.4	0.8	1136.75	0.8	977	1	798	0.9	773.111111111111	13	320203	2	320191	13	26	320216	-999999	320206	0	39	TrialsPROC	FC_024_F12.png	2	2	75	SessionSelectionList														lure	3	Face	0-Back	65	80	63	0	0	96	1	39	261027	3	14	72	258988	-1	259547	1	559	3	3	2039	53	261041	-54	0																75												
WM080112	280739_fnca	2	1	1	225956920	1	75.032	75.031	2.0.10.147	2.0.10.242	2.0.10.242	1.0.0.439	7	234	2	3	Verdana	1	80	0	0	0	WM Stimuli\	1	1066.8	1	739.7	0.9	1048.55555555556	1	678.4	0.8	1136.75	0.8	977	1	798	0.9	773.111111111111	13	320203	2	320191	13	26	320216	-999999	320206	0	39	TrialsPROC	FC_020_F10.png	2	2	76	SessionSelectionList														target	2	Face	0-Back	66	80	64	0	0	96	1	40	263600	2	13	72	261560	-1	262272	1	712	2	2	2040	53	263613	-54	0																76												
WM080112	280739_fnca	2	1	1	225956920	1	75.032	75.031	2.0.10.147	2.0.10.242	2.0.10.242	1.0.0.439	7	234	2	3	Verdana	1	80	0	0	0	WM Stimuli\	1	1066.8	1	739.7	0.9	1048.55555555556	1	678.4	0.8	1136.75	0.8	977	1	798	0.9	773.111111111111	13	320203	2	320191	13	26	320216	-999999	320206	0	39	TrialsPROC	FC_022_F11.png	2	2	77	SessionSelectionList														nonlure	3	Face	0-Back	67	80	65	0	0	96	1	39	266185	2	14	86	264146	-1	264800	1	654	3	3	2039	53	266199	-54	0																77												
WM080112	280739_fnca	2	1	1	225956920	1	75.032	75.031	2.0.10.147	2.0.10.242	2.0.10.242	1.0.0.439	7	234	2	3	Verdana	1	80	0	0	0	WM Stimuli\	1	1066.8	1	739.7	0.9	1048.55555555556	1	678.4	0.8	1136.75	0.8	977	1	798	0.9	773.111111111111	13	320203	2	320191	13	26	320216	-999999	320206	0	39	TrialsPROC	FC_023_M12.png	2	2	78	SessionSelectionList														lure	3	Face	0-Back	68	80	66	0	0	96	2	39	268757	2	14	72	266718	-1	267315	1	597	3	3	2039	53	268771	-54	0																78												
WM080112	280739_fnca	2	1	1	225956920	1	75.032	75.031	2.0.10.147	2.0.10.242	2.0.10.242	1.0.0.439	7	234	2	3	Verdana	1	80	0	0	0	WM Stimuli\	1	1066.8	1	739.7	0.9	1048.55555555556	1	678.4	0.8	1136.75	0.8	977	1	798	0.9	773.111111111111	13	320203	2	320191	13	26	320216	-999999	320206	0	39	TrialsPROC	FC_021_M11.png	2	2	79	SessionSelectionList														nonlure	3	Face	0-Back	69	80	67	0	0	96	3	39	271343	2	13	86	269304	-1	269911	1	607	3	3	2039	52	271356	-53	0																79												
WM080112	280739_fnca	2	1	1	225956920	1	75.032	75.031	2.0.10.147	2.0.10.242	2.0.10.242	1.0.0.439	7	234	2	3	Verdana	1	80	0	0	0	WM Stimuli\	1	1066.8	1	739.7	0.9	1048.55555555556	1	678.4	0.8	1136.75	0.8	977	1	798	0.9	773.111111111111	13	320203	2	320191	13	26	320216	-999999	320206	0	39	TrialsPROC	FC_021_M11.png	2	2	80	SessionSelectionList														lure	3	Face	0-Back	70	80	68	0	0	97	4	39	273915	3	14	72	271876	-1	272427	1	551	3	3	2039	53	273929	-54	0																80												
WM080112	280739_fnca	2	1	1	225956920	1	75.032	75.031	2.0.10.147	2.0.10.242	2.0.10.242	1.0.0.439	7	234	2	3	Verdana	1	80	0	0	0	WM Stimuli\	1	1066.8	1	739.7	0.9	1048.55555555556	1	678.4	0.8	1136.75	0.8	977	1	798	0.9	773.111111111111	13	320203	2	320191	13	26	320216	-999999	320206	0	39	TrialsPROC	FC_019_M10.png	2	2	81	SessionSelectionList														nonlure	3	Face	0-Back	71	80	69	0	0	97	5	39	276501	1	13	86	274462	-1	275162	1	700	3	3	2039	52	276514	-53	0																81												
WM080112	280739_fnca	2	1	1	225956920	1	75.032	75.031	2.0.10.147	2.0.10.242	2.0.10.242	1.0.0.439	7	234	2	3	Verdana	1	80	0	0	0	WM Stimuli\	1	1066.8	1	739.7	0.9	1048.55555555556	1	678.4	0.8	1136.75	0.8	977	1	798	0.9	773.111111111111	13	320203	2	320191	13	26	320216	-999999	320206	0	40	Cue0BackPROC	PL_021_SCENE_07.png	2	2	82	SessionSelectionList																																										19	276981	-20	0												82												
WM080112	280739_fnca	2	1	1	225956920	1	75.032	75.031	2.0.10.147	2.0.10.242	2.0.10.242	1.0.0.439	7	234	2	3	Verdana	1	80	0	0	0	WM Stimuli\	1	1066.8	1	739.7	0.9	1048.55555555556	1	678.4	0.8	1136.75	0.8	977	1	798	0.9	773.111111111111	13	320203	2	320191	13	26	320216	-999999	320206	0	41	TrialsPROC	PL_025_SCENE_18.png	2	2	83	SessionSelectionList														nonlure	3	Place	0-Back	72	80	70	0	0	97	6	39	281579	2	13	78	279540	-1	280622	1	1082	3	3	2039	52	281592	-53	0																83												
WM080112	280739_fnca	2	1	1	225956920	1	75.032	75.031	2.0.10.147	2.0.10.242	2.0.10.242	1.0.0.439	7	234	2	3	Verdana	1	80	0	0	0	WM Stimuli\	1	1066.8	1	739.7	0.9	1048.55555555556	1	678.4	0.8	1136.75	0.8	977	1	798	0.9	773.111111111111	13	320203	2	320191	13	26	320216	-999999	320206	0	41	TrialsPROC	PL_026_SCENE_24.png	2	2	84	SessionSelectionList														nonlure	3	Place	0-Back	73	80	71	0	0	97	7	39	284151	2	13	72	282112	-1	282653	1	541	3	3	2039	52	284164	-53	0																84												
WM080112	280739_fnca	2	1	1	225956920	1	75.032	75.031	2.0.10.147	2.0.10.242	2.0.10.242	1.0.0.439	7	234	2	3	Verdana	1	80	0	0	0	WM Stimuli\	1	1066.8	1	739.7	0.9	1048.55555555556	1	678.4	0.8	1136.75	0.8	977	1	798	0.9	773.111111111111	13	320203	2	320191	13	26	320216	-999999	320206	0	41	TrialsPROC	PL_025_SCENE_18.png	2	2	85	SessionSelectionList														lure	3	Place	0-Back	74	80	72	0	0	97	8	39	286723	2	14	72	284684	-1	285515	1	831	3	3	2039	53	286737	-54	0																85												
WM080112	280739_fnca	2	1	1	225956920	1	75.032	75.031	2.0.10.147	2.0.10.242	2.0.10.242	1.0.0.439	7	234	2	3	Verdana	1	80	0	0	0	WM Stimuli\	1	1066.8	1	739.7	0.9	1048.55555555556	1	678.4	0.8	1136.75	0.8	977	1	798	0.9	773.111111111111	13	320203	2	320191	13	26	320216	-999999	320206	0	41	TrialsPROC	PL_022_SCENE_08.png	2	2	86	SessionSelectionList														nonlure	3	Place	0-Back	75	80	73	0	0	97	9	40	289296	1	13	72	287256	-1	288317	1	1061	3	3	2040	53	289309	-54	0																86												
WM080112	280739_fnca	2	1	1	225956920	1	75.032	75.031	2.0.10.147	2.0.10.242	2.0.10.242	1.0.0.439	7	234	2	3	Verdana	1	80	0	0	0	WM Stimuli\	1	1066.8	1	739.7	0.9	1048.55555555556	1	678.4	0.8	1136.75	0.8	977	1	798	0.9	773.111111111111	13	320203	2	320191	13	26	320216	-999999	320206	0	41	TrialsPROC	PL_026_SCENE_24.png	2	2	87	SessionSelectionList														lure	3	Place	0-Back	76	80	74	0	0	97	10	39	291868	1	13	73	289829	-1	290893	1	1064	3	3	2039	52	291881	-53	0																87												
WM080112	280739_fnca	2	1	1	225956920	1	75.032	75.031	2.0.10.147	2.0.10.242	2.0.10.242	1.0.0.439	7	234	2	3	Verdana	1	80	0	0	0	WM Stimuli\	1	1066.8	1	739.7	0.9	1048.55555555556	1	678.4	0.8	1136.75	0.8	977	1	798	0.9	773.111111111111	13	320203	2	320191	13	26	320216	-999999	320206	0	41	TrialsPROC	PL_021_SCENE_07.png	2	2	88	SessionSelectionList														target	2	Place	0-Back	77	80	75	0	0	94	11	39	294440	1	13	72	292401	-1	293601	0	1200	3	2	2039	52	294453	-53	0																88												
WM080112	280739_fnca	2	1	1	225956920	1	75.032	75.031	2.0.10.147	2.0.10.242	2.0.10.242	1.0.0.439	7	234	2	3	Verdana	1	80	0	0	0	WM Stimuli\	1	1066.8	1	739.7	0.9	1048.55555555556	1	678.4	0.8	1136.75	0.8	977	1	798	0.9	773.111111111111	13	320203	2	320191	13	26	320216	-999999	320206	0	41	TrialsPROC	PL_021_SCENE_07.png	2	2	89	SessionSelectionList														target	2	Place	0-Back	78	80	76	0	0	92	12	39	297012	3	14	72	294973	-1	295850	0	877	3	2	2039	53	297026	-54	0																89												
WM080112	280739_fnca	2	1	1	225956920	1	75.032	75.031	2.0.10.147	2.0.10.242	2.0.10.242	1.0.0.439	7	234	2	3	Verdana	1	80	0	0	0	WM Stimuli\	1	1066.8	1	739.7	0.9	1048.55555555556	1	678.4	0.8	1136.75	0.8	977	1	798	0.9	773.111111111111	13	320203	2	320191	13	26	320216	-999999	320206	0	41	TrialsPROC	PL_023_SCENE_09.png	2	2	90	SessionSelectionList														nonlure	3	Place	0-Back	79	80	77	0	0	92	13	40	299585	1	13	72	297545	-1	298390	1	845	3	3	2040	53	299598	-54	0																90												
WM080112	280739_fnca	2	1	1	225956920	1	75.032	75.031	2.0.10.147	2.0.10.242	2.0.10.242	1.0.0.439	7	234	2	3	Verdana	1	80	0	0	0	WM Stimuli\	1	1066.8	1	739.7	0.9	1048.55555555556	1	678.4	0.8	1136.75	0.8	977	1	798	0.9	773.111111111111	13	320203	2	320191	13	26	320216	-999999	320206	0	41	TrialsPROC	PL_024_SCENE_10.png	2	2	91	SessionSelectionList														nonlure	3	Place	0-Back	80	80	78	0	0	92	14	39	302157	1	13	73	300118	-1	301126	1	1008	3	3	2039	52	302170	-53	0																91												
WM080112	280739_fnca	2	1	1	225956920	1	75.032	75.031	2.0.10.147	2.0.10.242	2.0.10.242	1.0.0.439	7	234	2	3	Verdana	1	80	0	0	0	WM Stimuli\	1	1066.8	1	739.7	0.9	1048.55555555556	1	678.4	0.8	1136.75	0.8	977	1	798	0.9	773.111111111111	13	320203	2	320191	13	26	320216	-999999	320206	0	41	TrialsPROC	PL_022_SCENE_08.png	2	2	92	SessionSelectionList														lure	3	Place	0-Back	80	80	79	0	0	92	15	39	304729	2	14	72	302690	-1	304074	1	1384	3	3	2039	53	304743	-54	0																92												
WM080112	280739_fnca	2	1	1	225956920	1	75.032	75.031	2.0.10.147	2.0.10.242	2.0.10.242	1.0.0.439	7	234	2	3	Verdana	1	80	0	0	0	WM Stimuli\	1	1066.8	1	739.7	0.9	1048.55555555556	1	678.4	0.8	1136.75	0.8	977	1	798	0.9	773.111111111111	13	320203	2	320191	13	26	320216	-999999	320206	0	42	Fix15secPROC	""	2	2	93	SessionSelectionList																																															6	305196	-7	0							93												
