ExperimentName	HCPID	RunNumber	Subject	Session	RandomSeed	Group	Laptop.RefreshRate	ScannerD2.RefreshRate	StudioVersion	RuntimeVersion	RuntimeVersionExpected	ExperimentVersion	triggercode	Allowed	Target	Nontarget	FontStyle	RunTrialNumber[Session]	TrialsPerRun[Session]	TotalRespGreater200[Session]	ConsecRTLess200[Session]	ConsecNonResp[Session]	StimuliDir	ACC_2_Back_Body	Avg_RT_For_Correct_Trials_2_Back_Body	ACC_0_Back_Body	Avg_RT_For_Correct_Trials_0_Back_Body	ACC_2_Back_Face	Avg_RT_For_Correct_Trials_2_Back_Face	ACC_0_Back_Face	Avg_RT_For_Correct_Trials_0_Back_Face	ACC_2_Back_Place	Avg_RT_For_Correct_Trials_2_Back_Place	ACC_0_Back_Place	Avg_RT_For_Correct_Trials_0_Back_Place	ACC_2_Back_Tools	Avg_RT_For_Correct_Trials_2_Back_Tools	ACC_0_Back_Tools	Avg_RT_For_Correct_Trials_0_Back_Tools	ExpInstrucFeelFreeToRest.OnsetDelay	ExpInstrucFeelFreeToRest.OnsetTime	ExpInstrucFeelFreeToRest.DurationError	ExpInstrucFeelFreeToRest.StartTime	ExpInstrucFeelFreeToRest.OnsetToOnsetTime	FeelFreeToRest.OnsetDelay	FeelFreeToRest.OnsetTime	FeelFreeToRest.DurationError	FeelFreeToRest.StartTime	FeelFreeToRest.OnsetToOnsetTime	SessionSelectionList	Procedure[Block]	Stimulus[Block]	RunNumberFilterValue	SessionSelectionList.Cycle	SessionSelectionList.Sample	Running[Block]	IntroButtonMap.OnsetDelay	IntroButtonMap.OnsetTime	IntroButtonMap.DurationError	IntroButtonMap.OnsetToOnsetTime	GetReady.OnsetDelay	GetReady.OnsetTime	GetReady.DurationError	GetReady.OnsetToOnsetTime	Cue2Back.OnsetDelay	Cue2Back.OnsetTime	Cue2Back.DurationError	Cue2Back.OnsetToOnsetTime	Run1Block1	TargetType	CorrectResponse	StimType	BlockType	RunTrialNumber[Block]	TrialsPerRun[Block]	TotalRespGreater200[Block]	ConsecRTLess200[Block]	ConsecNonResp[Block]	ControlAcc	ConsecSameResp	ExperimenterWindow.OnsetDelay	ExperimenterWindow.OnsetTime	ExperimenterWindow.DurationError	ExperimenterWindow.OnsetToOnsetTime	Stim.OnsetDelay	Stim.OnsetTime	Stim.DurationError	Stim.RTTime	Stim.ACC	Stim.RT	Stim.RESP	Stim.CRESP	Stim.OnsetToOnsetTime	Fix.OnsetDelay	Fix.OnsetTime	Fix.DurationError	Fix.OnsetToOnsetTime	CueTarget.OnsetDelay	CueTarget.OnsetTime	CueTarget.DurationError	CueTarget.OnsetToOnsetTime	Run1Block2	Fix15sec.OnsetDelay	Fix15sec.OnsetTime	Fix15sec.DurationError	Fix15sec.OnsetToOnsetTime	Run1Block3	Run1Block4	Run1Block5	Run1Block6	Run1Block7	Run1Block8	Block	Procedure[Trial]	Stimulus[Trial]	ReadyList	Running[Trial]	ReadyList.Cycle	ReadyList.Sample	SyncSlide.OnsetDelay	SyncSlide.OnsetTime	SyncSlide.DurationError	SyncSlide.FinishTime	SyncSlide.OnsetToOnsetTime	Trial
WM080112	208226_fnca	2	1	1	-1596688482	1	75.032	75.031	2.0.10.147	2.0.10.242	2.0.10.242	1.0.0.439	7	234	2	3	Verdana	1	80	0	0	0	WM Stimuli\	1	1007.5	1	831.5	1	872.5	1	773.9	1	1067.4	1	822	1	942.9	1	829.7	13	320329	2	320317	27	40	320356	-999999	320332	0	22	TRSyncPROC	""	2	2	1	SessionSelectionList	100	8898	-999999	0	32	11151	-999999	0																																																	1	InitialTR	4	1	ReadyList	1	1	12	26891	-13	28878	0	1
WM080112	208226_fnca	2	1	1	-1596688482	1	75.032	75.031	2.0.10.147	2.0.10.242	2.0.10.242	1.0.0.439	7	234	2	3	Verdana	1	80	0	0	0	WM Stimuli\	1	1007.5	1	831.5	1	872.5	1	773.9	1	1067.4	1	822	1	942.9	1	829.7	13	320329	2	320317	27	40	320356	-999999	320332	0	22	TRSyncPROC	""	2	2	1	SessionSelectionList	100	8898	-999999	0	32	11151	-999999	0																																																	1	InitialTR	3	2	ReadyList	1	2	11	28890	-12	30878	0	2
WM080112	208226_fnca	2	1	1	-1596688482	1	75.032	75.031	2.0.10.147	2.0.10.242	2.0.10.242	1.0.0.439	7	234	2	3	Verdana	1	80	0	0	0	WM Stimuli\	1	1007.5	1	831.5	1	872.5	1	773.9	1	1067.4	1	822	1	942.9	1	829.7	13	320329	2	320317	27	40	320356	-999999	320332	0	22	TRSyncPROC	""	2	2	1	SessionSelectionList	100	8898	-999999	0	32	11151	-999999	0																																																	1	InitialTR	2	3	ReadyList	1	3	10	30889	-11	32878	0	3
WM080112	208226_fnca	2	1	1	-1596688482	1	75.032	75.031	2.0.10.147	2.0.10.242	2.0.10.242	1.0.0.439	7	234	2	3	Verdana	1	80	0	0	0	WM Stimuli\	1	1007.5	1	831.5	1	872.5	1	773.9	1	1067.4	1	822	1	942.9	1	829.7	13	320329	2	320317	27	40	320356	-999999	320332	0	22	TRSyncPROC	""	2	2	1	SessionSelectionList	100	8898	-999999	0	32	11151	-999999	0																																																	1	InitialTR	1	4	ReadyList	1	4	9	32888	-10	34878	0	4
WM080112	208226_fnca	2	1	1	-1596688482	1	75.032	75.031	2.0.10.147	2.0.10.242	2.0.10.242	1.0.0.439	7	234	2	3	Verdana	1	80	0	0	0	WM Stimuli\	1	1007.5	1	831.5	1	872.5	1	773.9	1	1067.4	1	822	1	942.9	1	829.7	13	320329	2	320317	27	40	320356	-999999	320332	0	23	Cue2BackPROC	""	2	2	2	SessionSelectionList									8	34887	-9	0																																													2												
WM080112	208226_fnca	2	1	1	-1596688482	1	75.032	75.031	2.0.10.147	2.0.10.242	2.0.10.242	1.0.0.439	7	234	2	3	Verdana	1	80	0	0	0	WM Stimuli\	1	1007.5	1	831.5	1	872.5	1	773.9	1	1067.4	1	822	1	942.9	1	829.7	13	320329	2	320317	27	40	320356	-999999	320332	0	24	TrialsPROC	TO_014_TOOL14_BA.png	2	2	3	SessionSelectionList														nonlure	3	Tools	2-Back	2	80	1	0	0	0	1	52	39512	3	14	81	37460	-1	38496	1	1036	3	3	2052	66	39526	-67	0																3												
WM080112	208226_fnca	2	1	1	-1596688482	1	75.032	75.031	2.0.10.147	2.0.10.242	2.0.10.242	1.0.0.439	7	234	2	3	Verdana	1	80	0	0	0	WM Stimuli\	1	1007.5	1	831.5	1	872.5	1	773.9	1	1067.4	1	822	1	942.9	1	829.7	13	320329	2	320317	27	40	320356	-999999	320332	0	24	TrialsPROC	TO_013_TOOL13_BA.png	2	2	4	SessionSelectionList														nonlure	3	Tools	2-Back	3	80	2	0	0	0	2	40	42058	2	13	58	40018	-1	40751	1	733	3	3	2040	53	42071	-54	0																4												
WM080112	208226_fnca	2	1	1	-1596688482	1	75.032	75.031	2.0.10.147	2.0.10.242	2.0.10.242	1.0.0.439	7	234	2	3	Verdana	1	80	0	0	0	WM Stimuli\	1	1007.5	1	831.5	1	872.5	1	773.9	1	1067.4	1	822	1	942.9	1	829.7	13	320329	2	320317	27	40	320356	-999999	320332	0	24	TrialsPROC	TO_016_TOOL16_BA.png	2	2	5	SessionSelectionList														nonlure	3	Tools	2-Back	4	80	3	0	0	0	3	39	44617	1	13	60	42578	-1	43293	1	715	3	3	2039	52	44630	-53	0																5												
WM080112	208226_fnca	2	1	1	-1596688482	1	75.032	75.031	2.0.10.147	2.0.10.242	2.0.10.242	1.0.0.439	7	234	2	3	Verdana	1	80	0	0	0	WM Stimuli\	1	1007.5	1	831.5	1	872.5	1	773.9	1	1067.4	1	822	1	942.9	1	829.7	13	320329	2	320317	27	40	320356	-999999	320332	0	24	TrialsPROC	TO_014_TOOL14_BA.png	2	2	6	SessionSelectionList														lure	3	Tools	2-Back	5	80	4	0	0	0	4	39	47189	1	13	72	45150	-1	46268	1	1118	3	3	2039	52	47202	-53	0																6												
WM080112	208226_fnca	2	1	1	-1596688482	1	75.032	75.031	2.0.10.147	2.0.10.242	2.0.10.242	1.0.0.439	7	234	2	3	Verdana	1	80	0	0	0	WM Stimuli\	1	1007.5	1	831.5	1	872.5	1	773.9	1	1067.4	1	822	1	942.9	1	829.7	13	320329	2	320317	27	40	320356	-999999	320332	0	24	TrialsPROC	TO_016_TOOL16_BA.png	2	2	7	SessionSelectionList														target	2	Tools	2-Back	6	80	5	0	0	0	1	39	49748	1	13	59	47709	-1	48891	1	1182	2	2	2039	52	49761	-53	0																7												
WM080112	208226_fnca	2	1	1	-1596688482	1	75.032	75.031	2.0.10.147	2.0.10.242	2.0.10.242	1.0.0.439	7	234	2	3	Verdana	1	80	0	0	0	WM Stimuli\	1	1007.5	1	831.5	1	872.5	1	773.9	1	1067.4	1	822	1	942.9	1	829.7	13	320329	2	320317	27	40	320356	-999999	320332	0	24	TrialsPROC	TO_018_TOOL18_BA.png	2	2	8	SessionSelectionList														nonlure	3	Tools	2-Back	7	80	6	0	0	0	1	39	52307	1	13	59	50268	-1	51311	1	1043	3	3	2039	52	52320	-53	0																8												
WM080112	208226_fnca	2	1	1	-1596688482	1	75.032	75.031	2.0.10.147	2.0.10.242	2.0.10.242	1.0.0.439	7	234	2	3	Verdana	1	80	0	0	0	WM Stimuli\	1	1007.5	1	831.5	1	872.5	1	773.9	1	1067.4	1	822	1	942.9	1	829.7	13	320329	2	320317	27	40	320356	-999999	320332	0	24	TrialsPROC	TO_017_TOOL17_BA.png	2	2	9	SessionSelectionList														nonlure	3	Tools	2-Back	8	80	7	0	0	0	2	40	54866	1	13	58	52826	-1	53517	1	691	3	3	2040	53	54879	-54	0																9												
WM080112	208226_fnca	2	1	1	-1596688482	1	75.032	75.031	2.0.10.147	2.0.10.242	2.0.10.242	1.0.0.439	7	234	2	3	Verdana	1	80	0	0	0	WM Stimuli\	1	1007.5	1	831.5	1	872.5	1	773.9	1	1067.4	1	822	1	942.9	1	829.7	13	320329	2	320317	27	40	320356	-999999	320332	0	24	TrialsPROC	TO_018_TOOL18_BA.png	2	2	10	SessionSelectionList														target	2	Tools	2-Back	9	80	8	0	0	0	1	40	57425	1	13	59	55385	-1	56345	1	960	2	2	2040	53	57438	-54	0																10												
WM080112	208226_fnca	2	1	1	-1596688482	1	75.032	75.031	2.0.10.147	2.0.10.242	2.0.10.242	1.0.0.439	7	234	2	3	Verdana	1	80	0	0	0	WM Stimuli\	1	1007.5	1	831.5	1	872.5	1	773.9	1	1067.4	1	822	1	942.9	1	829.7	13	320329	2	320317	27	40	320356	-999999	320332	0	24	TrialsPROC	TO_015_TOOL15_BA.png	2	2	11	SessionSelectionList														nonlure	3	Tools	2-Back	10	80	9	0	0	0	1	39	59983	2	14	59	57944	-1	58910	1	966	3	3	2039	53	59997	-54	0																11												
WM080112	208226_fnca	2	1	1	-1596688482	1	75.032	75.031	2.0.10.147	2.0.10.242	2.0.10.242	1.0.0.439	7	234	2	3	Verdana	1	80	0	0	0	WM Stimuli\	1	1007.5	1	831.5	1	872.5	1	773.9	1	1067.4	1	822	1	942.9	1	829.7	13	320329	2	320317	27	40	320356	-999999	320332	0	24	TrialsPROC	TO_017_TOOL17_BA.png	2	2	12	SessionSelectionList														lure	3	Tools	2-Back	11	80	10	0	0	0	2	39	62542	2	14	59	60503	-1	61488	1	985	3	3	2039	53	62556	-54	0																12												
WM080112	208226_fnca	2	1	1	-1596688482	1	75.032	75.031	2.0.10.147	2.0.10.242	2.0.10.242	1.0.0.439	7	234	2	3	Verdana	1	80	0	0	0	WM Stimuli\	1	1007.5	1	831.5	1	872.5	1	773.9	1	1067.4	1	822	1	942.9	1	829.7	13	320329	2	320317	27	40	320356	-999999	320332	0	25	Cue0BackPROC	BP_013_BP7_BA.png	2	2	13	SessionSelectionList																																										19	63022	-20	0												13												
WM080112	208226_fnca	2	1	1	-1596688482	1	75.032	75.031	2.0.10.147	2.0.10.242	2.0.10.242	1.0.0.439	7	234	2	3	Verdana	1	80	0	0	0	WM Stimuli\	1	1007.5	1	831.5	1	872.5	1	773.9	1	1067.4	1	822	1	942.9	1	829.7	13	320329	2	320317	27	40	320356	-999999	320332	0	26	TrialsPROC	BP_015_H10-T_BA.png	2	2	14	SessionSelectionList														nonlure	3	Body	0-Back	12	80	11	0	0	100	3	39	67594	1	13	52	65555	-1	66461	1	906	3	3	2039	52	67607	-53	0																14												
WM080112	208226_fnca	2	1	1	-1596688482	1	75.032	75.031	2.0.10.147	2.0.10.242	2.0.10.242	1.0.0.439	7	234	2	3	Verdana	1	80	0	0	0	WM Stimuli\	1	1007.5	1	831.5	1	872.5	1	773.9	1	1067.4	1	822	1	942.9	1	829.7	13	320329	2	320317	27	40	320356	-999999	320332	0	26	TrialsPROC	BP_018_H13-T_BA.png	2	2	15	SessionSelectionList														nonlure	3	Body	0-Back	13	80	12	0	0	100	4	39	70166	1	14	72	68127	-1	69053	1	926	3	3	2039	53	70180	-54	0																15												
WM080112	208226_fnca	2	1	1	-1596688482	1	75.032	75.031	2.0.10.147	2.0.10.242	2.0.10.242	1.0.0.439	7	234	2	3	Verdana	1	80	0	0	0	WM Stimuli\	1	1007.5	1	831.5	1	872.5	1	773.9	1	1067.4	1	822	1	942.9	1	829.7	13	320329	2	320317	27	40	320356	-999999	320332	0	26	TrialsPROC	BP_014_BP9_BA.png	2	2	16	SessionSelectionList														nonlure	3	Body	0-Back	14	80	13	0	0	100	5	39	72725	1	14	59	70686	-1	71497	1	811	3	3	2039	53	72739	-54	0																16												
WM080112	208226_fnca	2	1	1	-1596688482	1	75.032	75.031	2.0.10.147	2.0.10.242	2.0.10.242	1.0.0.439	7	234	2	3	Verdana	1	80	0	0	0	WM Stimuli\	1	1007.5	1	831.5	1	872.5	1	773.9	1	1067.4	1	822	1	942.9	1	829.7	13	320329	2	320317	27	40	320356	-999999	320332	0	26	TrialsPROC	BP_018_H13-T_BA.png	2	2	17	SessionSelectionList														lure	3	Body	0-Back	15	80	14	0	0	100	6	39	75284	1	13	59	73245	-1	74144	1	899	3	3	2039	52	75297	-53	0																17												
WM080112	208226_fnca	2	1	1	-1596688482	1	75.032	75.031	2.0.10.147	2.0.10.242	2.0.10.242	1.0.0.439	7	234	2	3	Verdana	1	80	0	0	0	WM Stimuli\	1	1007.5	1	831.5	1	872.5	1	773.9	1	1067.4	1	822	1	942.9	1	829.7	13	320329	2	320317	27	40	320356	-999999	320332	0	26	TrialsPROC	BP_013_BP7_BA.png	2	2	18	SessionSelectionList														target	2	Body	0-Back	16	80	15	0	0	100	1	39	77843	1	13	59	75804	-1	76494	1	690	2	2	2039	52	77856	-53	0																18												
WM080112	208226_fnca	2	1	1	-1596688482	1	75.032	75.031	2.0.10.147	2.0.10.242	2.0.10.242	1.0.0.439	7	234	2	3	Verdana	1	80	0	0	0	WM Stimuli\	1	1007.5	1	831.5	1	872.5	1	773.9	1	1067.4	1	822	1	942.9	1	829.7	13	320329	2	320317	27	40	320356	-999999	320332	0	26	TrialsPROC	BP_015_H10-T_BA.png	2	2	19	SessionSelectionList														lure	3	Body	0-Back	17	80	16	0	0	100	1	39	80402	1	13	59	78363	-1	79215	1	852	3	3	2039	52	80415	-53	0																19												
WM080112	208226_fnca	2	1	1	-1596688482	1	75.032	75.031	2.0.10.147	2.0.10.242	2.0.10.242	1.0.0.439	7	234	2	3	Verdana	1	80	0	0	0	WM Stimuli\	1	1007.5	1	831.5	1	872.5	1	773.9	1	1067.4	1	822	1	942.9	1	829.7	13	320329	2	320317	27	40	320356	-999999	320332	0	26	TrialsPROC	BP_016_H11-T_BA.png	2	2	20	SessionSelectionList														nonlure	3	Body	0-Back	18	80	17	0	0	100	2	39	82974	1	14	72	80935	-1	81857	1	922	3	3	2039	53	82988	-54	0																20												
WM080112	208226_fnca	2	1	1	-1596688482	1	75.032	75.031	2.0.10.147	2.0.10.242	2.0.10.242	1.0.0.439	7	234	2	3	Verdana	1	80	0	0	0	WM Stimuli\	1	1007.5	1	831.5	1	872.5	1	773.9	1	1067.4	1	822	1	942.9	1	829.7	13	320329	2	320317	27	40	320356	-999999	320332	0	26	TrialsPROC	BP_013_BP7_BA.png	2	2	21	SessionSelectionList														target	2	Body	0-Back	19	80	18	0	0	100	1	39	85533	1	14	59	83494	-1	84203	1	709	2	2	2039	53	85547	-54	0																21												
WM080112	208226_fnca	2	1	1	-1596688482	1	75.032	75.031	2.0.10.147	2.0.10.242	2.0.10.242	1.0.0.439	7	234	2	3	Verdana	1	80	0	0	0	WM Stimuli\	1	1007.5	1	831.5	1	872.5	1	773.9	1	1067.4	1	822	1	942.9	1	829.7	13	320329	2	320317	27	40	320356	-999999	320332	0	26	TrialsPROC	BP_017_H12-T_BA.png	2	2	22	SessionSelectionList														nonlure	3	Body	0-Back	20	80	19	0	0	100	1	39	88092	1	13	59	86053	-1	86782	1	729	3	3	2039	52	88105	-53	0																22												
WM080112	208226_fnca	2	1	1	-1596688482	1	75.032	75.031	2.0.10.147	2.0.10.242	2.0.10.242	1.0.0.439	7	234	2	3	Verdana	1	80	0	0	0	WM Stimuli\	1	1007.5	1	831.5	1	872.5	1	773.9	1	1067.4	1	822	1	942.9	1	829.7	13	320329	2	320317	27	40	320356	-999999	320332	0	26	TrialsPROC	BP_014_BP9_BA.png	2	2	23	SessionSelectionList														lure	3	Body	0-Back	21	80	20	0	0	100	2	39	90651	1	13	59	88612	-1	89483	1	871	3	3	2039	52	90664	-53	0																23												
WM080112	208226_fnca	2	1	1	-1596688482	1	75.032	75.031	2.0.10.147	2.0.10.242	2.0.10.242	1.0.0.439	7	234	2	3	Verdana	1	80	0	0	0	WM Stimuli\	1	1007.5	1	831.5	1	872.5	1	773.9	1	1067.4	1	822	1	942.9	1	829.7	13	320329	2	320317	27	40	320356	-999999	320332	0	27	Fix15secPROC	""	2	2	24	SessionSelectionList																																															6	91118	-7	0							24												
WM080112	208226_fnca	2	1	1	-1596688482	1	75.032	75.031	2.0.10.147	2.0.10.242	2.0.10.242	1.0.0.439	7	234	2	3	Verdana	1	80	0	0	0	WM Stimuli\	1	1007.5	1	831.5	1	872.5	1	773.9	1	1067.4	1	822	1	942.9	1	829.7	13	320329	2	320317	27	40	320356	-999999	320332	0	28	Cue2BackPROC	""	2	2	25	SessionSelectionList									12	106124	-13	0																																													25												
WM080112	208226_fnca	2	1	1	-1596688482	1	75.032	75.031	2.0.10.147	2.0.10.242	2.0.10.242	1.0.0.439	7	234	2	3	Verdana	1	80	0	0	0	WM Stimuli\	1	1007.5	1	831.5	1	872.5	1	773.9	1	1067.4	1	822	1	942.9	1	829.7	13	320329	2	320317	27	40	320356	-999999	320332	0	29	TrialsPROC	FC_015_M8.png	2	2	26	SessionSelectionList														nonlure	3	Face	2-Back	22	80	21	0	0	100	3	39	110722	2	14	71	108683	-1	110075	1	1392	3	3	2039	53	110736	-54	0																26												
WM080112	208226_fnca	2	1	1	-1596688482	1	75.032	75.031	2.0.10.147	2.0.10.242	2.0.10.242	1.0.0.439	7	234	2	3	Verdana	1	80	0	0	0	WM Stimuli\	1	1007.5	1	831.5	1	872.5	1	773.9	1	1067.4	1	822	1	942.9	1	829.7	13	320329	2	320317	27	40	320356	-999999	320332	0	29	TrialsPROC	FC_018_F9.png	2	2	27	SessionSelectionList														nonlure	3	Face	2-Back	23	80	22	0	0	100	4	39	113295	1	13	73	111256	-1	112288	1	1032	3	3	2039	52	113308	-53	0																27												
WM080112	208226_fnca	2	1	1	-1596688482	1	75.032	75.031	2.0.10.147	2.0.10.242	2.0.10.242	1.0.0.439	7	234	2	3	Verdana	1	80	0	0	0	WM Stimuli\	1	1007.5	1	831.5	1	872.5	1	773.9	1	1067.4	1	822	1	942.9	1	829.7	13	320329	2	320317	27	40	320356	-999999	320332	0	29	TrialsPROC	FC_018_F9.png	2	2	28	SessionSelectionList														lure	3	Face	2-Back	24	80	23	0	0	100	5	39	115867	1	14	72	113828	-1	114485	1	657	3	3	2039	53	115881	-54	0																28												
WM080112	208226_fnca	2	1	1	-1596688482	1	75.032	75.031	2.0.10.147	2.0.10.242	2.0.10.242	1.0.0.439	7	234	2	3	Verdana	1	80	0	0	0	WM Stimuli\	1	1007.5	1	831.5	1	872.5	1	773.9	1	1067.4	1	822	1	942.9	1	829.7	13	320329	2	320317	27	40	320356	-999999	320332	0	29	TrialsPROC	FC_017_M9.png	2	2	29	SessionSelectionList														nonlure	3	Face	2-Back	25	80	24	0	0	100	6	39	118439	2	14	72	116400	-1	117147	1	747	3	3	2039	53	118453	-54	0																29												
WM080112	208226_fnca	2	1	1	-1596688482	1	75.032	75.031	2.0.10.147	2.0.10.242	2.0.10.242	1.0.0.439	7	234	2	3	Verdana	1	80	0	0	0	WM Stimuli\	1	1007.5	1	831.5	1	872.5	1	773.9	1	1067.4	1	822	1	942.9	1	829.7	13	320329	2	320317	27	40	320356	-999999	320332	0	29	TrialsPROC	FC_017_M9.png	2	2	30	SessionSelectionList														lure	3	Face	2-Back	26	80	25	0	0	100	7	39	121011	2	14	72	118972	-1	119679	1	707	3	3	2039	53	121025	-54	0																30												
WM080112	208226_fnca	2	1	1	-1596688482	1	75.032	75.031	2.0.10.147	2.0.10.242	2.0.10.242	1.0.0.439	7	234	2	3	Verdana	1	80	0	0	0	WM Stimuli\	1	1007.5	1	831.5	1	872.5	1	773.9	1	1067.4	1	822	1	942.9	1	829.7	13	320329	2	320317	27	40	320356	-999999	320332	0	29	TrialsPROC	FC_016_F8.png	2	2	31	SessionSelectionList														nonlure	3	Face	2-Back	27	80	26	0	0	100	8	39	123584	1	14	73	121545	-1	122414	1	869	3	3	2039	53	123598	-54	0																31												
WM080112	208226_fnca	2	1	1	-1596688482	1	75.032	75.031	2.0.10.147	2.0.10.242	2.0.10.242	1.0.0.439	7	234	2	3	Verdana	1	80	0	0	0	WM Stimuli\	1	1007.5	1	831.5	1	872.5	1	773.9	1	1067.4	1	822	1	942.9	1	829.7	13	320329	2	320317	27	40	320356	-999999	320332	0	29	TrialsPROC	FC_013_M7.png	2	2	32	SessionSelectionList														nonlure	3	Face	2-Back	28	80	27	0	0	100	9	39	126156	1	14	72	124117	-1	124969	1	852	3	3	2039	53	126170	-54	0																32												
WM080112	208226_fnca	2	1	1	-1596688482	1	75.032	75.031	2.0.10.147	2.0.10.242	2.0.10.242	1.0.0.439	7	234	2	3	Verdana	1	80	0	0	0	WM Stimuli\	1	1007.5	1	831.5	1	872.5	1	773.9	1	1067.4	1	822	1	942.9	1	829.7	13	320329	2	320317	27	40	320356	-999999	320332	0	29	TrialsPROC	FC_014_F7.png	2	2	33	SessionSelectionList														nonlure	3	Face	2-Back	29	80	28	0	0	100	10	39	128728	2	14	72	126689	-1	127496	1	807	3	3	2039	53	128742	-54	0																33												
WM080112	208226_fnca	2	1	1	-1596688482	1	75.032	75.031	2.0.10.147	2.0.10.242	2.0.10.242	1.0.0.439	7	234	2	3	Verdana	1	80	0	0	0	WM Stimuli\	1	1007.5	1	831.5	1	872.5	1	773.9	1	1067.4	1	822	1	942.9	1	829.7	13	320329	2	320317	27	40	320356	-999999	320332	0	29	TrialsPROC	FC_013_M7.png	2	2	34	SessionSelectionList														target	2	Face	2-Back	30	80	29	0	0	100	1	40	131301	1	13	72	129261	-1	129874	1	613	2	2	2040	53	131314	-54	0																34												
WM080112	208226_fnca	2	1	1	-1596688482	1	75.032	75.031	2.0.10.147	2.0.10.242	2.0.10.242	1.0.0.439	7	234	2	3	Verdana	1	80	0	0	0	WM Stimuli\	1	1007.5	1	831.5	1	872.5	1	773.9	1	1067.4	1	822	1	942.9	1	829.7	13	320329	2	320317	27	40	320356	-999999	320332	0	29	TrialsPROC	FC_014_F7.png	2	2	35	SessionSelectionList														target	2	Face	2-Back	31	80	30	0	0	100	2	39	133873	1	13	73	131834	-1	132883	1	1049	2	2	2039	52	133886	-53	0																35												
WM080112	208226_fnca	2	1	1	-1596688482	1	75.032	75.031	2.0.10.147	2.0.10.242	2.0.10.242	1.0.0.439	7	234	2	3	Verdana	1	80	0	0	0	WM Stimuli\	1	1007.5	1	831.5	1	872.5	1	773.9	1	1067.4	1	822	1	942.9	1	829.7	13	320329	2	320317	27	40	320356	-999999	320332	0	30	Cue0BackPROC	TO_019_TOOL19_BA.png	2	2	36	SessionSelectionList																																										19	134353	-20	0												36												
WM080112	208226_fnca	2	1	1	-1596688482	1	75.032	75.031	2.0.10.147	2.0.10.242	2.0.10.242	1.0.0.439	7	234	2	3	Verdana	1	80	0	0	0	WM Stimuli\	1	1007.5	1	831.5	1	872.5	1	773.9	1	1067.4	1	822	1	942.9	1	829.7	13	320329	2	320317	27	40	320356	-999999	320332	0	31	TrialsPROC	TO_019_TOOL19_BA.png	2	2	37	SessionSelectionList														target	2	Tools	0-Back	32	80	31	0	0	100	3	39	138924	1	14	51	136885	-1	137753	1	868	2	2	2039	53	138938	-54	0																37												
WM080112	208226_fnca	2	1	1	-1596688482	1	75.032	75.031	2.0.10.147	2.0.10.242	2.0.10.242	1.0.0.439	7	234	2	3	Verdana	1	80	0	0	0	WM Stimuli\	1	1007.5	1	831.5	1	872.5	1	773.9	1	1067.4	1	822	1	942.9	1	829.7	13	320329	2	320317	27	40	320356	-999999	320332	0	31	TrialsPROC	TO_024_TOOL24_BA.png	2	2	38	SessionSelectionList														nonlure	3	Tools	0-Back	33	80	32	0	0	100	1	39	141483	1	14	59	139444	-1	140185	1	741	3	3	2039	53	141497	-54	0																38												
WM080112	208226_fnca	2	1	1	-1596688482	1	75.032	75.031	2.0.10.147	2.0.10.242	2.0.10.242	1.0.0.439	7	234	2	3	Verdana	1	80	0	0	0	WM Stimuli\	1	1007.5	1	831.5	1	872.5	1	773.9	1	1067.4	1	822	1	942.9	1	829.7	13	320329	2	320317	27	40	320356	-999999	320332	0	31	TrialsPROC	TO_019_TOOL19_BA.png	2	2	39	SessionSelectionList														target	2	Tools	0-Back	34	80	33	0	0	100	1	39	144042	1	14	59	142003	-1	142703	1	700	2	2	2039	53	144056	-54	0																39												
WM080112	208226_fnca	2	1	1	-1596688482	1	75.032	75.031	2.0.10.147	2.0.10.242	2.0.10.242	1.0.0.439	7	234	2	3	Verdana	1	80	0	0	0	WM Stimuli\	1	1007.5	1	831.5	1	872.5	1	773.9	1	1067.4	1	822	1	942.9	1	829.7	13	320329	2	320317	27	40	320356	-999999	320332	0	31	TrialsPROC	TO_023_TOOL23_BA.png	2	2	40	SessionSelectionList														nonlure	3	Tools	0-Back	35	80	34	0	0	100	1	39	146601	1	13	59	144562	-1	145347	1	785	3	3	2039	52	146614	-53	0																40												
WM080112	208226_fnca	2	1	1	-1596688482	1	75.032	75.031	2.0.10.147	2.0.10.242	2.0.10.242	1.0.0.439	7	234	2	3	Verdana	1	80	0	0	0	WM Stimuli\	1	1007.5	1	831.5	1	872.5	1	773.9	1	1067.4	1	822	1	942.9	1	829.7	13	320329	2	320317	27	40	320356	-999999	320332	0	31	TrialsPROC	TO_020_TOOL20_BA.png	2	2	41	SessionSelectionList														nonlure	3	Tools	0-Back	36	80	35	0	0	100	2	39	149160	1	13	59	147121	-1	148395	1	1274	3	3	2039	52	149173	-53	0																41												
WM080112	208226_fnca	2	1	1	-1596688482	1	75.032	75.031	2.0.10.147	2.0.10.242	2.0.10.242	1.0.0.439	7	234	2	3	Verdana	1	80	0	0	0	WM Stimuli\	1	1007.5	1	831.5	1	872.5	1	773.9	1	1067.4	1	822	1	942.9	1	829.7	13	320329	2	320317	27	40	320356	-999999	320332	0	31	TrialsPROC	TO_020_TOOL20_BA.png	2	2	42	SessionSelectionList														lure	3	Tools	0-Back	37	80	36	0	0	100	3	39	151719	1	13	59	149680	-1	150746	1	1066	3	3	2039	52	151732	-53	0																42												
WM080112	208226_fnca	2	1	1	-1596688482	1	75.032	75.031	2.0.10.147	2.0.10.242	2.0.10.242	1.0.0.439	7	234	2	3	Verdana	1	80	0	0	0	WM Stimuli\	1	1007.5	1	831.5	1	872.5	1	773.9	1	1067.4	1	822	1	942.9	1	829.7	13	320329	2	320317	27	40	320356	-999999	320332	0	31	TrialsPROC	TO_022_TOOL22_BA.png	2	2	43	SessionSelectionList														nonlure	3	Tools	0-Back	38	80	37	0	0	100	4	39	154278	1	13	59	152239	-1	152958	1	719	3	3	2039	52	154291	-53	0																43												
WM080112	208226_fnca	2	1	1	-1596688482	1	75.032	75.031	2.0.10.147	2.0.10.242	2.0.10.242	1.0.0.439	7	234	2	3	Verdana	1	80	0	0	0	WM Stimuli\	1	1007.5	1	831.5	1	872.5	1	773.9	1	1067.4	1	822	1	942.9	1	829.7	13	320329	2	320317	27	40	320356	-999999	320332	0	31	TrialsPROC	TO_022_TOOL22_BA.png	2	2	44	SessionSelectionList														lure	3	Tools	0-Back	39	80	38	0	0	100	5	40	156837	1	13	58	154797	-1	155497	1	700	3	3	2040	53	156850	-54	0																44												
WM080112	208226_fnca	2	1	1	-1596688482	1	75.032	75.031	2.0.10.147	2.0.10.242	2.0.10.242	1.0.0.439	7	234	2	3	Verdana	1	80	0	0	0	WM Stimuli\	1	1007.5	1	831.5	1	872.5	1	773.9	1	1067.4	1	822	1	942.9	1	829.7	13	320329	2	320317	27	40	320356	-999999	320332	0	31	TrialsPROC	TO_021_TOOL21_BA.png	2	2	45	SessionSelectionList														nonlure	3	Tools	0-Back	40	80	39	0	0	100	6	39	159396	2	13	60	157357	-1	158159	1	802	3	3	2039	52	159409	-53	0																45												
WM080112	208226_fnca	2	1	1	-1596688482	1	75.032	75.031	2.0.10.147	2.0.10.242	2.0.10.242	1.0.0.439	7	234	2	3	Verdana	1	80	0	0	0	WM Stimuli\	1	1007.5	1	831.5	1	872.5	1	773.9	1	1067.4	1	822	1	942.9	1	829.7	13	320329	2	320317	27	40	320356	-999999	320332	0	31	TrialsPROC	TO_021_TOOL21_BA.png	2	2	46	SessionSelectionList														lure	3	Tools	0-Back	41	80	40	0	0	100	7	39	161954	2	14	58	159915	-1	160557	1	642	3	3	2039	53	161968	-54	0																46												
WM080112	208226_fnca	2	1	1	-1596688482	1	75.032	75.031	2.0.10.147	2.0.10.242	2.0.10.242	1.0.0.439	7	234	2	3	Verdana	1	80	0	0	0	WM Stimuli\	1	1007.5	1	831.5	1	872.5	1	773.9	1	1067.4	1	822	1	942.9	1	829.7	13	320329	2	320317	27	40	320356	-999999	320332	0	32	Fix15secPROC	""	2	2	47	SessionSelectionList																																															6	162421	-7	0							47												
WM080112	208226_fnca	2	1	1	-1596688482	1	75.032	75.031	2.0.10.147	2.0.10.242	2.0.10.242	1.0.0.439	7	234	2	3	Verdana	1	80	0	0	0	WM Stimuli\	1	1007.5	1	831.5	1	872.5	1	773.9	1	1067.4	1	822	1	942.9	1	829.7	13	320329	2	320317	27	40	320356	-999999	320332	0	33	Cue2BackPROC	""	2	2	48	SessionSelectionList									13	177428	-14	0																																													48												
WM080112	208226_fnca	2	1	1	-1596688482	1	75.032	75.031	2.0.10.147	2.0.10.242	2.0.10.242	1.0.0.439	7	234	2	3	Verdana	1	80	0	0	0	WM Stimuli\	1	1007.5	1	831.5	1	872.5	1	773.9	1	1067.4	1	822	1	942.9	1	829.7	13	320329	2	320317	27	40	320356	-999999	320332	0	34	TrialsPROC	BP_020_H17-T_BA.png	2	2	49	SessionSelectionList														nonlure	3	Body	2-Back	42	80	41	0	0	100	8	39	182026	2	14	72	179987	-1	181330	1	1343	3	3	2039	53	182040	-54	0																49												
WM080112	208226_fnca	2	1	1	-1596688482	1	75.032	75.031	2.0.10.147	2.0.10.242	2.0.10.242	1.0.0.439	7	234	2	3	Verdana	1	80	0	0	0	WM Stimuli\	1	1007.5	1	831.5	1	872.5	1	773.9	1	1067.4	1	822	1	942.9	1	829.7	13	320329	2	320317	27	40	320356	-999999	320332	0	34	TrialsPROC	BP_019_H14-T_BA.png	2	2	50	SessionSelectionList														nonlure	3	Body	2-Back	43	80	42	0	0	100	9	39	184598	2	14	72	182559	-1	183789	1	1230	3	3	2039	53	184612	-54	0																50												
WM080112	208226_fnca	2	1	1	-1596688482	1	75.032	75.031	2.0.10.147	2.0.10.242	2.0.10.242	1.0.0.439	7	234	2	3	Verdana	1	80	0	0	0	WM Stimuli\	1	1007.5	1	831.5	1	872.5	1	773.9	1	1067.4	1	822	1	942.9	1	829.7	13	320329	2	320317	27	40	320356	-999999	320332	0	34	TrialsPROC	BP_020_H17-T_BA.png	2	2	51	SessionSelectionList														target	2	Body	2-Back	44	80	43	0	0	100	1	39	187157	2	14	59	185118	-1	185881	1	763	2	2	2039	53	187171	-54	0																51												
WM080112	208226_fnca	2	1	1	-1596688482	1	75.032	75.031	2.0.10.147	2.0.10.242	2.0.10.242	1.0.0.439	7	234	2	3	Verdana	1	80	0	0	0	WM Stimuli\	1	1007.5	1	831.5	1	872.5	1	773.9	1	1067.4	1	822	1	942.9	1	829.7	13	320329	2	320317	27	40	320356	-999999	320332	0	34	TrialsPROC	BP_019_H14-T_BA.png	2	2	52	SessionSelectionList														target	2	Body	2-Back	45	80	44	0	0	100	2	39	189717	1	13	60	187678	-1	188603	1	925	2	2	2039	52	189730	-53	0																52												
WM080112	208226_fnca	2	1	1	-1596688482	1	75.032	75.031	2.0.10.147	2.0.10.242	2.0.10.242	1.0.0.439	7	234	2	3	Verdana	1	80	0	0	0	WM Stimuli\	1	1007.5	1	831.5	1	872.5	1	773.9	1	1067.4	1	822	1	942.9	1	829.7	13	320329	2	320317	27	40	320356	-999999	320332	0	34	TrialsPROC	BP_024_H3-T_BA.png	2	2	53	SessionSelectionList														nonlure	3	Body	2-Back	46	80	45	0	0	100	1	40	192289	1	13	71	190249	-1	191313	1	1064	3	3	2040	53	192302	-54	0																53												
WM080112	208226_fnca	2	1	1	-1596688482	1	75.032	75.031	2.0.10.147	2.0.10.242	2.0.10.242	1.0.0.439	7	234	2	3	Verdana	1	80	0	0	0	WM Stimuli\	1	1007.5	1	831.5	1	872.5	1	773.9	1	1067.4	1	822	1	942.9	1	829.7	13	320329	2	320317	27	40	320356	-999999	320332	0	34	TrialsPROC	BP_024_H3-T_BA.png	2	2	54	SessionSelectionList														lure	3	Body	2-Back	47	80	46	0	0	100	2	38	194847	2	14	60	192809	-1	193872	1	1063	3	3	2038	52	194861	-53	0																54												
WM080112	208226_fnca	2	1	1	-1596688482	1	75.032	75.031	2.0.10.147	2.0.10.242	2.0.10.242	1.0.0.439	7	234	2	3	Verdana	1	80	0	0	0	WM Stimuli\	1	1007.5	1	831.5	1	872.5	1	773.9	1	1067.4	1	822	1	942.9	1	829.7	13	320329	2	320317	27	40	320356	-999999	320332	0	34	TrialsPROC	BP_025_H5-T_BA.png	2	2	55	SessionSelectionList														nonlure	3	Body	2-Back	48	80	47	0	0	100	3	39	197420	1	13	72	195381	-1	196270	1	889	3	3	2039	52	197433	-53	0																55												
WM080112	208226_fnca	2	1	1	-1596688482	1	75.032	75.031	2.0.10.147	2.0.10.242	2.0.10.242	1.0.0.439	7	234	2	3	Verdana	1	80	0	0	0	WM Stimuli\	1	1007.5	1	831.5	1	872.5	1	773.9	1	1067.4	1	822	1	942.9	1	829.7	13	320329	2	320317	27	40	320356	-999999	320332	0	34	TrialsPROC	BP_023_H25-T_BA.png	2	2	56	SessionSelectionList														nonlure	3	Body	2-Back	49	80	48	0	0	100	4	39	199992	1	14	72	197953	-1	198947	1	994	3	3	2039	53	200006	-54	0																56												
WM080112	208226_fnca	2	1	1	-1596688482	1	75.032	75.031	2.0.10.147	2.0.10.242	2.0.10.242	1.0.0.439	7	234	2	3	Verdana	1	80	0	0	0	WM Stimuli\	1	1007.5	1	831.5	1	872.5	1	773.9	1	1067.4	1	822	1	942.9	1	829.7	13	320329	2	320317	27	40	320356	-999999	320332	0	34	TrialsPROC	BP_022_H24-T_BA.png	2	2	57	SessionSelectionList														nonlure	3	Body	2-Back	50	80	49	0	0	100	5	39	202551	1	14	59	200512	-1	201442	1	930	3	3	2039	53	202565	-54	0																57												
WM080112	208226_fnca	2	1	1	-1596688482	1	75.032	75.031	2.0.10.147	2.0.10.242	2.0.10.242	1.0.0.439	7	234	2	3	Verdana	1	80	0	0	0	WM Stimuli\	1	1007.5	1	831.5	1	872.5	1	773.9	1	1067.4	1	822	1	942.9	1	829.7	13	320329	2	320317	27	40	320356	-999999	320332	0	34	TrialsPROC	BP_022_H24-T_BA.png	2	2	58	SessionSelectionList														lure	3	Body	2-Back	51	80	50	0	0	100	6	39	205110	1	14	59	203071	-1	203945	1	874	3	3	2039	53	205124	-54	0																58												
WM080112	208226_fnca	2	1	1	-1596688482	1	75.032	75.031	2.0.10.147	2.0.10.242	2.0.10.242	1.0.0.439	7	234	2	3	Verdana	1	80	0	0	0	WM Stimuli\	1	1007.5	1	831.5	1	872.5	1	773.9	1	1067.4	1	822	1	942.9	1	829.7	13	320329	2	320317	27	40	320356	-999999	320332	0	35	Cue2BackPROC	""	2	2	59	SessionSelectionList									5	205576	-6	0																																													59												
WM080112	208226_fnca	2	1	1	-1596688482	1	75.032	75.031	2.0.10.147	2.0.10.242	2.0.10.242	1.0.0.439	7	234	2	3	Verdana	1	80	0	0	0	WM Stimuli\	1	1007.5	1	831.5	1	872.5	1	773.9	1	1067.4	1	822	1	942.9	1	829.7	13	320329	2	320317	27	40	320356	-999999	320332	0	36	TrialsPROC	PL_019_SCENE_05.png	2	2	60	SessionSelectionList														nonlure	3	Place	2-Back	52	80	51	0	0	100	7	39	210174	2	14	64	208135	-1	209388	1	1253	3	3	2039	53	210188	-54	0																60												
WM080112	208226_fnca	2	1	1	-1596688482	1	75.032	75.031	2.0.10.147	2.0.10.242	2.0.10.242	1.0.0.439	7	234	2	3	Verdana	1	80	0	0	0	WM Stimuli\	1	1007.5	1	831.5	1	872.5	1	773.9	1	1067.4	1	822	1	942.9	1	829.7	13	320329	2	320317	27	40	320356	-999999	320332	0	36	TrialsPROC	PL_017_SCENE_03.png	2	2	61	SessionSelectionList														nonlure	3	Place	2-Back	53	80	52	0	0	100	8	39	212747	1	13	73	210708	-1	211730	1	1022	3	3	2039	52	212760	-53	0																61												
WM080112	208226_fnca	2	1	1	-1596688482	1	75.032	75.031	2.0.10.147	2.0.10.242	2.0.10.242	1.0.0.439	7	234	2	3	Verdana	1	80	0	0	0	WM Stimuli\	1	1007.5	1	831.5	1	872.5	1	773.9	1	1067.4	1	822	1	942.9	1	829.7	13	320329	2	320317	27	40	320356	-999999	320332	0	36	TrialsPROC	PL_017_SCENE_03.png	2	2	62	SessionSelectionList														lure	3	Place	2-Back	54	80	53	0	0	100	9	39	215319	1	14	72	213280	-1	214074	1	794	3	3	2039	53	215333	-54	0																62												
WM080112	208226_fnca	2	1	1	-1596688482	1	75.032	75.031	2.0.10.147	2.0.10.242	2.0.10.242	1.0.0.439	7	234	2	3	Verdana	1	80	0	0	0	WM Stimuli\	1	1007.5	1	831.5	1	872.5	1	773.9	1	1067.4	1	822	1	942.9	1	829.7	13	320329	2	320317	27	40	320356	-999999	320332	0	36	TrialsPROC	PL_016_SCENE_02.png	2	2	63	SessionSelectionList														nonlure	3	Place	2-Back	55	80	54	0	0	100	10	39	217891	2	14	72	215852	-1	216703	1	851	3	3	2039	53	217905	-54	0																63												
WM080112	208226_fnca	2	1	1	-1596688482	1	75.032	75.031	2.0.10.147	2.0.10.242	2.0.10.242	1.0.0.439	7	234	2	3	Verdana	1	80	0	0	0	WM Stimuli\	1	1007.5	1	831.5	1	872.5	1	773.9	1	1067.4	1	822	1	942.9	1	829.7	13	320329	2	320317	27	40	320356	-999999	320332	0	36	TrialsPROC	PL_015_SCENE_01.png	2	2	64	SessionSelectionList														nonlure	3	Place	2-Back	56	80	55	0	0	100	11	40	220464	1	13	72	218424	-1	219279	1	855	3	3	2040	53	220477	-54	0																64												
WM080112	208226_fnca	2	1	1	-1596688482	1	75.032	75.031	2.0.10.147	2.0.10.242	2.0.10.242	1.0.0.439	7	234	2	3	Verdana	1	80	0	0	0	WM Stimuli\	1	1007.5	1	831.5	1	872.5	1	773.9	1	1067.4	1	822	1	942.9	1	829.7	13	320329	2	320317	27	40	320356	-999999	320332	0	36	TrialsPROC	PL_016_SCENE_02.png	2	2	65	SessionSelectionList														target	2	Place	2-Back	57	80	56	0	0	100	1	39	223036	1	13	73	220997	-1	221900	1	903	2	2	2039	52	223049	-53	0																65												
WM080112	208226_fnca	2	1	1	-1596688482	1	75.032	75.031	2.0.10.147	2.0.10.242	2.0.10.242	1.0.0.439	7	234	2	3	Verdana	1	80	0	0	0	WM Stimuli\	1	1007.5	1	831.5	1	872.5	1	773.9	1	1067.4	1	822	1	942.9	1	829.7	13	320329	2	320317	27	40	320356	-999999	320332	0	36	TrialsPROC	PL_015_SCENE_01.png	2	2	66	SessionSelectionList														target	2	Place	2-Back	58	80	57	0	0	100	2	39	225608	2	14	72	223569	-1	225056	1	1487	2	2	2039	53	225622	-54	0																66												
WM080112	208226_fnca	2	1	1	-1596688482	1	75.032	75.031	2.0.10.147	2.0.10.242	2.0.10.242	1.0.0.439	7	234	2	3	Verdana	1	80	0	0	0	WM Stimuli\	1	1007.5	1	831.5	1	872.5	1	773.9	1	1067.4	1	822	1	942.9	1	829.7	13	320329	2	320317	27	40	320356	-999999	320332	0	36	TrialsPROC	PL_020_SCENE_06.png	2	2	67	SessionSelectionList														nonlure	3	Place	2-Back	59	80	58	0	0	100	1	39	228180	2	14	72	226141	-1	227525	1	1384	3	3	2039	53	228194	-54	0																67												
WM080112	208226_fnca	2	1	1	-1596688482	1	75.032	75.031	2.0.10.147	2.0.10.242	2.0.10.242	1.0.0.439	7	234	2	3	Verdana	1	80	0	0	0	WM Stimuli\	1	1007.5	1	831.5	1	872.5	1	773.9	1	1067.4	1	822	1	942.9	1	829.7	13	320329	2	320317	27	40	320356	-999999	320332	0	36	TrialsPROC	PL_020_SCENE_06.png	2	2	68	SessionSelectionList														lure	3	Place	2-Back	60	80	59	0	0	100	2	40	230753	1	13	72	228713	-1	229851	1	1138	3	3	2040	53	230766	-54	0																68												
WM080112	208226_fnca	2	1	1	-1596688482	1	75.032	75.031	2.0.10.147	2.0.10.242	2.0.10.242	1.0.0.439	7	234	2	3	Verdana	1	80	0	0	0	WM Stimuli\	1	1007.5	1	831.5	1	872.5	1	773.9	1	1067.4	1	822	1	942.9	1	829.7	13	320329	2	320317	27	40	320356	-999999	320332	0	36	TrialsPROC	PL_018_SCENE_04.png	2	2	69	SessionSelectionList														nonlure	3	Place	2-Back	61	80	60	0	0	100	3	39	233325	1	14	73	231286	-1	232273	1	987	3	3	2039	53	233339	-54	0																69												
WM080112	208226_fnca	2	1	1	-1596688482	1	75.032	75.031	2.0.10.147	2.0.10.242	2.0.10.242	1.0.0.439	7	234	2	3	Verdana	1	80	0	0	0	WM Stimuli\	1	1007.5	1	831.5	1	872.5	1	773.9	1	1067.4	1	822	1	942.9	1	829.7	13	320329	2	320317	27	40	320356	-999999	320332	0	37	Fix15secPROC	""	2	2	70	SessionSelectionList																																															6	233792	-7	0							70												
WM080112	208226_fnca	2	1	1	-1596688482	1	75.032	75.031	2.0.10.147	2.0.10.242	2.0.10.242	1.0.0.439	7	234	2	3	Verdana	1	80	0	0	0	WM Stimuli\	1	1007.5	1	831.5	1	872.5	1	773.9	1	1067.4	1	822	1	942.9	1	829.7	13	320329	2	320317	27	40	320356	-999999	320332	0	38	Cue0BackPROC	FC_020_F10.png	2	2	71	SessionSelectionList																																										39	248825	-40	0												71												
WM080112	208226_fnca	2	1	1	-1596688482	1	75.032	75.031	2.0.10.147	2.0.10.242	2.0.10.242	1.0.0.439	7	234	2	3	Verdana	1	80	0	0	0	WM Stimuli\	1	1007.5	1	831.5	1	872.5	1	773.9	1	1067.4	1	822	1	942.9	1	829.7	13	320329	2	320317	27	40	320356	-999999	320332	0	39	TrialsPROC	FC_024_F12.png	2	2	72	SessionSelectionList														nonlure	3	Face	0-Back	62	80	61	0	0	100	4	39	253410	1	13	85	251371	-1	252260	1	889	3	3	2039	52	253423	-53	0																72												
WM080112	208226_fnca	2	1	1	-1596688482	1	75.032	75.031	2.0.10.147	2.0.10.242	2.0.10.242	1.0.0.439	7	234	2	3	Verdana	1	80	0	0	0	WM Stimuli\	1	1007.5	1	831.5	1	872.5	1	773.9	1	1067.4	1	822	1	942.9	1	829.7	13	320329	2	320317	27	40	320356	-999999	320332	0	39	TrialsPROC	FC_023_M12.png	2	2	73	SessionSelectionList														nonlure	3	Face	0-Back	63	80	62	0	0	100	5	39	255995	2	14	85	253956	-1	254694	1	738	3	3	2039	53	256009	-54	0																73												
WM080112	208226_fnca	2	1	1	-1596688482	1	75.032	75.031	2.0.10.147	2.0.10.242	2.0.10.242	1.0.0.439	7	234	2	3	Verdana	1	80	0	0	0	WM Stimuli\	1	1007.5	1	831.5	1	872.5	1	773.9	1	1067.4	1	822	1	942.9	1	829.7	13	320329	2	320317	27	40	320356	-999999	320332	0	39	TrialsPROC	FC_020_F10.png	2	2	74	SessionSelectionList														target	2	Face	0-Back	64	80	63	0	0	100	1	39	258568	1	13	73	256529	-1	257311	1	782	2	2	2039	52	258581	-53	0																74												
WM080112	208226_fnca	2	1	1	-1596688482	1	75.032	75.031	2.0.10.147	2.0.10.242	2.0.10.242	1.0.0.439	7	234	2	3	Verdana	1	80	0	0	0	WM Stimuli\	1	1007.5	1	831.5	1	872.5	1	773.9	1	1067.4	1	822	1	942.9	1	829.7	13	320329	2	320317	27	40	320356	-999999	320332	0	39	TrialsPROC	FC_024_F12.png	2	2	75	SessionSelectionList														lure	3	Face	0-Back	65	80	64	0	0	100	1	39	261140	1	14	72	259101	-1	259842	1	741	3	3	2039	53	261154	-54	0																75												
WM080112	208226_fnca	2	1	1	-1596688482	1	75.032	75.031	2.0.10.147	2.0.10.242	2.0.10.242	1.0.0.439	7	234	2	3	Verdana	1	80	0	0	0	WM Stimuli\	1	1007.5	1	831.5	1	872.5	1	773.9	1	1067.4	1	822	1	942.9	1	829.7	13	320329	2	320317	27	40	320356	-999999	320332	0	39	TrialsPROC	FC_020_F10.png	2	2	76	SessionSelectionList														target	2	Face	0-Back	66	80	65	0	0	100	1	39	263712	2	14	72	261673	-1	262536	1	863	2	2	2039	53	263726	-54	0																76												
WM080112	208226_fnca	2	1	1	-1596688482	1	75.032	75.031	2.0.10.147	2.0.10.242	2.0.10.242	1.0.0.439	7	234	2	3	Verdana	1	80	0	0	0	WM Stimuli\	1	1007.5	1	831.5	1	872.5	1	773.9	1	1067.4	1	822	1	942.9	1	829.7	13	320329	2	320317	27	40	320356	-999999	320332	0	39	TrialsPROC	FC_022_F11.png	2	2	77	SessionSelectionList														nonlure	3	Face	0-Back	67	80	66	0	0	100	1	39	266298	1	13	86	264259	-1	265085	1	826	3	3	2039	52	266311	-53	0																77												
WM080112	208226_fnca	2	1	1	-1596688482	1	75.032	75.031	2.0.10.147	2.0.10.242	2.0.10.242	1.0.0.439	7	234	2	3	Verdana	1	80	0	0	0	WM Stimuli\	1	1007.5	1	831.5	1	872.5	1	773.9	1	1067.4	1	822	1	942.9	1	829.7	13	320329	2	320317	27	40	320356	-999999	320332	0	39	TrialsPROC	FC_023_M12.png	2	2	78	SessionSelectionList														lure	3	Face	0-Back	68	80	67	0	0	100	2	39	268870	1	14	72	266831	-1	267485	1	654	3	3	2039	53	268884	-54	0																78												
WM080112	208226_fnca	2	1	1	-1596688482	1	75.032	75.031	2.0.10.147	2.0.10.242	2.0.10.242	1.0.0.439	7	234	2	3	Verdana	1	80	0	0	0	WM Stimuli\	1	1007.5	1	831.5	1	872.5	1	773.9	1	1067.4	1	822	1	942.9	1	829.7	13	320329	2	320317	27	40	320356	-999999	320332	0	39	TrialsPROC	FC_021_M11.png	2	2	79	SessionSelectionList														nonlure	3	Face	0-Back	69	80	68	0	0	100	3	39	271456	1	13	86	269417	-1	270239	1	822	3	3	2039	52	271469	-53	0																79												
WM080112	208226_fnca	2	1	1	-1596688482	1	75.032	75.031	2.0.10.147	2.0.10.242	2.0.10.242	1.0.0.439	7	234	2	3	Verdana	1	80	0	0	0	WM Stimuli\	1	1007.5	1	831.5	1	872.5	1	773.9	1	1067.4	1	822	1	942.9	1	829.7	13	320329	2	320317	27	40	320356	-999999	320332	0	39	TrialsPROC	FC_021_M11.png	2	2	80	SessionSelectionList														lure	3	Face	0-Back	70	80	69	0	0	100	4	39	274028	1	14	72	271989	-1	272697	1	708	3	3	2039	53	274042	-54	0																80												
WM080112	208226_fnca	2	1	1	-1596688482	1	75.032	75.031	2.0.10.147	2.0.10.242	2.0.10.242	1.0.0.439	7	234	2	3	Verdana	1	80	0	0	0	WM Stimuli\	1	1007.5	1	831.5	1	872.5	1	773.9	1	1067.4	1	822	1	942.9	1	829.7	13	320329	2	320317	27	40	320356	-999999	320332	0	39	TrialsPROC	FC_019_M10.png	2	2	81	SessionSelectionList														nonlure	3	Face	0-Back	71	80	70	0	0	100	5	40	276614	1	13	85	274574	-1	275290	1	716	3	3	2040	53	276627	-54	0																81												
WM080112	208226_fnca	2	1	1	-1596688482	1	75.032	75.031	2.0.10.147	2.0.10.242	2.0.10.242	1.0.0.439	7	234	2	3	Verdana	1	80	0	0	0	WM Stimuli\	1	1007.5	1	831.5	1	872.5	1	773.9	1	1067.4	1	822	1	942.9	1	829.7	13	320329	2	320317	27	40	320356	-999999	320332	0	40	Cue0BackPROC	PL_021_SCENE_07.png	2	2	82	SessionSelectionList																																										19	277093	-20	0												82												
WM080112	208226_fnca	2	1	1	-1596688482	1	75.032	75.031	2.0.10.147	2.0.10.242	2.0.10.242	1.0.0.439	7	234	2	3	Verdana	1	80	0	0	0	WM Stimuli\	1	1007.5	1	831.5	1	872.5	1	773.9	1	1067.4	1	822	1	942.9	1	829.7	13	320329	2	320317	27	40	320356	-999999	320332	0	41	TrialsPROC	PL_025_SCENE_18.png	2	2	83	SessionSelectionList														nonlure	3	Place	0-Back	72	80	71	0	0	100	6	39	281691	2	14	78	279652	-1	280521	1	869	3	3	2039	53	281705	-54	0																83												
WM080112	208226_fnca	2	1	1	-1596688482	1	75.032	75.031	2.0.10.147	2.0.10.242	2.0.10.242	1.0.0.439	7	234	2	3	Verdana	1	80	0	0	0	WM Stimuli\	1	1007.5	1	831.5	1	872.5	1	773.9	1	1067.4	1	822	1	942.9	1	829.7	13	320329	2	320317	27	40	320356	-999999	320332	0	41	TrialsPROC	PL_026_SCENE_24.png	2	2	84	SessionSelectionList														nonlure	3	Place	0-Back	73	80	72	0	0	100	7	39	284277	1	14	86	282238	-1	282917	1	679	3	3	2039	53	284291	-54	0																84												
WM080112	208226_fnca	2	1	1	-1596688482	1	75.032	75.031	2.0.10.147	2.0.10.242	2.0.10.242	1.0.0.439	7	234	2	3	Verdana	1	80	0	0	0	WM Stimuli\	1	1007.5	1	831.5	1	872.5	1	773.9	1	1067.4	1	822	1	942.9	1	829.7	13	320329	2	320317	27	40	320356	-999999	320332	0	41	TrialsPROC	PL_025_SCENE_18.png	2	2	85	SessionSelectionList														lure	3	Place	0-Back	74	80	73	0	0	100	8	39	286849	2	14	72	284810	-1	285763	1	953	3	3	2039	53	286863	-54	0																85												
WM080112	208226_fnca	2	1	1	-1596688482	1	75.032	75.031	2.0.10.147	2.0.10.242	2.0.10.242	1.0.0.439	7	234	2	3	Verdana	1	80	0	0	0	WM Stimuli\	1	1007.5	1	831.5	1	872.5	1	773.9	1	1067.4	1	822	1	942.9	1	829.7	13	320329	2	320317	27	40	320356	-999999	320332	0	41	TrialsPROC	PL_022_SCENE_08.png	2	2	86	SessionSelectionList														nonlure	3	Place	0-Back	75	80	74	0	0	100	9	40	289422	1	13	72	287382	-1	288326	1	944	3	3	2040	53	289435	-54	0																86												
WM080112	208226_fnca	2	1	1	-1596688482	1	75.032	75.031	2.0.10.147	2.0.10.242	2.0.10.242	1.0.0.439	7	234	2	3	Verdana	1	80	0	0	0	WM Stimuli\	1	1007.5	1	831.5	1	872.5	1	773.9	1	1067.4	1	822	1	942.9	1	829.7	13	320329	2	320317	27	40	320356	-999999	320332	0	41	TrialsPROC	PL_026_SCENE_24.png	2	2	87	SessionSelectionList														lure	3	Place	0-Back	76	80	75	0	0	100	10	39	291994	1	13	73	289955	-1	290552	1	597	3	3	2039	52	292007	-53	0																87												
WM080112	208226_fnca	2	1	1	-1596688482	1	75.032	75.031	2.0.10.147	2.0.10.242	2.0.10.242	1.0.0.439	7	234	2	3	Verdana	1	80	0	0	0	WM Stimuli\	1	1007.5	1	831.5	1	872.5	1	773.9	1	1067.4	1	822	1	942.9	1	829.7	13	320329	2	320317	27	40	320356	-999999	320332	0	41	TrialsPROC	PL_021_SCENE_07.png	2	2	88	SessionSelectionList														target	2	Place	0-Back	77	80	76	0	0	100	1	39	294566	2	14	72	292527	-1	293337	1	810	2	2	2039	53	294580	-54	0																88												
WM080112	208226_fnca	2	1	1	-1596688482	1	75.032	75.031	2.0.10.147	2.0.10.242	2.0.10.242	1.0.0.439	7	234	2	3	Verdana	1	80	0	0	0	WM Stimuli\	1	1007.5	1	831.5	1	872.5	1	773.9	1	1067.4	1	822	1	942.9	1	829.7	13	320329	2	320317	27	40	320356	-999999	320332	0	41	TrialsPROC	PL_021_SCENE_07.png	2	2	89	SessionSelectionList														target	2	Place	0-Back	78	80	77	0	0	100	2	39	297138	2	14	72	295099	-1	295831	1	732	2	2	2039	53	297152	-54	0																89												
WM080112	208226_fnca	2	1	1	-1596688482	1	75.032	75.031	2.0.10.147	2.0.10.242	2.0.10.242	1.0.0.439	7	234	2	3	Verdana	1	80	0	0	0	WM Stimuli\	1	1007.5	1	831.5	1	872.5	1	773.9	1	1067.4	1	822	1	942.9	1	829.7	13	320329	2	320317	27	40	320356	-999999	320332	0	41	TrialsPROC	PL_023_SCENE_09.png	2	2	90	SessionSelectionList														nonlure	3	Place	0-Back	79	80	78	0	0	100	1	40	299711	1	13	72	297671	-1	298467	1	796	3	3	2040	53	299724	-54	0																90												
WM080112	208226_fnca	2	1	1	-1596688482	1	75.032	75.031	2.0.10.147	2.0.10.242	2.0.10.242	1.0.0.439	7	234	2	3	Verdana	1	80	0	0	0	WM Stimuli\	1	1007.5	1	831.5	1	872.5	1	773.9	1	1067.4	1	822	1	942.9	1	829.7	13	320329	2	320317	27	40	320356	-999999	320332	0	41	TrialsPROC	PL_024_SCENE_10.png	2	2	91	SessionSelectionList														nonlure	3	Place	0-Back	80	80	79	0	0	100	2	39	302283	1	14	73	300244	-1	300963	1	719	3	3	2039	53	302297	-54	0																91												
WM080112	208226_fnca	2	1	1	-1596688482	1	75.032	75.031	2.0.10.147	2.0.10.242	2.0.10.242	1.0.0.439	7	234	2	3	Verdana	1	80	0	0	0	WM Stimuli\	1	1007.5	1	831.5	1	872.5	1	773.9	1	1067.4	1	822	1	942.9	1	829.7	13	320329	2	320317	27	40	320356	-999999	320332	0	41	TrialsPROC	PL_022_SCENE_08.png	2	2	92	SessionSelectionList														lure	3	Place	0-Back	80	80	80	0	0	100	3	39	304855	2	14	72	302816	-1	303937	1	1121	3	3	2039	53	304869	-54	0																92												
WM080112	208226_fnca	2	1	1	-1596688482	1	75.032	75.031	2.0.10.147	2.0.10.242	2.0.10.242	1.0.0.439	7	234	2	3	Verdana	1	80	0	0	0	WM Stimuli\	1	1007.5	1	831.5	1	872.5	1	773.9	1	1067.4	1	822	1	942.9	1	829.7	13	320329	2	320317	27	40	320356	-999999	320332	0	42	Fix15secPROC	""	2	2	93	SessionSelectionList																																															6	305322	-7	0							93												
