ExperimentName	HCPID	RunNumber	Subject	Session	RandomSeed	Group	Laptop.RefreshRate	ScannerD2.RefreshRate	StudioVersion	RuntimeVersion	RuntimeVersionExpected	ExperimentVersion	triggercode	Allowed	Target	Nontarget	FontStyle	RunTrialNumber[Session]	TrialsPerRun[Session]	TotalRespGreater200[Session]	ConsecRTLess200[Session]	ConsecNonResp[Session]	StimuliDir	ACC_2_Back_Body	Avg_RT_For_Correct_Trials_2_Back_Body	ACC_0_Back_Body	Avg_RT_For_Correct_Trials_0_Back_Body	ACC_2_Back_Face	Avg_RT_For_Correct_Trials_2_Back_Face	ACC_0_Back_Face	Avg_RT_For_Correct_Trials_0_Back_Face	ACC_2_Back_Place	Avg_RT_For_Correct_Trials_2_Back_Place	ACC_0_Back_Place	Avg_RT_For_Correct_Trials_0_Back_Place	ACC_2_Back_Tools	Avg_RT_For_Correct_Trials_2_Back_Tools	ACC_0_Back_Tools	Avg_RT_For_Correct_Trials_0_Back_Tools	ExpInstrucFeelFreeToRest.OnsetDelay	ExpInstrucFeelFreeToRest.OnsetTime	ExpInstrucFeelFreeToRest.DurationError	ExpInstrucFeelFreeToRest.StartTime	ExpInstrucFeelFreeToRest.OnsetToOnsetTime	FeelFreeToRest.OnsetDelay	FeelFreeToRest.OnsetTime	FeelFreeToRest.DurationError	FeelFreeToRest.StartTime	FeelFreeToRest.OnsetToOnsetTime	SessionSelectionList	Procedure[Block]	Stimulus[Block]	RunNumberFilterValue	SessionSelectionList.Cycle	SessionSelectionList.Sample	Running[Block]	IntroButtonMap.OnsetDelay	IntroButtonMap.OnsetTime	IntroButtonMap.DurationError	IntroButtonMap.OnsetToOnsetTime	GetReady.OnsetDelay	GetReady.OnsetTime	GetReady.DurationError	GetReady.OnsetToOnsetTime	Cue2Back.OnsetDelay	Cue2Back.OnsetTime	Cue2Back.DurationError	Cue2Back.OnsetToOnsetTime	Run1Block1	TargetType	CorrectResponse	StimType	BlockType	RunTrialNumber[Block]	TrialsPerRun[Block]	TotalRespGreater200[Block]	ConsecRTLess200[Block]	ConsecNonResp[Block]	ControlAcc	ConsecSameResp	ExperimenterWindow.OnsetDelay	ExperimenterWindow.OnsetTime	ExperimenterWindow.DurationError	ExperimenterWindow.OnsetToOnsetTime	Stim.OnsetDelay	Stim.OnsetTime	Stim.DurationError	Stim.RTTime	Stim.ACC	Stim.RT	Stim.RESP	Stim.CRESP	Stim.OnsetToOnsetTime	Fix.OnsetDelay	Fix.OnsetTime	Fix.DurationError	Fix.OnsetToOnsetTime	CueTarget.OnsetDelay	CueTarget.OnsetTime	CueTarget.DurationError	CueTarget.OnsetToOnsetTime	Run1Block2	Fix15sec.OnsetDelay	Fix15sec.OnsetTime	Fix15sec.DurationError	Fix15sec.OnsetToOnsetTime	Run1Block3	Run1Block4	Run1Block5	Run1Block6	Run1Block7	Run1Block8	Block	Procedure[Trial]	Stimulus[Trial]	ReadyList	Running[Trial]	ReadyList.Cycle	ReadyList.Sample	SyncSlide.OnsetDelay	SyncSlide.OnsetTime	SyncSlide.DurationError	SyncSlide.FinishTime	SyncSlide.OnsetToOnsetTime	Trial
WM080112	212318_fncb	1	1	1	1826178919	1	75.031	75.031	2.0.10.147	2.0.10.242	2.0.10.242	1.0.0.439	7	234	2	3	Verdana	1	80	0	0	0	WM Stimuli\	0.8	1059.625	0.9	910.777777777778	0.9	781.777777777778	1	835.2	0.7	825.571428571429	0.8	728.5	0.9	761.222222222222	0.5	632.6	13	369372	2	369360	26	39	369398	-999999	369375	0	1	TRSyncPROC	""	1	2	1	SessionSelectionList	97	22915	-999999	0	28	61352	-999999	0																																																	1	InitialTR	4	1	ReadyList	1	1	20	76106	-21	78085	0	1
WM080112	212318_fncb	1	1	1	1826178919	1	75.031	75.031	2.0.10.147	2.0.10.242	2.0.10.242	1.0.0.439	7	234	2	3	Verdana	1	80	0	0	0	WM Stimuli\	0.8	1059.625	0.9	910.777777777778	0.9	781.777777777778	1	835.2	0.7	825.571428571429	0.8	728.5	0.9	761.222222222222	0.5	632.6	13	369372	2	369360	26	39	369398	-999999	369375	0	1	TRSyncPROC	""	1	2	1	SessionSelectionList	97	22915	-999999	0	28	61352	-999999	0																																																	1	InitialTR	3	2	ReadyList	1	2	19	78105	-20	80085	0	2
WM080112	212318_fncb	1	1	1	1826178919	1	75.031	75.031	2.0.10.147	2.0.10.242	2.0.10.242	1.0.0.439	7	234	2	3	Verdana	1	80	0	0	0	WM Stimuli\	0.8	1059.625	0.9	910.777777777778	0.9	781.777777777778	1	835.2	0.7	825.571428571429	0.8	728.5	0.9	761.222222222222	0.5	632.6	13	369372	2	369360	26	39	369398	-999999	369375	0	1	TRSyncPROC	""	1	2	1	SessionSelectionList	97	22915	-999999	0	28	61352	-999999	0																																																	1	InitialTR	2	3	ReadyList	1	3	5	80091	-6	82085	0	3
WM080112	212318_fncb	1	1	1	1826178919	1	75.031	75.031	2.0.10.147	2.0.10.242	2.0.10.242	1.0.0.439	7	234	2	3	Verdana	1	80	0	0	0	WM Stimuli\	0.8	1059.625	0.9	910.777777777778	0.9	781.777777777778	1	835.2	0.7	825.571428571429	0.8	728.5	0.9	761.222222222222	0.5	632.6	13	369372	2	369360	26	39	369398	-999999	369375	0	1	TRSyncPROC	""	1	2	1	SessionSelectionList	97	22915	-999999	0	28	61352	-999999	0																																																	1	InitialTR	1	4	ReadyList	1	4	4	82090	-5	84085	0	4
WM080112	212318_fncb	1	1	1	1826178919	1	75.031	75.031	2.0.10.147	2.0.10.242	2.0.10.242	1.0.0.439	7	234	2	3	Verdana	1	80	0	0	0	WM Stimuli\	0.8	1059.625	0.9	910.777777777778	0.9	781.777777777778	1	835.2	0.7	825.571428571429	0.8	728.5	0.9	761.222222222222	0.5	632.6	13	369372	2	369360	26	39	369398	-999999	369375	0	2	Cue2BackPROC	""	1	2	2	SessionSelectionList									17	84103	-18	0																																													2												
WM080112	212318_fncb	1	1	1	1826178919	1	75.031	75.031	2.0.10.147	2.0.10.242	2.0.10.242	1.0.0.439	7	234	2	3	Verdana	1	80	0	0	0	WM Stimuli\	0.8	1059.625	0.9	910.777777777778	0.9	781.777777777778	1	835.2	0.7	825.571428571429	0.8	728.5	0.9	761.222222222222	0.5	632.6	13	369372	2	369360	26	39	369398	-999999	369375	0	3	TrialsPROC	BP_002_BP10_BA.png	1	2	3	SessionSelectionList													1	nonlure	3	Body	2-Back	2	80	1	0	0	0	1	52	88714	3	14	76	86662	-1	87416	1	754	3	3	2052	66	88728	-67	0																3												
WM080112	212318_fncb	1	1	1	1826178919	1	75.031	75.031	2.0.10.147	2.0.10.242	2.0.10.242	1.0.0.439	7	234	2	3	Verdana	1	80	0	0	0	WM Stimuli\	0.8	1059.625	0.9	910.777777777778	0.9	781.777777777778	1	835.2	0.7	825.571428571429	0.8	728.5	0.9	761.222222222222	0.5	632.6	13	369372	2	369360	26	39	369398	-999999	369375	0	3	TrialsPROC	BP_001_BP1_BA.png	1	2	4	SessionSelectionList													2	nonlure	3	Body	2-Back	3	80	2	0	0	0	2	39	91260	2	13	59	89221	-1	90021	1	800	3	3	2039	52	91273	-53	0																4												
WM080112	212318_fncb	1	1	1	1826178919	1	75.031	75.031	2.0.10.147	2.0.10.242	2.0.10.242	1.0.0.439	7	234	2	3	Verdana	1	80	0	0	0	WM Stimuli\	0.8	1059.625	0.9	910.777777777778	0.9	781.777777777778	1	835.2	0.7	825.571428571429	0.8	728.5	0.9	761.222222222222	0.5	632.6	13	369372	2	369360	26	39	369398	-999999	369375	0	3	TrialsPROC	BP_006_BP2_BA.png	1	2	5	SessionSelectionList													3	nonlure	3	Body	2-Back	4	80	3	0	0	0	1	39	93819	1	13	59	91780	-1	92755	0	975	2	3	2039	52	93832	-53	0																5												
WM080112	212318_fncb	1	1	1	1826178919	1	75.031	75.031	2.0.10.147	2.0.10.242	2.0.10.242	1.0.0.439	7	234	2	3	Verdana	1	80	0	0	0	WM Stimuli\	0.8	1059.625	0.9	910.777777777778	0.9	781.777777777778	1	835.2	0.7	825.571428571429	0.8	728.5	0.9	761.222222222222	0.5	632.6	13	369372	2	369360	26	39	369398	-999999	369375	0	3	TrialsPROC	BP_001_BP1_BA.png	1	2	6	SessionSelectionList													4	target	2	Body	2-Back	5	80	4	0	0	0	1	39	96391	1	14	72	94352	-1	94843	0	491	3	2	2039	53	96405	-54	0																6												
WM080112	212318_fncb	1	1	1	1826178919	1	75.031	75.031	2.0.10.147	2.0.10.242	2.0.10.242	1.0.0.439	7	234	2	3	Verdana	1	80	0	0	0	WM Stimuli\	0.8	1059.625	0.9	910.777777777778	0.9	781.777777777778	1	835.2	0.7	825.571428571429	0.8	728.5	0.9	761.222222222222	0.5	632.6	13	369372	2	369360	26	39	369398	-999999	369375	0	3	TrialsPROC	BP_005_BP19_BA.png	1	2	7	SessionSelectionList													5	nonlure	3	Body	2-Back	6	80	5	0	0	0	2	39	98963	2	14	72	96924	-1	98254	1	1330	3	3	2039	53	98977	-54	0																7												
WM080112	212318_fncb	1	1	1	1826178919	1	75.031	75.031	2.0.10.147	2.0.10.242	2.0.10.242	1.0.0.439	7	234	2	3	Verdana	1	80	0	0	0	WM Stimuli\	0.8	1059.625	0.9	910.777777777778	0.9	781.777777777778	1	835.2	0.7	825.571428571429	0.8	728.5	0.9	761.222222222222	0.5	632.6	13	369372	2	369360	26	39	369398	-999999	369375	0	3	TrialsPROC	BP_003_BP16_BA.png	1	2	8	SessionSelectionList													6	nonlure	3	Body	2-Back	7	80	6	0	0	0	3	39	101522	2	14	59	99483	-1	100568	1	1085	3	3	2039	53	101536	-54	0																8												
WM080112	212318_fncb	1	1	1	1826178919	1	75.031	75.031	2.0.10.147	2.0.10.242	2.0.10.242	1.0.0.439	7	234	2	3	Verdana	1	80	0	0	0	WM Stimuli\	0.8	1059.625	0.9	910.777777777778	0.9	781.777777777778	1	835.2	0.7	825.571428571429	0.8	728.5	0.9	761.222222222222	0.5	632.6	13	369372	2	369360	26	39	369398	-999999	369375	0	3	TrialsPROC	BP_006_BP2_BA.png	1	2	9	SessionSelectionList													7	lure	3	Body	2-Back	8	80	7	0	0	0	4	39	104081	2	14	59	102042	-1	103134	1	1092	3	3	2039	53	104095	-54	0																9												
WM080112	212318_fncb	1	1	1	1826178919	1	75.031	75.031	2.0.10.147	2.0.10.242	2.0.10.242	1.0.0.439	7	234	2	3	Verdana	1	80	0	0	0	WM Stimuli\	0.8	1059.625	0.9	910.777777777778	0.9	781.777777777778	1	835.2	0.7	825.571428571429	0.8	728.5	0.9	761.222222222222	0.5	632.6	13	369372	2	369360	26	39	369398	-999999	369375	0	3	TrialsPROC	BP_004_BP18_BA.png	1	2	10	SessionSelectionList													8	nonlure	3	Body	2-Back	9	80	8	0	0	0	5	39	106640	1	14	59	104601	-1	105816	1	1215	3	3	2039	53	106654	-54	0																10												
WM080112	212318_fncb	1	1	1	1826178919	1	75.031	75.031	2.0.10.147	2.0.10.242	2.0.10.242	1.0.0.439	7	234	2	3	Verdana	1	80	0	0	0	WM Stimuli\	0.8	1059.625	0.9	910.777777777778	0.9	781.777777777778	1	835.2	0.7	825.571428571429	0.8	728.5	0.9	761.222222222222	0.5	632.6	13	369372	2	369360	26	39	369398	-999999	369375	0	3	TrialsPROC	BP_005_BP19_BA.png	1	2	11	SessionSelectionList													9	lure	3	Body	2-Back	10	80	9	0	0	0	6	39	109199	1	14	59	107160	-1	108260	1	1100	3	3	2039	53	109213	-54	0																11												
WM080112	212318_fncb	1	1	1	1826178919	1	75.031	75.031	2.0.10.147	2.0.10.242	2.0.10.242	1.0.0.439	7	234	2	3	Verdana	1	80	0	0	0	WM Stimuli\	0.8	1059.625	0.9	910.777777777778	0.9	781.777777777778	1	835.2	0.7	825.571428571429	0.8	728.5	0.9	761.222222222222	0.5	632.6	13	369372	2	369360	26	39	369398	-999999	369375	0	3	TrialsPROC	BP_004_BP18_BA.png	1	2	12	SessionSelectionList													10	target	2	Body	2-Back	11	80	10	0	0	0	1	39	111758	1	14	59	109719	-1	110820	1	1101	2	2	2039	53	111772	-54	0																12												
WM080112	212318_fncb	1	1	1	1826178919	1	75.031	75.031	2.0.10.147	2.0.10.242	2.0.10.242	1.0.0.439	7	234	2	3	Verdana	1	80	0	0	0	WM Stimuli\	0.8	1059.625	0.9	910.777777777778	0.9	781.777777777778	1	835.2	0.7	825.571428571429	0.8	728.5	0.9	761.222222222222	0.5	632.6	13	369372	2	369360	26	39	369398	-999999	369375	0	4	Cue0BackPROC	FC_001_M1.png	1	2	13	SessionSelectionList																																										19	112238	-20	0												13												
WM080112	212318_fncb	1	1	1	1826178919	1	75.031	75.031	2.0.10.147	2.0.10.242	2.0.10.242	1.0.0.439	7	234	2	3	Verdana	1	80	0	0	0	WM Stimuli\	0.8	1059.625	0.9	910.777777777778	0.9	781.777777777778	1	835.2	0.7	825.571428571429	0.8	728.5	0.9	761.222222222222	0.5	632.6	13	369372	2	369360	26	39	369398	-999999	369375	0	5	TrialsPROC	FC_005_M3.png	1	2	14	SessionSelectionList														nonlure	3	Face	0-Back	12	80	11	0	0	100	1	40	116823	1	13	64	114783	-1	115804	1	1021	3	3	2040	53	116836	-54	0					1											14												
WM080112	212318_fncb	1	1	1	1826178919	1	75.031	75.031	2.0.10.147	2.0.10.242	2.0.10.242	1.0.0.439	7	234	2	3	Verdana	1	80	0	0	0	WM Stimuli\	0.8	1059.625	0.9	910.777777777778	0.9	781.777777777778	1	835.2	0.7	825.571428571429	0.8	728.5	0.9	761.222222222222	0.5	632.6	13	369372	2	369360	26	39	369398	-999999	369375	0	5	TrialsPROC	FC_001_M1.png	1	2	15	SessionSelectionList														target	2	Face	0-Back	13	80	12	0	0	100	1	39	119395	1	13	73	117356	-1	118179	1	823	2	2	2039	52	119408	-53	0					2											15												
WM080112	212318_fncb	1	1	1	1826178919	1	75.031	75.031	2.0.10.147	2.0.10.242	2.0.10.242	1.0.0.439	7	234	2	3	Verdana	1	80	0	0	0	WM Stimuli\	0.8	1059.625	0.9	910.777777777778	0.9	781.777777777778	1	835.2	0.7	825.571428571429	0.8	728.5	0.9	761.222222222222	0.5	632.6	13	369372	2	369360	26	39	369398	-999999	369375	0	5	TrialsPROC	FC_003_M2.png	1	2	16	SessionSelectionList														nonlure	3	Face	0-Back	14	80	13	0	0	100	1	39	121967	2	14	72	119928	-1	120600	1	672	3	3	2039	53	121981	-54	0					3											16												
WM080112	212318_fncb	1	1	1	1826178919	1	75.031	75.031	2.0.10.147	2.0.10.242	2.0.10.242	1.0.0.439	7	234	2	3	Verdana	1	80	0	0	0	WM Stimuli\	0.8	1059.625	0.9	910.777777777778	0.9	781.777777777778	1	835.2	0.7	825.571428571429	0.8	728.5	0.9	761.222222222222	0.5	632.6	13	369372	2	369360	26	39	369398	-999999	369375	0	5	TrialsPROC	FC_004_F2.png	1	2	17	SessionSelectionList														nonlure	3	Face	0-Back	15	80	14	0	0	100	2	39	124539	2	14	72	122500	-1	123182	1	682	3	3	2039	53	124553	-54	0					4											17												
WM080112	212318_fncb	1	1	1	1826178919	1	75.031	75.031	2.0.10.147	2.0.10.242	2.0.10.242	1.0.0.439	7	234	2	3	Verdana	1	80	0	0	0	WM Stimuli\	0.8	1059.625	0.9	910.777777777778	0.9	781.777777777778	1	835.2	0.7	825.571428571429	0.8	728.5	0.9	761.222222222222	0.5	632.6	13	369372	2	369360	26	39	369398	-999999	369375	0	5	TrialsPROC	FC_004_F2.png	1	2	18	SessionSelectionList														lure	3	Face	0-Back	16	80	15	0	0	100	3	40	127112	1	13	72	125072	-1	125968	1	896	3	3	2040	53	127125	-54	0					5											18												
WM080112	212318_fncb	1	1	1	1826178919	1	75.031	75.031	2.0.10.147	2.0.10.242	2.0.10.242	1.0.0.439	7	234	2	3	Verdana	1	80	0	0	0	WM Stimuli\	0.8	1059.625	0.9	910.777777777778	0.9	781.777777777778	1	835.2	0.7	825.571428571429	0.8	728.5	0.9	761.222222222222	0.5	632.6	13	369372	2	369360	26	39	369398	-999999	369375	0	5	TrialsPROC	FC_001_M1.png	1	2	19	SessionSelectionList														target	2	Face	0-Back	17	80	16	0	0	100	1	39	129684	1	14	73	127645	-1	128472	1	827	2	2	2039	53	129698	-54	0					6											19												
WM080112	212318_fncb	1	1	1	1826178919	1	75.031	75.031	2.0.10.147	2.0.10.242	2.0.10.242	1.0.0.439	7	234	2	3	Verdana	1	80	0	0	0	WM Stimuli\	0.8	1059.625	0.9	910.777777777778	0.9	781.777777777778	1	835.2	0.7	825.571428571429	0.8	728.5	0.9	761.222222222222	0.5	632.6	13	369372	2	369360	26	39	369398	-999999	369375	0	5	TrialsPROC	FC_006_F3.png	1	2	20	SessionSelectionList														nonlure	3	Face	0-Back	18	80	17	0	0	100	1	39	132256	2	14	72	130217	-1	130978	1	761	3	3	2039	53	132270	-54	0					7											20												
WM080112	212318_fncb	1	1	1	1826178919	1	75.031	75.031	2.0.10.147	2.0.10.242	2.0.10.242	1.0.0.439	7	234	2	3	Verdana	1	80	0	0	0	WM Stimuli\	0.8	1059.625	0.9	910.777777777778	0.9	781.777777777778	1	835.2	0.7	825.571428571429	0.8	728.5	0.9	761.222222222222	0.5	632.6	13	369372	2	369360	26	39	369398	-999999	369375	0	5	TrialsPROC	FC_006_F3.png	1	2	21	SessionSelectionList														lure	3	Face	0-Back	19	80	18	0	0	100	2	39	134828	2	14	72	132789	-1	133646	1	857	3	3	2039	53	134842	-54	0					8											21												
WM080112	212318_fncb	1	1	1	1826178919	1	75.031	75.031	2.0.10.147	2.0.10.242	2.0.10.242	1.0.0.439	7	234	2	3	Verdana	1	80	0	0	0	WM Stimuli\	0.8	1059.625	0.9	910.777777777778	0.9	781.777777777778	1	835.2	0.7	825.571428571429	0.8	728.5	0.9	761.222222222222	0.5	632.6	13	369372	2	369360	26	39	369398	-999999	369375	0	5	TrialsPROC	FC_003_M2.png	1	2	22	SessionSelectionList														lure	3	Face	0-Back	20	80	19	0	0	100	3	39	137401	1	13	73	135362	-1	136263	1	901	3	3	2039	52	137414	-53	0					9											22												
WM080112	212318_fncb	1	1	1	1826178919	1	75.031	75.031	2.0.10.147	2.0.10.242	2.0.10.242	1.0.0.439	7	234	2	3	Verdana	1	80	0	0	0	WM Stimuli\	0.8	1059.625	0.9	910.777777777778	0.9	781.777777777778	1	835.2	0.7	825.571428571429	0.8	728.5	0.9	761.222222222222	0.5	632.6	13	369372	2	369360	26	39	369398	-999999	369375	0	5	TrialsPROC	FC_002_F1.png	1	2	23	SessionSelectionList														nonlure	3	Face	0-Back	21	80	20	0	0	100	4	39	139973	1	14	72	137934	-1	138846	1	912	3	3	2039	53	139987	-54	0					10											23												
WM080112	212318_fncb	1	1	1	1826178919	1	75.031	75.031	2.0.10.147	2.0.10.242	2.0.10.242	1.0.0.439	7	234	2	3	Verdana	1	80	0	0	0	WM Stimuli\	0.8	1059.625	0.9	910.777777777778	0.9	781.777777777778	1	835.2	0.7	825.571428571429	0.8	728.5	0.9	761.222222222222	0.5	632.6	13	369372	2	369360	26	39	369398	-999999	369375	0	6	Fix15secPROC	""	1	2	24	SessionSelectionList																																															6	140440	-7	0							24												
WM080112	212318_fncb	1	1	1	1826178919	1	75.031	75.031	2.0.10.147	2.0.10.242	2.0.10.242	1.0.0.439	7	234	2	3	Verdana	1	80	0	0	0	WM Stimuli\	0.8	1059.625	0.9	910.777777777778	0.9	781.777777777778	1	835.2	0.7	825.571428571429	0.8	728.5	0.9	761.222222222222	0.5	632.6	13	369372	2	369360	26	39	369398	-999999	369375	0	7	Cue2BackPROC	""	1	2	25	SessionSelectionList									13	155447	-14	0																																													25												
WM080112	212318_fncb	1	1	1	1826178919	1	75.031	75.031	2.0.10.147	2.0.10.242	2.0.10.242	1.0.0.439	7	234	2	3	Verdana	1	80	0	0	0	WM Stimuli\	0.8	1059.625	0.9	910.777777777778	0.9	781.777777777778	1	835.2	0.7	825.571428571429	0.8	728.5	0.9	761.222222222222	0.5	632.6	13	369372	2	369360	26	39	369398	-999999	369375	0	8	TrialsPROC	TO_001_TOOL1_BA.png	1	2	26	SessionSelectionList														nonlure	3	Tools	2-Back	22	80	21	0	0	100	5	39	160031	3	14	58	157992	-1	158902	1	910	3	3	2039	53	160045	-54	0										1						26												
WM080112	212318_fncb	1	1	1	1826178919	1	75.031	75.031	2.0.10.147	2.0.10.242	2.0.10.242	1.0.0.439	7	234	2	3	Verdana	1	80	0	0	0	WM Stimuli\	0.8	1059.625	0.9	910.777777777778	0.9	781.777777777778	1	835.2	0.7	825.571428571429	0.8	728.5	0.9	761.222222222222	0.5	632.6	13	369372	2	369360	26	39	369398	-999999	369375	0	8	TrialsPROC	TO_002_TOOL2_BA.png	1	2	27	SessionSelectionList														nonlure	3	Tools	2-Back	23	80	22	0	0	100	6	39	162590	2	14	59	160551	-1	161360	1	809	3	3	2039	53	162604	-54	0										2						27												
WM080112	212318_fncb	1	1	1	1826178919	1	75.031	75.031	2.0.10.147	2.0.10.242	2.0.10.242	1.0.0.439	7	234	2	3	Verdana	1	80	0	0	0	WM Stimuli\	0.8	1059.625	0.9	910.777777777778	0.9	781.777777777778	1	835.2	0.7	825.571428571429	0.8	728.5	0.9	761.222222222222	0.5	632.6	13	369372	2	369360	26	39	369398	-999999	369375	0	8	TrialsPROC	TO_004_TOOL4_BA.png	1	2	28	SessionSelectionList														nonlure	3	Tools	2-Back	24	80	23	0	0	100	7	39	165149	2	14	59	163110	-1	163934	1	824	3	3	2039	53	165163	-54	0										3						28												
WM080112	212318_fncb	1	1	1	1826178919	1	75.031	75.031	2.0.10.147	2.0.10.242	2.0.10.242	1.0.0.439	7	234	2	3	Verdana	1	80	0	0	0	WM Stimuli\	0.8	1059.625	0.9	910.777777777778	0.9	781.777777777778	1	835.2	0.7	825.571428571429	0.8	728.5	0.9	761.222222222222	0.5	632.6	13	369372	2	369360	26	39	369398	-999999	369375	0	8	TrialsPROC	TO_002_TOOL2_BA.png	1	2	29	SessionSelectionList														target	2	Tools	2-Back	25	80	24	0	0	100	1	39	167708	2	14	59	165669	-1	166460	1	791	2	2	2039	53	167722	-54	0										4						29												
WM080112	212318_fncb	1	1	1	1826178919	1	75.031	75.031	2.0.10.147	2.0.10.242	2.0.10.242	1.0.0.439	7	234	2	3	Verdana	1	80	0	0	0	WM Stimuli\	0.8	1059.625	0.9	910.777777777778	0.9	781.777777777778	1	835.2	0.7	825.571428571429	0.8	728.5	0.9	761.222222222222	0.5	632.6	13	369372	2	369360	26	39	369398	-999999	369375	0	8	TrialsPROC	TO_001_TOOL1_BA.png	1	2	30	SessionSelectionList														lure	3	Tools	2-Back	26	80	25	0	0	100	1	39	170267	2	14	59	168228	-1	168969	1	741	3	3	2039	53	170281	-54	0										5						30												
WM080112	212318_fncb	1	1	1	1826178919	1	75.031	75.031	2.0.10.147	2.0.10.242	2.0.10.242	1.0.0.439	7	234	2	3	Verdana	1	80	0	0	0	WM Stimuli\	0.8	1059.625	0.9	910.777777777778	0.9	781.777777777778	1	835.2	0.7	825.571428571429	0.8	728.5	0.9	761.222222222222	0.5	632.6	13	369372	2	369360	26	39	369398	-999999	369375	0	8	TrialsPROC	TO_004_TOOL4_BA.png	1	2	31	SessionSelectionList														lure	3	Tools	2-Back	27	80	26	0	0	100	1	39	172826	2	14	59	170787	-1	172560	0	1773	2	3	2039	53	172840	-54	0										6						31												
WM080112	212318_fncb	1	1	1	1826178919	1	75.031	75.031	2.0.10.147	2.0.10.242	2.0.10.242	1.0.0.439	7	234	2	3	Verdana	1	80	0	0	0	WM Stimuli\	0.8	1059.625	0.9	910.777777777778	0.9	781.777777777778	1	835.2	0.7	825.571428571429	0.8	728.5	0.9	761.222222222222	0.5	632.6	13	369372	2	369360	26	39	369398	-999999	369375	0	8	TrialsPROC	TO_006_TOOL6_BA.png	1	2	32	SessionSelectionList														nonlure	3	Tools	2-Back	28	80	27	0	0	100	1	39	175385	2	14	59	173346	-1	174000	1	654	3	3	2039	53	175399	-54	0										7						32												
WM080112	212318_fncb	1	1	1	1826178919	1	75.031	75.031	2.0.10.147	2.0.10.242	2.0.10.242	1.0.0.439	7	234	2	3	Verdana	1	80	0	0	0	WM Stimuli\	0.8	1059.625	0.9	910.777777777778	0.9	781.777777777778	1	835.2	0.7	825.571428571429	0.8	728.5	0.9	761.222222222222	0.5	632.6	13	369372	2	369360	26	39	369398	-999999	369375	0	8	TrialsPROC	TO_005_TOOL5_BA.png	1	2	33	SessionSelectionList														nonlure	3	Tools	2-Back	29	80	28	0	0	100	2	39	177944	1	14	59	175905	-1	176624	1	719	3	3	2039	53	177958	-54	0										8						33												
WM080112	212318_fncb	1	1	1	1826178919	1	75.031	75.031	2.0.10.147	2.0.10.242	2.0.10.242	1.0.0.439	7	234	2	3	Verdana	1	80	0	0	0	WM Stimuli\	0.8	1059.625	0.9	910.777777777778	0.9	781.777777777778	1	835.2	0.7	825.571428571429	0.8	728.5	0.9	761.222222222222	0.5	632.6	13	369372	2	369360	26	39	369398	-999999	369375	0	8	TrialsPROC	TO_006_TOOL6_BA.png	1	2	34	SessionSelectionList														target	2	Tools	2-Back	30	80	29	0	0	100	1	39	180503	1	14	59	178464	-1	179218	1	754	2	2	2039	53	180517	-54	0										9						34												
WM080112	212318_fncb	1	1	1	1826178919	1	75.031	75.031	2.0.10.147	2.0.10.242	2.0.10.242	1.0.0.439	7	234	2	3	Verdana	1	80	0	0	0	WM Stimuli\	0.8	1059.625	0.9	910.777777777778	0.9	781.777777777778	1	835.2	0.7	825.571428571429	0.8	728.5	0.9	761.222222222222	0.5	632.6	13	369372	2	369360	26	39	369398	-999999	369375	0	8	TrialsPROC	TO_003_TOOL3_BA.png	1	2	35	SessionSelectionList														nonlure	3	Tools	2-Back	31	80	30	0	0	100	1	39	183062	1	13	59	181023	-1	181672	1	649	3	3	2039	52	183075	-53	0										10						35												
WM080112	212318_fncb	1	1	1	1826178919	1	75.031	75.031	2.0.10.147	2.0.10.242	2.0.10.242	1.0.0.439	7	234	2	3	Verdana	1	80	0	0	0	WM Stimuli\	0.8	1059.625	0.9	910.777777777778	0.9	781.777777777778	1	835.2	0.7	825.571428571429	0.8	728.5	0.9	761.222222222222	0.5	632.6	13	369372	2	369360	26	39	369398	-999999	369375	0	9	Cue0BackPROC	BP_007_BP20_BA.png	1	2	36	SessionSelectionList																																										19	183542	-20	0												36												
WM080112	212318_fncb	1	1	1	1826178919	1	75.031	75.031	2.0.10.147	2.0.10.242	2.0.10.242	1.0.0.439	7	234	2	3	Verdana	1	80	0	0	0	WM Stimuli\	0.8	1059.625	0.9	910.777777777778	0.9	781.777777777778	1	835.2	0.7	825.571428571429	0.8	728.5	0.9	761.222222222222	0.5	632.6	13	369372	2	369360	26	39	369398	-999999	369375	0	10	TrialsPROC	BP_007_BP20_BA.png	1	2	37	SessionSelectionList														target	2	Body	0-Back	32	80	31	0	0	100	1	39	188113	1	14	51	186074	-1	187961	1	1887	2	2	2039	53	188127	-54	0											1					37												
WM080112	212318_fncb	1	1	1	1826178919	1	75.031	75.031	2.0.10.147	2.0.10.242	2.0.10.242	1.0.0.439	7	234	2	3	Verdana	1	80	0	0	0	WM Stimuli\	0.8	1059.625	0.9	910.777777777778	0.9	781.777777777778	1	835.2	0.7	825.571428571429	0.8	728.5	0.9	761.222222222222	0.5	632.6	13	369372	2	369360	26	39	369398	-999999	369375	0	10	TrialsPROC	BP_011_BP4_BA.png	1	2	38	SessionSelectionList														nonlure	3	Body	0-Back	33	80	32	0	0	100	1	39	190685	2	14	72	188646	-1	189125	1	479	3	3	2039	53	190699	-54	0											2					38												
WM080112	212318_fncb	1	1	1	1826178919	1	75.031	75.031	2.0.10.147	2.0.10.242	2.0.10.242	1.0.0.439	7	234	2	3	Verdana	1	80	0	0	0	WM Stimuli\	0.8	1059.625	0.9	910.777777777778	0.9	781.777777777778	1	835.2	0.7	825.571428571429	0.8	728.5	0.9	761.222222222222	0.5	632.6	13	369372	2	369360	26	39	369398	-999999	369375	0	10	TrialsPROC	BP_010_BP3_BA.png	1	2	39	SessionSelectionList														nonlure	3	Body	0-Back	34	80	33	0	0	100	2	39	193244	2	14	59	191205	-1	191932	1	727	3	3	2039	53	193258	-54	0											3					39												
WM080112	212318_fncb	1	1	1	1826178919	1	75.031	75.031	2.0.10.147	2.0.10.242	2.0.10.242	1.0.0.439	7	234	2	3	Verdana	1	80	0	0	0	WM Stimuli\	0.8	1059.625	0.9	910.777777777778	0.9	781.777777777778	1	835.2	0.7	825.571428571429	0.8	728.5	0.9	761.222222222222	0.5	632.6	13	369372	2	369360	26	39	369398	-999999	369375	0	10	TrialsPROC	BP_008_BP21_BA.png	1	2	40	SessionSelectionList														nonlure	3	Body	0-Back	35	80	34	0	0	100	3	39	195803	2	14	59	193764	-1	194959	1	1195	3	3	2039	53	195817	-54	0											4					40												
WM080112	212318_fncb	1	1	1	1826178919	1	75.031	75.031	2.0.10.147	2.0.10.242	2.0.10.242	1.0.0.439	7	234	2	3	Verdana	1	80	0	0	0	WM Stimuli\	0.8	1059.625	0.9	910.777777777778	0.9	781.777777777778	1	835.2	0.7	825.571428571429	0.8	728.5	0.9	761.222222222222	0.5	632.6	13	369372	2	369360	26	39	369398	-999999	369375	0	10	TrialsPROC	BP_011_BP4_BA.png	1	2	41	SessionSelectionList														lure	3	Body	0-Back	36	80	35	0	0	100	4	40	198376	1	13	72	196336	-1	197362	1	1026	3	3	2040	53	198389	-54	0											5					41												
WM080112	212318_fncb	1	1	1	1826178919	1	75.031	75.031	2.0.10.147	2.0.10.242	2.0.10.242	1.0.0.439	7	234	2	3	Verdana	1	80	0	0	0	WM Stimuli\	0.8	1059.625	0.9	910.777777777778	0.9	781.777777777778	1	835.2	0.7	825.571428571429	0.8	728.5	0.9	761.222222222222	0.5	632.6	13	369372	2	369360	26	39	369398	-999999	369375	0	10	TrialsPROC	BP_009_BP22_BA.png	1	2	42	SessionSelectionList														nonlure	3	Body	0-Back	37	80	36	0	0	100	5	39	200934	2	14	59	198895	-1	199555	1	660	3	3	2039	53	200948	-54	0											6					42												
WM080112	212318_fncb	1	1	1	1826178919	1	75.031	75.031	2.0.10.147	2.0.10.242	2.0.10.242	1.0.0.439	7	234	2	3	Verdana	1	80	0	0	0	WM Stimuli\	0.8	1059.625	0.9	910.777777777778	0.9	781.777777777778	1	835.2	0.7	825.571428571429	0.8	728.5	0.9	761.222222222222	0.5	632.6	13	369372	2	369360	26	39	369398	-999999	369375	0	10	TrialsPROC	BP_009_BP22_BA.png	1	2	43	SessionSelectionList														lure	3	Body	0-Back	38	80	37	0	0	100	6	39	203493	2	14	59	201454	-1	202019	1	565	3	3	2039	53	203507	-54	0											7					43												
WM080112	212318_fncb	1	1	1	1826178919	1	75.031	75.031	2.0.10.147	2.0.10.242	2.0.10.242	1.0.0.439	7	234	2	3	Verdana	1	80	0	0	0	WM Stimuli\	0.8	1059.625	0.9	910.777777777778	0.9	781.777777777778	1	835.2	0.7	825.571428571429	0.8	728.5	0.9	761.222222222222	0.5	632.6	13	369372	2	369360	26	39	369398	-999999	369375	0	10	TrialsPROC	BP_008_BP21_BA.png	1	2	44	SessionSelectionList														lure	3	Body	0-Back	39	80	38	0	0	100	7	39	206052	2	14	59	204013	-1	204885	1	872	3	3	2039	53	206066	-54	0											8					44												
WM080112	212318_fncb	1	1	1	1826178919	1	75.031	75.031	2.0.10.147	2.0.10.242	2.0.10.242	1.0.0.439	7	234	2	3	Verdana	1	80	0	0	0	WM Stimuli\	0.8	1059.625	0.9	910.777777777778	0.9	781.777777777778	1	835.2	0.7	825.571428571429	0.8	728.5	0.9	761.222222222222	0.5	632.6	13	369372	2	369360	26	39	369398	-999999	369375	0	10	TrialsPROC	BP_007_BP20_BA.png	1	2	45	SessionSelectionList														target	2	Body	0-Back	40	80	39	0	0	95	8	39	208611	2	14	59	206572	-1	207443	0	871	3	2	2039	53	208625	-54	0											9					45												
WM080112	212318_fncb	1	1	1	1826178919	1	75.031	75.031	2.0.10.147	2.0.10.242	2.0.10.242	1.0.0.439	7	234	2	3	Verdana	1	80	0	0	0	WM Stimuli\	0.8	1059.625	0.9	910.777777777778	0.9	781.777777777778	1	835.2	0.7	825.571428571429	0.8	728.5	0.9	761.222222222222	0.5	632.6	13	369372	2	369360	26	39	369398	-999999	369375	0	10	TrialsPROC	BP_012_BP5_BA.png	1	2	46	SessionSelectionList														nonlure	3	Body	0-Back	41	80	40	0	0	95	9	39	211170	2	14	59	209131	-1	209917	1	786	3	3	2039	53	211184	-54	0											10					46												
WM080112	212318_fncb	1	1	1	1826178919	1	75.031	75.031	2.0.10.147	2.0.10.242	2.0.10.242	1.0.0.439	7	234	2	3	Verdana	1	80	0	0	0	WM Stimuli\	0.8	1059.625	0.9	910.777777777778	0.9	781.777777777778	1	835.2	0.7	825.571428571429	0.8	728.5	0.9	761.222222222222	0.5	632.6	13	369372	2	369360	26	39	369398	-999999	369375	0	11	Fix15secPROC	""	1	2	47	SessionSelectionList																																															6	211637	-7	0							47												
WM080112	212318_fncb	1	1	1	1826178919	1	75.031	75.031	2.0.10.147	2.0.10.242	2.0.10.242	1.0.0.439	7	234	2	3	Verdana	1	80	0	0	0	WM Stimuli\	0.8	1059.625	0.9	910.777777777778	0.9	781.777777777778	1	835.2	0.7	825.571428571429	0.8	728.5	0.9	761.222222222222	0.5	632.6	13	369372	2	369360	26	39	369398	-999999	369375	0	12	Cue0BackPROC	PL_001_92012.png	1	2	48	SessionSelectionList																																										13	226644	-14	0												48												
WM080112	212318_fncb	1	1	1	1826178919	1	75.031	75.031	2.0.10.147	2.0.10.242	2.0.10.242	1.0.0.439	7	234	2	3	Verdana	1	80	0	0	0	WM Stimuli\	0.8	1059.625	0.9	910.777777777778	0.9	781.777777777778	1	835.2	0.7	825.571428571429	0.8	728.5	0.9	761.222222222222	0.5	632.6	13	369372	2	369360	26	39	369398	-999999	369375	0	13	TrialsPROC	PL_003_92016.png	1	2	49	SessionSelectionList														nonlure	3	Place	0-Back	42	80	40	0	1	90	9	39	231242	1	14	72	229203	-1	0	0	0	""	3	2039	53	231256	-54	0												1				49												
WM080112	212318_fncb	1	1	1	1826178919	1	75.031	75.031	2.0.10.147	2.0.10.242	2.0.10.242	1.0.0.439	7	234	2	3	Verdana	1	80	0	0	0	WM Stimuli\	0.8	1059.625	0.9	910.777777777778	0.9	781.777777777778	1	835.2	0.7	825.571428571429	0.8	728.5	0.9	761.222222222222	0.5	632.6	13	369372	2	369360	26	39	369398	-999999	369375	0	13	TrialsPROC	PL_003_92016.png	1	2	50	SessionSelectionList														lure	3	Place	0-Back	43	80	41	0	0	91	1	39	233814	2	14	72	231775	-1	232389	1	614	3	3	2039	53	233828	-54	0												2				50												
WM080112	212318_fncb	1	1	1	1826178919	1	75.031	75.031	2.0.10.147	2.0.10.242	2.0.10.242	1.0.0.439	7	234	2	3	Verdana	1	80	0	0	0	WM Stimuli\	0.8	1059.625	0.9	910.777777777778	0.9	781.777777777778	1	835.2	0.7	825.571428571429	0.8	728.5	0.9	761.222222222222	0.5	632.6	13	369372	2	369360	26	39	369398	-999999	369375	0	13	TrialsPROC	PL_006_92025.png	1	2	51	SessionSelectionList														nonlure	3	Place	0-Back	44	80	42	0	0	91	2	40	236387	1	13	72	234347	-1	235122	1	775	3	3	2040	53	236400	-54	0												3				51												
WM080112	212318_fncb	1	1	1	1826178919	1	75.031	75.031	2.0.10.147	2.0.10.242	2.0.10.242	1.0.0.439	7	234	2	3	Verdana	1	80	0	0	0	WM Stimuli\	0.8	1059.625	0.9	910.777777777778	0.9	781.777777777778	1	835.2	0.7	825.571428571429	0.8	728.5	0.9	761.222222222222	0.5	632.6	13	369372	2	369360	26	39	369398	-999999	369375	0	13	TrialsPROC	PL_001_92012.png	1	2	52	SessionSelectionList														target	2	Place	0-Back	45	80	43	0	0	92	1	39	238959	1	13	73	236920	-1	237778	1	858	2	2	2039	52	238972	-53	0												4				52												
WM080112	212318_fncb	1	1	1	1826178919	1	75.031	75.031	2.0.10.147	2.0.10.242	2.0.10.242	1.0.0.439	7	234	2	3	Verdana	1	80	0	0	0	WM Stimuli\	0.8	1059.625	0.9	910.777777777778	0.9	781.777777777778	1	835.2	0.7	825.571428571429	0.8	728.5	0.9	761.222222222222	0.5	632.6	13	369372	2	369360	26	39	369398	-999999	369375	0	13	TrialsPROC	PL_004_92023.png	1	2	53	SessionSelectionList														nonlure	3	Place	0-Back	46	80	44	0	0	92	1	39	241531	1	14	72	239492	-1	240045	1	553	3	3	2039	53	241545	-54	0												5				53												
WM080112	212318_fncb	1	1	1	1826178919	1	75.031	75.031	2.0.10.147	2.0.10.242	2.0.10.242	1.0.0.439	7	234	2	3	Verdana	1	80	0	0	0	WM Stimuli\	0.8	1059.625	0.9	910.777777777778	0.9	781.777777777778	1	835.2	0.7	825.571428571429	0.8	728.5	0.9	761.222222222222	0.5	632.6	13	369372	2	369360	26	39	369398	-999999	369375	0	13	TrialsPROC	PL_005_92024.png	1	2	54	SessionSelectionList														nonlure	3	Place	0-Back	47	80	45	0	0	92	2	39	244103	2	14	72	242064	-1	242758	1	694	3	3	2039	53	244117	-54	0												6				54												
WM080112	212318_fncb	1	1	1	1826178919	1	75.031	75.031	2.0.10.147	2.0.10.242	2.0.10.242	1.0.0.439	7	234	2	3	Verdana	1	80	0	0	0	WM Stimuli\	0.8	1059.625	0.9	910.777777777778	0.9	781.777777777778	1	835.2	0.7	825.571428571429	0.8	728.5	0.9	761.222222222222	0.5	632.6	13	369372	2	369360	26	39	369398	-999999	369375	0	13	TrialsPROC	PL_001_92012.png	1	2	55	SessionSelectionList														target	2	Place	0-Back	48	80	46	0	0	89	3	40	246676	1	13	72	244636	-1	245507	0	871	3	2	2040	53	246689	-54	0												7				55												
WM080112	212318_fncb	1	1	1	1826178919	1	75.031	75.031	2.0.10.147	2.0.10.242	2.0.10.242	1.0.0.439	7	234	2	3	Verdana	1	80	0	0	0	WM Stimuli\	0.8	1059.625	0.9	910.777777777778	0.9	781.777777777778	1	835.2	0.7	825.571428571429	0.8	728.5	0.9	761.222222222222	0.5	632.6	13	369372	2	369360	26	39	369398	-999999	369375	0	13	TrialsPROC	PL_002_92014.png	1	2	56	SessionSelectionList														nonlure	3	Place	0-Back	49	80	47	0	0	89	4	39	249248	1	13	73	247209	-1	248070	1	861	3	3	2039	52	249261	-53	0												8				56												
WM080112	212318_fncb	1	1	1	1826178919	1	75.031	75.031	2.0.10.147	2.0.10.242	2.0.10.242	1.0.0.439	7	234	2	3	Verdana	1	80	0	0	0	WM Stimuli\	0.8	1059.625	0.9	910.777777777778	0.9	781.777777777778	1	835.2	0.7	825.571428571429	0.8	728.5	0.9	761.222222222222	0.5	632.6	13	369372	2	369360	26	39	369398	-999999	369375	0	13	TrialsPROC	PL_004_92023.png	1	2	57	SessionSelectionList														lure	3	Place	0-Back	50	80	48	0	0	90	5	39	251820	2	14	72	249781	-1	250454	1	673	3	3	2039	53	251834	-54	0												9				57												
WM080112	212318_fncb	1	1	1	1826178919	1	75.031	75.031	2.0.10.147	2.0.10.242	2.0.10.242	1.0.0.439	7	234	2	3	Verdana	1	80	0	0	0	WM Stimuli\	0.8	1059.625	0.9	910.777777777778	0.9	781.777777777778	1	835.2	0.7	825.571428571429	0.8	728.5	0.9	761.222222222222	0.5	632.6	13	369372	2	369360	26	39	369398	-999999	369375	0	13	TrialsPROC	PL_006_92025.png	1	2	58	SessionSelectionList														lure	3	Place	0-Back	51	80	49	0	0	90	6	39	254392	2	14	72	252353	-1	253153	1	800	3	3	2039	53	254406	-54	0												10				58												
WM080112	212318_fncb	1	1	1	1826178919	1	75.031	75.031	2.0.10.147	2.0.10.242	2.0.10.242	1.0.0.439	7	234	2	3	Verdana	1	80	0	0	0	WM Stimuli\	0.8	1059.625	0.9	910.777777777778	0.9	781.777777777778	1	835.2	0.7	825.571428571429	0.8	728.5	0.9	761.222222222222	0.5	632.6	13	369372	2	369360	26	39	369398	-999999	369375	0	14	Cue2BackPROC	""	1	2	59	SessionSelectionList									6	254859	-7	0																																													59												
WM080112	212318_fncb	1	1	1	1826178919	1	75.031	75.031	2.0.10.147	2.0.10.242	2.0.10.242	1.0.0.439	7	234	2	3	Verdana	1	80	0	0	0	WM Stimuli\	0.8	1059.625	0.9	910.777777777778	0.9	781.777777777778	1	835.2	0.7	825.571428571429	0.8	728.5	0.9	761.222222222222	0.5	632.6	13	369372	2	369360	26	39	369398	-999999	369375	0	15	TrialsPROC	FC_010_F5.png	1	2	60	SessionSelectionList														nonlure	3	Face	2-Back	52	80	50	0	0	90	7	39	259457	1	14	65	257418	-1	258958	1	1540	3	3	2039	53	259471	-54	0													1			60												
WM080112	212318_fncb	1	1	1	1826178919	1	75.031	75.031	2.0.10.147	2.0.10.242	2.0.10.242	1.0.0.439	7	234	2	3	Verdana	1	80	0	0	0	WM Stimuli\	0.8	1059.625	0.9	910.777777777778	0.9	781.777777777778	1	835.2	0.7	825.571428571429	0.8	728.5	0.9	761.222222222222	0.5	632.6	13	369372	2	369360	26	39	369398	-999999	369375	0	15	TrialsPROC	FC_012_F6.png	1	2	61	SessionSelectionList														nonlure	3	Face	2-Back	53	80	51	0	0	90	8	39	262029	2	14	72	259990	-1	260447	1	457	3	3	2039	53	262043	-54	0													2			61												
WM080112	212318_fncb	1	1	1	1826178919	1	75.031	75.031	2.0.10.147	2.0.10.242	2.0.10.242	1.0.0.439	7	234	2	3	Verdana	1	80	0	0	0	WM Stimuli\	0.8	1059.625	0.9	910.777777777778	0.9	781.777777777778	1	835.2	0.7	825.571428571429	0.8	728.5	0.9	761.222222222222	0.5	632.6	13	369372	2	369360	26	39	369398	-999999	369375	0	15	TrialsPROC	FC_010_F5.png	1	2	62	SessionSelectionList														target	2	Face	2-Back	54	80	52	0	0	90	1	39	264601	2	14	72	262562	-1	263426	1	864	2	2	2039	53	264615	-54	0													3			62												
WM080112	212318_fncb	1	1	1	1826178919	1	75.031	75.031	2.0.10.147	2.0.10.242	2.0.10.242	1.0.0.439	7	234	2	3	Verdana	1	80	0	0	0	WM Stimuli\	0.8	1059.625	0.9	910.777777777778	0.9	781.777777777778	1	835.2	0.7	825.571428571429	0.8	728.5	0.9	761.222222222222	0.5	632.6	13	369372	2	369360	26	39	369398	-999999	369375	0	15	TrialsPROC	FC_008_F4.png	1	2	63	SessionSelectionList														nonlure	3	Face	2-Back	55	80	53	0	0	90	1	39	267174	1	13	73	265135	-1	265699	1	564	3	3	2039	52	267187	-53	0													4			63												
WM080112	212318_fncb	1	1	1	1826178919	1	75.031	75.031	2.0.10.147	2.0.10.242	2.0.10.242	1.0.0.439	7	234	2	3	Verdana	1	80	0	0	0	WM Stimuli\	0.8	1059.625	0.9	910.777777777778	0.9	781.777777777778	1	835.2	0.7	825.571428571429	0.8	728.5	0.9	761.222222222222	0.5	632.6	13	369372	2	369360	26	39	369398	-999999	369375	0	15	TrialsPROC	FC_012_F6.png	1	2	64	SessionSelectionList														lure	3	Face	2-Back	56	80	54	0	0	90	1	39	269746	1	14	72	267707	-1	268866	0	1159	2	3	2039	53	269760	-54	0													5			64												
WM080112	212318_fncb	1	1	1	1826178919	1	75.031	75.031	2.0.10.147	2.0.10.242	2.0.10.242	1.0.0.439	7	234	2	3	Verdana	1	80	0	0	0	WM Stimuli\	0.8	1059.625	0.9	910.777777777778	0.9	781.777777777778	1	835.2	0.7	825.571428571429	0.8	728.5	0.9	761.222222222222	0.5	632.6	13	369372	2	369360	26	39	369398	-999999	369375	0	15	TrialsPROC	FC_008_F4.png	1	2	65	SessionSelectionList														target	2	Face	2-Back	57	80	55	0	0	90	2	39	272318	2	14	72	270279	-1	271239	1	960	2	2	2039	53	272332	-54	0													6			65												
WM080112	212318_fncb	1	1	1	1826178919	1	75.031	75.031	2.0.10.147	2.0.10.242	2.0.10.242	1.0.0.439	7	234	2	3	Verdana	1	80	0	0	0	WM Stimuli\	0.8	1059.625	0.9	910.777777777778	0.9	781.777777777778	1	835.2	0.7	825.571428571429	0.8	728.5	0.9	761.222222222222	0.5	632.6	13	369372	2	369360	26	39	369398	-999999	369375	0	15	TrialsPROC	FC_007_M4.png	1	2	66	SessionSelectionList														nonlure	3	Face	2-Back	58	80	56	0	0	90	1	40	274891	1	13	72	272851	-1	273532	1	681	3	3	2040	53	274904	-54	0													7			66												
WM080112	212318_fncb	1	1	1	1826178919	1	75.031	75.031	2.0.10.147	2.0.10.242	2.0.10.242	1.0.0.439	7	234	2	3	Verdana	1	80	0	0	0	WM Stimuli\	0.8	1059.625	0.9	910.777777777778	0.9	781.777777777778	1	835.2	0.7	825.571428571429	0.8	728.5	0.9	761.222222222222	0.5	632.6	13	369372	2	369360	26	39	369398	-999999	369375	0	15	TrialsPROC	FC_007_M4.png	1	2	67	SessionSelectionList														lure	3	Face	2-Back	59	80	57	0	0	90	2	39	277463	1	13	73	275424	-1	276110	1	686	3	3	2039	52	277476	-53	0													8			67												
WM080112	212318_fncb	1	1	1	1826178919	1	75.031	75.031	2.0.10.147	2.0.10.242	2.0.10.242	1.0.0.439	7	234	2	3	Verdana	1	80	0	0	0	WM Stimuli\	0.8	1059.625	0.9	910.777777777778	0.9	781.777777777778	1	835.2	0.7	825.571428571429	0.8	728.5	0.9	761.222222222222	0.5	632.6	13	369372	2	369360	26	39	369398	-999999	369375	0	15	TrialsPROC	FC_009_M5.png	1	2	68	SessionSelectionList														nonlure	3	Face	2-Back	60	80	58	0	0	90	3	39	280035	2	14	72	277996	-1	278636	1	640	3	3	2039	53	280049	-54	0													9			68												
WM080112	212318_fncb	1	1	1	1826178919	1	75.031	75.031	2.0.10.147	2.0.10.242	2.0.10.242	1.0.0.439	7	234	2	3	Verdana	1	80	0	0	0	WM Stimuli\	0.8	1059.625	0.9	910.777777777778	0.9	781.777777777778	1	835.2	0.7	825.571428571429	0.8	728.5	0.9	761.222222222222	0.5	632.6	13	369372	2	369360	26	39	369398	-999999	369375	0	15	TrialsPROC	FC_011_M6.png	1	2	69	SessionSelectionList														nonlure	3	Face	2-Back	61	80	59	0	0	90	4	39	282607	2	14	72	280568	-1	281212	1	644	3	3	2039	53	282621	-54	0													10			69												
WM080112	212318_fncb	1	1	1	1826178919	1	75.031	75.031	2.0.10.147	2.0.10.242	2.0.10.242	1.0.0.439	7	234	2	3	Verdana	1	80	0	0	0	WM Stimuli\	0.8	1059.625	0.9	910.777777777778	0.9	781.777777777778	1	835.2	0.7	825.571428571429	0.8	728.5	0.9	761.222222222222	0.5	632.6	13	369372	2	369360	26	39	369398	-999999	369375	0	16	Fix15secPROC	""	1	2	70	SessionSelectionList																																															6	283074	-7	0							70												
WM080112	212318_fncb	1	1	1	1826178919	1	75.031	75.031	2.0.10.147	2.0.10.242	2.0.10.242	1.0.0.439	7	234	2	3	Verdana	1	80	0	0	0	WM Stimuli\	0.8	1059.625	0.9	910.777777777778	0.9	781.777777777778	1	835.2	0.7	825.571428571429	0.8	728.5	0.9	761.222222222222	0.5	632.6	13	369372	2	369360	26	39	369398	-999999	369375	0	17	Cue0BackPROC	TO_007_TOOL7_BA.png	1	2	71	SessionSelectionList																																										13	298081	-14	0												71												
WM080112	212318_fncb	1	1	1	1826178919	1	75.031	75.031	2.0.10.147	2.0.10.242	2.0.10.242	1.0.0.439	7	234	2	3	Verdana	1	80	0	0	0	WM Stimuli\	0.8	1059.625	0.9	910.777777777778	0.9	781.777777777778	1	835.2	0.7	825.571428571429	0.8	728.5	0.9	761.222222222222	0.5	632.6	13	369372	2	369360	26	39	369398	-999999	369375	0	18	TrialsPROC	TO_010_TOOL10_BA.png	1	2	72	SessionSelectionList														nonlure	3	Tools	0-Back	62	80	60	0	0	90	5	39	302666	1	13	59	300627	-1	301542	1	915	3	3	2039	52	302679	-53	0														1		72												
WM080112	212318_fncb	1	1	1	1826178919	1	75.031	75.031	2.0.10.147	2.0.10.242	2.0.10.242	1.0.0.439	7	234	2	3	Verdana	1	80	0	0	0	WM Stimuli\	0.8	1059.625	0.9	910.777777777778	0.9	781.777777777778	1	835.2	0.7	825.571428571429	0.8	728.5	0.9	761.222222222222	0.5	632.6	13	369372	2	369360	26	39	369398	-999999	369375	0	18	TrialsPROC	TO_009_TOOL9_BA.png	1	2	73	SessionSelectionList														nonlure	3	Tools	0-Back	63	80	61	0	0	91	6	39	305225	1	13	59	303186	-1	303752	1	566	3	3	2039	52	305238	-53	0														2		73												
WM080112	212318_fncb	1	1	1	1826178919	1	75.031	75.031	2.0.10.147	2.0.10.242	2.0.10.242	1.0.0.439	7	234	2	3	Verdana	1	80	0	0	0	WM Stimuli\	0.8	1059.625	0.9	910.777777777778	0.9	781.777777777778	1	835.2	0.7	825.571428571429	0.8	728.5	0.9	761.222222222222	0.5	632.6	13	369372	2	369360	26	39	369398	-999999	369375	0	18	TrialsPROC	TO_009_TOOL9_BA.png	1	2	74	SessionSelectionList														lure	3	Tools	0-Back	64	80	62	0	0	91	7	39	307784	1	13	59	305745	-1	306345	1	600	3	3	2039	52	307797	-53	0														3		74												
WM080112	212318_fncb	1	1	1	1826178919	1	75.031	75.031	2.0.10.147	2.0.10.242	2.0.10.242	1.0.0.439	7	234	2	3	Verdana	1	80	0	0	0	WM Stimuli\	0.8	1059.625	0.9	910.777777777778	0.9	781.777777777778	1	835.2	0.7	825.571428571429	0.8	728.5	0.9	761.222222222222	0.5	632.6	13	369372	2	369360	26	39	369398	-999999	369375	0	18	TrialsPROC	TO_008_TOOL8_BA.png	1	2	75	SessionSelectionList														nonlure	3	Tools	0-Back	65	80	63	0	0	88	1	40	310343	1	13	58	308303	-1	309499	0	1196	2	3	2040	53	310356	-54	0														4		75												
WM080112	212318_fncb	1	1	1	1826178919	1	75.031	75.031	2.0.10.147	2.0.10.242	2.0.10.242	1.0.0.439	7	234	2	3	Verdana	1	80	0	0	0	WM Stimuli\	0.8	1059.625	0.9	910.777777777778	0.9	781.777777777778	1	835.2	0.7	825.571428571429	0.8	728.5	0.9	761.222222222222	0.5	632.6	13	369372	2	369360	26	39	369398	-999999	369375	0	18	TrialsPROC	TO_011_TOOL11_BA.png	1	2	76	SessionSelectionList														nonlure	3	Tools	0-Back	66	80	64	0	0	89	1	40	312902	1	13	59	310862	-1	311302	1	440	3	3	2040	53	312915	-54	0														5		76												
WM080112	212318_fncb	1	1	1	1826178919	1	75.031	75.031	2.0.10.147	2.0.10.242	2.0.10.242	1.0.0.439	7	234	2	3	Verdana	1	80	0	0	0	WM Stimuli\	0.8	1059.625	0.9	910.777777777778	0.9	781.777777777778	1	835.2	0.7	825.571428571429	0.8	728.5	0.9	761.222222222222	0.5	632.6	13	369372	2	369360	26	39	369398	-999999	369375	0	18	TrialsPROC	TO_012_TOOL12_BA.png	1	2	77	SessionSelectionList														nonlure	3	Tools	0-Back	67	80	65	0	0	89	2	39	315460	2	14	59	313421	-1	314063	1	642	3	3	2039	53	315474	-54	0														6		77												
WM080112	212318_fncb	1	1	1	1826178919	1	75.031	75.031	2.0.10.147	2.0.10.242	2.0.10.242	1.0.0.439	7	234	2	3	Verdana	1	80	0	0	0	WM Stimuli\	0.8	1059.625	0.9	910.777777777778	0.9	781.777777777778	1	835.2	0.7	825.571428571429	0.8	728.5	0.9	761.222222222222	0.5	632.6	13	369372	2	369360	26	39	369398	-999999	369375	0	18	TrialsPROC	TO_010_TOOL10_BA.png	1	2	78	SessionSelectionList														lure	3	Tools	0-Back	68	80	66	0	0	86	1	39	318019	2	14	59	315980	-1	316585	0	605	2	3	2039	53	318033	-54	0														7		78												
WM080112	212318_fncb	1	1	1	1826178919	1	75.031	75.031	2.0.10.147	2.0.10.242	2.0.10.242	1.0.0.439	7	234	2	3	Verdana	1	80	0	0	0	WM Stimuli\	0.8	1059.625	0.9	910.777777777778	0.9	781.777777777778	1	835.2	0.7	825.571428571429	0.8	728.5	0.9	761.222222222222	0.5	632.6	13	369372	2	369360	26	39	369398	-999999	369375	0	18	TrialsPROC	TO_007_TOOL7_BA.png	1	2	79	SessionSelectionList														target	2	Tools	0-Back	69	80	67	0	0	84	1	39	320578	2	14	59	318539	-1	320302	0	1763	3	2	2039	53	320592	-54	0														8		79												
WM080112	212318_fncb	1	1	1	1826178919	1	75.031	75.031	2.0.10.147	2.0.10.242	2.0.10.242	1.0.0.439	7	234	2	3	Verdana	1	80	0	0	0	WM Stimuli\	0.8	1059.625	0.9	910.777777777778	0.9	781.777777777778	1	835.2	0.7	825.571428571429	0.8	728.5	0.9	761.222222222222	0.5	632.6	13	369372	2	369360	26	39	369398	-999999	369375	0	18	TrialsPROC	TO_008_TOOL8_BA.png	1	2	80	SessionSelectionList														lure	3	Tools	0-Back	70	80	68	0	0	82	1	39	323137	2	14	59	321098	-1	321730	0	632	2	3	2039	53	323151	-54	0														9		80												
WM080112	212318_fncb	1	1	1	1826178919	1	75.031	75.031	2.0.10.147	2.0.10.242	2.0.10.242	1.0.0.439	7	234	2	3	Verdana	1	80	0	0	0	WM Stimuli\	0.8	1059.625	0.9	910.777777777778	0.9	781.777777777778	1	835.2	0.7	825.571428571429	0.8	728.5	0.9	761.222222222222	0.5	632.6	13	369372	2	369360	26	39	369398	-999999	369375	0	18	TrialsPROC	TO_007_TOOL7_BA.png	1	2	81	SessionSelectionList														target	2	Tools	0-Back	71	80	69	0	0	80	1	39	325696	2	14	59	323657	-1	324344	0	687	3	2	2039	53	325710	-54	0														10		81												
WM080112	212318_fncb	1	1	1	1826178919	1	75.031	75.031	2.0.10.147	2.0.10.242	2.0.10.242	1.0.0.439	7	234	2	3	Verdana	1	80	0	0	0	WM Stimuli\	0.8	1059.625	0.9	910.777777777778	0.9	781.777777777778	1	835.2	0.7	825.571428571429	0.8	728.5	0.9	761.222222222222	0.5	632.6	13	369372	2	369360	26	39	369398	-999999	369375	0	19	Cue2BackPROC	""	1	2	82	SessionSelectionList									6	326163	-7	0																																													82												
WM080112	212318_fncb	1	1	1	1826178919	1	75.031	75.031	2.0.10.147	2.0.10.242	2.0.10.242	1.0.0.439	7	234	2	3	Verdana	1	80	0	0	0	WM Stimuli\	0.8	1059.625	0.9	910.777777777778	0.9	781.777777777778	1	835.2	0.7	825.571428571429	0.8	728.5	0.9	761.222222222222	0.5	632.6	13	369372	2	369360	26	39	369398	-999999	369375	0	20	TrialsPROC	PL_007_92026.png	1	2	83	SessionSelectionList														nonlure	3	Place	2-Back	72	80	70	0	0	80	2	39	330761	1	13	65	328722	-1	329820	1	1098	3	3	2039	52	330774	-53	0															1	83												
WM080112	212318_fncb	1	1	1	1826178919	1	75.031	75.031	2.0.10.147	2.0.10.242	2.0.10.242	1.0.0.439	7	234	2	3	Verdana	1	80	0	0	0	WM Stimuli\	0.8	1059.625	0.9	910.777777777778	0.9	781.777777777778	1	835.2	0.7	825.571428571429	0.8	728.5	0.9	761.222222222222	0.5	632.6	13	369372	2	369360	26	39	369398	-999999	369375	0	20	TrialsPROC	PL_007_92026.png	1	2	84	SessionSelectionList														lure	3	Place	2-Back	73	80	71	0	0	80	3	39	333333	2	14	72	331294	-1	332047	1	753	3	3	2039	53	333347	-54	0															2	84												
WM080112	212318_fncb	1	1	1	1826178919	1	75.031	75.031	2.0.10.147	2.0.10.242	2.0.10.242	1.0.0.439	7	234	2	3	Verdana	1	80	0	0	0	WM Stimuli\	0.8	1059.625	0.9	910.777777777778	0.9	781.777777777778	1	835.2	0.7	825.571428571429	0.8	728.5	0.9	761.222222222222	0.5	632.6	13	369372	2	369360	26	39	369398	-999999	369375	0	20	TrialsPROC	PL_010_92038.png	1	2	85	SessionSelectionList														nonlure	3	Place	2-Back	74	80	72	0	0	80	1	39	335905	2	14	72	333866	-1	334531	0	665	2	3	2039	53	335919	-54	0															3	85												
WM080112	212318_fncb	1	1	1	1826178919	1	75.031	75.031	2.0.10.147	2.0.10.242	2.0.10.242	1.0.0.439	7	234	2	3	Verdana	1	80	0	0	0	WM Stimuli\	0.8	1059.625	0.9	910.777777777778	0.9	781.777777777778	1	835.2	0.7	825.571428571429	0.8	728.5	0.9	761.222222222222	0.5	632.6	13	369372	2	369360	26	39	369398	-999999	369375	0	20	TrialsPROC	PL_009_92037.png	1	2	86	SessionSelectionList														nonlure	3	Place	2-Back	75	80	73	0	0	80	1	40	338478	1	13	72	336438	-1	337093	1	655	3	3	2040	53	338491	-54	0															4	86												
WM080112	212318_fncb	1	1	1	1826178919	1	75.031	75.031	2.0.10.147	2.0.10.242	2.0.10.242	1.0.0.439	7	234	2	3	Verdana	1	80	0	0	0	WM Stimuli\	0.8	1059.625	0.9	910.777777777778	0.9	781.777777777778	1	835.2	0.7	825.571428571429	0.8	728.5	0.9	761.222222222222	0.5	632.6	13	369372	2	369360	26	39	369398	-999999	369375	0	20	TrialsPROC	PL_010_92038.png	1	2	87	SessionSelectionList														target	2	Place	2-Back	76	80	74	0	0	80	2	39	341050	1	14	73	339011	-1	340056	0	1045	3	2	2039	53	341064	-54	0															5	87												
WM080112	212318_fncb	1	1	1	1826178919	1	75.031	75.031	2.0.10.147	2.0.10.242	2.0.10.242	1.0.0.439	7	234	2	3	Verdana	1	80	0	0	0	WM Stimuli\	0.8	1059.625	0.9	910.777777777778	0.9	781.777777777778	1	835.2	0.7	825.571428571429	0.8	728.5	0.9	761.222222222222	0.5	632.6	13	369372	2	369360	26	39	369398	-999999	369375	0	20	TrialsPROC	PL_009_92037.png	1	2	88	SessionSelectionList														target	2	Place	2-Back	77	80	75	0	0	80	1	39	343622	2	14	72	341583	-1	342345	1	762	2	2	2039	53	343636	-54	0															6	88												
WM080112	212318_fncb	1	1	1	1826178919	1	75.031	75.031	2.0.10.147	2.0.10.242	2.0.10.242	1.0.0.439	7	234	2	3	Verdana	1	80	0	0	0	WM Stimuli\	0.8	1059.625	0.9	910.777777777778	0.9	781.777777777778	1	835.2	0.7	825.571428571429	0.8	728.5	0.9	761.222222222222	0.5	632.6	13	369372	2	369360	26	39	369398	-999999	369375	0	20	TrialsPROC	PL_008_92033.png	1	2	89	SessionSelectionList														nonlure	3	Place	2-Back	78	80	76	0	0	80	1	39	346194	2	14	72	344155	-1	344879	1	724	3	3	2039	53	346208	-54	0															7	89												
WM080112	212318_fncb	1	1	1	1826178919	1	75.031	75.031	2.0.10.147	2.0.10.242	2.0.10.242	1.0.0.439	7	234	2	3	Verdana	1	80	0	0	0	WM Stimuli\	0.8	1059.625	0.9	910.777777777778	0.9	781.777777777778	1	835.2	0.7	825.571428571429	0.8	728.5	0.9	761.222222222222	0.5	632.6	13	369372	2	369360	26	39	369398	-999999	369375	0	20	TrialsPROC	PL_012_92047.png	1	2	90	SessionSelectionList														nonlure	3	Place	2-Back	79	80	77	0	0	80	2	39	348767	1	13	73	346728	-1	347467	1	739	3	3	2039	52	348780	-53	0															8	90												
WM080112	212318_fncb	1	1	1	1826178919	1	75.031	75.031	2.0.10.147	2.0.10.242	2.0.10.242	1.0.0.439	7	234	2	3	Verdana	1	80	0	0	0	WM Stimuli\	0.8	1059.625	0.9	910.777777777778	0.9	781.777777777778	1	835.2	0.7	825.571428571429	0.8	728.5	0.9	761.222222222222	0.5	632.6	13	369372	2	369360	26	39	369398	-999999	369375	0	20	TrialsPROC	PL_012_92047.png	1	2	91	SessionSelectionList														lure	3	Place	2-Back	80	80	78	0	0	80	1	39	351326	1	13	59	349287	-1	349786	0	499	2	3	2039	52	351339	-53	0															9	91												
WM080112	212318_fncb	1	1	1	1826178919	1	75.031	75.031	2.0.10.147	2.0.10.242	2.0.10.242	1.0.0.439	7	234	2	3	Verdana	1	80	0	0	0	WM Stimuli\	0.8	1059.625	0.9	910.777777777778	0.9	781.777777777778	1	835.2	0.7	825.571428571429	0.8	728.5	0.9	761.222222222222	0.5	632.6	13	369372	2	369360	26	39	369398	-999999	369375	0	20	TrialsPROC	PL_011_92044.png	1	2	92	SessionSelectionList														nonlure	3	Place	2-Back	80	80	79	0	0	80	1	39	353898	1	14	72	351859	-1	352907	1	1048	3	3	2039	53	353912	-54	0															10	92												
WM080112	212318_fncb	1	1	1	1826178919	1	75.031	75.031	2.0.10.147	2.0.10.242	2.0.10.242	1.0.0.439	7	234	2	3	Verdana	1	80	0	0	0	WM Stimuli\	0.8	1059.625	0.9	910.777777777778	0.9	781.777777777778	1	835.2	0.7	825.571428571429	0.8	728.5	0.9	761.222222222222	0.5	632.6	13	369372	2	369360	26	39	369398	-999999	369375	0	21	Fix15secPROC	""	1	2	93	SessionSelectionList																																															6	354365	-7	0							93												
