ExperimentName	HCPID	RunNumber	Subject	Session	RandomSeed	Group	Laptop.RefreshRate	ScannerD2.RefreshRate	StudioVersion	RuntimeVersion	RuntimeVersionExpected	ExperimentVersion	triggercode	Allowed	Target	Nontarget	FontStyle	RunTrialNumber[Session]	TrialsPerRun[Session]	TotalRespGreater200[Session]	ConsecRTLess200[Session]	ConsecNonResp[Session]	StimuliDir	ACC_2_Back_Body	Avg_RT_For_Correct_Trials_2_Back_Body	ACC_0_Back_Body	Avg_RT_For_Correct_Trials_0_Back_Body	ACC_2_Back_Face	Avg_RT_For_Correct_Trials_2_Back_Face	ACC_0_Back_Face	Avg_RT_For_Correct_Trials_0_Back_Face	ACC_2_Back_Place	Avg_RT_For_Correct_Trials_2_Back_Place	ACC_0_Back_Place	Avg_RT_For_Correct_Trials_0_Back_Place	ACC_2_Back_Tools	Avg_RT_For_Correct_Trials_2_Back_Tools	ACC_0_Back_Tools	Avg_RT_For_Correct_Trials_0_Back_Tools	ExpInstrucFeelFreeToRest.OnsetDelay	ExpInstrucFeelFreeToRest.OnsetTime	ExpInstrucFeelFreeToRest.DurationError	ExpInstrucFeelFreeToRest.StartTime	ExpInstrucFeelFreeToRest.OnsetToOnsetTime	FeelFreeToRest.OnsetDelay	FeelFreeToRest.OnsetTime	FeelFreeToRest.DurationError	FeelFreeToRest.StartTime	FeelFreeToRest.OnsetToOnsetTime	SessionSelectionList	Procedure[Block]	Stimulus[Block]	RunNumberFilterValue	SessionSelectionList.Cycle	SessionSelectionList.Sample	Running[Block]	IntroButtonMap.OnsetDelay	IntroButtonMap.OnsetTime	IntroButtonMap.DurationError	IntroButtonMap.OnsetToOnsetTime	GetReady.OnsetDelay	GetReady.OnsetTime	GetReady.DurationError	GetReady.OnsetToOnsetTime	Cue2Back.OnsetDelay	Cue2Back.OnsetTime	Cue2Back.DurationError	Cue2Back.OnsetToOnsetTime	Run1Block1	TargetType	CorrectResponse	StimType	BlockType	RunTrialNumber[Block]	TrialsPerRun[Block]	TotalRespGreater200[Block]	ConsecRTLess200[Block]	ConsecNonResp[Block]	ControlAcc	ConsecSameResp	ExperimenterWindow.OnsetDelay	ExperimenterWindow.OnsetTime	ExperimenterWindow.DurationError	ExperimenterWindow.OnsetToOnsetTime	Stim.OnsetDelay	Stim.OnsetTime	Stim.DurationError	Stim.RTTime	Stim.ACC	Stim.RT	Stim.RESP	Stim.CRESP	Stim.OnsetToOnsetTime	Fix.OnsetDelay	Fix.OnsetTime	Fix.DurationError	Fix.OnsetToOnsetTime	CueTarget.OnsetDelay	CueTarget.OnsetTime	CueTarget.DurationError	CueTarget.OnsetToOnsetTime	Run1Block2	Fix15sec.OnsetDelay	Fix15sec.OnsetTime	Fix15sec.DurationError	Fix15sec.OnsetToOnsetTime	Run1Block3	Run1Block4	Run1Block5	Run1Block6	Run1Block7	Run1Block8	Block	Procedure[Trial]	Stimulus[Trial]	ReadyList	Running[Trial]	ReadyList.Cycle	ReadyList.Sample	SyncSlide.OnsetDelay	SyncSlide.OnsetTime	SyncSlide.DurationError	SyncSlide.FinishTime	SyncSlide.OnsetToOnsetTime	Trial
WM080112	211720_fnca	2	1	1	-1826526645	1	75.030	75.030	2.0.10.147	2.0.10.242	2.0.10.242	1.0.0.439	7	234	2	3	Verdana	1	80	0	0	0	WM Stimuli\	0.8	1076.875	0.7	1136.42857142857	0.7	984.714285714286	0.6	1068.5	0.8	1100.75	0.9	895.222222222222	0.8	1073.875	0.5	947.8	13	337837	2	337825	27	40	337864	-999999	337840	0	22	TRSyncPROC	""	2	2	1	SessionSelectionList	115	6452	-999999	0	33	30056	-999999	0																																																	1	InitialTR	4	1	ReadyList	1	1	18	43836	-19	45817	0	1
WM080112	211720_fnca	2	1	1	-1826526645	1	75.030	75.030	2.0.10.147	2.0.10.242	2.0.10.242	1.0.0.439	7	234	2	3	Verdana	1	80	0	0	0	WM Stimuli\	0.8	1076.875	0.7	1136.42857142857	0.7	984.714285714286	0.6	1068.5	0.8	1100.75	0.9	895.222222222222	0.8	1073.875	0.5	947.8	13	337837	2	337825	27	40	337864	-999999	337840	0	22	TRSyncPROC	""	2	2	1	SessionSelectionList	115	6452	-999999	0	33	30056	-999999	0																																																	1	InitialTR	3	2	ReadyList	1	2	18	45836	-19	47817	0	2
WM080112	211720_fnca	2	1	1	-1826526645	1	75.030	75.030	2.0.10.147	2.0.10.242	2.0.10.242	1.0.0.439	7	234	2	3	Verdana	1	80	0	0	0	WM Stimuli\	0.8	1076.875	0.7	1136.42857142857	0.7	984.714285714286	0.6	1068.5	0.8	1100.75	0.9	895.222222222222	0.8	1073.875	0.5	947.8	13	337837	2	337825	27	40	337864	-999999	337840	0	22	TRSyncPROC	""	2	2	1	SessionSelectionList	115	6452	-999999	0	33	30056	-999999	0																																																	1	InitialTR	2	3	ReadyList	1	3	4	47822	-5	49817	0	3
WM080112	211720_fnca	2	1	1	-1826526645	1	75.030	75.030	2.0.10.147	2.0.10.242	2.0.10.242	1.0.0.439	7	234	2	3	Verdana	1	80	0	0	0	WM Stimuli\	0.8	1076.875	0.7	1136.42857142857	0.7	984.714285714286	0.6	1068.5	0.8	1100.75	0.9	895.222222222222	0.8	1073.875	0.5	947.8	13	337837	2	337825	27	40	337864	-999999	337840	0	22	TRSyncPROC	""	2	2	1	SessionSelectionList	115	6452	-999999	0	33	30056	-999999	0																																																	1	InitialTR	1	4	ReadyList	1	4	16	49834	-17	51817	0	4
WM080112	211720_fnca	2	1	1	-1826526645	1	75.030	75.030	2.0.10.147	2.0.10.242	2.0.10.242	1.0.0.439	7	234	2	3	Verdana	1	80	0	0	0	WM Stimuli\	0.8	1076.875	0.7	1136.42857142857	0.7	984.714285714286	0.6	1068.5	0.8	1100.75	0.9	895.222222222222	0.8	1073.875	0.5	947.8	13	337837	2	337825	27	40	337864	-999999	337840	0	23	Cue2BackPROC	""	2	2	2	SessionSelectionList									15	51833	-16	0																																													2												
WM080112	211720_fnca	2	1	1	-1826526645	1	75.030	75.030	2.0.10.147	2.0.10.242	2.0.10.242	1.0.0.439	7	234	2	3	Verdana	1	80	0	0	0	WM Stimuli\	0.8	1076.875	0.7	1136.42857142857	0.7	984.714285714286	0.6	1068.5	0.8	1100.75	0.9	895.222222222222	0.8	1073.875	0.5	947.8	13	337837	2	337825	27	40	337864	-999999	337840	0	24	TrialsPROC	TO_014_TOOL14_BA.png	2	2	3	SessionSelectionList														nonlure	3	Tools	2-Back	2	80	1	0	0	0	1	53	56445	3	13	74	54392	-1	56153	1	1761	3	3	2053	66	56458	-67	0																3												
WM080112	211720_fnca	2	1	1	-1826526645	1	75.030	75.030	2.0.10.147	2.0.10.242	2.0.10.242	1.0.0.439	7	234	2	3	Verdana	1	80	0	0	0	WM Stimuli\	0.8	1076.875	0.7	1136.42857142857	0.7	984.714285714286	0.6	1068.5	0.8	1100.75	0.9	895.222222222222	0.8	1073.875	0.5	947.8	13	337837	2	337825	27	40	337864	-999999	337840	0	24	TrialsPROC	TO_013_TOOL13_BA.png	2	2	4	SessionSelectionList														nonlure	3	Tools	2-Back	3	80	2	0	0	0	2	39	59017	2	14	86	56978	-1	57435	1	457	3	3	2039	53	59031	-54	0																4												
WM080112	211720_fnca	2	1	1	-1826526645	1	75.030	75.030	2.0.10.147	2.0.10.242	2.0.10.242	1.0.0.439	7	234	2	3	Verdana	1	80	0	0	0	WM Stimuli\	0.8	1076.875	0.7	1136.42857142857	0.7	984.714285714286	0.6	1068.5	0.8	1100.75	0.9	895.222222222222	0.8	1073.875	0.5	947.8	13	337837	2	337825	27	40	337864	-999999	337840	0	24	TrialsPROC	TO_016_TOOL16_BA.png	2	2	5	SessionSelectionList														nonlure	3	Tools	2-Back	4	80	3	0	0	0	3	39	61589	2	14	72	59550	-1	60166	1	616	3	3	2039	53	61603	-54	0																5												
WM080112	211720_fnca	2	1	1	-1826526645	1	75.030	75.030	2.0.10.147	2.0.10.242	2.0.10.242	1.0.0.439	7	234	2	3	Verdana	1	80	0	0	0	WM Stimuli\	0.8	1076.875	0.7	1136.42857142857	0.7	984.714285714286	0.6	1068.5	0.8	1100.75	0.9	895.222222222222	0.8	1073.875	0.5	947.8	13	337837	2	337825	27	40	337864	-999999	337840	0	24	TrialsPROC	TO_014_TOOL14_BA.png	2	2	6	SessionSelectionList														lure	3	Tools	2-Back	5	80	4	0	0	0	4	40	64162	1	13	72	62122	-1	63276	1	1154	3	3	2040	53	64175	-54	0																6												
WM080112	211720_fnca	2	1	1	-1826526645	1	75.030	75.030	2.0.10.147	2.0.10.242	2.0.10.242	1.0.0.439	7	234	2	3	Verdana	1	80	0	0	0	WM Stimuli\	0.8	1076.875	0.7	1136.42857142857	0.7	984.714285714286	0.6	1068.5	0.8	1100.75	0.9	895.222222222222	0.8	1073.875	0.5	947.8	13	337837	2	337825	27	40	337864	-999999	337840	0	24	TrialsPROC	TO_016_TOOL16_BA.png	2	2	7	SessionSelectionList														target	2	Tools	2-Back	6	80	5	0	0	0	5	38	66720	2	14	60	64682	-1	66418	0	1736	3	2	2038	52	66734	-53	0																7												
WM080112	211720_fnca	2	1	1	-1826526645	1	75.030	75.030	2.0.10.147	2.0.10.242	2.0.10.242	1.0.0.439	7	234	2	3	Verdana	1	80	0	0	0	WM Stimuli\	0.8	1076.875	0.7	1136.42857142857	0.7	984.714285714286	0.6	1068.5	0.8	1100.75	0.9	895.222222222222	0.8	1073.875	0.5	947.8	13	337837	2	337825	27	40	337864	-999999	337840	0	24	TrialsPROC	TO_018_TOOL18_BA.png	2	2	8	SessionSelectionList														nonlure	3	Tools	2-Back	7	80	6	0	0	0	6	39	69306	2	14	85	67267	-1	69005	1	1738	3	3	2039	53	69320	-54	0																8												
WM080112	211720_fnca	2	1	1	-1826526645	1	75.030	75.030	2.0.10.147	2.0.10.242	2.0.10.242	1.0.0.439	7	234	2	3	Verdana	1	80	0	0	0	WM Stimuli\	0.8	1076.875	0.7	1136.42857142857	0.7	984.714285714286	0.6	1068.5	0.8	1100.75	0.9	895.222222222222	0.8	1073.875	0.5	947.8	13	337837	2	337825	27	40	337864	-999999	337840	0	24	TrialsPROC	TO_017_TOOL17_BA.png	2	2	9	SessionSelectionList														nonlure	3	Tools	2-Back	8	80	7	0	0	0	7	39	71892	1	13	86	69853	-1	70930	1	1077	3	3	2039	52	71905	-53	0																9												
WM080112	211720_fnca	2	1	1	-1826526645	1	75.030	75.030	2.0.10.147	2.0.10.242	2.0.10.242	1.0.0.439	7	234	2	3	Verdana	1	80	0	0	0	WM Stimuli\	0.8	1076.875	0.7	1136.42857142857	0.7	984.714285714286	0.6	1068.5	0.8	1100.75	0.9	895.222222222222	0.8	1073.875	0.5	947.8	13	337837	2	337825	27	40	337864	-999999	337840	0	24	TrialsPROC	TO_018_TOOL18_BA.png	2	2	10	SessionSelectionList														target	2	Tools	2-Back	9	80	8	0	0	0	1	39	74451	1	13	59	72412	-1	73178	1	766	2	2	2039	52	74464	-53	0																10												
WM080112	211720_fnca	2	1	1	-1826526645	1	75.030	75.030	2.0.10.147	2.0.10.242	2.0.10.242	1.0.0.439	7	234	2	3	Verdana	1	80	0	0	0	WM Stimuli\	0.8	1076.875	0.7	1136.42857142857	0.7	984.714285714286	0.6	1068.5	0.8	1100.75	0.9	895.222222222222	0.8	1073.875	0.5	947.8	13	337837	2	337825	27	40	337864	-999999	337840	0	24	TrialsPROC	TO_015_TOOL15_BA.png	2	2	11	SessionSelectionList														nonlure	3	Tools	2-Back	10	80	9	0	0	0	1	39	77036	2	14	85	74997	-1	76019	1	1022	3	3	2039	53	77050	-54	0																11												
WM080112	211720_fnca	2	1	1	-1826526645	1	75.030	75.030	2.0.10.147	2.0.10.242	2.0.10.242	1.0.0.439	7	234	2	3	Verdana	1	80	0	0	0	WM Stimuli\	0.8	1076.875	0.7	1136.42857142857	0.7	984.714285714286	0.6	1068.5	0.8	1100.75	0.9	895.222222222222	0.8	1073.875	0.5	947.8	13	337837	2	337825	27	40	337864	-999999	337840	0	24	TrialsPROC	TO_017_TOOL17_BA.png	2	2	12	SessionSelectionList														lure	3	Tools	2-Back	11	80	10	0	0	0	1	39	79595	2	14	59	77556	-1	78656	0	1100	2	3	2039	53	79609	-54	0																12												
WM080112	211720_fnca	2	1	1	-1826526645	1	75.030	75.030	2.0.10.147	2.0.10.242	2.0.10.242	1.0.0.439	7	234	2	3	Verdana	1	80	0	0	0	WM Stimuli\	0.8	1076.875	0.7	1136.42857142857	0.7	984.714285714286	0.6	1068.5	0.8	1100.75	0.9	895.222222222222	0.8	1073.875	0.5	947.8	13	337837	2	337825	27	40	337864	-999999	337840	0	25	Cue0BackPROC	BP_013_BP7_BA.png	2	2	13	SessionSelectionList																																										32	80088	-33	0												13												
WM080112	211720_fnca	2	1	1	-1826526645	1	75.030	75.030	2.0.10.147	2.0.10.242	2.0.10.242	1.0.0.439	7	234	2	3	Verdana	1	80	0	0	0	WM Stimuli\	0.8	1076.875	0.7	1136.42857142857	0.7	984.714285714286	0.6	1068.5	0.8	1100.75	0.9	895.222222222222	0.8	1073.875	0.5	947.8	13	337837	2	337825	27	40	337864	-999999	337840	0	26	TrialsPROC	BP_015_H10-T_BA.png	2	2	14	SessionSelectionList														nonlure	3	Body	0-Back	12	80	11	0	0	100	1	39	84673	2	14	78	82634	-1	83902	1	1268	3	3	2039	53	84687	-54	0																14												
WM080112	211720_fnca	2	1	1	-1826526645	1	75.030	75.030	2.0.10.147	2.0.10.242	2.0.10.242	1.0.0.439	7	234	2	3	Verdana	1	80	0	0	0	WM Stimuli\	0.8	1076.875	0.7	1136.42857142857	0.7	984.714285714286	0.6	1068.5	0.8	1100.75	0.9	895.222222222222	0.8	1073.875	0.5	947.8	13	337837	2	337825	27	40	337864	-999999	337840	0	26	TrialsPROC	BP_018_H13-T_BA.png	2	2	15	SessionSelectionList														nonlure	3	Body	0-Back	13	80	12	0	0	50	1	39	87259	1	14	86	85220	-1	87015	0	1795	2	3	2039	53	87273	-54	0																15												
WM080112	211720_fnca	2	1	1	-1826526645	1	75.030	75.030	2.0.10.147	2.0.10.242	2.0.10.242	1.0.0.439	7	234	2	3	Verdana	1	80	0	0	0	WM Stimuli\	0.8	1076.875	0.7	1136.42857142857	0.7	984.714285714286	0.6	1068.5	0.8	1100.75	0.9	895.222222222222	0.8	1073.875	0.5	947.8	13	337837	2	337825	27	40	337864	-999999	337840	0	26	TrialsPROC	BP_014_BP9_BA.png	2	2	16	SessionSelectionList														nonlure	3	Body	0-Back	14	80	13	0	0	67	1	39	89844	2	14	85	87805	-1	88571	1	766	3	3	2039	53	89858	-54	0																16												
WM080112	211720_fnca	2	1	1	-1826526645	1	75.030	75.030	2.0.10.147	2.0.10.242	2.0.10.242	1.0.0.439	7	234	2	3	Verdana	1	80	0	0	0	WM Stimuli\	0.8	1076.875	0.7	1136.42857142857	0.7	984.714285714286	0.6	1068.5	0.8	1100.75	0.9	895.222222222222	0.8	1073.875	0.5	947.8	13	337837	2	337825	27	40	337864	-999999	337840	0	26	TrialsPROC	BP_018_H13-T_BA.png	2	2	17	SessionSelectionList														lure	3	Body	0-Back	15	80	14	0	0	75	2	39	92403	2	14	59	90364	-1	91960	1	1596	3	3	2039	53	92417	-54	0																17												
WM080112	211720_fnca	2	1	1	-1826526645	1	75.030	75.030	2.0.10.147	2.0.10.242	2.0.10.242	1.0.0.439	7	234	2	3	Verdana	1	80	0	0	0	WM Stimuli\	0.8	1076.875	0.7	1136.42857142857	0.7	984.714285714286	0.6	1068.5	0.8	1100.75	0.9	895.222222222222	0.8	1073.875	0.5	947.8	13	337837	2	337825	27	40	337864	-999999	337840	0	26	TrialsPROC	BP_013_BP7_BA.png	2	2	18	SessionSelectionList														target	2	Body	0-Back	16	80	14	0	1	60	2	38	94962	2	14	60	92924	-1	0	0	0	""	2	2038	52	94976	-53	0																18												
WM080112	211720_fnca	2	1	1	-1826526645	1	75.030	75.030	2.0.10.147	2.0.10.242	2.0.10.242	1.0.0.439	7	234	2	3	Verdana	1	80	0	0	0	WM Stimuli\	0.8	1076.875	0.7	1136.42857142857	0.7	984.714285714286	0.6	1068.5	0.8	1100.75	0.9	895.222222222222	0.8	1073.875	0.5	947.8	13	337837	2	337825	27	40	337864	-999999	337840	0	26	TrialsPROC	BP_015_H10-T_BA.png	2	2	19	SessionSelectionList														lure	3	Body	0-Back	17	80	15	0	0	67	1	39	97521	2	14	58	95482	-1	96895	1	1413	3	3	2039	53	97535	-54	0																19												
WM080112	211720_fnca	2	1	1	-1826526645	1	75.030	75.030	2.0.10.147	2.0.10.242	2.0.10.242	1.0.0.439	7	234	2	3	Verdana	1	80	0	0	0	WM Stimuli\	0.8	1076.875	0.7	1136.42857142857	0.7	984.714285714286	0.6	1068.5	0.8	1100.75	0.9	895.222222222222	0.8	1073.875	0.5	947.8	13	337837	2	337825	27	40	337864	-999999	337840	0	26	TrialsPROC	BP_016_H11-T_BA.png	2	2	20	SessionSelectionList														nonlure	3	Body	0-Back	18	80	16	0	0	71	2	39	100107	2	14	86	98068	-1	98911	1	843	3	3	2039	53	100121	-54	0																20												
WM080112	211720_fnca	2	1	1	-1826526645	1	75.030	75.030	2.0.10.147	2.0.10.242	2.0.10.242	1.0.0.439	7	234	2	3	Verdana	1	80	0	0	0	WM Stimuli\	0.8	1076.875	0.7	1136.42857142857	0.7	984.714285714286	0.6	1068.5	0.8	1100.75	0.9	895.222222222222	0.8	1073.875	0.5	947.8	13	337837	2	337825	27	40	337864	-999999	337840	0	26	TrialsPROC	BP_013_BP7_BA.png	2	2	21	SessionSelectionList														target	2	Body	0-Back	19	80	17	0	0	62	3	39	102666	1	14	59	100627	-1	101277	0	650	3	2	2039	53	102680	-54	0																21												
WM080112	211720_fnca	2	1	1	-1826526645	1	75.030	75.030	2.0.10.147	2.0.10.242	2.0.10.242	1.0.0.439	7	234	2	3	Verdana	1	80	0	0	0	WM Stimuli\	0.8	1076.875	0.7	1136.42857142857	0.7	984.714285714286	0.6	1068.5	0.8	1100.75	0.9	895.222222222222	0.8	1073.875	0.5	947.8	13	337837	2	337825	27	40	337864	-999999	337840	0	26	TrialsPROC	BP_017_H12-T_BA.png	2	2	22	SessionSelectionList														nonlure	3	Body	0-Back	20	80	18	0	0	67	4	40	105252	1	13	85	103212	-1	104470	1	1258	3	3	2040	53	105265	-54	0																22												
WM080112	211720_fnca	2	1	1	-1826526645	1	75.030	75.030	2.0.10.147	2.0.10.242	2.0.10.242	1.0.0.439	7	234	2	3	Verdana	1	80	0	0	0	WM Stimuli\	0.8	1076.875	0.7	1136.42857142857	0.7	984.714285714286	0.6	1068.5	0.8	1100.75	0.9	895.222222222222	0.8	1073.875	0.5	947.8	13	337837	2	337825	27	40	337864	-999999	337840	0	26	TrialsPROC	BP_014_BP9_BA.png	2	2	23	SessionSelectionList														lure	3	Body	0-Back	21	80	19	0	0	70	5	39	107810	2	14	59	105771	-1	106582	1	811	3	3	2039	53	107824	-54	0																23												
WM080112	211720_fnca	2	1	1	-1826526645	1	75.030	75.030	2.0.10.147	2.0.10.242	2.0.10.242	1.0.0.439	7	234	2	3	Verdana	1	80	0	0	0	WM Stimuli\	0.8	1076.875	0.7	1136.42857142857	0.7	984.714285714286	0.6	1068.5	0.8	1100.75	0.9	895.222222222222	0.8	1073.875	0.5	947.8	13	337837	2	337825	27	40	337864	-999999	337840	0	27	Fix15secPROC	""	2	2	24	SessionSelectionList																																															6	108277	-7	0							24												
WM080112	211720_fnca	2	1	1	-1826526645	1	75.030	75.030	2.0.10.147	2.0.10.242	2.0.10.242	1.0.0.439	7	234	2	3	Verdana	1	80	0	0	0	WM Stimuli\	0.8	1076.875	0.7	1136.42857142857	0.7	984.714285714286	0.6	1068.5	0.8	1100.75	0.9	895.222222222222	0.8	1073.875	0.5	947.8	13	337837	2	337825	27	40	337864	-999999	337840	0	28	Cue2BackPROC	""	2	2	25	SessionSelectionList									13	123284	-14	0																																													25												
WM080112	211720_fnca	2	1	1	-1826526645	1	75.030	75.030	2.0.10.147	2.0.10.242	2.0.10.242	1.0.0.439	7	234	2	3	Verdana	1	80	0	0	0	WM Stimuli\	0.8	1076.875	0.7	1136.42857142857	0.7	984.714285714286	0.6	1068.5	0.8	1100.75	0.9	895.222222222222	0.8	1073.875	0.5	947.8	13	337837	2	337825	27	40	337864	-999999	337840	0	29	TrialsPROC	FC_015_M8.png	2	2	26	SessionSelectionList														nonlure	3	Face	2-Back	22	80	19	0	1	70	5	39	127882	2	14	72	125843	-1	0	0	0	""	3	2039	53	127896	-54	0																26												
WM080112	211720_fnca	2	1	1	-1826526645	1	75.030	75.030	2.0.10.147	2.0.10.242	2.0.10.242	1.0.0.439	7	234	2	3	Verdana	1	80	0	0	0	WM Stimuli\	0.8	1076.875	0.7	1136.42857142857	0.7	984.714285714286	0.6	1068.5	0.8	1100.75	0.9	895.222222222222	0.8	1073.875	0.5	947.8	13	337837	2	337825	27	40	337864	-999999	337840	0	29	TrialsPROC	FC_018_F9.png	2	2	27	SessionSelectionList														nonlure	3	Face	2-Back	23	80	20	0	0	70	1	39	130481	2	14	99	128442	-1	129594	1	1152	3	3	2039	53	130495	-54	0																27												
WM080112	211720_fnca	2	1	1	-1826526645	1	75.030	75.030	2.0.10.147	2.0.10.242	2.0.10.242	1.0.0.439	7	234	2	3	Verdana	1	80	0	0	0	WM Stimuli\	0.8	1076.875	0.7	1136.42857142857	0.7	984.714285714286	0.6	1068.5	0.8	1100.75	0.9	895.222222222222	0.8	1073.875	0.5	947.8	13	337837	2	337825	27	40	337864	-999999	337840	0	29	TrialsPROC	FC_018_F9.png	2	2	28	SessionSelectionList														lure	3	Face	2-Back	24	80	21	0	0	70	2	40	133054	1	13	72	131014	-1	131986	1	972	3	3	2040	53	133067	-54	0																28												
WM080112	211720_fnca	2	1	1	-1826526645	1	75.030	75.030	2.0.10.147	2.0.10.242	2.0.10.242	1.0.0.439	7	234	2	3	Verdana	1	80	0	0	0	WM Stimuli\	0.8	1076.875	0.7	1136.42857142857	0.7	984.714285714286	0.6	1068.5	0.8	1100.75	0.9	895.222222222222	0.8	1073.875	0.5	947.8	13	337837	2	337825	27	40	337864	-999999	337840	0	29	TrialsPROC	FC_017_M9.png	2	2	29	SessionSelectionList														nonlure	3	Face	2-Back	25	80	22	0	0	70	3	39	135639	2	14	86	133600	-1	134644	1	1044	3	3	2039	53	135653	-54	0																29												
WM080112	211720_fnca	2	1	1	-1826526645	1	75.030	75.030	2.0.10.147	2.0.10.242	2.0.10.242	1.0.0.439	7	234	2	3	Verdana	1	80	0	0	0	WM Stimuli\	0.8	1076.875	0.7	1136.42857142857	0.7	984.714285714286	0.6	1068.5	0.8	1100.75	0.9	895.222222222222	0.8	1073.875	0.5	947.8	13	337837	2	337825	27	40	337864	-999999	337840	0	29	TrialsPROC	FC_017_M9.png	2	2	30	SessionSelectionList														lure	3	Face	2-Back	26	80	23	0	0	70	4	39	138211	2	14	72	136172	-1	137483	1	1311	3	3	2039	53	138225	-54	0																30												
WM080112	211720_fnca	2	1	1	-1826526645	1	75.030	75.030	2.0.10.147	2.0.10.242	2.0.10.242	1.0.0.439	7	234	2	3	Verdana	1	80	0	0	0	WM Stimuli\	0.8	1076.875	0.7	1136.42857142857	0.7	984.714285714286	0.6	1068.5	0.8	1100.75	0.9	895.222222222222	0.8	1073.875	0.5	947.8	13	337837	2	337825	27	40	337864	-999999	337840	0	29	TrialsPROC	FC_016_F8.png	2	2	31	SessionSelectionList														nonlure	3	Face	2-Back	27	80	24	0	0	70	5	39	140797	2	14	86	138758	-1	139563	1	805	3	3	2039	53	140811	-54	0																31												
WM080112	211720_fnca	2	1	1	-1826526645	1	75.030	75.030	2.0.10.147	2.0.10.242	2.0.10.242	1.0.0.439	7	234	2	3	Verdana	1	80	0	0	0	WM Stimuli\	0.8	1076.875	0.7	1136.42857142857	0.7	984.714285714286	0.6	1068.5	0.8	1100.75	0.9	895.222222222222	0.8	1073.875	0.5	947.8	13	337837	2	337825	27	40	337864	-999999	337840	0	29	TrialsPROC	FC_013_M7.png	2	2	32	SessionSelectionList														nonlure	3	Face	2-Back	28	80	25	0	0	70	6	39	143383	1	13	86	141344	-1	142105	1	761	3	3	2039	52	143396	-53	0																32												
WM080112	211720_fnca	2	1	1	-1826526645	1	75.030	75.030	2.0.10.147	2.0.10.242	2.0.10.242	1.0.0.439	7	234	2	3	Verdana	1	80	0	0	0	WM Stimuli\	0.8	1076.875	0.7	1136.42857142857	0.7	984.714285714286	0.6	1068.5	0.8	1100.75	0.9	895.222222222222	0.8	1073.875	0.5	947.8	13	337837	2	337825	27	40	337864	-999999	337840	0	29	TrialsPROC	FC_014_F7.png	2	2	33	SessionSelectionList														nonlure	3	Face	2-Back	29	80	26	0	0	70	7	39	145968	2	14	85	143929	-1	144777	1	848	3	3	2039	53	145982	-54	0																33												
WM080112	211720_fnca	2	1	1	-1826526645	1	75.030	75.030	2.0.10.147	2.0.10.242	2.0.10.242	1.0.0.439	7	234	2	3	Verdana	1	80	0	0	0	WM Stimuli\	0.8	1076.875	0.7	1136.42857142857	0.7	984.714285714286	0.6	1068.5	0.8	1100.75	0.9	895.222222222222	0.8	1073.875	0.5	947.8	13	337837	2	337825	27	40	337864	-999999	337840	0	29	TrialsPROC	FC_013_M7.png	2	2	34	SessionSelectionList														target	2	Face	2-Back	30	80	27	0	0	70	8	40	148541	1	13	72	146501	-1	147910	0	1409	3	2	2040	53	148554	-54	0																34												
WM080112	211720_fnca	2	1	1	-1826526645	1	75.030	75.030	2.0.10.147	2.0.10.242	2.0.10.242	1.0.0.439	7	234	2	3	Verdana	1	80	0	0	0	WM Stimuli\	0.8	1076.875	0.7	1136.42857142857	0.7	984.714285714286	0.6	1068.5	0.8	1100.75	0.9	895.222222222222	0.8	1073.875	0.5	947.8	13	337837	2	337825	27	40	337864	-999999	337840	0	29	TrialsPROC	FC_014_F7.png	2	2	35	SessionSelectionList														target	2	Face	2-Back	31	80	28	0	0	70	9	39	151113	1	14	73	149074	-1	150340	0	1266	3	2	2039	53	151127	-54	0																35												
WM080112	211720_fnca	2	1	1	-1826526645	1	75.030	75.030	2.0.10.147	2.0.10.242	2.0.10.242	1.0.0.439	7	234	2	3	Verdana	1	80	0	0	0	WM Stimuli\	0.8	1076.875	0.7	1136.42857142857	0.7	984.714285714286	0.6	1068.5	0.8	1100.75	0.9	895.222222222222	0.8	1073.875	0.5	947.8	13	337837	2	337825	27	40	337864	-999999	337840	0	30	Cue0BackPROC	TO_019_TOOL19_BA.png	2	2	36	SessionSelectionList																																										45	151619	-46	0												36												
WM080112	211720_fnca	2	1	1	-1826526645	1	75.030	75.030	2.0.10.147	2.0.10.242	2.0.10.242	1.0.0.439	7	234	2	3	Verdana	1	80	0	0	0	WM Stimuli\	0.8	1076.875	0.7	1136.42857142857	0.7	984.714285714286	0.6	1068.5	0.8	1100.75	0.9	895.222222222222	0.8	1073.875	0.5	947.8	13	337837	2	337825	27	40	337864	-999999	337840	0	31	TrialsPROC	TO_019_TOOL19_BA.png	2	2	37	SessionSelectionList														target	2	Tools	0-Back	32	80	28	0	1	64	9	39	156164	2	14	51	154125	-1	0	0	0	""	2	2039	53	156178	-54	0																37												
WM080112	211720_fnca	2	1	1	-1826526645	1	75.030	75.030	2.0.10.147	2.0.10.242	2.0.10.242	1.0.0.439	7	234	2	3	Verdana	1	80	0	0	0	WM Stimuli\	0.8	1076.875	0.7	1136.42857142857	0.7	984.714285714286	0.6	1068.5	0.8	1100.75	0.9	895.222222222222	0.8	1073.875	0.5	947.8	13	337837	2	337825	27	40	337864	-999999	337840	0	31	TrialsPROC	TO_024_TOOL24_BA.png	2	2	38	SessionSelectionList														nonlure	3	Tools	0-Back	33	80	29	0	0	67	1	39	158750	1	14	86	156711	-1	157934	1	1223	3	3	2039	53	158764	-54	0																38												
WM080112	211720_fnca	2	1	1	-1826526645	1	75.030	75.030	2.0.10.147	2.0.10.242	2.0.10.242	1.0.0.439	7	234	2	3	Verdana	1	80	0	0	0	WM Stimuli\	0.8	1076.875	0.7	1136.42857142857	0.7	984.714285714286	0.6	1068.5	0.8	1100.75	0.9	895.222222222222	0.8	1073.875	0.5	947.8	13	337837	2	337825	27	40	337864	-999999	337840	0	31	TrialsPROC	TO_019_TOOL19_BA.png	2	2	39	SessionSelectionList														target	2	Tools	0-Back	34	80	30	0	0	62	2	39	161309	1	13	59	159270	-1	160650	0	1380	3	2	2039	52	161322	-53	0																39												
WM080112	211720_fnca	2	1	1	-1826526645	1	75.030	75.030	2.0.10.147	2.0.10.242	2.0.10.242	1.0.0.439	7	234	2	3	Verdana	1	80	0	0	0	WM Stimuli\	0.8	1076.875	0.7	1136.42857142857	0.7	984.714285714286	0.6	1068.5	0.8	1100.75	0.9	895.222222222222	0.8	1073.875	0.5	947.8	13	337837	2	337825	27	40	337864	-999999	337840	0	31	TrialsPROC	TO_023_TOOL23_BA.png	2	2	40	SessionSelectionList														nonlure	3	Tools	0-Back	35	80	31	0	0	64	3	39	163881	1	14	72	161842	-1	162692	1	850	3	3	2039	53	163895	-54	0																40												
WM080112	211720_fnca	2	1	1	-1826526645	1	75.030	75.030	2.0.10.147	2.0.10.242	2.0.10.242	1.0.0.439	7	234	2	3	Verdana	1	80	0	0	0	WM Stimuli\	0.8	1076.875	0.7	1136.42857142857	0.7	984.714285714286	0.6	1068.5	0.8	1100.75	0.9	895.222222222222	0.8	1073.875	0.5	947.8	13	337837	2	337825	27	40	337864	-999999	337840	0	31	TrialsPROC	TO_020_TOOL20_BA.png	2	2	41	SessionSelectionList														nonlure	3	Tools	0-Back	36	80	32	0	0	67	4	39	166453	2	14	72	164414	-1	165705	1	1291	3	3	2039	53	166467	-54	0																41												
WM080112	211720_fnca	2	1	1	-1826526645	1	75.030	75.030	2.0.10.147	2.0.10.242	2.0.10.242	1.0.0.439	7	234	2	3	Verdana	1	80	0	0	0	WM Stimuli\	0.8	1076.875	0.7	1136.42857142857	0.7	984.714285714286	0.6	1068.5	0.8	1100.75	0.9	895.222222222222	0.8	1073.875	0.5	947.8	13	337837	2	337825	27	40	337864	-999999	337840	0	31	TrialsPROC	TO_020_TOOL20_BA.png	2	2	42	SessionSelectionList														lure	3	Tools	0-Back	37	80	33	0	0	62	1	39	169012	2	14	59	166973	-1	167783	0	810	2	3	2039	53	169026	-54	0																42												
WM080112	211720_fnca	2	1	1	-1826526645	1	75.030	75.030	2.0.10.147	2.0.10.242	2.0.10.242	1.0.0.439	7	234	2	3	Verdana	1	80	0	0	0	WM Stimuli\	0.8	1076.875	0.7	1136.42857142857	0.7	984.714285714286	0.6	1068.5	0.8	1100.75	0.9	895.222222222222	0.8	1073.875	0.5	947.8	13	337837	2	337825	27	40	337864	-999999	337840	0	31	TrialsPROC	TO_022_TOOL22_BA.png	2	2	43	SessionSelectionList														nonlure	3	Tools	0-Back	38	80	34	0	0	65	1	39	171598	1	14	86	169559	-1	170328	1	769	3	3	2039	53	171612	-54	0																43												
WM080112	211720_fnca	2	1	1	-1826526645	1	75.030	75.030	2.0.10.147	2.0.10.242	2.0.10.242	1.0.0.439	7	234	2	3	Verdana	1	80	0	0	0	WM Stimuli\	0.8	1076.875	0.7	1136.42857142857	0.7	984.714285714286	0.6	1068.5	0.8	1100.75	0.9	895.222222222222	0.8	1073.875	0.5	947.8	13	337837	2	337825	27	40	337864	-999999	337840	0	31	TrialsPROC	TO_022_TOOL22_BA.png	2	2	44	SessionSelectionList														lure	3	Tools	0-Back	39	80	35	0	0	61	1	39	174157	1	14	59	172118	-1	172970	0	852	2	3	2039	53	174171	-54	0																44												
WM080112	211720_fnca	2	1	1	-1826526645	1	75.030	75.030	2.0.10.147	2.0.10.242	2.0.10.242	1.0.0.439	7	234	2	3	Verdana	1	80	0	0	0	WM Stimuli\	0.8	1076.875	0.7	1136.42857142857	0.7	984.714285714286	0.6	1068.5	0.8	1100.75	0.9	895.222222222222	0.8	1073.875	0.5	947.8	13	337837	2	337825	27	40	337864	-999999	337840	0	31	TrialsPROC	TO_021_TOOL21_BA.png	2	2	45	SessionSelectionList														nonlure	3	Tools	0-Back	40	80	36	0	0	63	1	39	176729	2	14	72	174690	-1	175296	1	606	3	3	2039	53	176743	-54	0																45												
WM080112	211720_fnca	2	1	1	-1826526645	1	75.030	75.030	2.0.10.147	2.0.10.242	2.0.10.242	1.0.0.439	7	234	2	3	Verdana	1	80	0	0	0	WM Stimuli\	0.8	1076.875	0.7	1136.42857142857	0.7	984.714285714286	0.6	1068.5	0.8	1100.75	0.9	895.222222222222	0.8	1073.875	0.5	947.8	13	337837	2	337825	27	40	337864	-999999	337840	0	31	TrialsPROC	TO_021_TOOL21_BA.png	2	2	46	SessionSelectionList														lure	3	Tools	0-Back	41	80	37	0	0	60	1	39	179288	3	14	59	177249	-1	177722	0	473	2	3	2039	53	179302	-54	0																46												
WM080112	211720_fnca	2	1	1	-1826526645	1	75.030	75.030	2.0.10.147	2.0.10.242	2.0.10.242	1.0.0.439	7	234	2	3	Verdana	1	80	0	0	0	WM Stimuli\	0.8	1076.875	0.7	1136.42857142857	0.7	984.714285714286	0.6	1068.5	0.8	1100.75	0.9	895.222222222222	0.8	1073.875	0.5	947.8	13	337837	2	337825	27	40	337864	-999999	337840	0	32	Fix15secPROC	""	2	2	47	SessionSelectionList																																															6	179755	-7	0							47												
WM080112	211720_fnca	2	1	1	-1826526645	1	75.030	75.030	2.0.10.147	2.0.10.242	2.0.10.242	1.0.0.439	7	234	2	3	Verdana	1	80	0	0	0	WM Stimuli\	0.8	1076.875	0.7	1136.42857142857	0.7	984.714285714286	0.6	1068.5	0.8	1100.75	0.9	895.222222222222	0.8	1073.875	0.5	947.8	13	337837	2	337825	27	40	337864	-999999	337840	0	33	Cue2BackPROC	""	2	2	48	SessionSelectionList									13	194762	-14	0																																													48												
WM080112	211720_fnca	2	1	1	-1826526645	1	75.030	75.030	2.0.10.147	2.0.10.242	2.0.10.242	1.0.0.439	7	234	2	3	Verdana	1	80	0	0	0	WM Stimuli\	0.8	1076.875	0.7	1136.42857142857	0.7	984.714285714286	0.6	1068.5	0.8	1100.75	0.9	895.222222222222	0.8	1073.875	0.5	947.8	13	337837	2	337825	27	40	337864	-999999	337840	0	34	TrialsPROC	BP_020_H17-T_BA.png	2	2	49	SessionSelectionList														nonlure	3	Body	2-Back	42	80	38	0	0	60	1	39	199373	2	14	85	197334	-1	198926	1	1592	3	3	2039	53	199387	-54	0																49												
WM080112	211720_fnca	2	1	1	-1826526645	1	75.030	75.030	2.0.10.147	2.0.10.242	2.0.10.242	1.0.0.439	7	234	2	3	Verdana	1	80	0	0	0	WM Stimuli\	0.8	1076.875	0.7	1136.42857142857	0.7	984.714285714286	0.6	1068.5	0.8	1100.75	0.9	895.222222222222	0.8	1073.875	0.5	947.8	13	337837	2	337825	27	40	337864	-999999	337840	0	34	TrialsPROC	BP_019_H14-T_BA.png	2	2	50	SessionSelectionList														nonlure	3	Body	2-Back	43	80	39	0	0	60	2	40	201946	2	13	72	199906	-1	200326	1	420	3	3	2040	53	201959	-54	0																50												
WM080112	211720_fnca	2	1	1	-1826526645	1	75.030	75.030	2.0.10.147	2.0.10.242	2.0.10.242	1.0.0.439	7	234	2	3	Verdana	1	80	0	0	0	WM Stimuli\	0.8	1076.875	0.7	1136.42857142857	0.7	984.714285714286	0.6	1068.5	0.8	1100.75	0.9	895.222222222222	0.8	1073.875	0.5	947.8	13	337837	2	337825	27	40	337864	-999999	337840	0	34	TrialsPROC	BP_020_H17-T_BA.png	2	2	51	SessionSelectionList														target	2	Body	2-Back	44	80	40	0	0	60	3	39	204505	1	13	60	202466	-1	203439	0	973	3	2	2039	52	204518	-53	0																51												
WM080112	211720_fnca	2	1	1	-1826526645	1	75.030	75.030	2.0.10.147	2.0.10.242	2.0.10.242	1.0.0.439	7	234	2	3	Verdana	1	80	0	0	0	WM Stimuli\	0.8	1076.875	0.7	1136.42857142857	0.7	984.714285714286	0.6	1068.5	0.8	1100.75	0.9	895.222222222222	0.8	1073.875	0.5	947.8	13	337837	2	337825	27	40	337864	-999999	337840	0	34	TrialsPROC	BP_019_H14-T_BA.png	2	2	52	SessionSelectionList														target	2	Body	2-Back	45	80	41	0	0	60	1	39	207064	1	13	59	205025	-1	206438	1	1413	2	2	2039	52	207077	-53	0																52												
WM080112	211720_fnca	2	1	1	-1826526645	1	75.030	75.030	2.0.10.147	2.0.10.242	2.0.10.242	1.0.0.439	7	234	2	3	Verdana	1	80	0	0	0	WM Stimuli\	0.8	1076.875	0.7	1136.42857142857	0.7	984.714285714286	0.6	1068.5	0.8	1100.75	0.9	895.222222222222	0.8	1073.875	0.5	947.8	13	337837	2	337825	27	40	337864	-999999	337840	0	34	TrialsPROC	BP_024_H3-T_BA.png	2	2	53	SessionSelectionList														nonlure	3	Body	2-Back	46	80	42	0	0	60	1	39	209636	1	14	72	207597	-1	208471	1	874	3	3	2039	53	209650	-54	0																53												
WM080112	211720_fnca	2	1	1	-1826526645	1	75.030	75.030	2.0.10.147	2.0.10.242	2.0.10.242	1.0.0.439	7	234	2	3	Verdana	1	80	0	0	0	WM Stimuli\	0.8	1076.875	0.7	1136.42857142857	0.7	984.714285714286	0.6	1068.5	0.8	1100.75	0.9	895.222222222222	0.8	1073.875	0.5	947.8	13	337837	2	337825	27	40	337864	-999999	337840	0	34	TrialsPROC	BP_024_H3-T_BA.png	2	2	54	SessionSelectionList														lure	3	Body	2-Back	47	80	43	0	0	60	2	39	212195	1	13	59	210156	-1	211218	1	1062	3	3	2039	52	212208	-53	0																54												
WM080112	211720_fnca	2	1	1	-1826526645	1	75.030	75.030	2.0.10.147	2.0.10.242	2.0.10.242	1.0.0.439	7	234	2	3	Verdana	1	80	0	0	0	WM Stimuli\	0.8	1076.875	0.7	1136.42857142857	0.7	984.714285714286	0.6	1068.5	0.8	1100.75	0.9	895.222222222222	0.8	1073.875	0.5	947.8	13	337837	2	337825	27	40	337864	-999999	337840	0	34	TrialsPROC	BP_025_H5-T_BA.png	2	2	55	SessionSelectionList														nonlure	3	Body	2-Back	48	80	44	0	0	60	1	39	214780	2	14	85	212741	-1	213641	0	900	2	3	2039	53	214794	-54	0																55												
WM080112	211720_fnca	2	1	1	-1826526645	1	75.030	75.030	2.0.10.147	2.0.10.242	2.0.10.242	1.0.0.439	7	234	2	3	Verdana	1	80	0	0	0	WM Stimuli\	0.8	1076.875	0.7	1136.42857142857	0.7	984.714285714286	0.6	1068.5	0.8	1100.75	0.9	895.222222222222	0.8	1073.875	0.5	947.8	13	337837	2	337825	27	40	337864	-999999	337840	0	34	TrialsPROC	BP_023_H25-T_BA.png	2	2	56	SessionSelectionList														nonlure	3	Body	2-Back	49	80	45	0	0	60	1	40	217353	1	13	72	215313	-1	216771	1	1458	3	3	2040	53	217366	-54	0																56												
WM080112	211720_fnca	2	1	1	-1826526645	1	75.030	75.030	2.0.10.147	2.0.10.242	2.0.10.242	1.0.0.439	7	234	2	3	Verdana	1	80	0	0	0	WM Stimuli\	0.8	1076.875	0.7	1136.42857142857	0.7	984.714285714286	0.6	1068.5	0.8	1100.75	0.9	895.222222222222	0.8	1073.875	0.5	947.8	13	337837	2	337825	27	40	337864	-999999	337840	0	34	TrialsPROC	BP_022_H24-T_BA.png	2	2	57	SessionSelectionList														nonlure	3	Body	2-Back	50	80	46	0	0	60	2	39	219925	1	14	73	217886	-1	218848	1	962	3	3	2039	53	219939	-54	0																57												
WM080112	211720_fnca	2	1	1	-1826526645	1	75.030	75.030	2.0.10.147	2.0.10.242	2.0.10.242	1.0.0.439	7	234	2	3	Verdana	1	80	0	0	0	WM Stimuli\	0.8	1076.875	0.7	1136.42857142857	0.7	984.714285714286	0.6	1068.5	0.8	1100.75	0.9	895.222222222222	0.8	1073.875	0.5	947.8	13	337837	2	337825	27	40	337864	-999999	337840	0	34	TrialsPROC	BP_022_H24-T_BA.png	2	2	58	SessionSelectionList														lure	3	Body	2-Back	51	80	47	0	0	60	3	39	222484	1	14	59	220445	-1	221279	1	834	3	3	2039	53	222498	-54	0																58												
WM080112	211720_fnca	2	1	1	-1826526645	1	75.030	75.030	2.0.10.147	2.0.10.242	2.0.10.242	1.0.0.439	7	234	2	3	Verdana	1	80	0	0	0	WM Stimuli\	0.8	1076.875	0.7	1136.42857142857	0.7	984.714285714286	0.6	1068.5	0.8	1100.75	0.9	895.222222222222	0.8	1073.875	0.5	947.8	13	337837	2	337825	27	40	337864	-999999	337840	0	35	Cue2BackPROC	""	2	2	59	SessionSelectionList									5	222950	-6	0																																													59												
WM080112	211720_fnca	2	1	1	-1826526645	1	75.030	75.030	2.0.10.147	2.0.10.242	2.0.10.242	1.0.0.439	7	234	2	3	Verdana	1	80	0	0	0	WM Stimuli\	0.8	1076.875	0.7	1136.42857142857	0.7	984.714285714286	0.6	1068.5	0.8	1100.75	0.9	895.222222222222	0.8	1073.875	0.5	947.8	13	337837	2	337825	27	40	337864	-999999	337840	0	36	TrialsPROC	PL_019_SCENE_05.png	2	2	60	SessionSelectionList														nonlure	3	Place	2-Back	52	80	48	0	0	60	4	39	227562	1	14	78	225523	-1	226765	1	1242	3	3	2039	53	227576	-54	0																60												
WM080112	211720_fnca	2	1	1	-1826526645	1	75.030	75.030	2.0.10.147	2.0.10.242	2.0.10.242	1.0.0.439	7	234	2	3	Verdana	1	80	0	0	0	WM Stimuli\	0.8	1076.875	0.7	1136.42857142857	0.7	984.714285714286	0.6	1068.5	0.8	1100.75	0.9	895.222222222222	0.8	1073.875	0.5	947.8	13	337837	2	337825	27	40	337864	-999999	337840	0	36	TrialsPROC	PL_017_SCENE_03.png	2	2	61	SessionSelectionList														nonlure	3	Place	2-Back	53	80	49	0	0	60	5	39	230147	2	14	85	228108	-1	228833	1	725	3	3	2039	53	230161	-54	0																61												
WM080112	211720_fnca	2	1	1	-1826526645	1	75.030	75.030	2.0.10.147	2.0.10.242	2.0.10.242	1.0.0.439	7	234	2	3	Verdana	1	80	0	0	0	WM Stimuli\	0.8	1076.875	0.7	1136.42857142857	0.7	984.714285714286	0.6	1068.5	0.8	1100.75	0.9	895.222222222222	0.8	1073.875	0.5	947.8	13	337837	2	337825	27	40	337864	-999999	337840	0	36	TrialsPROC	PL_017_SCENE_03.png	2	2	62	SessionSelectionList														lure	3	Place	2-Back	54	80	50	0	0	60	6	39	232720	1	13	73	230681	-1	232293	1	1612	3	3	2039	52	232733	-53	0																62												
WM080112	211720_fnca	2	1	1	-1826526645	1	75.030	75.030	2.0.10.147	2.0.10.242	2.0.10.242	1.0.0.439	7	234	2	3	Verdana	1	80	0	0	0	WM Stimuli\	0.8	1076.875	0.7	1136.42857142857	0.7	984.714285714286	0.6	1068.5	0.8	1100.75	0.9	895.222222222222	0.8	1073.875	0.5	947.8	13	337837	2	337825	27	40	337864	-999999	337840	0	36	TrialsPROC	PL_016_SCENE_02.png	2	2	63	SessionSelectionList														nonlure	3	Place	2-Back	55	80	51	0	0	60	7	39	235305	2	14	85	233266	-1	234393	1	1127	3	3	2039	53	235319	-54	0																63												
WM080112	211720_fnca	2	1	1	-1826526645	1	75.030	75.030	2.0.10.147	2.0.10.242	2.0.10.242	1.0.0.439	7	234	2	3	Verdana	1	80	0	0	0	WM Stimuli\	0.8	1076.875	0.7	1136.42857142857	0.7	984.714285714286	0.6	1068.5	0.8	1100.75	0.9	895.222222222222	0.8	1073.875	0.5	947.8	13	337837	2	337825	27	40	337864	-999999	337840	0	36	TrialsPROC	PL_015_SCENE_01.png	2	2	64	SessionSelectionList														nonlure	3	Place	2-Back	56	80	51	0	1	60	7	39	237891	1	14	86	235852	-1	0	0	0	""	3	2039	53	237905	-54	0																64												
WM080112	211720_fnca	2	1	1	-1826526645	1	75.030	75.030	2.0.10.147	2.0.10.242	2.0.10.242	1.0.0.439	7	234	2	3	Verdana	1	80	0	0	0	WM Stimuli\	0.8	1076.875	0.7	1136.42857142857	0.7	984.714285714286	0.6	1068.5	0.8	1100.75	0.9	895.222222222222	0.8	1073.875	0.5	947.8	13	337837	2	337825	27	40	337864	-999999	337840	0	36	TrialsPROC	PL_016_SCENE_02.png	2	2	65	SessionSelectionList														target	2	Place	2-Back	57	80	52	0	0	60	1	39	240463	2	14	72	238424	-1	239118	0	694	3	2	2039	53	240477	-54	0																65												
WM080112	211720_fnca	2	1	1	-1826526645	1	75.030	75.030	2.0.10.147	2.0.10.242	2.0.10.242	1.0.0.439	7	234	2	3	Verdana	1	80	0	0	0	WM Stimuli\	0.8	1076.875	0.7	1136.42857142857	0.7	984.714285714286	0.6	1068.5	0.8	1100.75	0.9	895.222222222222	0.8	1073.875	0.5	947.8	13	337837	2	337825	27	40	337864	-999999	337840	0	36	TrialsPROC	PL_015_SCENE_01.png	2	2	66	SessionSelectionList														target	2	Place	2-Back	58	80	53	0	0	60	1	40	243036	1	13	72	240996	-1	242393	1	1397	2	2	2040	53	243049	-54	0																66												
WM080112	211720_fnca	2	1	1	-1826526645	1	75.030	75.030	2.0.10.147	2.0.10.242	2.0.10.242	1.0.0.439	7	234	2	3	Verdana	1	80	0	0	0	WM Stimuli\	0.8	1076.875	0.7	1136.42857142857	0.7	984.714285714286	0.6	1068.5	0.8	1100.75	0.9	895.222222222222	0.8	1073.875	0.5	947.8	13	337837	2	337825	27	40	337864	-999999	337840	0	36	TrialsPROC	PL_020_SCENE_06.png	2	2	67	SessionSelectionList														nonlure	3	Place	2-Back	59	80	54	0	0	60	1	39	245621	2	14	86	243582	-1	244871	1	1289	3	3	2039	53	245635	-54	0																67												
WM080112	211720_fnca	2	1	1	-1826526645	1	75.030	75.030	2.0.10.147	2.0.10.242	2.0.10.242	1.0.0.439	7	234	2	3	Verdana	1	80	0	0	0	WM Stimuli\	0.8	1076.875	0.7	1136.42857142857	0.7	984.714285714286	0.6	1068.5	0.8	1100.75	0.9	895.222222222222	0.8	1073.875	0.5	947.8	13	337837	2	337825	27	40	337864	-999999	337840	0	36	TrialsPROC	PL_020_SCENE_06.png	2	2	68	SessionSelectionList														lure	3	Place	2-Back	60	80	55	0	0	60	2	39	248193	2	14	72	246154	-1	246590	1	436	3	3	2039	53	248207	-54	0																68												
WM080112	211720_fnca	2	1	1	-1826526645	1	75.030	75.030	2.0.10.147	2.0.10.242	2.0.10.242	1.0.0.439	7	234	2	3	Verdana	1	80	0	0	0	WM Stimuli\	0.8	1076.875	0.7	1136.42857142857	0.7	984.714285714286	0.6	1068.5	0.8	1100.75	0.9	895.222222222222	0.8	1073.875	0.5	947.8	13	337837	2	337825	27	40	337864	-999999	337840	0	36	TrialsPROC	PL_018_SCENE_04.png	2	2	69	SessionSelectionList														nonlure	3	Place	2-Back	61	80	56	0	0	60	3	39	250792	2	14	99	248753	-1	249731	1	978	3	3	2039	53	250806	-54	0																69												
WM080112	211720_fnca	2	1	1	-1826526645	1	75.030	75.030	2.0.10.147	2.0.10.242	2.0.10.242	1.0.0.439	7	234	2	3	Verdana	1	80	0	0	0	WM Stimuli\	0.8	1076.875	0.7	1136.42857142857	0.7	984.714285714286	0.6	1068.5	0.8	1100.75	0.9	895.222222222222	0.8	1073.875	0.5	947.8	13	337837	2	337825	27	40	337864	-999999	337840	0	37	Fix15secPROC	""	2	2	70	SessionSelectionList																																															6	251259	-7	0							70												
WM080112	211720_fnca	2	1	1	-1826526645	1	75.030	75.030	2.0.10.147	2.0.10.242	2.0.10.242	1.0.0.439	7	234	2	3	Verdana	1	80	0	0	0	WM Stimuli\	0.8	1076.875	0.7	1136.42857142857	0.7	984.714285714286	0.6	1068.5	0.8	1100.75	0.9	895.222222222222	0.8	1073.875	0.5	947.8	13	337837	2	337825	27	40	337864	-999999	337840	0	38	Cue0BackPROC	FC_020_F10.png	2	2	71	SessionSelectionList																																										40	266293	-41	0												71												
WM080112	211720_fnca	2	1	1	-1826526645	1	75.030	75.030	2.0.10.147	2.0.10.242	2.0.10.242	1.0.0.439	7	234	2	3	Verdana	1	80	0	0	0	WM Stimuli\	0.8	1076.875	0.7	1136.42857142857	0.7	984.714285714286	0.6	1068.5	0.8	1100.75	0.9	895.222222222222	0.8	1073.875	0.5	947.8	13	337837	2	337825	27	40	337864	-999999	337840	0	39	TrialsPROC	FC_024_F12.png	2	2	72	SessionSelectionList														nonlure	3	Face	0-Back	62	80	57	0	0	62	4	40	270878	1	13	85	268838	-1	270796	1	1958	3	3	2040	53	270891	-54	0																72												
WM080112	211720_fnca	2	1	1	-1826526645	1	75.030	75.030	2.0.10.147	2.0.10.242	2.0.10.242	1.0.0.439	7	234	2	3	Verdana	1	80	0	0	0	WM Stimuli\	0.8	1076.875	0.7	1136.42857142857	0.7	984.714285714286	0.6	1068.5	0.8	1100.75	0.9	895.222222222222	0.8	1073.875	0.5	947.8	13	337837	2	337825	27	40	337864	-999999	337840	0	39	TrialsPROC	FC_023_M12.png	2	2	73	SessionSelectionList														nonlure	3	Face	0-Back	63	80	58	0	0	64	5	39	273463	2	14	86	271424	-1	272265	1	841	3	3	2039	53	273477	-54	0																73												
WM080112	211720_fnca	2	1	1	-1826526645	1	75.030	75.030	2.0.10.147	2.0.10.242	2.0.10.242	1.0.0.439	7	234	2	3	Verdana	1	80	0	0	0	WM Stimuli\	0.8	1076.875	0.7	1136.42857142857	0.7	984.714285714286	0.6	1068.5	0.8	1100.75	0.9	895.222222222222	0.8	1073.875	0.5	947.8	13	337837	2	337825	27	40	337864	-999999	337840	0	39	TrialsPROC	FC_020_F10.png	2	2	74	SessionSelectionList														target	2	Face	0-Back	64	80	59	0	0	61	6	40	276036	1	13	72	273996	-1	274973	0	977	3	2	2040	53	276049	-54	0																74												
WM080112	211720_fnca	2	1	1	-1826526645	1	75.030	75.030	2.0.10.147	2.0.10.242	2.0.10.242	1.0.0.439	7	234	2	3	Verdana	1	80	0	0	0	WM Stimuli\	0.8	1076.875	0.7	1136.42857142857	0.7	984.714285714286	0.6	1068.5	0.8	1100.75	0.9	895.222222222222	0.8	1073.875	0.5	947.8	13	337837	2	337825	27	40	337864	-999999	337840	0	39	TrialsPROC	FC_024_F12.png	2	2	75	SessionSelectionList														lure	3	Face	0-Back	65	80	60	0	0	58	1	39	278608	1	14	73	276569	-1	277218	0	649	2	3	2039	53	278622	-54	0																75												
WM080112	211720_fnca	2	1	1	-1826526645	1	75.030	75.030	2.0.10.147	2.0.10.242	2.0.10.242	1.0.0.439	7	234	2	3	Verdana	1	80	0	0	0	WM Stimuli\	0.8	1076.875	0.7	1136.42857142857	0.7	984.714285714286	0.6	1068.5	0.8	1100.75	0.9	895.222222222222	0.8	1073.875	0.5	947.8	13	337837	2	337825	27	40	337864	-999999	337840	0	39	TrialsPROC	FC_020_F10.png	2	2	76	SessionSelectionList														target	2	Face	0-Back	66	80	61	0	0	56	1	39	281180	2	14	72	279141	-1	280019	0	878	3	2	2039	53	281194	-54	0																76												
WM080112	211720_fnca	2	1	1	-1826526645	1	75.030	75.030	2.0.10.147	2.0.10.242	2.0.10.242	1.0.0.439	7	234	2	3	Verdana	1	80	0	0	0	WM Stimuli\	0.8	1076.875	0.7	1136.42857142857	0.7	984.714285714286	0.6	1068.5	0.8	1100.75	0.9	895.222222222222	0.8	1073.875	0.5	947.8	13	337837	2	337825	27	40	337864	-999999	337840	0	39	TrialsPROC	FC_022_F11.png	2	2	77	SessionSelectionList														nonlure	3	Face	0-Back	67	80	62	0	0	58	2	39	283766	1	13	86	281727	-1	282696	1	969	3	3	2039	52	283779	-53	0																77												
WM080112	211720_fnca	2	1	1	-1826526645	1	75.030	75.030	2.0.10.147	2.0.10.242	2.0.10.242	1.0.0.439	7	234	2	3	Verdana	1	80	0	0	0	WM Stimuli\	0.8	1076.875	0.7	1136.42857142857	0.7	984.714285714286	0.6	1068.5	0.8	1100.75	0.9	895.222222222222	0.8	1073.875	0.5	947.8	13	337837	2	337825	27	40	337864	-999999	337840	0	39	TrialsPROC	FC_023_M12.png	2	2	78	SessionSelectionList														lure	3	Face	0-Back	68	80	63	0	0	59	3	39	286338	1	14	72	284299	-1	285275	1	976	3	3	2039	53	286352	-54	0																78												
WM080112	211720_fnca	2	1	1	-1826526645	1	75.030	75.030	2.0.10.147	2.0.10.242	2.0.10.242	1.0.0.439	7	234	2	3	Verdana	1	80	0	0	0	WM Stimuli\	0.8	1076.875	0.7	1136.42857142857	0.7	984.714285714286	0.6	1068.5	0.8	1100.75	0.9	895.222222222222	0.8	1073.875	0.5	947.8	13	337837	2	337825	27	40	337864	-999999	337840	0	39	TrialsPROC	FC_021_M11.png	2	2	79	SessionSelectionList														nonlure	3	Face	0-Back	69	80	64	0	0	57	1	40	288924	1	13	85	286884	-1	287885	0	1001	2	3	2040	53	288937	-54	0																79												
WM080112	211720_fnca	2	1	1	-1826526645	1	75.030	75.030	2.0.10.147	2.0.10.242	2.0.10.242	1.0.0.439	7	234	2	3	Verdana	1	80	0	0	0	WM Stimuli\	0.8	1076.875	0.7	1136.42857142857	0.7	984.714285714286	0.6	1068.5	0.8	1100.75	0.9	895.222222222222	0.8	1073.875	0.5	947.8	13	337837	2	337825	27	40	337864	-999999	337840	0	39	TrialsPROC	FC_021_M11.png	2	2	80	SessionSelectionList														lure	3	Face	0-Back	70	80	65	0	0	59	1	39	291496	1	14	73	289457	-1	290371	1	914	3	3	2039	53	291510	-54	0																80												
WM080112	211720_fnca	2	1	1	-1826526645	1	75.030	75.030	2.0.10.147	2.0.10.242	2.0.10.242	1.0.0.439	7	234	2	3	Verdana	1	80	0	0	0	WM Stimuli\	0.8	1076.875	0.7	1136.42857142857	0.7	984.714285714286	0.6	1068.5	0.8	1100.75	0.9	895.222222222222	0.8	1073.875	0.5	947.8	13	337837	2	337825	27	40	337864	-999999	337840	0	39	TrialsPROC	FC_019_M10.png	2	2	81	SessionSelectionList														nonlure	3	Face	0-Back	71	80	66	0	0	60	2	40	294082	1	13	85	292042	-1	292795	1	753	3	3	2040	53	294095	-54	0																81												
WM080112	211720_fnca	2	1	1	-1826526645	1	75.030	75.030	2.0.10.147	2.0.10.242	2.0.10.242	1.0.0.439	7	234	2	3	Verdana	1	80	0	0	0	WM Stimuli\	0.8	1076.875	0.7	1136.42857142857	0.7	984.714285714286	0.6	1068.5	0.8	1100.75	0.9	895.222222222222	0.8	1073.875	0.5	947.8	13	337837	2	337825	27	40	337864	-999999	337840	0	40	Cue0BackPROC	PL_021_SCENE_07.png	2	2	82	SessionSelectionList																																										46	294588	-47	0												82												
WM080112	211720_fnca	2	1	1	-1826526645	1	75.030	75.030	2.0.10.147	2.0.10.242	2.0.10.242	1.0.0.439	7	234	2	3	Verdana	1	80	0	0	0	WM Stimuli\	0.8	1076.875	0.7	1136.42857142857	0.7	984.714285714286	0.6	1068.5	0.8	1100.75	0.9	895.222222222222	0.8	1073.875	0.5	947.8	13	337837	2	337825	27	40	337864	-999999	337840	0	41	TrialsPROC	PL_025_SCENE_18.png	2	2	83	SessionSelectionList														nonlure	3	Place	0-Back	72	80	67	0	0	61	3	39	299186	2	14	105	297147	-1	299006	1	1859	3	3	2039	53	299200	-54	0																83												
WM080112	211720_fnca	2	1	1	-1826526645	1	75.030	75.030	2.0.10.147	2.0.10.242	2.0.10.242	1.0.0.439	7	234	2	3	Verdana	1	80	0	0	0	WM Stimuli\	0.8	1076.875	0.7	1136.42857142857	0.7	984.714285714286	0.6	1068.5	0.8	1100.75	0.9	895.222222222222	0.8	1073.875	0.5	947.8	13	337837	2	337825	27	40	337864	-999999	337840	0	41	TrialsPROC	PL_026_SCENE_24.png	2	2	84	SessionSelectionList														nonlure	3	Place	0-Back	73	80	68	0	0	62	4	39	301772	1	13	86	299733	-1	300763	1	1030	3	3	2039	52	301785	-53	0																84												
WM080112	211720_fnca	2	1	1	-1826526645	1	75.030	75.030	2.0.10.147	2.0.10.242	2.0.10.242	1.0.0.439	7	234	2	3	Verdana	1	80	0	0	0	WM Stimuli\	0.8	1076.875	0.7	1136.42857142857	0.7	984.714285714286	0.6	1068.5	0.8	1100.75	0.9	895.222222222222	0.8	1073.875	0.5	947.8	13	337837	2	337825	27	40	337864	-999999	337840	0	41	TrialsPROC	PL_025_SCENE_18.png	2	2	85	SessionSelectionList														lure	3	Place	0-Back	74	80	69	0	0	64	5	39	304344	1	14	72	302305	-1	303344	1	1039	3	3	2039	53	304358	-54	0																85												
WM080112	211720_fnca	2	1	1	-1826526645	1	75.030	75.030	2.0.10.147	2.0.10.242	2.0.10.242	1.0.0.439	7	234	2	3	Verdana	1	80	0	0	0	WM Stimuli\	0.8	1076.875	0.7	1136.42857142857	0.7	984.714285714286	0.6	1068.5	0.8	1100.75	0.9	895.222222222222	0.8	1073.875	0.5	947.8	13	337837	2	337825	27	40	337864	-999999	337840	0	41	TrialsPROC	PL_022_SCENE_08.png	2	2	86	SessionSelectionList														nonlure	3	Place	0-Back	75	80	70	0	0	65	6	39	306930	1	13	86	304891	-1	305742	1	851	3	3	2039	52	306943	-53	0																86												
WM080112	211720_fnca	2	1	1	-1826526645	1	75.030	75.030	2.0.10.147	2.0.10.242	2.0.10.242	1.0.0.439	7	234	2	3	Verdana	1	80	0	0	0	WM Stimuli\	0.8	1076.875	0.7	1136.42857142857	0.7	984.714285714286	0.6	1068.5	0.8	1100.75	0.9	895.222222222222	0.8	1073.875	0.5	947.8	13	337837	2	337825	27	40	337864	-999999	337840	0	41	TrialsPROC	PL_026_SCENE_24.png	2	2	87	SessionSelectionList														lure	3	Place	0-Back	76	80	71	0	0	66	7	39	309502	1	14	72	307463	-1	308374	1	911	3	3	2039	53	309516	-54	0																87												
WM080112	211720_fnca	2	1	1	-1826526645	1	75.030	75.030	2.0.10.147	2.0.10.242	2.0.10.242	1.0.0.439	7	234	2	3	Verdana	1	80	0	0	0	WM Stimuli\	0.8	1076.875	0.7	1136.42857142857	0.7	984.714285714286	0.6	1068.5	0.8	1100.75	0.9	895.222222222222	0.8	1073.875	0.5	947.8	13	337837	2	337825	27	40	337864	-999999	337840	0	41	TrialsPROC	PL_021_SCENE_07.png	2	2	88	SessionSelectionList														target	2	Place	0-Back	77	80	72	0	0	64	8	39	312074	2	14	72	310035	-1	310584	0	549	3	2	2039	53	312088	-54	0																88												
WM080112	211720_fnca	2	1	1	-1826526645	1	75.030	75.030	2.0.10.147	2.0.10.242	2.0.10.242	1.0.0.439	7	234	2	3	Verdana	1	80	0	0	0	WM Stimuli\	0.8	1076.875	0.7	1136.42857142857	0.7	984.714285714286	0.6	1068.5	0.8	1100.75	0.9	895.222222222222	0.8	1073.875	0.5	947.8	13	337837	2	337825	27	40	337864	-999999	337840	0	41	TrialsPROC	PL_021_SCENE_07.png	2	2	89	SessionSelectionList														target	2	Place	0-Back	78	80	73	0	0	65	1	39	314646	2	14	72	312607	-1	313232	1	625	2	2	2039	53	314660	-54	0																89												
WM080112	211720_fnca	2	1	1	-1826526645	1	75.030	75.030	2.0.10.147	2.0.10.242	2.0.10.242	1.0.0.439	7	234	2	3	Verdana	1	80	0	0	0	WM Stimuli\	0.8	1076.875	0.7	1136.42857142857	0.7	984.714285714286	0.6	1068.5	0.8	1100.75	0.9	895.222222222222	0.8	1073.875	0.5	947.8	13	337837	2	337825	27	40	337864	-999999	337840	0	41	TrialsPROC	PL_023_SCENE_09.png	2	2	90	SessionSelectionList														nonlure	3	Place	0-Back	79	80	74	0	0	66	1	39	317219	1	14	73	315180	-1	315650	1	470	3	3	2039	53	317233	-54	0																90												
WM080112	211720_fnca	2	1	1	-1826526645	1	75.030	75.030	2.0.10.147	2.0.10.242	2.0.10.242	1.0.0.439	7	234	2	3	Verdana	1	80	0	0	0	WM Stimuli\	0.8	1076.875	0.7	1136.42857142857	0.7	984.714285714286	0.6	1068.5	0.8	1100.75	0.9	895.222222222222	0.8	1073.875	0.5	947.8	13	337837	2	337825	27	40	337864	-999999	337840	0	41	TrialsPROC	PL_024_SCENE_10.png	2	2	91	SessionSelectionList														nonlure	3	Place	0-Back	80	80	75	0	0	67	2	39	319791	2	14	72	317752	-1	318393	1	641	3	3	2039	53	319805	-54	0																91												
WM080112	211720_fnca	2	1	1	-1826526645	1	75.030	75.030	2.0.10.147	2.0.10.242	2.0.10.242	1.0.0.439	7	234	2	3	Verdana	1	80	0	0	0	WM Stimuli\	0.8	1076.875	0.7	1136.42857142857	0.7	984.714285714286	0.6	1068.5	0.8	1100.75	0.9	895.222222222222	0.8	1073.875	0.5	947.8	13	337837	2	337825	27	40	337864	-999999	337840	0	41	TrialsPROC	PL_022_SCENE_08.png	2	2	92	SessionSelectionList														lure	3	Place	0-Back	80	80	76	0	0	68	3	39	322363	2	14	72	320324	-1	320955	1	631	3	3	2039	53	322377	-54	0																92												
WM080112	211720_fnca	2	1	1	-1826526645	1	75.030	75.030	2.0.10.147	2.0.10.242	2.0.10.242	1.0.0.439	7	234	2	3	Verdana	1	80	0	0	0	WM Stimuli\	0.8	1076.875	0.7	1136.42857142857	0.7	984.714285714286	0.6	1068.5	0.8	1100.75	0.9	895.222222222222	0.8	1073.875	0.5	947.8	13	337837	2	337825	27	40	337864	-999999	337840	0	42	Fix15secPROC	""	2	2	93	SessionSelectionList																																															6	322830	-7	0							93												
