ExperimentName	HCPID	RunNumber	Subject	Session	RandomSeed	Group	Laptop.RefreshRate	ScannerD2.RefreshRate	StudioVersion	RuntimeVersion	RuntimeVersionExpected	ExperimentVersion	triggercode	Allowed	Target	Nontarget	FontStyle	RunTrialNumber[Session]	TrialsPerRun[Session]	TotalRespGreater200[Session]	ConsecRTLess200[Session]	ConsecNonResp[Session]	StimuliDir	ACC_2_Back_Body	Avg_RT_For_Correct_Trials_2_Back_Body	ACC_0_Back_Body	Avg_RT_For_Correct_Trials_0_Back_Body	ACC_2_Back_Face	Avg_RT_For_Correct_Trials_2_Back_Face	ACC_0_Back_Face	Avg_RT_For_Correct_Trials_0_Back_Face	ACC_2_Back_Place	Avg_RT_For_Correct_Trials_2_Back_Place	ACC_0_Back_Place	Avg_RT_For_Correct_Trials_0_Back_Place	ACC_2_Back_Tools	Avg_RT_For_Correct_Trials_2_Back_Tools	ACC_0_Back_Tools	Avg_RT_For_Correct_Trials_0_Back_Tools	ExpInstrucFeelFreeToRest.OnsetDelay	ExpInstrucFeelFreeToRest.OnsetTime	ExpInstrucFeelFreeToRest.DurationError	ExpInstrucFeelFreeToRest.StartTime	ExpInstrucFeelFreeToRest.OnsetToOnsetTime	FeelFreeToRest.OnsetDelay	FeelFreeToRest.OnsetTime	FeelFreeToRest.DurationError	FeelFreeToRest.StartTime	FeelFreeToRest.OnsetToOnsetTime	SessionSelectionList	Procedure[Block]	Stimulus[Block]	RunNumberFilterValue	SessionSelectionList.Cycle	SessionSelectionList.Sample	Running[Block]	IntroButtonMap.OnsetDelay	IntroButtonMap.OnsetTime	IntroButtonMap.DurationError	IntroButtonMap.OnsetToOnsetTime	GetReady.OnsetDelay	GetReady.OnsetTime	GetReady.DurationError	GetReady.OnsetToOnsetTime	Cue2Back.OnsetDelay	Cue2Back.OnsetTime	Cue2Back.DurationError	Cue2Back.OnsetToOnsetTime	Run1Block1	TargetType	CorrectResponse	StimType	BlockType	RunTrialNumber[Block]	TrialsPerRun[Block]	TotalRespGreater200[Block]	ConsecRTLess200[Block]	ConsecNonResp[Block]	ControlAcc	ConsecSameResp	ExperimenterWindow.OnsetDelay	ExperimenterWindow.OnsetTime	ExperimenterWindow.DurationError	ExperimenterWindow.OnsetToOnsetTime	Stim.OnsetDelay	Stim.OnsetTime	Stim.DurationError	Stim.RTTime	Stim.ACC	Stim.RT	Stim.RESP	Stim.CRESP	Stim.OnsetToOnsetTime	Fix.OnsetDelay	Fix.OnsetTime	Fix.DurationError	Fix.OnsetToOnsetTime	CueTarget.OnsetDelay	CueTarget.OnsetTime	CueTarget.DurationError	CueTarget.OnsetToOnsetTime	Run1Block2	Fix15sec.OnsetDelay	Fix15sec.OnsetTime	Fix15sec.DurationError	Fix15sec.OnsetToOnsetTime	Run1Block3	Run1Block4	Run1Block5	Run1Block6	Run1Block7	Run1Block8	Block	Procedure[Trial]	Stimulus[Trial]	ReadyList	Running[Trial]	ReadyList.Cycle	ReadyList.Sample	SyncSlide.OnsetDelay	SyncSlide.OnsetTime	SyncSlide.DurationError	SyncSlide.FinishTime	SyncSlide.OnsetToOnsetTime	Trial
WM080112	397760_fnca	1	1	1	38069629	1	75.034	75.032	2.0.10.147	2.0.10.242	2.0.10.242	1.0.0.439	7	234	2	3	Verdana	1	80	0	0	0	WM Stimuli\	1	1086.7	0.7	1275.42857142857	0.9	1140	1	647.4	0.9	1041.66666666667	1	728.7	0.9	896.555555555556	0.9	980.777777777778	12	545136	3	545125	27	39	545163	-999999	545139	0	1	TRSyncPROC	""	1	2	1	SessionSelectionList	97	40415	-999999	0	35	237985	-999999	0																																																	1	InitialTR	4	1	ReadyList	1	1	10	251926	-11	253915	0	1
WM080112	397760_fnca	1	1	1	38069629	1	75.034	75.032	2.0.10.147	2.0.10.242	2.0.10.242	1.0.0.439	7	234	2	3	Verdana	1	80	0	0	0	WM Stimuli\	1	1086.7	0.7	1275.42857142857	0.9	1140	1	647.4	0.9	1041.66666666667	1	728.7	0.9	896.555555555556	0.9	980.777777777778	12	545136	3	545125	27	39	545163	-999999	545139	0	1	TRSyncPROC	""	1	2	1	SessionSelectionList	97	40415	-999999	0	35	237985	-999999	0																																																	1	InitialTR	3	2	ReadyList	1	2	9	253925	-10	255915	0	2
WM080112	397760_fnca	1	1	1	38069629	1	75.034	75.032	2.0.10.147	2.0.10.242	2.0.10.242	1.0.0.439	7	234	2	3	Verdana	1	80	0	0	0	WM Stimuli\	1	1086.7	0.7	1275.42857142857	0.9	1140	1	647.4	0.9	1041.66666666667	1	728.7	0.9	896.555555555556	0.9	980.777777777778	12	545136	3	545125	27	39	545163	-999999	545139	0	1	TRSyncPROC	""	1	2	1	SessionSelectionList	97	40415	-999999	0	35	237985	-999999	0																																																	1	InitialTR	2	3	ReadyList	1	3	8	255924	-9	257915	0	3
WM080112	397760_fnca	1	1	1	38069629	1	75.034	75.032	2.0.10.147	2.0.10.242	2.0.10.242	1.0.0.439	7	234	2	3	Verdana	1	80	0	0	0	WM Stimuli\	1	1086.7	0.7	1275.42857142857	0.9	1140	1	647.4	0.9	1041.66666666667	1	728.7	0.9	896.555555555556	0.9	980.777777777778	12	545136	3	545125	27	39	545163	-999999	545139	0	1	TRSyncPROC	""	1	2	1	SessionSelectionList	97	40415	-999999	0	35	237985	-999999	0																																																	1	InitialTR	1	4	ReadyList	1	4	7	257923	-8	259915	0	4
WM080112	397760_fnca	1	1	1	38069629	1	75.034	75.032	2.0.10.147	2.0.10.242	2.0.10.242	1.0.0.439	7	234	2	3	Verdana	1	80	0	0	0	WM Stimuli\	1	1086.7	0.7	1275.42857142857	0.9	1140	1	647.4	0.9	1041.66666666667	1	728.7	0.9	896.555555555556	0.9	980.777777777778	12	545136	3	545125	27	39	545163	-999999	545139	0	2	Cue2BackPROC	""	1	2	2	SessionSelectionList									7	259923	-8	0																																													2												
WM080112	397760_fnca	1	1	1	38069629	1	75.034	75.032	2.0.10.147	2.0.10.242	2.0.10.242	1.0.0.439	7	234	2	3	Verdana	1	80	0	0	0	WM Stimuli\	1	1086.7	0.7	1275.42857142857	0.9	1140	1	647.4	0.9	1041.66666666667	1	728.7	0.9	896.555555555556	0.9	980.777777777778	12	545136	3	545125	27	39	545163	-999999	545139	0	3	TrialsPROC	BP_002_BP10_BA.png	1	2	3	SessionSelectionList													1	nonlure	3	Body	2-Back	2	80	1	0	0	0	1	52	264547	3	14	79	262495	-1	263536	1	1041	3	3	2052	66	264561	-67	0																3												
WM080112	397760_fnca	1	1	1	38069629	1	75.034	75.032	2.0.10.147	2.0.10.242	2.0.10.242	1.0.0.439	7	234	2	3	Verdana	1	80	0	0	0	WM Stimuli\	1	1086.7	0.7	1275.42857142857	0.9	1140	1	647.4	0.9	1041.66666666667	1	728.7	0.9	896.555555555556	0.9	980.777777777778	12	545136	3	545125	27	39	545163	-999999	545139	0	3	TrialsPROC	BP_001_BP1_BA.png	1	2	4	SessionSelectionList													2	nonlure	3	Body	2-Back	3	80	2	0	0	0	2	39	267106	3	14	72	265067	-1	266026	1	959	3	3	2039	53	267120	-54	0																4												
WM080112	397760_fnca	1	1	1	38069629	1	75.034	75.032	2.0.10.147	2.0.10.242	2.0.10.242	1.0.0.439	7	234	2	3	Verdana	1	80	0	0	0	WM Stimuli\	1	1086.7	0.7	1275.42857142857	0.9	1140	1	647.4	0.9	1041.66666666667	1	728.7	0.9	896.555555555556	0.9	980.777777777778	12	545136	3	545125	27	39	545163	-999999	545139	0	3	TrialsPROC	BP_006_BP2_BA.png	1	2	5	SessionSelectionList													3	nonlure	3	Body	2-Back	4	80	3	0	0	0	3	39	269665	2	14	59	267626	-1	268896	1	1270	3	3	2039	53	269679	-54	0																5												
WM080112	397760_fnca	1	1	1	38069629	1	75.034	75.032	2.0.10.147	2.0.10.242	2.0.10.242	1.0.0.439	7	234	2	3	Verdana	1	80	0	0	0	WM Stimuli\	1	1086.7	0.7	1275.42857142857	0.9	1140	1	647.4	0.9	1041.66666666667	1	728.7	0.9	896.555555555556	0.9	980.777777777778	12	545136	3	545125	27	39	545163	-999999	545139	0	3	TrialsPROC	BP_001_BP1_BA.png	1	2	6	SessionSelectionList													4	target	2	Body	2-Back	5	80	4	0	0	0	1	39	272237	2	14	72	270198	-1	271245	1	1047	2	2	2039	53	272251	-54	0																6												
WM080112	397760_fnca	1	1	1	38069629	1	75.034	75.032	2.0.10.147	2.0.10.242	2.0.10.242	1.0.0.439	7	234	2	3	Verdana	1	80	0	0	0	WM Stimuli\	1	1086.7	0.7	1275.42857142857	0.9	1140	1	647.4	0.9	1041.66666666667	1	728.7	0.9	896.555555555556	0.9	980.777777777778	12	545136	3	545125	27	39	545163	-999999	545139	0	3	TrialsPROC	BP_005_BP19_BA.png	1	2	7	SessionSelectionList													5	nonlure	3	Body	2-Back	6	80	5	0	0	0	1	39	274810	1	13	73	272771	-1	273940	1	1169	3	3	2039	52	274823	-53	0																7												
WM080112	397760_fnca	1	1	1	38069629	1	75.034	75.032	2.0.10.147	2.0.10.242	2.0.10.242	1.0.0.439	7	234	2	3	Verdana	1	80	0	0	0	WM Stimuli\	1	1086.7	0.7	1275.42857142857	0.9	1140	1	647.4	0.9	1041.66666666667	1	728.7	0.9	896.555555555556	0.9	980.777777777778	12	545136	3	545125	27	39	545163	-999999	545139	0	3	TrialsPROC	BP_003_BP16_BA.png	1	2	8	SessionSelectionList													6	nonlure	3	Body	2-Back	7	80	6	0	0	0	2	39	277369	1	13	59	275330	-1	276183	1	853	3	3	2039	52	277382	-53	0																8												
WM080112	397760_fnca	1	1	1	38069629	1	75.034	75.032	2.0.10.147	2.0.10.242	2.0.10.242	1.0.0.439	7	234	2	3	Verdana	1	80	0	0	0	WM Stimuli\	1	1086.7	0.7	1275.42857142857	0.9	1140	1	647.4	0.9	1041.66666666667	1	728.7	0.9	896.555555555556	0.9	980.777777777778	12	545136	3	545125	27	39	545163	-999999	545139	0	3	TrialsPROC	BP_006_BP2_BA.png	1	2	9	SessionSelectionList													7	lure	3	Body	2-Back	8	80	7	0	0	0	3	40	279928	1	13	58	277888	-1	278638	1	750	3	3	2040	53	279941	-54	0																9												
WM080112	397760_fnca	1	1	1	38069629	1	75.034	75.032	2.0.10.147	2.0.10.242	2.0.10.242	1.0.0.439	7	234	2	3	Verdana	1	80	0	0	0	WM Stimuli\	1	1086.7	0.7	1275.42857142857	0.9	1140	1	647.4	0.9	1041.66666666667	1	728.7	0.9	896.555555555556	0.9	980.777777777778	12	545136	3	545125	27	39	545163	-999999	545139	0	3	TrialsPROC	BP_004_BP18_BA.png	1	2	10	SessionSelectionList													8	nonlure	3	Body	2-Back	9	80	8	0	0	0	4	40	282487	1	13	59	280447	-1	281291	1	844	3	3	2040	53	282500	-54	0																10												
WM080112	397760_fnca	1	1	1	38069629	1	75.034	75.032	2.0.10.147	2.0.10.242	2.0.10.242	1.0.0.439	7	234	2	3	Verdana	1	80	0	0	0	WM Stimuli\	1	1086.7	0.7	1275.42857142857	0.9	1140	1	647.4	0.9	1041.66666666667	1	728.7	0.9	896.555555555556	0.9	980.777777777778	12	545136	3	545125	27	39	545163	-999999	545139	0	3	TrialsPROC	BP_005_BP19_BA.png	1	2	11	SessionSelectionList													9	lure	3	Body	2-Back	10	80	9	0	0	0	5	39	285045	2	14	59	283006	-1	284992	1	1986	3	3	2039	53	285059	-54	0																11												
WM080112	397760_fnca	1	1	1	38069629	1	75.034	75.032	2.0.10.147	2.0.10.242	2.0.10.242	1.0.0.439	7	234	2	3	Verdana	1	80	0	0	0	WM Stimuli\	1	1086.7	0.7	1275.42857142857	0.9	1140	1	647.4	0.9	1041.66666666667	1	728.7	0.9	896.555555555556	0.9	980.777777777778	12	545136	3	545125	27	39	545163	-999999	545139	0	3	TrialsPROC	BP_004_BP18_BA.png	1	2	12	SessionSelectionList													10	target	2	Body	2-Back	11	80	10	0	0	0	1	39	287604	2	14	59	285565	-1	286513	1	948	2	2	2039	53	287618	-54	0																12												
WM080112	397760_fnca	1	1	1	38069629	1	75.034	75.032	2.0.10.147	2.0.10.242	2.0.10.242	1.0.0.439	7	234	2	3	Verdana	1	80	0	0	0	WM Stimuli\	1	1086.7	0.7	1275.42857142857	0.9	1140	1	647.4	0.9	1041.66666666667	1	728.7	0.9	896.555555555556	0.9	980.777777777778	12	545136	3	545125	27	39	545163	-999999	545139	0	4	Cue0BackPROC	FC_001_M1.png	1	2	13	SessionSelectionList																																										19	288084	-20	0												13												
WM080112	397760_fnca	1	1	1	38069629	1	75.034	75.032	2.0.10.147	2.0.10.242	2.0.10.242	1.0.0.439	7	234	2	3	Verdana	1	80	0	0	0	WM Stimuli\	1	1086.7	0.7	1275.42857142857	0.9	1140	1	647.4	0.9	1041.66666666667	1	728.7	0.9	896.555555555556	0.9	980.777777777778	12	545136	3	545125	27	39	545163	-999999	545139	0	5	TrialsPROC	FC_005_M3.png	1	2	14	SessionSelectionList														nonlure	3	Face	0-Back	12	80	11	0	0	100	1	39	292669	2	13	65	290630	-1	291501	1	871	3	3	2039	52	292682	-53	0					1											14												
WM080112	397760_fnca	1	1	1	38069629	1	75.034	75.032	2.0.10.147	2.0.10.242	2.0.10.242	1.0.0.439	7	234	2	3	Verdana	1	80	0	0	0	WM Stimuli\	1	1086.7	0.7	1275.42857142857	0.9	1140	1	647.4	0.9	1041.66666666667	1	728.7	0.9	896.555555555556	0.9	980.777777777778	12	545136	3	545125	27	39	545163	-999999	545139	0	5	TrialsPROC	FC_001_M1.png	1	2	15	SessionSelectionList														target	2	Face	0-Back	13	80	12	0	0	100	1	39	295241	2	14	72	293202	-1	293873	1	671	2	2	2039	53	295255	-54	0					2											15												
WM080112	397760_fnca	1	1	1	38069629	1	75.034	75.032	2.0.10.147	2.0.10.242	2.0.10.242	1.0.0.439	7	234	2	3	Verdana	1	80	0	0	0	WM Stimuli\	1	1086.7	0.7	1275.42857142857	0.9	1140	1	647.4	0.9	1041.66666666667	1	728.7	0.9	896.555555555556	0.9	980.777777777778	12	545136	3	545125	27	39	545163	-999999	545139	0	5	TrialsPROC	FC_003_M2.png	1	2	16	SessionSelectionList														nonlure	3	Face	0-Back	14	80	13	0	0	100	1	39	297813	2	14	72	295774	-1	296326	1	552	3	3	2039	53	297827	-54	0					3											16												
WM080112	397760_fnca	1	1	1	38069629	1	75.034	75.032	2.0.10.147	2.0.10.242	2.0.10.242	1.0.0.439	7	234	2	3	Verdana	1	80	0	0	0	WM Stimuli\	1	1086.7	0.7	1275.42857142857	0.9	1140	1	647.4	0.9	1041.66666666667	1	728.7	0.9	896.555555555556	0.9	980.777777777778	12	545136	3	545125	27	39	545163	-999999	545139	0	5	TrialsPROC	FC_004_F2.png	1	2	17	SessionSelectionList														nonlure	3	Face	0-Back	15	80	14	0	0	100	2	39	300386	1	13	73	298347	-1	298916	1	569	3	3	2039	52	300399	-53	0					4											17												
WM080112	397760_fnca	1	1	1	38069629	1	75.034	75.032	2.0.10.147	2.0.10.242	2.0.10.242	1.0.0.439	7	234	2	3	Verdana	1	80	0	0	0	WM Stimuli\	1	1086.7	0.7	1275.42857142857	0.9	1140	1	647.4	0.9	1041.66666666667	1	728.7	0.9	896.555555555556	0.9	980.777777777778	12	545136	3	545125	27	39	545163	-999999	545139	0	5	TrialsPROC	FC_004_F2.png	1	2	18	SessionSelectionList														lure	3	Face	0-Back	16	80	15	0	0	100	3	39	302958	1	13	72	300919	-1	301417	1	498	3	3	2039	52	302971	-53	0					5											18												
WM080112	397760_fnca	1	1	1	38069629	1	75.034	75.032	2.0.10.147	2.0.10.242	2.0.10.242	1.0.0.439	7	234	2	3	Verdana	1	80	0	0	0	WM Stimuli\	1	1086.7	0.7	1275.42857142857	0.9	1140	1	647.4	0.9	1041.66666666667	1	728.7	0.9	896.555555555556	0.9	980.777777777778	12	545136	3	545125	27	39	545163	-999999	545139	0	5	TrialsPROC	FC_001_M1.png	1	2	19	SessionSelectionList														target	2	Face	0-Back	17	80	16	0	0	100	1	39	305530	2	14	72	303491	-1	304129	1	638	2	2	2039	53	305544	-54	0					6											19												
WM080112	397760_fnca	1	1	1	38069629	1	75.034	75.032	2.0.10.147	2.0.10.242	2.0.10.242	1.0.0.439	7	234	2	3	Verdana	1	80	0	0	0	WM Stimuli\	1	1086.7	0.7	1275.42857142857	0.9	1140	1	647.4	0.9	1041.66666666667	1	728.7	0.9	896.555555555556	0.9	980.777777777778	12	545136	3	545125	27	39	545163	-999999	545139	0	5	TrialsPROC	FC_006_F3.png	1	2	20	SessionSelectionList														nonlure	3	Face	0-Back	18	80	17	0	0	100	1	39	308102	2	14	72	306063	-1	306583	1	520	3	3	2039	53	308116	-54	0					7											20												
WM080112	397760_fnca	1	1	1	38069629	1	75.034	75.032	2.0.10.147	2.0.10.242	2.0.10.242	1.0.0.439	7	234	2	3	Verdana	1	80	0	0	0	WM Stimuli\	1	1086.7	0.7	1275.42857142857	0.9	1140	1	647.4	0.9	1041.66666666667	1	728.7	0.9	896.555555555556	0.9	980.777777777778	12	545136	3	545125	27	39	545163	-999999	545139	0	5	TrialsPROC	FC_006_F3.png	1	2	21	SessionSelectionList														lure	3	Face	0-Back	19	80	18	0	0	100	2	39	310675	1	13	73	308636	-1	309072	1	436	3	3	2039	52	310688	-53	0					8											21												
WM080112	397760_fnca	1	1	1	38069629	1	75.034	75.032	2.0.10.147	2.0.10.242	2.0.10.242	1.0.0.439	7	234	2	3	Verdana	1	80	0	0	0	WM Stimuli\	1	1086.7	0.7	1275.42857142857	0.9	1140	1	647.4	0.9	1041.66666666667	1	728.7	0.9	896.555555555556	0.9	980.777777777778	12	545136	3	545125	27	39	545163	-999999	545139	0	5	TrialsPROC	FC_003_M2.png	1	2	22	SessionSelectionList														lure	3	Face	0-Back	20	80	19	0	0	100	3	39	313247	1	13	72	311208	-1	311994	1	786	3	3	2039	52	313260	-53	0					9											22												
WM080112	397760_fnca	1	1	1	38069629	1	75.034	75.032	2.0.10.147	2.0.10.242	2.0.10.242	1.0.0.439	7	234	2	3	Verdana	1	80	0	0	0	WM Stimuli\	1	1086.7	0.7	1275.42857142857	0.9	1140	1	647.4	0.9	1041.66666666667	1	728.7	0.9	896.555555555556	0.9	980.777777777778	12	545136	3	545125	27	39	545163	-999999	545139	0	5	TrialsPROC	FC_002_F1.png	1	2	23	SessionSelectionList														nonlure	3	Face	0-Back	21	80	20	0	0	100	4	39	315819	2	14	72	313780	-1	314713	1	933	3	3	2039	53	315833	-54	0					10											23												
WM080112	397760_fnca	1	1	1	38069629	1	75.034	75.032	2.0.10.147	2.0.10.242	2.0.10.242	1.0.0.439	7	234	2	3	Verdana	1	80	0	0	0	WM Stimuli\	1	1086.7	0.7	1275.42857142857	0.9	1140	1	647.4	0.9	1041.66666666667	1	728.7	0.9	896.555555555556	0.9	980.777777777778	12	545136	3	545125	27	39	545163	-999999	545139	0	6	Fix15secPROC	""	1	2	24	SessionSelectionList																																															6	316286	-7	0							24												
WM080112	397760_fnca	1	1	1	38069629	1	75.034	75.032	2.0.10.147	2.0.10.242	2.0.10.242	1.0.0.439	7	234	2	3	Verdana	1	80	0	0	0	WM Stimuli\	1	1086.7	0.7	1275.42857142857	0.9	1140	1	647.4	0.9	1041.66666666667	1	728.7	0.9	896.555555555556	0.9	980.777777777778	12	545136	3	545125	27	39	545163	-999999	545139	0	7	Cue2BackPROC	""	1	2	25	SessionSelectionList									13	331293	-14	0																																													25												
WM080112	397760_fnca	1	1	1	38069629	1	75.034	75.032	2.0.10.147	2.0.10.242	2.0.10.242	1.0.0.439	7	234	2	3	Verdana	1	80	0	0	0	WM Stimuli\	1	1086.7	0.7	1275.42857142857	0.9	1140	1	647.4	0.9	1041.66666666667	1	728.7	0.9	896.555555555556	0.9	980.777777777778	12	545136	3	545125	27	39	545163	-999999	545139	0	8	TrialsPROC	TO_001_TOOL1_BA.png	1	2	26	SessionSelectionList														nonlure	3	Tools	2-Back	22	80	21	0	0	100	5	39	335877	2	14	58	333838	-1	334925	1	1087	3	3	2039	53	335891	-54	0										1						26												
WM080112	397760_fnca	1	1	1	38069629	1	75.034	75.032	2.0.10.147	2.0.10.242	2.0.10.242	1.0.0.439	7	234	2	3	Verdana	1	80	0	0	0	WM Stimuli\	1	1086.7	0.7	1275.42857142857	0.9	1140	1	647.4	0.9	1041.66666666667	1	728.7	0.9	896.555555555556	0.9	980.777777777778	12	545136	3	545125	27	39	545163	-999999	545139	0	8	TrialsPROC	TO_002_TOOL2_BA.png	1	2	27	SessionSelectionList														nonlure	3	Tools	2-Back	23	80	22	0	0	100	6	39	338436	2	14	59	336397	-1	337298	1	901	3	3	2039	53	338450	-54	0										2						27												
WM080112	397760_fnca	1	1	1	38069629	1	75.034	75.032	2.0.10.147	2.0.10.242	2.0.10.242	1.0.0.439	7	234	2	3	Verdana	1	80	0	0	0	WM Stimuli\	1	1086.7	0.7	1275.42857142857	0.9	1140	1	647.4	0.9	1041.66666666667	1	728.7	0.9	896.555555555556	0.9	980.777777777778	12	545136	3	545125	27	39	545163	-999999	545139	0	8	TrialsPROC	TO_004_TOOL4_BA.png	1	2	28	SessionSelectionList														nonlure	3	Tools	2-Back	24	80	23	0	0	100	7	39	340995	2	14	59	338956	-1	340317	1	1361	3	3	2039	53	341009	-54	0										3						28												
WM080112	397760_fnca	1	1	1	38069629	1	75.034	75.032	2.0.10.147	2.0.10.242	2.0.10.242	1.0.0.439	7	234	2	3	Verdana	1	80	0	0	0	WM Stimuli\	1	1086.7	0.7	1275.42857142857	0.9	1140	1	647.4	0.9	1041.66666666667	1	728.7	0.9	896.555555555556	0.9	980.777777777778	12	545136	3	545125	27	39	545163	-999999	545139	0	8	TrialsPROC	TO_002_TOOL2_BA.png	1	2	29	SessionSelectionList														target	2	Tools	2-Back	25	80	24	0	0	100	1	39	343554	2	14	59	341515	-1	342103	1	588	2	2	2039	53	343568	-54	0										4						29												
WM080112	397760_fnca	1	1	1	38069629	1	75.034	75.032	2.0.10.147	2.0.10.242	2.0.10.242	1.0.0.439	7	234	2	3	Verdana	1	80	0	0	0	WM Stimuli\	1	1086.7	0.7	1275.42857142857	0.9	1140	1	647.4	0.9	1041.66666666667	1	728.7	0.9	896.555555555556	0.9	980.777777777778	12	545136	3	545125	27	39	545163	-999999	545139	0	8	TrialsPROC	TO_001_TOOL1_BA.png	1	2	30	SessionSelectionList														lure	3	Tools	2-Back	26	80	25	0	0	100	1	39	346113	2	14	59	344074	-1	345487	1	1413	3	3	2039	53	346127	-54	0										5						30												
WM080112	397760_fnca	1	1	1	38069629	1	75.034	75.032	2.0.10.147	2.0.10.242	2.0.10.242	1.0.0.439	7	234	2	3	Verdana	1	80	0	0	0	WM Stimuli\	1	1086.7	0.7	1275.42857142857	0.9	1140	1	647.4	0.9	1041.66666666667	1	728.7	0.9	896.555555555556	0.9	980.777777777778	12	545136	3	545125	27	39	545163	-999999	545139	0	8	TrialsPROC	TO_004_TOOL4_BA.png	1	2	31	SessionSelectionList														lure	3	Tools	2-Back	27	80	26	0	0	100	1	39	348672	2	14	59	346633	-1	347475	0	842	2	3	2039	53	348686	-54	0										6						31												
WM080112	397760_fnca	1	1	1	38069629	1	75.034	75.032	2.0.10.147	2.0.10.242	2.0.10.242	1.0.0.439	7	234	2	3	Verdana	1	80	0	0	0	WM Stimuli\	1	1086.7	0.7	1275.42857142857	0.9	1140	1	647.4	0.9	1041.66666666667	1	728.7	0.9	896.555555555556	0.9	980.777777777778	12	545136	3	545125	27	39	545163	-999999	545139	0	8	TrialsPROC	TO_006_TOOL6_BA.png	1	2	32	SessionSelectionList														nonlure	3	Tools	2-Back	28	80	27	0	0	100	1	39	351231	1	13	59	349192	-1	350012	1	820	3	3	2039	52	351244	-53	0										7						32												
WM080112	397760_fnca	1	1	1	38069629	1	75.034	75.032	2.0.10.147	2.0.10.242	2.0.10.242	1.0.0.439	7	234	2	3	Verdana	1	80	0	0	0	WM Stimuli\	1	1086.7	0.7	1275.42857142857	0.9	1140	1	647.4	0.9	1041.66666666667	1	728.7	0.9	896.555555555556	0.9	980.777777777778	12	545136	3	545125	27	39	545163	-999999	545139	0	8	TrialsPROC	TO_005_TOOL5_BA.png	1	2	33	SessionSelectionList														nonlure	3	Tools	2-Back	29	80	28	0	0	100	2	39	353790	1	13	59	351751	-1	352559	1	808	3	3	2039	52	353803	-53	0										8						33												
WM080112	397760_fnca	1	1	1	38069629	1	75.034	75.032	2.0.10.147	2.0.10.242	2.0.10.242	1.0.0.439	7	234	2	3	Verdana	1	80	0	0	0	WM Stimuli\	1	1086.7	0.7	1275.42857142857	0.9	1140	1	647.4	0.9	1041.66666666667	1	728.7	0.9	896.555555555556	0.9	980.777777777778	12	545136	3	545125	27	39	545163	-999999	545139	0	8	TrialsPROC	TO_006_TOOL6_BA.png	1	2	34	SessionSelectionList														target	2	Tools	2-Back	30	80	29	0	0	100	1	39	356349	1	13	59	354310	-1	354783	1	473	2	2	2039	52	356362	-53	0										9						34												
WM080112	397760_fnca	1	1	1	38069629	1	75.034	75.032	2.0.10.147	2.0.10.242	2.0.10.242	1.0.0.439	7	234	2	3	Verdana	1	80	0	0	0	WM Stimuli\	1	1086.7	0.7	1275.42857142857	0.9	1140	1	647.4	0.9	1041.66666666667	1	728.7	0.9	896.555555555556	0.9	980.777777777778	12	545136	3	545125	27	39	545163	-999999	545139	0	8	TrialsPROC	TO_003_TOOL3_BA.png	1	2	35	SessionSelectionList														nonlure	3	Tools	2-Back	31	80	30	0	0	100	1	39	358908	1	13	59	356869	-1	357487	1	618	3	3	2039	52	358921	-53	0										10						35												
WM080112	397760_fnca	1	1	1	38069629	1	75.034	75.032	2.0.10.147	2.0.10.242	2.0.10.242	1.0.0.439	7	234	2	3	Verdana	1	80	0	0	0	WM Stimuli\	1	1086.7	0.7	1275.42857142857	0.9	1140	1	647.4	0.9	1041.66666666667	1	728.7	0.9	896.555555555556	0.9	980.777777777778	12	545136	3	545125	27	39	545163	-999999	545139	0	9	Cue0BackPROC	BP_007_BP20_BA.png	1	2	36	SessionSelectionList																																										19	359388	-20	0												36												
WM080112	397760_fnca	1	1	1	38069629	1	75.034	75.032	2.0.10.147	2.0.10.242	2.0.10.242	1.0.0.439	7	234	2	3	Verdana	1	80	0	0	0	WM Stimuli\	1	1086.7	0.7	1275.42857142857	0.9	1140	1	647.4	0.9	1041.66666666667	1	728.7	0.9	896.555555555556	0.9	980.777777777778	12	545136	3	545125	27	39	545163	-999999	545139	0	10	TrialsPROC	BP_007_BP20_BA.png	1	2	37	SessionSelectionList														target	2	Body	0-Back	32	80	31	0	0	91	2	39	363959	1	13	51	361920	-1	363743	0	1823	3	2	2039	52	363972	-53	0											1					37												
WM080112	397760_fnca	1	1	1	38069629	1	75.034	75.032	2.0.10.147	2.0.10.242	2.0.10.242	1.0.0.439	7	234	2	3	Verdana	1	80	0	0	0	WM Stimuli\	1	1086.7	0.7	1275.42857142857	0.9	1140	1	647.4	0.9	1041.66666666667	1	728.7	0.9	896.555555555556	0.9	980.777777777778	12	545136	3	545125	27	39	545163	-999999	545139	0	10	TrialsPROC	BP_011_BP4_BA.png	1	2	38	SessionSelectionList														nonlure	3	Body	0-Back	33	80	32	0	0	92	3	39	366518	1	13	59	364479	-1	366361	1	1882	3	3	2039	52	366531	-53	0											2					38												
WM080112	397760_fnca	1	1	1	38069629	1	75.034	75.032	2.0.10.147	2.0.10.242	2.0.10.242	1.0.0.439	7	234	2	3	Verdana	1	80	0	0	0	WM Stimuli\	1	1086.7	0.7	1275.42857142857	0.9	1140	1	647.4	0.9	1041.66666666667	1	728.7	0.9	896.555555555556	0.9	980.777777777778	12	545136	3	545125	27	39	545163	-999999	545139	0	10	TrialsPROC	BP_010_BP3_BA.png	1	2	39	SessionSelectionList														nonlure	3	Body	0-Back	34	80	33	0	0	92	4	39	369077	1	13	59	367038	-1	368248	1	1210	3	3	2039	52	369090	-53	0											3					39												
WM080112	397760_fnca	1	1	1	38069629	1	75.034	75.032	2.0.10.147	2.0.10.242	2.0.10.242	1.0.0.439	7	234	2	3	Verdana	1	80	0	0	0	WM Stimuli\	1	1086.7	0.7	1275.42857142857	0.9	1140	1	647.4	0.9	1041.66666666667	1	728.7	0.9	896.555555555556	0.9	980.777777777778	12	545136	3	545125	27	39	545163	-999999	545139	0	10	TrialsPROC	BP_008_BP21_BA.png	1	2	40	SessionSelectionList														nonlure	3	Body	0-Back	35	80	34	0	0	93	5	39	371636	1	13	59	369597	-1	370599	1	1002	3	3	2039	52	371649	-53	0											4					40												
WM080112	397760_fnca	1	1	1	38069629	1	75.034	75.032	2.0.10.147	2.0.10.242	2.0.10.242	1.0.0.439	7	234	2	3	Verdana	1	80	0	0	0	WM Stimuli\	1	1086.7	0.7	1275.42857142857	0.9	1140	1	647.4	0.9	1041.66666666667	1	728.7	0.9	896.555555555556	0.9	980.777777777778	12	545136	3	545125	27	39	545163	-999999	545139	0	10	TrialsPROC	BP_011_BP4_BA.png	1	2	41	SessionSelectionList														lure	3	Body	0-Back	36	80	35	0	0	87	1	39	374208	1	13	72	372169	-1	373650	0	1481	2	3	2039	52	374221	-53	0											5					41												
WM080112	397760_fnca	1	1	1	38069629	1	75.034	75.032	2.0.10.147	2.0.10.242	2.0.10.242	1.0.0.439	7	234	2	3	Verdana	1	80	0	0	0	WM Stimuli\	1	1086.7	0.7	1275.42857142857	0.9	1140	1	647.4	0.9	1041.66666666667	1	728.7	0.9	896.555555555556	0.9	980.777777777778	12	545136	3	545125	27	39	545163	-999999	545139	0	10	TrialsPROC	BP_009_BP22_BA.png	1	2	42	SessionSelectionList														nonlure	3	Body	0-Back	37	80	36	0	0	88	1	39	376767	1	13	59	374728	-1	375445	1	717	3	3	2039	52	376780	-53	0											6					42												
WM080112	397760_fnca	1	1	1	38069629	1	75.034	75.032	2.0.10.147	2.0.10.242	2.0.10.242	1.0.0.439	7	234	2	3	Verdana	1	80	0	0	0	WM Stimuli\	1	1086.7	0.7	1275.42857142857	0.9	1140	1	647.4	0.9	1041.66666666667	1	728.7	0.9	896.555555555556	0.9	980.777777777778	12	545136	3	545125	27	39	545163	-999999	545139	0	10	TrialsPROC	BP_009_BP22_BA.png	1	2	43	SessionSelectionList														lure	3	Body	0-Back	38	80	37	0	0	88	2	39	379326	1	13	59	377287	-1	378370	1	1083	3	3	2039	52	379339	-53	0											7					43												
WM080112	397760_fnca	1	1	1	38069629	1	75.034	75.032	2.0.10.147	2.0.10.242	2.0.10.242	1.0.0.439	7	234	2	3	Verdana	1	80	0	0	0	WM Stimuli\	1	1086.7	0.7	1275.42857142857	0.9	1140	1	647.4	0.9	1041.66666666667	1	728.7	0.9	896.555555555556	0.9	980.777777777778	12	545136	3	545125	27	39	545163	-999999	545139	0	10	TrialsPROC	BP_008_BP21_BA.png	1	2	44	SessionSelectionList														lure	3	Body	0-Back	39	80	38	0	0	89	3	39	381885	1	13	59	379846	-1	381497	1	1651	3	3	2039	52	381898	-53	0											8					44												
WM080112	397760_fnca	1	1	1	38069629	1	75.034	75.032	2.0.10.147	2.0.10.242	2.0.10.242	1.0.0.439	7	234	2	3	Verdana	1	80	0	0	0	WM Stimuli\	1	1086.7	0.7	1275.42857142857	0.9	1140	1	647.4	0.9	1041.66666666667	1	728.7	0.9	896.555555555556	0.9	980.777777777778	12	545136	3	545125	27	39	545163	-999999	545139	0	10	TrialsPROC	BP_007_BP20_BA.png	1	2	45	SessionSelectionList														target	2	Body	0-Back	40	80	39	0	0	84	4	39	384444	1	13	59	382405	-1	384131	0	1726	3	2	2039	52	384457	-53	0											9					45												
WM080112	397760_fnca	1	1	1	38069629	1	75.034	75.032	2.0.10.147	2.0.10.242	2.0.10.242	1.0.0.439	7	234	2	3	Verdana	1	80	0	0	0	WM Stimuli\	1	1086.7	0.7	1275.42857142857	0.9	1140	1	647.4	0.9	1041.66666666667	1	728.7	0.9	896.555555555556	0.9	980.777777777778	12	545136	3	545125	27	39	545163	-999999	545139	0	10	TrialsPROC	BP_012_BP5_BA.png	1	2	46	SessionSelectionList														nonlure	3	Body	0-Back	41	80	40	0	0	85	5	39	387003	1	13	59	384964	-1	386347	1	1383	3	3	2039	52	387016	-53	0											10					46												
WM080112	397760_fnca	1	1	1	38069629	1	75.034	75.032	2.0.10.147	2.0.10.242	2.0.10.242	1.0.0.439	7	234	2	3	Verdana	1	80	0	0	0	WM Stimuli\	1	1086.7	0.7	1275.42857142857	0.9	1140	1	647.4	0.9	1041.66666666667	1	728.7	0.9	896.555555555556	0.9	980.777777777778	12	545136	3	545125	27	39	545163	-999999	545139	0	11	Fix15secPROC	""	1	2	47	SessionSelectionList																																															5	387469	-6	0							47												
WM080112	397760_fnca	1	1	1	38069629	1	75.034	75.032	2.0.10.147	2.0.10.242	2.0.10.242	1.0.0.439	7	234	2	3	Verdana	1	80	0	0	0	WM Stimuli\	1	1086.7	0.7	1275.42857142857	0.9	1140	1	647.4	0.9	1041.66666666667	1	728.7	0.9	896.555555555556	0.9	980.777777777778	12	545136	3	545125	27	39	545163	-999999	545139	0	12	Cue0BackPROC	PL_001_92012.png	1	2	48	SessionSelectionList																																										12	402476	-13	0												48												
WM080112	397760_fnca	1	1	1	38069629	1	75.034	75.032	2.0.10.147	2.0.10.242	2.0.10.242	1.0.0.439	7	234	2	3	Verdana	1	80	0	0	0	WM Stimuli\	1	1086.7	0.7	1275.42857142857	0.9	1140	1	647.4	0.9	1041.66666666667	1	728.7	0.9	896.555555555556	0.9	980.777777777778	12	545136	3	545125	27	39	545163	-999999	545139	0	13	TrialsPROC	PL_003_92016.png	1	2	49	SessionSelectionList														nonlure	3	Place	0-Back	42	80	41	0	0	86	6	39	407074	2	14	71	405035	-1	406447	1	1412	3	3	2039	53	407088	-54	0												1				49												
WM080112	397760_fnca	1	1	1	38069629	1	75.034	75.032	2.0.10.147	2.0.10.242	2.0.10.242	1.0.0.439	7	234	2	3	Verdana	1	80	0	0	0	WM Stimuli\	1	1086.7	0.7	1275.42857142857	0.9	1140	1	647.4	0.9	1041.66666666667	1	728.7	0.9	896.555555555556	0.9	980.777777777778	12	545136	3	545125	27	39	545163	-999999	545139	0	13	TrialsPROC	PL_003_92016.png	1	2	50	SessionSelectionList														lure	3	Place	0-Back	43	80	42	0	0	86	7	40	409647	1	13	72	407607	-1	408471	1	864	3	3	2040	53	409660	-54	0												2				50												
WM080112	397760_fnca	1	1	1	38069629	1	75.034	75.032	2.0.10.147	2.0.10.242	2.0.10.242	1.0.0.439	7	234	2	3	Verdana	1	80	0	0	0	WM Stimuli\	1	1086.7	0.7	1275.42857142857	0.9	1140	1	647.4	0.9	1041.66666666667	1	728.7	0.9	896.555555555556	0.9	980.777777777778	12	545136	3	545125	27	39	545163	-999999	545139	0	13	TrialsPROC	PL_006_92025.png	1	2	51	SessionSelectionList														nonlure	3	Place	0-Back	44	80	43	0	0	87	8	39	412219	1	13	73	410180	-1	410842	1	662	3	3	2039	52	412232	-53	0												3				51												
WM080112	397760_fnca	1	1	1	38069629	1	75.034	75.032	2.0.10.147	2.0.10.242	2.0.10.242	1.0.0.439	7	234	2	3	Verdana	1	80	0	0	0	WM Stimuli\	1	1086.7	0.7	1275.42857142857	0.9	1140	1	647.4	0.9	1041.66666666667	1	728.7	0.9	896.555555555556	0.9	980.777777777778	12	545136	3	545125	27	39	545163	-999999	545139	0	13	TrialsPROC	PL_001_92012.png	1	2	52	SessionSelectionList														target	2	Place	0-Back	45	80	44	0	0	88	1	39	414791	1	13	72	412752	-1	413315	1	563	2	2	2039	52	414804	-53	0												4				52												
WM080112	397760_fnca	1	1	1	38069629	1	75.034	75.032	2.0.10.147	2.0.10.242	2.0.10.242	1.0.0.439	7	234	2	3	Verdana	1	80	0	0	0	WM Stimuli\	1	1086.7	0.7	1275.42857142857	0.9	1140	1	647.4	0.9	1041.66666666667	1	728.7	0.9	896.555555555556	0.9	980.777777777778	12	545136	3	545125	27	39	545163	-999999	545139	0	13	TrialsPROC	PL_004_92023.png	1	2	53	SessionSelectionList														nonlure	3	Place	0-Back	46	80	45	0	0	88	1	39	417363	2	14	72	415324	-1	415908	1	584	3	3	2039	53	417377	-54	0												5				53												
WM080112	397760_fnca	1	1	1	38069629	1	75.034	75.032	2.0.10.147	2.0.10.242	2.0.10.242	1.0.0.439	7	234	2	3	Verdana	1	80	0	0	0	WM Stimuli\	1	1086.7	0.7	1275.42857142857	0.9	1140	1	647.4	0.9	1041.66666666667	1	728.7	0.9	896.555555555556	0.9	980.777777777778	12	545136	3	545125	27	39	545163	-999999	545139	0	13	TrialsPROC	PL_005_92024.png	1	2	54	SessionSelectionList														nonlure	3	Place	0-Back	47	80	46	0	0	88	2	39	419922	2	14	59	417883	-1	418468	1	585	3	3	2039	53	419936	-54	0												6				54												
WM080112	397760_fnca	1	1	1	38069629	1	75.034	75.032	2.0.10.147	2.0.10.242	2.0.10.242	1.0.0.439	7	234	2	3	Verdana	1	80	0	0	0	WM Stimuli\	1	1086.7	0.7	1275.42857142857	0.9	1140	1	647.4	0.9	1041.66666666667	1	728.7	0.9	896.555555555556	0.9	980.777777777778	12	545136	3	545125	27	39	545163	-999999	545139	0	13	TrialsPROC	PL_001_92012.png	1	2	55	SessionSelectionList														target	2	Place	0-Back	48	80	47	0	0	89	1	39	422494	2	14	72	420455	-1	420963	1	508	2	2	2039	53	422508	-54	0												7				55												
WM080112	397760_fnca	1	1	1	38069629	1	75.034	75.032	2.0.10.147	2.0.10.242	2.0.10.242	1.0.0.439	7	234	2	3	Verdana	1	80	0	0	0	WM Stimuli\	1	1086.7	0.7	1275.42857142857	0.9	1140	1	647.4	0.9	1041.66666666667	1	728.7	0.9	896.555555555556	0.9	980.777777777778	12	545136	3	545125	27	39	545163	-999999	545139	0	13	TrialsPROC	PL_002_92014.png	1	2	56	SessionSelectionList														nonlure	3	Place	0-Back	49	80	48	0	0	89	1	39	425053	2	14	59	423014	-1	423681	1	667	3	3	2039	53	425067	-54	0												8				56												
WM080112	397760_fnca	1	1	1	38069629	1	75.034	75.032	2.0.10.147	2.0.10.242	2.0.10.242	1.0.0.439	7	234	2	3	Verdana	1	80	0	0	0	WM Stimuli\	1	1086.7	0.7	1275.42857142857	0.9	1140	1	647.4	0.9	1041.66666666667	1	728.7	0.9	896.555555555556	0.9	980.777777777778	12	545136	3	545125	27	39	545163	-999999	545139	0	13	TrialsPROC	PL_004_92023.png	1	2	57	SessionSelectionList														lure	3	Place	0-Back	50	80	49	0	0	90	2	40	427626	1	13	72	425586	-1	426138	1	552	3	3	2040	53	427639	-54	0												9				57												
WM080112	397760_fnca	1	1	1	38069629	1	75.034	75.032	2.0.10.147	2.0.10.242	2.0.10.242	1.0.0.439	7	234	2	3	Verdana	1	80	0	0	0	WM Stimuli\	1	1086.7	0.7	1275.42857142857	0.9	1140	1	647.4	0.9	1041.66666666667	1	728.7	0.9	896.555555555556	0.9	980.777777777778	12	545136	3	545125	27	39	545163	-999999	545139	0	13	TrialsPROC	PL_006_92025.png	1	2	58	SessionSelectionList														lure	3	Place	0-Back	51	80	50	0	0	90	3	39	430198	1	13	73	428159	-1	429049	1	890	3	3	2039	52	430211	-53	0												10				58												
WM080112	397760_fnca	1	1	1	38069629	1	75.034	75.032	2.0.10.147	2.0.10.242	2.0.10.242	1.0.0.439	7	234	2	3	Verdana	1	80	0	0	0	WM Stimuli\	1	1086.7	0.7	1275.42857142857	0.9	1140	1	647.4	0.9	1041.66666666667	1	728.7	0.9	896.555555555556	0.9	980.777777777778	12	545136	3	545125	27	39	545163	-999999	545139	0	14	Cue2BackPROC	""	1	2	59	SessionSelectionList									5	430664	-6	0																																													59												
WM080112	397760_fnca	1	1	1	38069629	1	75.034	75.032	2.0.10.147	2.0.10.242	2.0.10.242	1.0.0.439	7	234	2	3	Verdana	1	80	0	0	0	WM Stimuli\	1	1086.7	0.7	1275.42857142857	0.9	1140	1	647.4	0.9	1041.66666666667	1	728.7	0.9	896.555555555556	0.9	980.777777777778	12	545136	3	545125	27	39	545163	-999999	545139	0	15	TrialsPROC	FC_010_F5.png	1	2	60	SessionSelectionList														nonlure	3	Face	2-Back	52	80	51	0	0	90	4	39	435262	2	14	64	433223	-1	435074	1	1851	3	3	2039	53	435276	-54	0													1			60												
WM080112	397760_fnca	1	1	1	38069629	1	75.034	75.032	2.0.10.147	2.0.10.242	2.0.10.242	1.0.0.439	7	234	2	3	Verdana	1	80	0	0	0	WM Stimuli\	1	1086.7	0.7	1275.42857142857	0.9	1140	1	647.4	0.9	1041.66666666667	1	728.7	0.9	896.555555555556	0.9	980.777777777778	12	545136	3	545125	27	39	545163	-999999	545139	0	15	TrialsPROC	FC_012_F6.png	1	2	61	SessionSelectionList														nonlure	3	Face	2-Back	53	80	52	0	0	90	5	39	437835	1	13	73	435796	-1	436784	1	988	3	3	2039	52	437848	-53	0													2			61												
WM080112	397760_fnca	1	1	1	38069629	1	75.034	75.032	2.0.10.147	2.0.10.242	2.0.10.242	1.0.0.439	7	234	2	3	Verdana	1	80	0	0	0	WM Stimuli\	1	1086.7	0.7	1275.42857142857	0.9	1140	1	647.4	0.9	1041.66666666667	1	728.7	0.9	896.555555555556	0.9	980.777777777778	12	545136	3	545125	27	39	545163	-999999	545139	0	15	TrialsPROC	FC_010_F5.png	1	2	62	SessionSelectionList														target	2	Face	2-Back	54	80	53	0	0	90	1	39	440407	1	13	72	438368	-1	439057	1	689	2	2	2039	52	440420	-53	0													3			62												
WM080112	397760_fnca	1	1	1	38069629	1	75.034	75.032	2.0.10.147	2.0.10.242	2.0.10.242	1.0.0.439	7	234	2	3	Verdana	1	80	0	0	0	WM Stimuli\	1	1086.7	0.7	1275.42857142857	0.9	1140	1	647.4	0.9	1041.66666666667	1	728.7	0.9	896.555555555556	0.9	980.777777777778	12	545136	3	545125	27	39	545163	-999999	545139	0	15	TrialsPROC	FC_008_F4.png	1	2	63	SessionSelectionList														nonlure	3	Face	2-Back	55	80	53	0	1	90	1	39	442979	2	14	72	440940	-1	0	0	0	""	3	2039	53	442993	-54	0													4			63												
WM080112	397760_fnca	1	1	1	38069629	1	75.034	75.032	2.0.10.147	2.0.10.242	2.0.10.242	1.0.0.439	7	234	2	3	Verdana	1	80	0	0	0	WM Stimuli\	1	1086.7	0.7	1275.42857142857	0.9	1140	1	647.4	0.9	1041.66666666667	1	728.7	0.9	896.555555555556	0.9	980.777777777778	12	545136	3	545125	27	39	545163	-999999	545139	0	15	TrialsPROC	FC_012_F6.png	1	2	64	SessionSelectionList														lure	3	Face	2-Back	56	80	54	0	0	90	1	39	445551	2	14	72	443512	-1	445352	1	1840	3	3	2039	53	445565	-54	0													5			64												
WM080112	397760_fnca	1	1	1	38069629	1	75.034	75.032	2.0.10.147	2.0.10.242	2.0.10.242	1.0.0.439	7	234	2	3	Verdana	1	80	0	0	0	WM Stimuli\	1	1086.7	0.7	1275.42857142857	0.9	1140	1	647.4	0.9	1041.66666666667	1	728.7	0.9	896.555555555556	0.9	980.777777777778	12	545136	3	545125	27	39	545163	-999999	545139	0	15	TrialsPROC	FC_008_F4.png	1	2	65	SessionSelectionList														target	2	Face	2-Back	57	80	55	0	0	90	1	39	448124	1	13	73	446085	-1	446899	1	814	2	2	2039	52	448137	-53	0													6			65												
WM080112	397760_fnca	1	1	1	38069629	1	75.034	75.032	2.0.10.147	2.0.10.242	2.0.10.242	1.0.0.439	7	234	2	3	Verdana	1	80	0	0	0	WM Stimuli\	1	1086.7	0.7	1275.42857142857	0.9	1140	1	647.4	0.9	1041.66666666667	1	728.7	0.9	896.555555555556	0.9	980.777777777778	12	545136	3	545125	27	39	545163	-999999	545139	0	15	TrialsPROC	FC_007_M4.png	1	2	66	SessionSelectionList														nonlure	3	Face	2-Back	58	80	56	0	0	90	1	39	450696	1	13	72	448657	-1	449665	1	1008	3	3	2039	52	450709	-53	0													7			66												
WM080112	397760_fnca	1	1	1	38069629	1	75.034	75.032	2.0.10.147	2.0.10.242	2.0.10.242	1.0.0.439	7	234	2	3	Verdana	1	80	0	0	0	WM Stimuli\	1	1086.7	0.7	1275.42857142857	0.9	1140	1	647.4	0.9	1041.66666666667	1	728.7	0.9	896.555555555556	0.9	980.777777777778	12	545136	3	545125	27	39	545163	-999999	545139	0	15	TrialsPROC	FC_007_M4.png	1	2	67	SessionSelectionList														lure	3	Face	2-Back	59	80	57	0	0	90	2	39	453268	2	14	72	451229	-1	452049	1	820	3	3	2039	53	453282	-54	0													8			67												
WM080112	397760_fnca	1	1	1	38069629	1	75.034	75.032	2.0.10.147	2.0.10.242	2.0.10.242	1.0.0.439	7	234	2	3	Verdana	1	80	0	0	0	WM Stimuli\	1	1086.7	0.7	1275.42857142857	0.9	1140	1	647.4	0.9	1041.66666666667	1	728.7	0.9	896.555555555556	0.9	980.777777777778	12	545136	3	545125	27	39	545163	-999999	545139	0	15	TrialsPROC	FC_009_M5.png	1	2	68	SessionSelectionList														nonlure	3	Face	2-Back	60	80	58	0	0	90	3	39	455840	2	14	72	453801	-1	454777	1	976	3	3	2039	53	455854	-54	0													9			68												
WM080112	397760_fnca	1	1	1	38069629	1	75.034	75.032	2.0.10.147	2.0.10.242	2.0.10.242	1.0.0.439	7	234	2	3	Verdana	1	80	0	0	0	WM Stimuli\	1	1086.7	0.7	1275.42857142857	0.9	1140	1	647.4	0.9	1041.66666666667	1	728.7	0.9	896.555555555556	0.9	980.777777777778	12	545136	3	545125	27	39	545163	-999999	545139	0	15	TrialsPROC	FC_011_M6.png	1	2	69	SessionSelectionList														nonlure	3	Face	2-Back	61	80	59	0	0	90	4	39	458413	1	13	73	456374	-1	457648	1	1274	3	3	2039	52	458426	-53	0													10			69												
WM080112	397760_fnca	1	1	1	38069629	1	75.034	75.032	2.0.10.147	2.0.10.242	2.0.10.242	1.0.0.439	7	234	2	3	Verdana	1	80	0	0	0	WM Stimuli\	1	1086.7	0.7	1275.42857142857	0.9	1140	1	647.4	0.9	1041.66666666667	1	728.7	0.9	896.555555555556	0.9	980.777777777778	12	545136	3	545125	27	39	545163	-999999	545139	0	16	Fix15secPROC	""	1	2	70	SessionSelectionList																																															5	458879	-6	0							70												
WM080112	397760_fnca	1	1	1	38069629	1	75.034	75.032	2.0.10.147	2.0.10.242	2.0.10.242	1.0.0.439	7	234	2	3	Verdana	1	80	0	0	0	WM Stimuli\	1	1086.7	0.7	1275.42857142857	0.9	1140	1	647.4	0.9	1041.66666666667	1	728.7	0.9	896.555555555556	0.9	980.777777777778	12	545136	3	545125	27	39	545163	-999999	545139	0	17	Cue0BackPROC	TO_007_TOOL7_BA.png	1	2	71	SessionSelectionList																																										12	473886	-13	0												71												
WM080112	397760_fnca	1	1	1	38069629	1	75.034	75.032	2.0.10.147	2.0.10.242	2.0.10.242	1.0.0.439	7	234	2	3	Verdana	1	80	0	0	0	WM Stimuli\	1	1086.7	0.7	1275.42857142857	0.9	1140	1	647.4	0.9	1041.66666666667	1	728.7	0.9	896.555555555556	0.9	980.777777777778	12	545136	3	545125	27	39	545163	-999999	545139	0	18	TrialsPROC	TO_010_TOOL10_BA.png	1	2	72	SessionSelectionList														nonlure	3	Tools	0-Back	62	80	60	0	0	90	5	39	478471	1	13	58	476432	-1	477378	1	946	3	3	2039	52	478484	-53	0														1		72												
WM080112	397760_fnca	1	1	1	38069629	1	75.034	75.032	2.0.10.147	2.0.10.242	2.0.10.242	1.0.0.439	7	234	2	3	Verdana	1	80	0	0	0	WM Stimuli\	1	1086.7	0.7	1275.42857142857	0.9	1140	1	647.4	0.9	1041.66666666667	1	728.7	0.9	896.555555555556	0.9	980.777777777778	12	545136	3	545125	27	39	545163	-999999	545139	0	18	TrialsPROC	TO_009_TOOL9_BA.png	1	2	73	SessionSelectionList														nonlure	3	Tools	0-Back	63	80	61	0	0	91	6	39	481030	1	13	59	478991	-1	479595	1	604	3	3	2039	52	481043	-53	0														2		73												
WM080112	397760_fnca	1	1	1	38069629	1	75.034	75.032	2.0.10.147	2.0.10.242	2.0.10.242	1.0.0.439	7	234	2	3	Verdana	1	80	0	0	0	WM Stimuli\	1	1086.7	0.7	1275.42857142857	0.9	1140	1	647.4	0.9	1041.66666666667	1	728.7	0.9	896.555555555556	0.9	980.777777777778	12	545136	3	545125	27	39	545163	-999999	545139	0	18	TrialsPROC	TO_009_TOOL9_BA.png	1	2	74	SessionSelectionList														lure	3	Tools	0-Back	64	80	62	0	0	91	7	39	483589	1	13	59	481550	-1	482254	1	704	3	3	2039	52	483602	-53	0														3		74												
WM080112	397760_fnca	1	1	1	38069629	1	75.034	75.032	2.0.10.147	2.0.10.242	2.0.10.242	1.0.0.439	7	234	2	3	Verdana	1	80	0	0	0	WM Stimuli\	1	1086.7	0.7	1275.42857142857	0.9	1140	1	647.4	0.9	1041.66666666667	1	728.7	0.9	896.555555555556	0.9	980.777777777778	12	545136	3	545125	27	39	545163	-999999	545139	0	18	TrialsPROC	TO_008_TOOL8_BA.png	1	2	75	SessionSelectionList														nonlure	3	Tools	0-Back	65	80	63	0	0	91	8	39	486148	1	13	59	484109	-1	484755	1	646	3	3	2039	52	486161	-53	0														4		75												
WM080112	397760_fnca	1	1	1	38069629	1	75.034	75.032	2.0.10.147	2.0.10.242	2.0.10.242	1.0.0.439	7	234	2	3	Verdana	1	80	0	0	0	WM Stimuli\	1	1086.7	0.7	1275.42857142857	0.9	1140	1	647.4	0.9	1041.66666666667	1	728.7	0.9	896.555555555556	0.9	980.777777777778	12	545136	3	545125	27	39	545163	-999999	545139	0	18	TrialsPROC	TO_011_TOOL11_BA.png	1	2	76	SessionSelectionList														nonlure	3	Tools	0-Back	66	80	64	0	0	91	9	39	488707	2	13	59	486668	-1	487262	1	594	3	3	2039	52	488720	-53	0														5		76												
WM080112	397760_fnca	1	1	1	38069629	1	75.034	75.032	2.0.10.147	2.0.10.242	2.0.10.242	1.0.0.439	7	234	2	3	Verdana	1	80	0	0	0	WM Stimuli\	1	1086.7	0.7	1275.42857142857	0.9	1140	1	647.4	0.9	1041.66666666667	1	728.7	0.9	896.555555555556	0.9	980.777777777778	12	545136	3	545125	27	39	545163	-999999	545139	0	18	TrialsPROC	TO_012_TOOL12_BA.png	1	2	77	SessionSelectionList														nonlure	3	Tools	0-Back	67	80	65	0	0	92	10	40	491266	1	13	58	489226	-1	491162	1	1936	3	3	2040	53	491279	-54	0														6		77												
WM080112	397760_fnca	1	1	1	38069629	1	75.034	75.032	2.0.10.147	2.0.10.242	2.0.10.242	1.0.0.439	7	234	2	3	Verdana	1	80	0	0	0	WM Stimuli\	1	1086.7	0.7	1275.42857142857	0.9	1140	1	647.4	0.9	1041.66666666667	1	728.7	0.9	896.555555555556	0.9	980.777777777778	12	545136	3	545125	27	39	545163	-999999	545139	0	18	TrialsPROC	TO_010_TOOL10_BA.png	1	2	78	SessionSelectionList														lure	3	Tools	0-Back	68	80	66	0	0	89	1	40	493825	1	13	59	491785	-1	493239	0	1454	2	3	2040	53	493838	-54	0														7		78												
WM080112	397760_fnca	1	1	1	38069629	1	75.034	75.032	2.0.10.147	2.0.10.242	2.0.10.242	1.0.0.439	7	234	2	3	Verdana	1	80	0	0	0	WM Stimuli\	1	1086.7	0.7	1275.42857142857	0.9	1140	1	647.4	0.9	1041.66666666667	1	728.7	0.9	896.555555555556	0.9	980.777777777778	12	545136	3	545125	27	39	545163	-999999	545139	0	18	TrialsPROC	TO_007_TOOL7_BA.png	1	2	79	SessionSelectionList														target	2	Tools	0-Back	69	80	67	0	0	89	2	39	496383	2	14	59	494344	-1	496227	1	1883	2	2	2039	53	496397	-54	0														8		79												
WM080112	397760_fnca	1	1	1	38069629	1	75.034	75.032	2.0.10.147	2.0.10.242	2.0.10.242	1.0.0.439	7	234	2	3	Verdana	1	80	0	0	0	WM Stimuli\	1	1086.7	0.7	1275.42857142857	0.9	1140	1	647.4	0.9	1041.66666666667	1	728.7	0.9	896.555555555556	0.9	980.777777777778	12	545136	3	545125	27	39	545163	-999999	545139	0	18	TrialsPROC	TO_008_TOOL8_BA.png	1	2	80	SessionSelectionList														lure	3	Tools	0-Back	70	80	68	0	0	90	1	39	498942	2	14	59	496903	-1	497624	1	721	3	3	2039	53	498956	-54	0														9		80												
WM080112	397760_fnca	1	1	1	38069629	1	75.034	75.032	2.0.10.147	2.0.10.242	2.0.10.242	1.0.0.439	7	234	2	3	Verdana	1	80	0	0	0	WM Stimuli\	1	1086.7	0.7	1275.42857142857	0.9	1140	1	647.4	0.9	1041.66666666667	1	728.7	0.9	896.555555555556	0.9	980.777777777778	12	545136	3	545125	27	39	545163	-999999	545139	0	18	TrialsPROC	TO_007_TOOL7_BA.png	1	2	81	SessionSelectionList														target	2	Tools	0-Back	71	80	69	0	0	90	1	39	501501	2	14	59	499462	-1	500255	1	793	2	2	2039	53	501515	-54	0														10		81												
WM080112	397760_fnca	1	1	1	38069629	1	75.034	75.032	2.0.10.147	2.0.10.242	2.0.10.242	1.0.0.439	7	234	2	3	Verdana	1	80	0	0	0	WM Stimuli\	1	1086.7	0.7	1275.42857142857	0.9	1140	1	647.4	0.9	1041.66666666667	1	728.7	0.9	896.555555555556	0.9	980.777777777778	12	545136	3	545125	27	39	545163	-999999	545139	0	19	Cue2BackPROC	""	1	2	82	SessionSelectionList									6	501968	-7	0																																													82												
WM080112	397760_fnca	1	1	1	38069629	1	75.034	75.032	2.0.10.147	2.0.10.242	2.0.10.242	1.0.0.439	7	234	2	3	Verdana	1	80	0	0	0	WM Stimuli\	1	1086.7	0.7	1275.42857142857	0.9	1140	1	647.4	0.9	1041.66666666667	1	728.7	0.9	896.555555555556	0.9	980.777777777778	12	545136	3	545125	27	39	545163	-999999	545139	0	20	TrialsPROC	PL_007_92026.png	1	2	83	SessionSelectionList														nonlure	3	Place	2-Back	72	80	70	0	0	90	1	39	506566	1	13	65	504527	-1	506003	1	1476	3	3	2039	52	506579	-53	0															1	83												
WM080112	397760_fnca	1	1	1	38069629	1	75.034	75.032	2.0.10.147	2.0.10.242	2.0.10.242	1.0.0.439	7	234	2	3	Verdana	1	80	0	0	0	WM Stimuli\	1	1086.7	0.7	1275.42857142857	0.9	1140	1	647.4	0.9	1041.66666666667	1	728.7	0.9	896.555555555556	0.9	980.777777777778	12	545136	3	545125	27	39	545163	-999999	545139	0	20	TrialsPROC	PL_007_92026.png	1	2	84	SessionSelectionList														lure	3	Place	2-Back	73	80	71	0	0	90	2	39	509125	1	13	59	507086	-1	508129	1	1043	3	3	2039	52	509138	-53	0															2	84												
WM080112	397760_fnca	1	1	1	38069629	1	75.034	75.032	2.0.10.147	2.0.10.242	2.0.10.242	1.0.0.439	7	234	2	3	Verdana	1	80	0	0	0	WM Stimuli\	1	1086.7	0.7	1275.42857142857	0.9	1140	1	647.4	0.9	1041.66666666667	1	728.7	0.9	896.555555555556	0.9	980.777777777778	12	545136	3	545125	27	39	545163	-999999	545139	0	20	TrialsPROC	PL_010_92038.png	1	2	85	SessionSelectionList														nonlure	3	Place	2-Back	74	80	72	0	0	90	3	39	511697	1	14	72	509658	-1	510784	1	1126	3	3	2039	53	511711	-54	0															3	85												
WM080112	397760_fnca	1	1	1	38069629	1	75.034	75.032	2.0.10.147	2.0.10.242	2.0.10.242	1.0.0.439	7	234	2	3	Verdana	1	80	0	0	0	WM Stimuli\	1	1086.7	0.7	1275.42857142857	0.9	1140	1	647.4	0.9	1041.66666666667	1	728.7	0.9	896.555555555556	0.9	980.777777777778	12	545136	3	545125	27	39	545163	-999999	545139	0	20	TrialsPROC	PL_009_92037.png	1	2	86	SessionSelectionList														nonlure	3	Place	2-Back	75	80	73	0	0	90	4	39	514256	1	13	59	512217	-1	513184	1	967	3	3	2039	52	514269	-53	0															4	86												
WM080112	397760_fnca	1	1	1	38069629	1	75.034	75.032	2.0.10.147	2.0.10.242	2.0.10.242	1.0.0.439	7	234	2	3	Verdana	1	80	0	0	0	WM Stimuli\	1	1086.7	0.7	1275.42857142857	0.9	1140	1	647.4	0.9	1041.66666666667	1	728.7	0.9	896.555555555556	0.9	980.777777777778	12	545136	3	545125	27	39	545163	-999999	545139	0	20	TrialsPROC	PL_010_92038.png	1	2	87	SessionSelectionList														target	2	Place	2-Back	76	80	74	0	0	90	5	39	516828	2	14	72	514789	-1	515750	0	961	3	2	2039	53	516842	-54	0															5	87												
WM080112	397760_fnca	1	1	1	38069629	1	75.034	75.032	2.0.10.147	2.0.10.242	2.0.10.242	1.0.0.439	7	234	2	3	Verdana	1	80	0	0	0	WM Stimuli\	1	1086.7	0.7	1275.42857142857	0.9	1140	1	647.4	0.9	1041.66666666667	1	728.7	0.9	896.555555555556	0.9	980.777777777778	12	545136	3	545125	27	39	545163	-999999	545139	0	20	TrialsPROC	PL_009_92037.png	1	2	88	SessionSelectionList														target	2	Place	2-Back	77	80	75	0	0	90	1	39	519387	2	14	59	517348	-1	518748	1	1400	2	2	2039	53	519401	-54	0															6	88												
WM080112	397760_fnca	1	1	1	38069629	1	75.034	75.032	2.0.10.147	2.0.10.242	2.0.10.242	1.0.0.439	7	234	2	3	Verdana	1	80	0	0	0	WM Stimuli\	1	1086.7	0.7	1275.42857142857	0.9	1140	1	647.4	0.9	1041.66666666667	1	728.7	0.9	896.555555555556	0.9	980.777777777778	12	545136	3	545125	27	39	545163	-999999	545139	0	20	TrialsPROC	PL_008_92033.png	1	2	89	SessionSelectionList														nonlure	3	Place	2-Back	78	80	76	0	0	90	1	39	521959	2	14	72	519920	-1	520648	1	728	3	3	2039	53	521973	-54	0															7	89												
WM080112	397760_fnca	1	1	1	38069629	1	75.034	75.032	2.0.10.147	2.0.10.242	2.0.10.242	1.0.0.439	7	234	2	3	Verdana	1	80	0	0	0	WM Stimuli\	1	1086.7	0.7	1275.42857142857	0.9	1140	1	647.4	0.9	1041.66666666667	1	728.7	0.9	896.555555555556	0.9	980.777777777778	12	545136	3	545125	27	39	545163	-999999	545139	0	20	TrialsPROC	PL_012_92047.png	1	2	90	SessionSelectionList														nonlure	3	Place	2-Back	79	80	77	0	0	90	2	39	524532	1	13	73	522493	-1	523251	1	758	3	3	2039	52	524545	-53	0															8	90												
WM080112	397760_fnca	1	1	1	38069629	1	75.034	75.032	2.0.10.147	2.0.10.242	2.0.10.242	1.0.0.439	7	234	2	3	Verdana	1	80	0	0	0	WM Stimuli\	1	1086.7	0.7	1275.42857142857	0.9	1140	1	647.4	0.9	1041.66666666667	1	728.7	0.9	896.555555555556	0.9	980.777777777778	12	545136	3	545125	27	39	545163	-999999	545139	0	20	TrialsPROC	PL_012_92047.png	1	2	91	SessionSelectionList														lure	3	Place	2-Back	80	80	78	0	0	90	3	39	527104	1	13	72	525065	-1	526119	1	1054	3	3	2039	52	527117	-53	0															9	91												
WM080112	397760_fnca	1	1	1	38069629	1	75.034	75.032	2.0.10.147	2.0.10.242	2.0.10.242	1.0.0.439	7	234	2	3	Verdana	1	80	0	0	0	WM Stimuli\	1	1086.7	0.7	1275.42857142857	0.9	1140	1	647.4	0.9	1041.66666666667	1	728.7	0.9	896.555555555556	0.9	980.777777777778	12	545136	3	545125	27	39	545163	-999999	545139	0	20	TrialsPROC	PL_011_92044.png	1	2	92	SessionSelectionList														nonlure	3	Place	2-Back	80	80	79	0	0	90	4	39	529663	1	13	59	527624	-1	528447	1	823	3	3	2039	52	529676	-53	0															10	92												
WM080112	397760_fnca	1	1	1	38069629	1	75.034	75.032	2.0.10.147	2.0.10.242	2.0.10.242	1.0.0.439	7	234	2	3	Verdana	1	80	0	0	0	WM Stimuli\	1	1086.7	0.7	1275.42857142857	0.9	1140	1	647.4	0.9	1041.66666666667	1	728.7	0.9	896.555555555556	0.9	980.777777777778	12	545136	3	545125	27	39	545163	-999999	545139	0	21	Fix15secPROC	""	1	2	93	SessionSelectionList																																															5	530129	-6	0							93												
