ExperimentName	HCPID	RunNumber	Subject	Session	RandomSeed	Group	Laptop.RefreshRate	ScannerD2.RefreshRate	StudioVersion	RuntimeVersion	RuntimeVersionExpected	ExperimentVersion	triggercode	Allowed	Target	Nontarget	FontStyle	RunTrialNumber[Session]	TrialsPerRun[Session]	TotalRespGreater200[Session]	ConsecRTLess200[Session]	ConsecNonResp[Session]	StimuliDir	ACC_2_Back_Body	Avg_RT_For_Correct_Trials_2_Back_Body	ACC_0_Back_Body	Avg_RT_For_Correct_Trials_0_Back_Body	ACC_2_Back_Face	Avg_RT_For_Correct_Trials_2_Back_Face	ACC_0_Back_Face	Avg_RT_For_Correct_Trials_0_Back_Face	ACC_2_Back_Place	Avg_RT_For_Correct_Trials_2_Back_Place	ACC_0_Back_Place	Avg_RT_For_Correct_Trials_0_Back_Place	ACC_2_Back_Tools	Avg_RT_For_Correct_Trials_2_Back_Tools	ACC_0_Back_Tools	Avg_RT_For_Correct_Trials_0_Back_Tools	ExpInstrucFeelFreeToRest.OnsetDelay	ExpInstrucFeelFreeToRest.OnsetTime	ExpInstrucFeelFreeToRest.DurationError	ExpInstrucFeelFreeToRest.StartTime	ExpInstrucFeelFreeToRest.OnsetToOnsetTime	FeelFreeToRest.OnsetDelay	FeelFreeToRest.OnsetTime	FeelFreeToRest.DurationError	FeelFreeToRest.StartTime	FeelFreeToRest.OnsetToOnsetTime	SessionSelectionList	Procedure[Block]	Stimulus[Block]	RunNumberFilterValue	SessionSelectionList.Cycle	SessionSelectionList.Sample	Running[Block]	IntroButtonMap.OnsetDelay	IntroButtonMap.OnsetTime	IntroButtonMap.DurationError	IntroButtonMap.OnsetToOnsetTime	GetReady.OnsetDelay	GetReady.OnsetTime	GetReady.DurationError	GetReady.OnsetToOnsetTime	Cue2Back.OnsetDelay	Cue2Back.OnsetTime	Cue2Back.DurationError	Cue2Back.OnsetToOnsetTime	Run1Block1	TargetType	CorrectResponse	StimType	BlockType	RunTrialNumber[Block]	TrialsPerRun[Block]	TotalRespGreater200[Block]	ConsecRTLess200[Block]	ConsecNonResp[Block]	ControlAcc	ConsecSameResp	ExperimenterWindow.OnsetDelay	ExperimenterWindow.OnsetTime	ExperimenterWindow.DurationError	ExperimenterWindow.OnsetToOnsetTime	Stim.OnsetDelay	Stim.OnsetTime	Stim.DurationError	Stim.RTTime	Stim.ACC	Stim.RT	Stim.RESP	Stim.CRESP	Stim.OnsetToOnsetTime	Fix.OnsetDelay	Fix.OnsetTime	Fix.DurationError	Fix.OnsetToOnsetTime	CueTarget.OnsetDelay	CueTarget.OnsetTime	CueTarget.DurationError	CueTarget.OnsetToOnsetTime	Run1Block2	Fix15sec.OnsetDelay	Fix15sec.OnsetTime	Fix15sec.DurationError	Fix15sec.OnsetToOnsetTime	Run1Block3	Run1Block4	Run1Block5	Run1Block6	Run1Block7	Run1Block8	Block	Procedure[Trial]	Stimulus[Trial]	ReadyList	Running[Trial]	ReadyList.Cycle	ReadyList.Sample	SyncSlide.OnsetDelay	SyncSlide.OnsetTime	SyncSlide.DurationError	SyncSlide.FinishTime	SyncSlide.OnsetToOnsetTime	Trial
WM080112	397760_fnca	2	1	1	1726035328	1	75.032	75.032	2.0.10.147	2.0.10.242	2.0.10.242	1.0.0.439	7	234	2	3	Verdana	1	80	0	0	0	WM Stimuli\	1	914.8	1	803.6	0.9	823.111111111111	0.9	547.222222222222	0.9	851.111111111111	1	634.3	0.7	753.714285714286	0.9	576.777777777778	13	323969	1	323957	27	40	323996	-999999	323971	0	22	TRSyncPROC	""	2	2	1	SessionSelectionList	107	9634	-999999	0	28	16804	-999999	0																																																	1	InitialTR	4	1	ReadyList	1	1	22	30719	-23	32696	0	1
WM080112	397760_fnca	2	1	1	1726035328	1	75.032	75.032	2.0.10.147	2.0.10.242	2.0.10.242	1.0.0.439	7	234	2	3	Verdana	1	80	0	0	0	WM Stimuli\	1	914.8	1	803.6	0.9	823.111111111111	0.9	547.222222222222	0.9	851.111111111111	1	634.3	0.7	753.714285714286	0.9	576.777777777778	13	323969	1	323957	27	40	323996	-999999	323971	0	22	TRSyncPROC	""	2	2	1	SessionSelectionList	107	9634	-999999	0	28	16804	-999999	0																																																	1	InitialTR	3	2	ReadyList	1	2	21	32718	-22	34696	0	2
WM080112	397760_fnca	2	1	1	1726035328	1	75.032	75.032	2.0.10.147	2.0.10.242	2.0.10.242	1.0.0.439	7	234	2	3	Verdana	1	80	0	0	0	WM Stimuli\	1	914.8	1	803.6	0.9	823.111111111111	0.9	547.222222222222	0.9	851.111111111111	1	634.3	0.7	753.714285714286	0.9	576.777777777778	13	323969	1	323957	27	40	323996	-999999	323971	0	22	TRSyncPROC	""	2	2	1	SessionSelectionList	107	9634	-999999	0	28	16804	-999999	0																																																	1	InitialTR	2	3	ReadyList	1	3	6	34703	-7	36696	0	3
WM080112	397760_fnca	2	1	1	1726035328	1	75.032	75.032	2.0.10.147	2.0.10.242	2.0.10.242	1.0.0.439	7	234	2	3	Verdana	1	80	0	0	0	WM Stimuli\	1	914.8	1	803.6	0.9	823.111111111111	0.9	547.222222222222	0.9	851.111111111111	1	634.3	0.7	753.714285714286	0.9	576.777777777778	13	323969	1	323957	27	40	323996	-999999	323971	0	22	TRSyncPROC	""	2	2	1	SessionSelectionList	107	9634	-999999	0	28	16804	-999999	0																																																	1	InitialTR	1	4	ReadyList	1	4	6	36703	-7	38696	0	4
WM080112	397760_fnca	2	1	1	1726035328	1	75.032	75.032	2.0.10.147	2.0.10.242	2.0.10.242	1.0.0.439	7	234	2	3	Verdana	1	80	0	0	0	WM Stimuli\	1	914.8	1	803.6	0.9	823.111111111111	0.9	547.222222222222	0.9	851.111111111111	1	634.3	0.7	753.714285714286	0.9	576.777777777778	13	323969	1	323957	27	40	323996	-999999	323971	0	23	Cue2BackPROC	""	2	2	2	SessionSelectionList									5	38702	-6	0																																													2												
WM080112	397760_fnca	2	1	1	1726035328	1	75.032	75.032	2.0.10.147	2.0.10.242	2.0.10.242	1.0.0.439	7	234	2	3	Verdana	1	80	0	0	0	WM Stimuli\	1	914.8	1	803.6	0.9	823.111111111111	0.9	547.222222222222	0.9	851.111111111111	1	634.3	0.7	753.714285714286	0.9	576.777777777778	13	323969	1	323957	27	40	323996	-999999	323971	0	24	TrialsPROC	TO_014_TOOL14_BA.png	2	2	3	SessionSelectionList														nonlure	3	Tools	2-Back	2	80	1	0	0	0	1	53	43327	3	13	77	41274	-1	41978	1	704	3	3	2053	66	43340	-67	0																3												
WM080112	397760_fnca	2	1	1	1726035328	1	75.032	75.032	2.0.10.147	2.0.10.242	2.0.10.242	1.0.0.439	7	234	2	3	Verdana	1	80	0	0	0	WM Stimuli\	1	914.8	1	803.6	0.9	823.111111111111	0.9	547.222222222222	0.9	851.111111111111	1	634.3	0.7	753.714285714286	0.9	576.777777777778	13	323969	1	323957	27	40	323996	-999999	323971	0	24	TrialsPROC	TO_013_TOOL13_BA.png	2	2	4	SessionSelectionList														nonlure	3	Tools	2-Back	3	80	2	0	0	0	2	39	45872	3	14	59	43833	-1	44502	1	669	3	3	2039	53	45886	-54	0																4												
WM080112	397760_fnca	2	1	1	1726035328	1	75.032	75.032	2.0.10.147	2.0.10.242	2.0.10.242	1.0.0.439	7	234	2	3	Verdana	1	80	0	0	0	WM Stimuli\	1	914.8	1	803.6	0.9	823.111111111111	0.9	547.222222222222	0.9	851.111111111111	1	634.3	0.7	753.714285714286	0.9	576.777777777778	13	323969	1	323957	27	40	323996	-999999	323971	0	24	TrialsPROC	TO_016_TOOL16_BA.png	2	2	5	SessionSelectionList														nonlure	3	Tools	2-Back	4	80	3	0	0	0	3	39	48431	1	14	59	46392	-1	47465	1	1073	3	3	2039	53	48445	-54	0																5												
WM080112	397760_fnca	2	1	1	1726035328	1	75.032	75.032	2.0.10.147	2.0.10.242	2.0.10.242	1.0.0.439	7	234	2	3	Verdana	1	80	0	0	0	WM Stimuli\	1	914.8	1	803.6	0.9	823.111111111111	0.9	547.222222222222	0.9	851.111111111111	1	634.3	0.7	753.714285714286	0.9	576.777777777778	13	323969	1	323957	27	40	323996	-999999	323971	0	24	TrialsPROC	TO_014_TOOL14_BA.png	2	2	6	SessionSelectionList														lure	3	Tools	2-Back	5	80	4	0	0	0	1	39	51003	2	14	72	48964	-1	50374	0	1410	2	3	2039	53	51017	-54	0																6												
WM080112	397760_fnca	2	1	1	1726035328	1	75.032	75.032	2.0.10.147	2.0.10.242	2.0.10.242	1.0.0.439	7	234	2	3	Verdana	1	80	0	0	0	WM Stimuli\	1	914.8	1	803.6	0.9	823.111111111111	0.9	547.222222222222	0.9	851.111111111111	1	634.3	0.7	753.714285714286	0.9	576.777777777778	13	323969	1	323957	27	40	323996	-999999	323971	0	24	TrialsPROC	TO_016_TOOL16_BA.png	2	2	7	SessionSelectionList														target	2	Tools	2-Back	6	80	4	0	1	0	1	39	53562	2	14	59	51523	-1	0	0	0	""	2	2039	53	53576	-54	0																7												
WM080112	397760_fnca	2	1	1	1726035328	1	75.032	75.032	2.0.10.147	2.0.10.242	2.0.10.242	1.0.0.439	7	234	2	3	Verdana	1	80	0	0	0	WM Stimuli\	1	914.8	1	803.6	0.9	823.111111111111	0.9	547.222222222222	0.9	851.111111111111	1	634.3	0.7	753.714285714286	0.9	576.777777777778	13	323969	1	323957	27	40	323996	-999999	323971	0	24	TrialsPROC	TO_018_TOOL18_BA.png	2	2	8	SessionSelectionList														nonlure	3	Tools	2-Back	7	80	5	0	0	0	1	39	56121	2	14	59	54082	-1	54884	1	802	3	3	2039	53	56135	-54	0																8												
WM080112	397760_fnca	2	1	1	1726035328	1	75.032	75.032	2.0.10.147	2.0.10.242	2.0.10.242	1.0.0.439	7	234	2	3	Verdana	1	80	0	0	0	WM Stimuli\	1	914.8	1	803.6	0.9	823.111111111111	0.9	547.222222222222	0.9	851.111111111111	1	634.3	0.7	753.714285714286	0.9	576.777777777778	13	323969	1	323957	27	40	323996	-999999	323971	0	24	TrialsPROC	TO_017_TOOL17_BA.png	2	2	9	SessionSelectionList														nonlure	3	Tools	2-Back	8	80	6	0	0	0	2	39	58680	1	14	59	56641	-1	57351	1	710	3	3	2039	53	58694	-54	0																9												
WM080112	397760_fnca	2	1	1	1726035328	1	75.032	75.032	2.0.10.147	2.0.10.242	2.0.10.242	1.0.0.439	7	234	2	3	Verdana	1	80	0	0	0	WM Stimuli\	1	914.8	1	803.6	0.9	823.111111111111	0.9	547.222222222222	0.9	851.111111111111	1	634.3	0.7	753.714285714286	0.9	576.777777777778	13	323969	1	323957	27	40	323996	-999999	323971	0	24	TrialsPROC	TO_018_TOOL18_BA.png	2	2	10	SessionSelectionList														target	2	Tools	2-Back	9	80	7	0	0	0	1	39	61239	1	13	59	59200	-1	59929	1	729	2	2	2039	52	61252	-53	0																10												
WM080112	397760_fnca	2	1	1	1726035328	1	75.032	75.032	2.0.10.147	2.0.10.242	2.0.10.242	1.0.0.439	7	234	2	3	Verdana	1	80	0	0	0	WM Stimuli\	1	914.8	1	803.6	0.9	823.111111111111	0.9	547.222222222222	0.9	851.111111111111	1	634.3	0.7	753.714285714286	0.9	576.777777777778	13	323969	1	323957	27	40	323996	-999999	323971	0	24	TrialsPROC	TO_015_TOOL15_BA.png	2	2	11	SessionSelectionList														nonlure	3	Tools	2-Back	10	80	8	0	0	0	1	39	63798	1	13	59	61759	-1	62348	1	589	3	3	2039	52	63811	-53	0																11												
WM080112	397760_fnca	2	1	1	1726035328	1	75.032	75.032	2.0.10.147	2.0.10.242	2.0.10.242	1.0.0.439	7	234	2	3	Verdana	1	80	0	0	0	WM Stimuli\	1	914.8	1	803.6	0.9	823.111111111111	0.9	547.222222222222	0.9	851.111111111111	1	634.3	0.7	753.714285714286	0.9	576.777777777778	13	323969	1	323957	27	40	323996	-999999	323971	0	24	TrialsPROC	TO_017_TOOL17_BA.png	2	2	12	SessionSelectionList														lure	3	Tools	2-Back	11	80	9	0	0	0	1	39	66357	1	13	59	64318	-1	65136	0	818	2	3	2039	52	66370	-53	0																12												
WM080112	397760_fnca	2	1	1	1726035328	1	75.032	75.032	2.0.10.147	2.0.10.242	2.0.10.242	1.0.0.439	7	234	2	3	Verdana	1	80	0	0	0	WM Stimuli\	1	914.8	1	803.6	0.9	823.111111111111	0.9	547.222222222222	0.9	851.111111111111	1	634.3	0.7	753.714285714286	0.9	576.777777777778	13	323969	1	323957	27	40	323996	-999999	323971	0	25	Cue0BackPROC	BP_013_BP7_BA.png	2	2	13	SessionSelectionList																																										19	66837	-20	0												13												
WM080112	397760_fnca	2	1	1	1726035328	1	75.032	75.032	2.0.10.147	2.0.10.242	2.0.10.242	1.0.0.439	7	234	2	3	Verdana	1	80	0	0	0	WM Stimuli\	1	914.8	1	803.6	0.9	823.111111111111	0.9	547.222222222222	0.9	851.111111111111	1	634.3	0.7	753.714285714286	0.9	576.777777777778	13	323969	1	323957	27	40	323996	-999999	323971	0	26	TrialsPROC	BP_015_H10-T_BA.png	2	2	14	SessionSelectionList														nonlure	3	Body	0-Back	12	80	10	0	0	100	1	39	71408	2	14	51	69369	-1	70594	1	1225	3	3	2039	53	71422	-54	0																14												
WM080112	397760_fnca	2	1	1	1726035328	1	75.032	75.032	2.0.10.147	2.0.10.242	2.0.10.242	1.0.0.439	7	234	2	3	Verdana	1	80	0	0	0	WM Stimuli\	1	914.8	1	803.6	0.9	823.111111111111	0.9	547.222222222222	0.9	851.111111111111	1	634.3	0.7	753.714285714286	0.9	576.777777777778	13	323969	1	323957	27	40	323996	-999999	323971	0	26	TrialsPROC	BP_018_H13-T_BA.png	2	2	15	SessionSelectionList														nonlure	3	Body	0-Back	13	80	11	0	0	100	2	39	73967	1	13	59	71928	-1	73084	1	1156	3	3	2039	52	73980	-53	0																15												
WM080112	397760_fnca	2	1	1	1726035328	1	75.032	75.032	2.0.10.147	2.0.10.242	2.0.10.242	1.0.0.439	7	234	2	3	Verdana	1	80	0	0	0	WM Stimuli\	1	914.8	1	803.6	0.9	823.111111111111	0.9	547.222222222222	0.9	851.111111111111	1	634.3	0.7	753.714285714286	0.9	576.777777777778	13	323969	1	323957	27	40	323996	-999999	323971	0	26	TrialsPROC	BP_014_BP9_BA.png	2	2	16	SessionSelectionList														nonlure	3	Body	0-Back	14	80	12	0	0	100	3	39	76526	1	13	59	74487	-1	75780	1	1293	3	3	2039	52	76539	-53	0																16												
WM080112	397760_fnca	2	1	1	1726035328	1	75.032	75.032	2.0.10.147	2.0.10.242	2.0.10.242	1.0.0.439	7	234	2	3	Verdana	1	80	0	0	0	WM Stimuli\	1	914.8	1	803.6	0.9	823.111111111111	0.9	547.222222222222	0.9	851.111111111111	1	634.3	0.7	753.714285714286	0.9	576.777777777778	13	323969	1	323957	27	40	323996	-999999	323971	0	26	TrialsPROC	BP_018_H13-T_BA.png	2	2	17	SessionSelectionList														lure	3	Body	0-Back	15	80	13	0	0	100	4	39	79085	1	13	59	77046	-1	77616	1	570	3	3	2039	52	79098	-53	0																17												
WM080112	397760_fnca	2	1	1	1726035328	1	75.032	75.032	2.0.10.147	2.0.10.242	2.0.10.242	1.0.0.439	7	234	2	3	Verdana	1	80	0	0	0	WM Stimuli\	1	914.8	1	803.6	0.9	823.111111111111	0.9	547.222222222222	0.9	851.111111111111	1	634.3	0.7	753.714285714286	0.9	576.777777777778	13	323969	1	323957	27	40	323996	-999999	323971	0	26	TrialsPROC	BP_013_BP7_BA.png	2	2	18	SessionSelectionList														target	2	Body	0-Back	16	80	14	0	0	100	1	39	81644	1	13	59	79605	-1	80568	1	963	2	2	2039	52	81657	-53	0																18												
WM080112	397760_fnca	2	1	1	1726035328	1	75.032	75.032	2.0.10.147	2.0.10.242	2.0.10.242	1.0.0.439	7	234	2	3	Verdana	1	80	0	0	0	WM Stimuli\	1	914.8	1	803.6	0.9	823.111111111111	0.9	547.222222222222	0.9	851.111111111111	1	634.3	0.7	753.714285714286	0.9	576.777777777778	13	323969	1	323957	27	40	323996	-999999	323971	0	26	TrialsPROC	BP_015_H10-T_BA.png	2	2	19	SessionSelectionList														lure	3	Body	0-Back	17	80	15	0	0	100	1	39	84203	1	13	59	82164	-1	82699	1	535	3	3	2039	52	84216	-53	0																19												
WM080112	397760_fnca	2	1	1	1726035328	1	75.032	75.032	2.0.10.147	2.0.10.242	2.0.10.242	1.0.0.439	7	234	2	3	Verdana	1	80	0	0	0	WM Stimuli\	1	914.8	1	803.6	0.9	823.111111111111	0.9	547.222222222222	0.9	851.111111111111	1	634.3	0.7	753.714285714286	0.9	576.777777777778	13	323969	1	323957	27	40	323996	-999999	323971	0	26	TrialsPROC	BP_016_H11-T_BA.png	2	2	20	SessionSelectionList														nonlure	3	Body	0-Back	18	80	16	0	0	100	2	39	86775	1	13	72	84736	-1	85225	1	489	3	3	2039	52	86788	-53	0																20												
WM080112	397760_fnca	2	1	1	1726035328	1	75.032	75.032	2.0.10.147	2.0.10.242	2.0.10.242	1.0.0.439	7	234	2	3	Verdana	1	80	0	0	0	WM Stimuli\	1	914.8	1	803.6	0.9	823.111111111111	0.9	547.222222222222	0.9	851.111111111111	1	634.3	0.7	753.714285714286	0.9	576.777777777778	13	323969	1	323957	27	40	323996	-999999	323971	0	26	TrialsPROC	BP_013_BP7_BA.png	2	2	21	SessionSelectionList														target	2	Body	0-Back	19	80	17	0	0	100	1	39	89334	1	13	59	87295	-1	87929	1	634	2	2	2039	52	89347	-53	0																21												
WM080112	397760_fnca	2	1	1	1726035328	1	75.032	75.032	2.0.10.147	2.0.10.242	2.0.10.242	1.0.0.439	7	234	2	3	Verdana	1	80	0	0	0	WM Stimuli\	1	914.8	1	803.6	0.9	823.111111111111	0.9	547.222222222222	0.9	851.111111111111	1	634.3	0.7	753.714285714286	0.9	576.777777777778	13	323969	1	323957	27	40	323996	-999999	323971	0	26	TrialsPROC	BP_017_H12-T_BA.png	2	2	22	SessionSelectionList														nonlure	3	Body	0-Back	20	80	18	0	0	100	1	39	91893	2	13	59	89854	-1	90355	1	501	3	3	2039	52	91906	-53	0																22												
WM080112	397760_fnca	2	1	1	1726035328	1	75.032	75.032	2.0.10.147	2.0.10.242	2.0.10.242	1.0.0.439	7	234	2	3	Verdana	1	80	0	0	0	WM Stimuli\	1	914.8	1	803.6	0.9	823.111111111111	0.9	547.222222222222	0.9	851.111111111111	1	634.3	0.7	753.714285714286	0.9	576.777777777778	13	323969	1	323957	27	40	323996	-999999	323971	0	26	TrialsPROC	BP_014_BP9_BA.png	2	2	23	SessionSelectionList														lure	3	Body	0-Back	21	80	19	0	0	100	2	39	94452	2	13	59	92413	-1	93083	1	670	3	3	2039	52	94465	-53	0																23												
WM080112	397760_fnca	2	1	1	1726035328	1	75.032	75.032	2.0.10.147	2.0.10.242	2.0.10.242	1.0.0.439	7	234	2	3	Verdana	1	80	0	0	0	WM Stimuli\	1	914.8	1	803.6	0.9	823.111111111111	0.9	547.222222222222	0.9	851.111111111111	1	634.3	0.7	753.714285714286	0.9	576.777777777778	13	323969	1	323957	27	40	323996	-999999	323971	0	27	Fix15secPROC	""	2	2	24	SessionSelectionList																																															5	94918	-6	0							24												
WM080112	397760_fnca	2	1	1	1726035328	1	75.032	75.032	2.0.10.147	2.0.10.242	2.0.10.242	1.0.0.439	7	234	2	3	Verdana	1	80	0	0	0	WM Stimuli\	1	914.8	1	803.6	0.9	823.111111111111	0.9	547.222222222222	0.9	851.111111111111	1	634.3	0.7	753.714285714286	0.9	576.777777777778	13	323969	1	323957	27	40	323996	-999999	323971	0	28	Cue2BackPROC	""	2	2	25	SessionSelectionList									12	109925	-13	0																																													25												
WM080112	397760_fnca	2	1	1	1726035328	1	75.032	75.032	2.0.10.147	2.0.10.242	2.0.10.242	1.0.0.439	7	234	2	3	Verdana	1	80	0	0	0	WM Stimuli\	1	914.8	1	803.6	0.9	823.111111111111	0.9	547.222222222222	0.9	851.111111111111	1	634.3	0.7	753.714285714286	0.9	576.777777777778	13	323969	1	323957	27	40	323996	-999999	323971	0	29	TrialsPROC	FC_015_M8.png	2	2	26	SessionSelectionList														nonlure	3	Face	2-Back	22	80	20	0	0	100	3	39	114523	2	14	71	112484	-1	113850	1	1366	3	3	2039	53	114537	-54	0																26												
WM080112	397760_fnca	2	1	1	1726035328	1	75.032	75.032	2.0.10.147	2.0.10.242	2.0.10.242	1.0.0.439	7	234	2	3	Verdana	1	80	0	0	0	WM Stimuli\	1	914.8	1	803.6	0.9	823.111111111111	0.9	547.222222222222	0.9	851.111111111111	1	634.3	0.7	753.714285714286	0.9	576.777777777778	13	323969	1	323957	27	40	323996	-999999	323971	0	29	TrialsPROC	FC_018_F9.png	2	2	27	SessionSelectionList														nonlure	3	Face	2-Back	23	80	21	0	0	100	4	40	117096	1	13	72	115056	-1	115894	1	838	3	3	2040	53	117109	-54	0																27												
WM080112	397760_fnca	2	1	1	1726035328	1	75.032	75.032	2.0.10.147	2.0.10.242	2.0.10.242	1.0.0.439	7	234	2	3	Verdana	1	80	0	0	0	WM Stimuli\	1	914.8	1	803.6	0.9	823.111111111111	0.9	547.222222222222	0.9	851.111111111111	1	634.3	0.7	753.714285714286	0.9	576.777777777778	13	323969	1	323957	27	40	323996	-999999	323971	0	29	TrialsPROC	FC_018_F9.png	2	2	28	SessionSelectionList														lure	3	Face	2-Back	24	80	22	0	0	100	5	39	119668	1	13	73	117629	-1	118213	1	584	3	3	2039	52	119681	-53	0																28												
WM080112	397760_fnca	2	1	1	1726035328	1	75.032	75.032	2.0.10.147	2.0.10.242	2.0.10.242	1.0.0.439	7	234	2	3	Verdana	1	80	0	0	0	WM Stimuli\	1	914.8	1	803.6	0.9	823.111111111111	0.9	547.222222222222	0.9	851.111111111111	1	634.3	0.7	753.714285714286	0.9	576.777777777778	13	323969	1	323957	27	40	323996	-999999	323971	0	29	TrialsPROC	FC_017_M9.png	2	2	29	SessionSelectionList														nonlure	3	Face	2-Back	25	80	23	0	0	100	6	39	122240	3	14	72	120201	-1	121029	1	828	3	3	2039	53	122254	-54	0																29												
WM080112	397760_fnca	2	1	1	1726035328	1	75.032	75.032	2.0.10.147	2.0.10.242	2.0.10.242	1.0.0.439	7	234	2	3	Verdana	1	80	0	0	0	WM Stimuli\	1	914.8	1	803.6	0.9	823.111111111111	0.9	547.222222222222	0.9	851.111111111111	1	634.3	0.7	753.714285714286	0.9	576.777777777778	13	323969	1	323957	27	40	323996	-999999	323971	0	29	TrialsPROC	FC_017_M9.png	2	2	30	SessionSelectionList														lure	3	Face	2-Back	26	80	24	0	0	100	7	39	124812	2	14	72	122773	-1	123466	1	693	3	3	2039	53	124826	-54	0																30												
WM080112	397760_fnca	2	1	1	1726035328	1	75.032	75.032	2.0.10.147	2.0.10.242	2.0.10.242	1.0.0.439	7	234	2	3	Verdana	1	80	0	0	0	WM Stimuli\	1	914.8	1	803.6	0.9	823.111111111111	0.9	547.222222222222	0.9	851.111111111111	1	634.3	0.7	753.714285714286	0.9	576.777777777778	13	323969	1	323957	27	40	323996	-999999	323971	0	29	TrialsPROC	FC_016_F8.png	2	2	31	SessionSelectionList														nonlure	3	Face	2-Back	27	80	25	0	0	100	8	39	127385	1	13	73	125346	-1	126067	1	721	3	3	2039	52	127398	-53	0																31												
WM080112	397760_fnca	2	1	1	1726035328	1	75.032	75.032	2.0.10.147	2.0.10.242	2.0.10.242	1.0.0.439	7	234	2	3	Verdana	1	80	0	0	0	WM Stimuli\	1	914.8	1	803.6	0.9	823.111111111111	0.9	547.222222222222	0.9	851.111111111111	1	634.3	0.7	753.714285714286	0.9	576.777777777778	13	323969	1	323957	27	40	323996	-999999	323971	0	29	TrialsPROC	FC_013_M7.png	2	2	32	SessionSelectionList														nonlure	3	Face	2-Back	28	80	26	0	0	100	9	39	129957	1	13	72	127918	-1	128595	1	677	3	3	2039	52	129970	-53	0																32												
WM080112	397760_fnca	2	1	1	1726035328	1	75.032	75.032	2.0.10.147	2.0.10.242	2.0.10.242	1.0.0.439	7	234	2	3	Verdana	1	80	0	0	0	WM Stimuli\	1	914.8	1	803.6	0.9	823.111111111111	0.9	547.222222222222	0.9	851.111111111111	1	634.3	0.7	753.714285714286	0.9	576.777777777778	13	323969	1	323957	27	40	323996	-999999	323971	0	29	TrialsPROC	FC_014_F7.png	2	2	33	SessionSelectionList														nonlure	3	Face	2-Back	29	80	27	0	0	100	10	39	132529	2	14	72	130490	-1	131188	1	698	3	3	2039	53	132543	-54	0																33												
WM080112	397760_fnca	2	1	1	1726035328	1	75.032	75.032	2.0.10.147	2.0.10.242	2.0.10.242	1.0.0.439	7	234	2	3	Verdana	1	80	0	0	0	WM Stimuli\	1	914.8	1	803.6	0.9	823.111111111111	0.9	547.222222222222	0.9	851.111111111111	1	634.3	0.7	753.714285714286	0.9	576.777777777778	13	323969	1	323957	27	40	323996	-999999	323971	0	29	TrialsPROC	FC_013_M7.png	2	2	34	SessionSelectionList														target	2	Face	2-Back	30	80	28	0	0	100	11	39	135101	2	14	72	133062	-1	134069	0	1007	3	2	2039	53	135115	-54	0																34												
WM080112	397760_fnca	2	1	1	1726035328	1	75.032	75.032	2.0.10.147	2.0.10.242	2.0.10.242	1.0.0.439	7	234	2	3	Verdana	1	80	0	0	0	WM Stimuli\	1	914.8	1	803.6	0.9	823.111111111111	0.9	547.222222222222	0.9	851.111111111111	1	634.3	0.7	753.714285714286	0.9	576.777777777778	13	323969	1	323957	27	40	323996	-999999	323971	0	29	TrialsPROC	FC_014_F7.png	2	2	35	SessionSelectionList														target	2	Face	2-Back	31	80	29	0	0	100	1	39	137674	1	13	73	135635	-1	136638	1	1003	2	2	2039	52	137687	-53	0																35												
WM080112	397760_fnca	2	1	1	1726035328	1	75.032	75.032	2.0.10.147	2.0.10.242	2.0.10.242	1.0.0.439	7	234	2	3	Verdana	1	80	0	0	0	WM Stimuli\	1	914.8	1	803.6	0.9	823.111111111111	0.9	547.222222222222	0.9	851.111111111111	1	634.3	0.7	753.714285714286	0.9	576.777777777778	13	323969	1	323957	27	40	323996	-999999	323971	0	30	Cue0BackPROC	TO_019_TOOL19_BA.png	2	2	36	SessionSelectionList																																										18	138153	-19	0												36												
WM080112	397760_fnca	2	1	1	1726035328	1	75.032	75.032	2.0.10.147	2.0.10.242	2.0.10.242	1.0.0.439	7	234	2	3	Verdana	1	80	0	0	0	WM Stimuli\	1	914.8	1	803.6	0.9	823.111111111111	0.9	547.222222222222	0.9	851.111111111111	1	634.3	0.7	753.714285714286	0.9	576.777777777778	13	323969	1	323957	27	40	323996	-999999	323971	0	31	TrialsPROC	TO_019_TOOL19_BA.png	2	2	37	SessionSelectionList														target	2	Tools	0-Back	32	80	30	0	0	91	1	39	142725	1	13	51	140686	-1	141758	0	1072	3	2	2039	52	142738	-53	0																37												
WM080112	397760_fnca	2	1	1	1726035328	1	75.032	75.032	2.0.10.147	2.0.10.242	2.0.10.242	1.0.0.439	7	234	2	3	Verdana	1	80	0	0	0	WM Stimuli\	1	914.8	1	803.6	0.9	823.111111111111	0.9	547.222222222222	0.9	851.111111111111	1	634.3	0.7	753.714285714286	0.9	576.777777777778	13	323969	1	323957	27	40	323996	-999999	323971	0	31	TrialsPROC	TO_024_TOOL24_BA.png	2	2	38	SessionSelectionList														nonlure	3	Tools	0-Back	33	80	31	0	0	92	2	39	145284	1	13	59	143245	-1	143902	1	657	3	3	2039	52	145297	-53	0																38												
WM080112	397760_fnca	2	1	1	1726035328	1	75.032	75.032	2.0.10.147	2.0.10.242	2.0.10.242	1.0.0.439	7	234	2	3	Verdana	1	80	0	0	0	WM Stimuli\	1	914.8	1	803.6	0.9	823.111111111111	0.9	547.222222222222	0.9	851.111111111111	1	634.3	0.7	753.714285714286	0.9	576.777777777778	13	323969	1	323957	27	40	323996	-999999	323971	0	31	TrialsPROC	TO_019_TOOL19_BA.png	2	2	39	SessionSelectionList														target	2	Tools	0-Back	34	80	32	0	0	92	1	39	147843	1	13	59	145804	-1	146329	1	525	2	2	2039	52	147856	-53	0																39												
WM080112	397760_fnca	2	1	1	1726035328	1	75.032	75.032	2.0.10.147	2.0.10.242	2.0.10.242	1.0.0.439	7	234	2	3	Verdana	1	80	0	0	0	WM Stimuli\	1	914.8	1	803.6	0.9	823.111111111111	0.9	547.222222222222	0.9	851.111111111111	1	634.3	0.7	753.714285714286	0.9	576.777777777778	13	323969	1	323957	27	40	323996	-999999	323971	0	31	TrialsPROC	TO_023_TOOL23_BA.png	2	2	40	SessionSelectionList														nonlure	3	Tools	0-Back	35	80	33	0	0	93	1	39	150402	1	13	59	148363	-1	148934	1	571	3	3	2039	52	150415	-53	0																40												
WM080112	397760_fnca	2	1	1	1726035328	1	75.032	75.032	2.0.10.147	2.0.10.242	2.0.10.242	1.0.0.439	7	234	2	3	Verdana	1	80	0	0	0	WM Stimuli\	1	914.8	1	803.6	0.9	823.111111111111	0.9	547.222222222222	0.9	851.111111111111	1	634.3	0.7	753.714285714286	0.9	576.777777777778	13	323969	1	323957	27	40	323996	-999999	323971	0	31	TrialsPROC	TO_020_TOOL20_BA.png	2	2	41	SessionSelectionList														nonlure	3	Tools	0-Back	36	80	34	0	0	93	2	40	152961	1	13	58	150921	-1	151826	1	905	3	3	2040	53	152974	-54	0																41												
WM080112	397760_fnca	2	1	1	1726035328	1	75.032	75.032	2.0.10.147	2.0.10.242	2.0.10.242	1.0.0.439	7	234	2	3	Verdana	1	80	0	0	0	WM Stimuli\	1	914.8	1	803.6	0.9	823.111111111111	0.9	547.222222222222	0.9	851.111111111111	1	634.3	0.7	753.714285714286	0.9	576.777777777778	13	323969	1	323957	27	40	323996	-999999	323971	0	31	TrialsPROC	TO_020_TOOL20_BA.png	2	2	42	SessionSelectionList														lure	3	Tools	0-Back	37	80	35	0	0	94	3	40	155520	1	13	59	153480	-1	153912	1	432	3	3	2040	53	155533	-54	0																42												
WM080112	397760_fnca	2	1	1	1726035328	1	75.032	75.032	2.0.10.147	2.0.10.242	2.0.10.242	1.0.0.439	7	234	2	3	Verdana	1	80	0	0	0	WM Stimuli\	1	914.8	1	803.6	0.9	823.111111111111	0.9	547.222222222222	0.9	851.111111111111	1	634.3	0.7	753.714285714286	0.9	576.777777777778	13	323969	1	323957	27	40	323996	-999999	323971	0	31	TrialsPROC	TO_022_TOOL22_BA.png	2	2	43	SessionSelectionList														nonlure	3	Tools	0-Back	38	80	36	0	0	94	4	39	158078	2	14	59	156039	-1	156653	1	614	3	3	2039	53	158092	-54	0																43												
WM080112	397760_fnca	2	1	1	1726035328	1	75.032	75.032	2.0.10.147	2.0.10.242	2.0.10.242	1.0.0.439	7	234	2	3	Verdana	1	80	0	0	0	WM Stimuli\	1	914.8	1	803.6	0.9	823.111111111111	0.9	547.222222222222	0.9	851.111111111111	1	634.3	0.7	753.714285714286	0.9	576.777777777778	13	323969	1	323957	27	40	323996	-999999	323971	0	31	TrialsPROC	TO_022_TOOL22_BA.png	2	2	44	SessionSelectionList														lure	3	Tools	0-Back	39	80	37	0	0	94	5	39	160637	2	14	59	158598	-1	159086	1	488	3	3	2039	53	160651	-54	0																44												
WM080112	397760_fnca	2	1	1	1726035328	1	75.032	75.032	2.0.10.147	2.0.10.242	2.0.10.242	1.0.0.439	7	234	2	3	Verdana	1	80	0	0	0	WM Stimuli\	1	914.8	1	803.6	0.9	823.111111111111	0.9	547.222222222222	0.9	851.111111111111	1	634.3	0.7	753.714285714286	0.9	576.777777777778	13	323969	1	323957	27	40	323996	-999999	323971	0	31	TrialsPROC	TO_021_TOOL21_BA.png	2	2	45	SessionSelectionList														nonlure	3	Tools	0-Back	40	80	38	0	0	95	6	39	163196	2	14	59	161157	-1	161675	1	518	3	3	2039	53	163210	-54	0																45												
WM080112	397760_fnca	2	1	1	1726035328	1	75.032	75.032	2.0.10.147	2.0.10.242	2.0.10.242	1.0.0.439	7	234	2	3	Verdana	1	80	0	0	0	WM Stimuli\	1	914.8	1	803.6	0.9	823.111111111111	0.9	547.222222222222	0.9	851.111111111111	1	634.3	0.7	753.714285714286	0.9	576.777777777778	13	323969	1	323957	27	40	323996	-999999	323971	0	31	TrialsPROC	TO_021_TOOL21_BA.png	2	2	46	SessionSelectionList														lure	3	Tools	0-Back	41	80	39	0	0	95	7	39	165755	2	14	59	163716	-1	164197	1	481	3	3	2039	53	165769	-54	0																46												
WM080112	397760_fnca	2	1	1	1726035328	1	75.032	75.032	2.0.10.147	2.0.10.242	2.0.10.242	1.0.0.439	7	234	2	3	Verdana	1	80	0	0	0	WM Stimuli\	1	914.8	1	803.6	0.9	823.111111111111	0.9	547.222222222222	0.9	851.111111111111	1	634.3	0.7	753.714285714286	0.9	576.777777777778	13	323969	1	323957	27	40	323996	-999999	323971	0	32	Fix15secPROC	""	2	2	47	SessionSelectionList																																															6	166222	-7	0							47												
WM080112	397760_fnca	2	1	1	1726035328	1	75.032	75.032	2.0.10.147	2.0.10.242	2.0.10.242	1.0.0.439	7	234	2	3	Verdana	1	80	0	0	0	WM Stimuli\	1	914.8	1	803.6	0.9	823.111111111111	0.9	547.222222222222	0.9	851.111111111111	1	634.3	0.7	753.714285714286	0.9	576.777777777778	13	323969	1	323957	27	40	323996	-999999	323971	0	33	Cue2BackPROC	""	2	2	48	SessionSelectionList									13	181229	-14	0																																													48												
WM080112	397760_fnca	2	1	1	1726035328	1	75.032	75.032	2.0.10.147	2.0.10.242	2.0.10.242	1.0.0.439	7	234	2	3	Verdana	1	80	0	0	0	WM Stimuli\	1	914.8	1	803.6	0.9	823.111111111111	0.9	547.222222222222	0.9	851.111111111111	1	634.3	0.7	753.714285714286	0.9	576.777777777778	13	323969	1	323957	27	40	323996	-999999	323971	0	34	TrialsPROC	BP_020_H17-T_BA.png	2	2	49	SessionSelectionList														nonlure	3	Body	2-Back	42	80	40	0	0	95	8	38	185813	2	14	59	183775	-1	185177	1	1402	3	3	2038	52	185827	-53	0																49												
WM080112	397760_fnca	2	1	1	1726035328	1	75.032	75.032	2.0.10.147	2.0.10.242	2.0.10.242	1.0.0.439	7	234	2	3	Verdana	1	80	0	0	0	WM Stimuli\	1	914.8	1	803.6	0.9	823.111111111111	0.9	547.222222222222	0.9	851.111111111111	1	634.3	0.7	753.714285714286	0.9	576.777777777778	13	323969	1	323957	27	40	323996	-999999	323971	0	34	TrialsPROC	BP_019_H14-T_BA.png	2	2	50	SessionSelectionList														nonlure	3	Body	2-Back	43	80	41	0	0	95	9	39	188372	2	14	58	186333	-1	187369	1	1036	3	3	2039	53	188386	-54	0																50												
WM080112	397760_fnca	2	1	1	1726035328	1	75.032	75.032	2.0.10.147	2.0.10.242	2.0.10.242	1.0.0.439	7	234	2	3	Verdana	1	80	0	0	0	WM Stimuli\	1	914.8	1	803.6	0.9	823.111111111111	0.9	547.222222222222	0.9	851.111111111111	1	634.3	0.7	753.714285714286	0.9	576.777777777778	13	323969	1	323957	27	40	323996	-999999	323971	0	34	TrialsPROC	BP_020_H17-T_BA.png	2	2	51	SessionSelectionList														target	2	Body	2-Back	44	80	42	0	0	95	1	39	190931	2	14	59	188892	-1	189545	1	653	2	2	2039	53	190945	-54	0																51												
WM080112	397760_fnca	2	1	1	1726035328	1	75.032	75.032	2.0.10.147	2.0.10.242	2.0.10.242	1.0.0.439	7	234	2	3	Verdana	1	80	0	0	0	WM Stimuli\	1	914.8	1	803.6	0.9	823.111111111111	0.9	547.222222222222	0.9	851.111111111111	1	634.3	0.7	753.714285714286	0.9	576.777777777778	13	323969	1	323957	27	40	323996	-999999	323971	0	34	TrialsPROC	BP_019_H14-T_BA.png	2	2	52	SessionSelectionList														target	2	Body	2-Back	45	80	43	0	0	95	2	38	193490	2	14	60	191452	-1	192209	1	757	2	2	2038	52	193504	-53	0																52												
WM080112	397760_fnca	2	1	1	1726035328	1	75.032	75.032	2.0.10.147	2.0.10.242	2.0.10.242	1.0.0.439	7	234	2	3	Verdana	1	80	0	0	0	WM Stimuli\	1	914.8	1	803.6	0.9	823.111111111111	0.9	547.222222222222	0.9	851.111111111111	1	634.3	0.7	753.714285714286	0.9	576.777777777778	13	323969	1	323957	27	40	323996	-999999	323971	0	34	TrialsPROC	BP_024_H3-T_BA.png	2	2	53	SessionSelectionList														nonlure	3	Body	2-Back	46	80	44	0	0	95	1	39	196049	2	14	58	194010	-1	195207	1	1197	3	3	2039	53	196063	-54	0																53												
WM080112	397760_fnca	2	1	1	1726035328	1	75.032	75.032	2.0.10.147	2.0.10.242	2.0.10.242	1.0.0.439	7	234	2	3	Verdana	1	80	0	0	0	WM Stimuli\	1	914.8	1	803.6	0.9	823.111111111111	0.9	547.222222222222	0.9	851.111111111111	1	634.3	0.7	753.714285714286	0.9	576.777777777778	13	323969	1	323957	27	40	323996	-999999	323971	0	34	TrialsPROC	BP_024_H3-T_BA.png	2	2	54	SessionSelectionList														lure	3	Body	2-Back	47	80	45	0	0	95	2	39	198608	2	14	59	196569	-1	197327	1	758	3	3	2039	53	198622	-54	0																54												
WM080112	397760_fnca	2	1	1	1726035328	1	75.032	75.032	2.0.10.147	2.0.10.242	2.0.10.242	1.0.0.439	7	234	2	3	Verdana	1	80	0	0	0	WM Stimuli\	1	914.8	1	803.6	0.9	823.111111111111	0.9	547.222222222222	0.9	851.111111111111	1	634.3	0.7	753.714285714286	0.9	576.777777777778	13	323969	1	323957	27	40	323996	-999999	323971	0	34	TrialsPROC	BP_025_H5-T_BA.png	2	2	55	SessionSelectionList														nonlure	3	Body	2-Back	48	80	46	0	0	95	3	39	201167	1	13	59	199128	-1	200060	1	932	3	3	2039	52	201180	-53	0																55												
WM080112	397760_fnca	2	1	1	1726035328	1	75.032	75.032	2.0.10.147	2.0.10.242	2.0.10.242	1.0.0.439	7	234	2	3	Verdana	1	80	0	0	0	WM Stimuli\	1	914.8	1	803.6	0.9	823.111111111111	0.9	547.222222222222	0.9	851.111111111111	1	634.3	0.7	753.714285714286	0.9	576.777777777778	13	323969	1	323957	27	40	323996	-999999	323971	0	34	TrialsPROC	BP_023_H25-T_BA.png	2	2	56	SessionSelectionList														nonlure	3	Body	2-Back	49	80	47	0	0	95	4	39	203726	1	13	59	201687	-1	202574	1	887	3	3	2039	52	203739	-53	0																56												
WM080112	397760_fnca	2	1	1	1726035328	1	75.032	75.032	2.0.10.147	2.0.10.242	2.0.10.242	1.0.0.439	7	234	2	3	Verdana	1	80	0	0	0	WM Stimuli\	1	914.8	1	803.6	0.9	823.111111111111	0.9	547.222222222222	0.9	851.111111111111	1	634.3	0.7	753.714285714286	0.9	576.777777777778	13	323969	1	323957	27	40	323996	-999999	323971	0	34	TrialsPROC	BP_022_H24-T_BA.png	2	2	57	SessionSelectionList														nonlure	3	Body	2-Back	50	80	48	0	0	95	5	39	206285	1	13	59	204246	-1	205017	1	771	3	3	2039	52	206298	-53	0																57												
WM080112	397760_fnca	2	1	1	1726035328	1	75.032	75.032	2.0.10.147	2.0.10.242	2.0.10.242	1.0.0.439	7	234	2	3	Verdana	1	80	0	0	0	WM Stimuli\	1	914.8	1	803.6	0.9	823.111111111111	0.9	547.222222222222	0.9	851.111111111111	1	634.3	0.7	753.714285714286	0.9	576.777777777778	13	323969	1	323957	27	40	323996	-999999	323971	0	34	TrialsPROC	BP_022_H24-T_BA.png	2	2	58	SessionSelectionList														lure	3	Body	2-Back	51	80	49	0	0	95	6	39	208844	1	13	59	206805	-1	207560	1	755	3	3	2039	52	208857	-53	0																58												
WM080112	397760_fnca	2	1	1	1726035328	1	75.032	75.032	2.0.10.147	2.0.10.242	2.0.10.242	1.0.0.439	7	234	2	3	Verdana	1	80	0	0	0	WM Stimuli\	1	914.8	1	803.6	0.9	823.111111111111	0.9	547.222222222222	0.9	851.111111111111	1	634.3	0.7	753.714285714286	0.9	576.777777777778	13	323969	1	323957	27	40	323996	-999999	323971	0	35	Cue2BackPROC	""	2	2	59	SessionSelectionList									5	209310	-6	0																																													59												
WM080112	397760_fnca	2	1	1	1726035328	1	75.032	75.032	2.0.10.147	2.0.10.242	2.0.10.242	1.0.0.439	7	234	2	3	Verdana	1	80	0	0	0	WM Stimuli\	1	914.8	1	803.6	0.9	823.111111111111	0.9	547.222222222222	0.9	851.111111111111	1	634.3	0.7	753.714285714286	0.9	576.777777777778	13	323969	1	323957	27	40	323996	-999999	323971	0	36	TrialsPROC	PL_019_SCENE_05.png	2	2	60	SessionSelectionList														nonlure	3	Place	2-Back	52	80	49	0	1	95	6	39	213908	2	14	64	211869	-1	0	0	0	""	3	2039	53	213922	-54	0																60												
WM080112	397760_fnca	2	1	1	1726035328	1	75.032	75.032	2.0.10.147	2.0.10.242	2.0.10.242	1.0.0.439	7	234	2	3	Verdana	1	80	0	0	0	WM Stimuli\	1	914.8	1	803.6	0.9	823.111111111111	0.9	547.222222222222	0.9	851.111111111111	1	634.3	0.7	753.714285714286	0.9	576.777777777778	13	323969	1	323957	27	40	323996	-999999	323971	0	36	TrialsPROC	PL_017_SCENE_03.png	2	2	61	SessionSelectionList														nonlure	3	Place	2-Back	53	80	50	0	0	95	1	40	216481	1	13	72	214441	-1	215218	1	777	3	3	2040	53	216494	-54	0																61												
WM080112	397760_fnca	2	1	1	1726035328	1	75.032	75.032	2.0.10.147	2.0.10.242	2.0.10.242	1.0.0.439	7	234	2	3	Verdana	1	80	0	0	0	WM Stimuli\	1	914.8	1	803.6	0.9	823.111111111111	0.9	547.222222222222	0.9	851.111111111111	1	634.3	0.7	753.714285714286	0.9	576.777777777778	13	323969	1	323957	27	40	323996	-999999	323971	0	36	TrialsPROC	PL_017_SCENE_03.png	2	2	62	SessionSelectionList														lure	3	Place	2-Back	54	80	51	0	0	95	2	39	219053	1	13	73	217014	-1	217854	1	840	3	3	2039	52	219066	-53	0																62												
WM080112	397760_fnca	2	1	1	1726035328	1	75.032	75.032	2.0.10.147	2.0.10.242	2.0.10.242	1.0.0.439	7	234	2	3	Verdana	1	80	0	0	0	WM Stimuli\	1	914.8	1	803.6	0.9	823.111111111111	0.9	547.222222222222	0.9	851.111111111111	1	634.3	0.7	753.714285714286	0.9	576.777777777778	13	323969	1	323957	27	40	323996	-999999	323971	0	36	TrialsPROC	PL_016_SCENE_02.png	2	2	63	SessionSelectionList														nonlure	3	Place	2-Back	55	80	52	0	0	95	3	39	221625	2	14	72	219586	-1	220454	1	868	3	3	2039	53	221639	-54	0																63												
WM080112	397760_fnca	2	1	1	1726035328	1	75.032	75.032	2.0.10.147	2.0.10.242	2.0.10.242	1.0.0.439	7	234	2	3	Verdana	1	80	0	0	0	WM Stimuli\	1	914.8	1	803.6	0.9	823.111111111111	0.9	547.222222222222	0.9	851.111111111111	1	634.3	0.7	753.714285714286	0.9	576.777777777778	13	323969	1	323957	27	40	323996	-999999	323971	0	36	TrialsPROC	PL_015_SCENE_01.png	2	2	64	SessionSelectionList														nonlure	3	Place	2-Back	56	80	53	0	0	95	4	39	224197	2	14	72	222158	-1	222710	1	552	3	3	2039	53	224211	-54	0																64												
WM080112	397760_fnca	2	1	1	1726035328	1	75.032	75.032	2.0.10.147	2.0.10.242	2.0.10.242	1.0.0.439	7	234	2	3	Verdana	1	80	0	0	0	WM Stimuli\	1	914.8	1	803.6	0.9	823.111111111111	0.9	547.222222222222	0.9	851.111111111111	1	634.3	0.7	753.714285714286	0.9	576.777777777778	13	323969	1	323957	27	40	323996	-999999	323971	0	36	TrialsPROC	PL_016_SCENE_02.png	2	2	65	SessionSelectionList														target	2	Place	2-Back	57	80	54	0	0	95	1	40	226770	1	13	72	224730	-1	225332	1	602	2	2	2040	53	226783	-54	0																65												
WM080112	397760_fnca	2	1	1	1726035328	1	75.032	75.032	2.0.10.147	2.0.10.242	2.0.10.242	1.0.0.439	7	234	2	3	Verdana	1	80	0	0	0	WM Stimuli\	1	914.8	1	803.6	0.9	823.111111111111	0.9	547.222222222222	0.9	851.111111111111	1	634.3	0.7	753.714285714286	0.9	576.777777777778	13	323969	1	323957	27	40	323996	-999999	323971	0	36	TrialsPROC	PL_015_SCENE_01.png	2	2	66	SessionSelectionList														target	2	Place	2-Back	58	80	55	0	0	95	2	39	229342	1	13	73	227303	-1	228597	1	1294	2	2	2039	52	229355	-53	0																66												
WM080112	397760_fnca	2	1	1	1726035328	1	75.032	75.032	2.0.10.147	2.0.10.242	2.0.10.242	1.0.0.439	7	234	2	3	Verdana	1	80	0	0	0	WM Stimuli\	1	914.8	1	803.6	0.9	823.111111111111	0.9	547.222222222222	0.9	851.111111111111	1	634.3	0.7	753.714285714286	0.9	576.777777777778	13	323969	1	323957	27	40	323996	-999999	323971	0	36	TrialsPROC	PL_020_SCENE_06.png	2	2	67	SessionSelectionList														nonlure	3	Place	2-Back	59	80	56	0	0	95	1	39	231914	2	14	72	229875	-1	231206	1	1331	3	3	2039	53	231928	-54	0																67												
WM080112	397760_fnca	2	1	1	1726035328	1	75.032	75.032	2.0.10.147	2.0.10.242	2.0.10.242	1.0.0.439	7	234	2	3	Verdana	1	80	0	0	0	WM Stimuli\	1	914.8	1	803.6	0.9	823.111111111111	0.9	547.222222222222	0.9	851.111111111111	1	634.3	0.7	753.714285714286	0.9	576.777777777778	13	323969	1	323957	27	40	323996	-999999	323971	0	36	TrialsPROC	PL_020_SCENE_06.png	2	2	68	SessionSelectionList														lure	3	Place	2-Back	60	80	57	0	0	95	2	39	234486	2	14	72	232447	-1	233095	1	648	3	3	2039	53	234500	-54	0																68												
WM080112	397760_fnca	2	1	1	1726035328	1	75.032	75.032	2.0.10.147	2.0.10.242	2.0.10.242	1.0.0.439	7	234	2	3	Verdana	1	80	0	0	0	WM Stimuli\	1	914.8	1	803.6	0.9	823.111111111111	0.9	547.222222222222	0.9	851.111111111111	1	634.3	0.7	753.714285714286	0.9	576.777777777778	13	323969	1	323957	27	40	323996	-999999	323971	0	36	TrialsPROC	PL_018_SCENE_04.png	2	2	69	SessionSelectionList														nonlure	3	Place	2-Back	61	80	58	0	0	95	3	39	237059	1	13	73	235020	-1	235768	1	748	3	3	2039	52	237072	-53	0																69												
WM080112	397760_fnca	2	1	1	1726035328	1	75.032	75.032	2.0.10.147	2.0.10.242	2.0.10.242	1.0.0.439	7	234	2	3	Verdana	1	80	0	0	0	WM Stimuli\	1	914.8	1	803.6	0.9	823.111111111111	0.9	547.222222222222	0.9	851.111111111111	1	634.3	0.7	753.714285714286	0.9	576.777777777778	13	323969	1	323957	27	40	323996	-999999	323971	0	37	Fix15secPROC	""	2	2	70	SessionSelectionList																																															5	237525	-6	0							70												
WM080112	397760_fnca	2	1	1	1726035328	1	75.032	75.032	2.0.10.147	2.0.10.242	2.0.10.242	1.0.0.439	7	234	2	3	Verdana	1	80	0	0	0	WM Stimuli\	1	914.8	1	803.6	0.9	823.111111111111	0.9	547.222222222222	0.9	851.111111111111	1	634.3	0.7	753.714285714286	0.9	576.777777777778	13	323969	1	323957	27	40	323996	-999999	323971	0	38	Cue0BackPROC	FC_020_F10.png	2	2	71	SessionSelectionList																																										26	252546	-27	0												71												
WM080112	397760_fnca	2	1	1	1726035328	1	75.032	75.032	2.0.10.147	2.0.10.242	2.0.10.242	1.0.0.439	7	234	2	3	Verdana	1	80	0	0	0	WM Stimuli\	1	914.8	1	803.6	0.9	823.111111111111	0.9	547.222222222222	0.9	851.111111111111	1	634.3	0.7	753.714285714286	0.9	576.777777777778	13	323969	1	323957	27	40	323996	-999999	323971	0	39	TrialsPROC	FC_024_F12.png	2	2	72	SessionSelectionList														nonlure	3	Face	0-Back	62	80	59	0	0	95	4	39	257130	2	14	71	255091	-1	256147	1	1056	3	3	2039	53	257144	-54	0																72												
WM080112	397760_fnca	2	1	1	1726035328	1	75.032	75.032	2.0.10.147	2.0.10.242	2.0.10.242	1.0.0.439	7	234	2	3	Verdana	1	80	0	0	0	WM Stimuli\	1	914.8	1	803.6	0.9	823.111111111111	0.9	547.222222222222	0.9	851.111111111111	1	634.3	0.7	753.714285714286	0.9	576.777777777778	13	323969	1	323957	27	40	323996	-999999	323971	0	39	TrialsPROC	FC_023_M12.png	2	2	73	SessionSelectionList														nonlure	3	Face	0-Back	63	80	60	0	0	95	5	40	259703	1	13	72	257663	-1	258223	1	560	3	3	2040	53	259716	-54	0																73												
WM080112	397760_fnca	2	1	1	1726035328	1	75.032	75.032	2.0.10.147	2.0.10.242	2.0.10.242	1.0.0.439	7	234	2	3	Verdana	1	80	0	0	0	WM Stimuli\	1	914.8	1	803.6	0.9	823.111111111111	0.9	547.222222222222	0.9	851.111111111111	1	634.3	0.7	753.714285714286	0.9	576.777777777778	13	323969	1	323957	27	40	323996	-999999	323971	0	39	TrialsPROC	FC_020_F10.png	2	2	74	SessionSelectionList														target	2	Face	0-Back	64	80	61	0	0	96	1	39	262275	1	13	73	260236	-1	260769	1	533	2	2	2039	52	262288	-53	0																74												
WM080112	397760_fnca	2	1	1	1726035328	1	75.032	75.032	2.0.10.147	2.0.10.242	2.0.10.242	1.0.0.439	7	234	2	3	Verdana	1	80	0	0	0	WM Stimuli\	1	914.8	1	803.6	0.9	823.111111111111	0.9	547.222222222222	0.9	851.111111111111	1	634.3	0.7	753.714285714286	0.9	576.777777777778	13	323969	1	323957	27	40	323996	-999999	323971	0	39	TrialsPROC	FC_024_F12.png	2	2	75	SessionSelectionList														lure	3	Face	0-Back	65	80	62	0	0	96	1	39	264847	1	13	72	262808	-1	263296	1	488	3	3	2039	52	264860	-53	0																75												
WM080112	397760_fnca	2	1	1	1726035328	1	75.032	75.032	2.0.10.147	2.0.10.242	2.0.10.242	1.0.0.439	7	234	2	3	Verdana	1	80	0	0	0	WM Stimuli\	1	914.8	1	803.6	0.9	823.111111111111	0.9	547.222222222222	0.9	851.111111111111	1	634.3	0.7	753.714285714286	0.9	576.777777777778	13	323969	1	323957	27	40	323996	-999999	323971	0	39	TrialsPROC	FC_020_F10.png	2	2	76	SessionSelectionList														target	2	Face	0-Back	66	80	63	0	0	96	1	39	267419	2	14	72	265380	-1	265889	1	509	2	2	2039	53	267433	-54	0																76												
WM080112	397760_fnca	2	1	1	1726035328	1	75.032	75.032	2.0.10.147	2.0.10.242	2.0.10.242	1.0.0.439	7	234	2	3	Verdana	1	80	0	0	0	WM Stimuli\	1	914.8	1	803.6	0.9	823.111111111111	0.9	547.222222222222	0.9	851.111111111111	1	634.3	0.7	753.714285714286	0.9	576.777777777778	13	323969	1	323957	27	40	323996	-999999	323971	0	39	TrialsPROC	FC_022_F11.png	2	2	77	SessionSelectionList														nonlure	3	Face	0-Back	67	80	64	0	0	96	1	40	269992	1	13	72	267952	-1	268365	1	413	3	3	2040	53	270005	-54	0																77												
WM080112	397760_fnca	2	1	1	1726035328	1	75.032	75.032	2.0.10.147	2.0.10.242	2.0.10.242	1.0.0.439	7	234	2	3	Verdana	1	80	0	0	0	WM Stimuli\	1	914.8	1	803.6	0.9	823.111111111111	0.9	547.222222222222	0.9	851.111111111111	1	634.3	0.7	753.714285714286	0.9	576.777777777778	13	323969	1	323957	27	40	323996	-999999	323971	0	39	TrialsPROC	FC_023_M12.png	2	2	78	SessionSelectionList														lure	3	Face	0-Back	68	80	65	0	0	93	1	39	272564	1	13	73	270525	-1	270985	0	460	2	3	2039	52	272577	-53	0																78												
WM080112	397760_fnca	2	1	1	1726035328	1	75.032	75.032	2.0.10.147	2.0.10.242	2.0.10.242	1.0.0.439	7	234	2	3	Verdana	1	80	0	0	0	WM Stimuli\	1	914.8	1	803.6	0.9	823.111111111111	0.9	547.222222222222	0.9	851.111111111111	1	634.3	0.7	753.714285714286	0.9	576.777777777778	13	323969	1	323957	27	40	323996	-999999	323971	0	39	TrialsPROC	FC_021_M11.png	2	2	79	SessionSelectionList														nonlure	3	Face	0-Back	69	80	66	0	0	93	1	39	275136	1	13	72	273097	-1	273573	1	476	3	3	2039	52	275149	-53	0																79												
WM080112	397760_fnca	2	1	1	1726035328	1	75.032	75.032	2.0.10.147	2.0.10.242	2.0.10.242	1.0.0.439	7	234	2	3	Verdana	1	80	0	0	0	WM Stimuli\	1	914.8	1	803.6	0.9	823.111111111111	0.9	547.222222222222	0.9	851.111111111111	1	634.3	0.7	753.714285714286	0.9	576.777777777778	13	323969	1	323957	27	40	323996	-999999	323971	0	39	TrialsPROC	FC_021_M11.png	2	2	80	SessionSelectionList														lure	3	Face	0-Back	70	80	67	0	0	93	2	39	277708	2	14	72	275669	-1	276024	1	355	3	3	2039	53	277722	-54	0																80												
WM080112	397760_fnca	2	1	1	1726035328	1	75.032	75.032	2.0.10.147	2.0.10.242	2.0.10.242	1.0.0.439	7	234	2	3	Verdana	1	80	0	0	0	WM Stimuli\	1	914.8	1	803.6	0.9	823.111111111111	0.9	547.222222222222	0.9	851.111111111111	1	634.3	0.7	753.714285714286	0.9	576.777777777778	13	323969	1	323957	27	40	323996	-999999	323971	0	39	TrialsPROC	FC_019_M10.png	2	2	81	SessionSelectionList														nonlure	3	Face	0-Back	71	80	68	0	0	93	3	40	280281	1	13	72	278241	-1	278776	1	535	3	3	2040	53	280294	-54	0																81												
WM080112	397760_fnca	2	1	1	1726035328	1	75.032	75.032	2.0.10.147	2.0.10.242	2.0.10.242	1.0.0.439	7	234	2	3	Verdana	1	80	0	0	0	WM Stimuli\	1	914.8	1	803.6	0.9	823.111111111111	0.9	547.222222222222	0.9	851.111111111111	1	634.3	0.7	753.714285714286	0.9	576.777777777778	13	323969	1	323957	27	40	323996	-999999	323971	0	40	Cue0BackPROC	PL_021_SCENE_07.png	2	2	82	SessionSelectionList																																										19	280760	-20	0												82												
WM080112	397760_fnca	2	1	1	1726035328	1	75.032	75.032	2.0.10.147	2.0.10.242	2.0.10.242	1.0.0.439	7	234	2	3	Verdana	1	80	0	0	0	WM Stimuli\	1	914.8	1	803.6	0.9	823.111111111111	0.9	547.222222222222	0.9	851.111111111111	1	634.3	0.7	753.714285714286	0.9	576.777777777778	13	323969	1	323957	27	40	323996	-999999	323971	0	41	TrialsPROC	PL_025_SCENE_18.png	2	2	83	SessionSelectionList														nonlure	3	Place	0-Back	72	80	69	0	0	94	4	39	285345	1	14	65	283306	-1	283975	1	669	3	3	2039	53	285359	-54	0																83												
WM080112	397760_fnca	2	1	1	1726035328	1	75.032	75.032	2.0.10.147	2.0.10.242	2.0.10.242	1.0.0.439	7	234	2	3	Verdana	1	80	0	0	0	WM Stimuli\	1	914.8	1	803.6	0.9	823.111111111111	0.9	547.222222222222	0.9	851.111111111111	1	634.3	0.7	753.714285714286	0.9	576.777777777778	13	323969	1	323957	27	40	323996	-999999	323971	0	41	TrialsPROC	PL_026_SCENE_24.png	2	2	84	SessionSelectionList														nonlure	3	Place	0-Back	73	80	70	0	0	94	5	39	287917	2	14	72	285878	-1	286514	1	636	3	3	2039	53	287931	-54	0																84												
WM080112	397760_fnca	2	1	1	1726035328	1	75.032	75.032	2.0.10.147	2.0.10.242	2.0.10.242	1.0.0.439	7	234	2	3	Verdana	1	80	0	0	0	WM Stimuli\	1	914.8	1	803.6	0.9	823.111111111111	0.9	547.222222222222	0.9	851.111111111111	1	634.3	0.7	753.714285714286	0.9	576.777777777778	13	323969	1	323957	27	40	323996	-999999	323971	0	41	TrialsPROC	PL_025_SCENE_18.png	2	2	85	SessionSelectionList														lure	3	Place	0-Back	74	80	71	0	0	94	6	40	290490	1	13	72	288450	-1	289185	1	735	3	3	2040	53	290503	-54	0																85												
WM080112	397760_fnca	2	1	1	1726035328	1	75.032	75.032	2.0.10.147	2.0.10.242	2.0.10.242	1.0.0.439	7	234	2	3	Verdana	1	80	0	0	0	WM Stimuli\	1	914.8	1	803.6	0.9	823.111111111111	0.9	547.222222222222	0.9	851.111111111111	1	634.3	0.7	753.714285714286	0.9	576.777777777778	13	323969	1	323957	27	40	323996	-999999	323971	0	41	TrialsPROC	PL_022_SCENE_08.png	2	2	86	SessionSelectionList														nonlure	3	Place	0-Back	75	80	72	0	0	94	7	39	293062	1	13	73	291023	-1	291693	1	670	3	3	2039	52	293075	-53	0																86												
WM080112	397760_fnca	2	1	1	1726035328	1	75.032	75.032	2.0.10.147	2.0.10.242	2.0.10.242	1.0.0.439	7	234	2	3	Verdana	1	80	0	0	0	WM Stimuli\	1	914.8	1	803.6	0.9	823.111111111111	0.9	547.222222222222	0.9	851.111111111111	1	634.3	0.7	753.714285714286	0.9	576.777777777778	13	323969	1	323957	27	40	323996	-999999	323971	0	41	TrialsPROC	PL_026_SCENE_24.png	2	2	87	SessionSelectionList														lure	3	Place	0-Back	76	80	73	0	0	94	8	39	295634	1	14	72	293595	-1	294210	1	615	3	3	2039	53	295648	-54	0																87												
WM080112	397760_fnca	2	1	1	1726035328	1	75.032	75.032	2.0.10.147	2.0.10.242	2.0.10.242	1.0.0.439	7	234	2	3	Verdana	1	80	0	0	0	WM Stimuli\	1	914.8	1	803.6	0.9	823.111111111111	0.9	547.222222222222	0.9	851.111111111111	1	634.3	0.7	753.714285714286	0.9	576.777777777778	13	323969	1	323957	27	40	323996	-999999	323971	0	41	TrialsPROC	PL_021_SCENE_07.png	2	2	88	SessionSelectionList														target	2	Place	0-Back	77	80	74	0	0	94	1	39	298206	2	14	72	296167	-1	296644	1	477	2	2	2039	53	298220	-54	0																88												
WM080112	397760_fnca	2	1	1	1726035328	1	75.032	75.032	2.0.10.147	2.0.10.242	2.0.10.242	1.0.0.439	7	234	2	3	Verdana	1	80	0	0	0	WM Stimuli\	1	914.8	1	803.6	0.9	823.111111111111	0.9	547.222222222222	0.9	851.111111111111	1	634.3	0.7	753.714285714286	0.9	576.777777777778	13	323969	1	323957	27	40	323996	-999999	323971	0	41	TrialsPROC	PL_021_SCENE_07.png	2	2	89	SessionSelectionList														target	2	Place	0-Back	78	80	75	0	0	95	2	40	300779	1	13	72	298739	-1	299414	1	675	2	2	2040	53	300792	-54	0																89												
WM080112	397760_fnca	2	1	1	1726035328	1	75.032	75.032	2.0.10.147	2.0.10.242	2.0.10.242	1.0.0.439	7	234	2	3	Verdana	1	80	0	0	0	WM Stimuli\	1	914.8	1	803.6	0.9	823.111111111111	0.9	547.222222222222	0.9	851.111111111111	1	634.3	0.7	753.714285714286	0.9	576.777777777778	13	323969	1	323957	27	40	323996	-999999	323971	0	41	TrialsPROC	PL_023_SCENE_09.png	2	2	90	SessionSelectionList														nonlure	3	Place	0-Back	79	80	76	0	0	95	1	39	303351	1	13	73	301312	-1	301894	1	582	3	3	2039	52	303364	-53	0																90												
WM080112	397760_fnca	2	1	1	1726035328	1	75.032	75.032	2.0.10.147	2.0.10.242	2.0.10.242	1.0.0.439	7	234	2	3	Verdana	1	80	0	0	0	WM Stimuli\	1	914.8	1	803.6	0.9	823.111111111111	0.9	547.222222222222	0.9	851.111111111111	1	634.3	0.7	753.714285714286	0.9	576.777777777778	13	323969	1	323957	27	40	323996	-999999	323971	0	41	TrialsPROC	PL_024_SCENE_10.png	2	2	91	SessionSelectionList														nonlure	3	Place	0-Back	80	80	77	0	0	95	2	39	305923	2	14	72	303884	-1	304568	1	684	3	3	2039	53	305937	-54	0																91												
WM080112	397760_fnca	2	1	1	1726035328	1	75.032	75.032	2.0.10.147	2.0.10.242	2.0.10.242	1.0.0.439	7	234	2	3	Verdana	1	80	0	0	0	WM Stimuli\	1	914.8	1	803.6	0.9	823.111111111111	0.9	547.222222222222	0.9	851.111111111111	1	634.3	0.7	753.714285714286	0.9	576.777777777778	13	323969	1	323957	27	40	323996	-999999	323971	0	41	TrialsPROC	PL_022_SCENE_08.png	2	2	92	SessionSelectionList														lure	3	Place	0-Back	80	80	78	0	0	95	3	39	308495	2	14	72	306456	-1	307056	1	600	3	3	2039	53	308509	-54	0																92												
WM080112	397760_fnca	2	1	1	1726035328	1	75.032	75.032	2.0.10.147	2.0.10.242	2.0.10.242	1.0.0.439	7	234	2	3	Verdana	1	80	0	0	0	WM Stimuli\	1	914.8	1	803.6	0.9	823.111111111111	0.9	547.222222222222	0.9	851.111111111111	1	634.3	0.7	753.714285714286	0.9	576.777777777778	13	323969	1	323957	27	40	323996	-999999	323971	0	42	Fix15secPROC	""	2	2	93	SessionSelectionList																																															6	308962	-7	0							93												
