ExperimentName	HCPID	RunNumber	Subject	Session	RandomSeed	Group	Laptop.RefreshRate	ScannerD2.RefreshRate	StudioVersion	RuntimeVersion	RuntimeVersionExpected	ExperimentVersion	triggercode	Allowed	Target	Nontarget	FontStyle	RunTrialNumber[Session]	TrialsPerRun[Session]	TotalRespGreater200[Session]	ConsecRTLess200[Session]	ConsecNonResp[Session]	StimuliDir	ACC_2_Back_Body	Avg_RT_For_Correct_Trials_2_Back_Body	ACC_0_Back_Body	Avg_RT_For_Correct_Trials_0_Back_Body	ACC_2_Back_Face	Avg_RT_For_Correct_Trials_2_Back_Face	ACC_0_Back_Face	Avg_RT_For_Correct_Trials_0_Back_Face	ACC_2_Back_Place	Avg_RT_For_Correct_Trials_2_Back_Place	ACC_0_Back_Place	Avg_RT_For_Correct_Trials_0_Back_Place	ACC_2_Back_Tools	Avg_RT_For_Correct_Trials_2_Back_Tools	ACC_0_Back_Tools	Avg_RT_For_Correct_Trials_0_Back_Tools	ExpInstrucFeelFreeToRest.OnsetDelay	ExpInstrucFeelFreeToRest.OnsetTime	ExpInstrucFeelFreeToRest.DurationError	ExpInstrucFeelFreeToRest.StartTime	ExpInstrucFeelFreeToRest.OnsetToOnsetTime	FeelFreeToRest.OnsetDelay	FeelFreeToRest.OnsetTime	FeelFreeToRest.DurationError	FeelFreeToRest.StartTime	FeelFreeToRest.OnsetToOnsetTime	SessionSelectionList	Procedure[Block]	Stimulus[Block]	RunNumberFilterValue	SessionSelectionList.Cycle	SessionSelectionList.Sample	Running[Block]	IntroButtonMap.OnsetDelay	IntroButtonMap.OnsetTime	IntroButtonMap.DurationError	IntroButtonMap.OnsetToOnsetTime	GetReady.OnsetDelay	GetReady.OnsetTime	GetReady.DurationError	GetReady.OnsetToOnsetTime	Cue2Back.OnsetDelay	Cue2Back.OnsetTime	Cue2Back.DurationError	Cue2Back.OnsetToOnsetTime	Run1Block1	TargetType	CorrectResponse	StimType	BlockType	RunTrialNumber[Block]	TrialsPerRun[Block]	TotalRespGreater200[Block]	ConsecRTLess200[Block]	ConsecNonResp[Block]	ControlAcc	ConsecSameResp	ExperimenterWindow.OnsetDelay	ExperimenterWindow.OnsetTime	ExperimenterWindow.DurationError	ExperimenterWindow.OnsetToOnsetTime	Stim.OnsetDelay	Stim.OnsetTime	Stim.DurationError	Stim.RTTime	Stim.ACC	Stim.RT	Stim.RESP	Stim.CRESP	Stim.OnsetToOnsetTime	Fix.OnsetDelay	Fix.OnsetTime	Fix.DurationError	Fix.OnsetToOnsetTime	CueTarget.OnsetDelay	CueTarget.OnsetTime	CueTarget.DurationError	CueTarget.OnsetToOnsetTime	Run1Block2	Fix15sec.OnsetDelay	Fix15sec.OnsetTime	Fix15sec.DurationError	Fix15sec.OnsetToOnsetTime	Run1Block3	Run1Block4	Run1Block5	Run1Block6	Run1Block7	Run1Block8	Block	Procedure[Trial]	Stimulus[Trial]	ReadyList	Running[Trial]	ReadyList.Cycle	ReadyList.Sample	SyncSlide.OnsetDelay	SyncSlide.OnsetTime	SyncSlide.DurationError	SyncSlide.FinishTime	SyncSlide.OnsetToOnsetTime	Trial
WM080112	366446_fnca	2	1	1	-351239716	1	75.031	75.031	2.0.10.147	2.0.10.242	2.0.10.242	1.0.0.439	7	234	2	3	Verdana	1	80	0	0	0	WM Stimuli\	0.8	1170	0.7	1388.57142857143	1	1261.8	0.9	1120	1	1020.3	0.5	846	0.9	1007.22222222222	0.7	977.285714285714	13	408019	2	408007	27	40	408046	-999999	408022	0	22	TRSyncPROC	""	2	2	1	SessionSelectionList	114	8889	-999999	0	33	100718	-999999	0																																																	1	InitialTR	4	1	ReadyList	1	1	17	114779	-18	116761	0	1
WM080112	366446_fnca	2	1	1	-351239716	1	75.031	75.031	2.0.10.147	2.0.10.242	2.0.10.242	1.0.0.439	7	234	2	3	Verdana	1	80	0	0	0	WM Stimuli\	0.8	1170	0.7	1388.57142857143	1	1261.8	0.9	1120	1	1020.3	0.5	846	0.9	1007.22222222222	0.7	977.285714285714	13	408019	2	408007	27	40	408046	-999999	408022	0	22	TRSyncPROC	""	2	2	1	SessionSelectionList	114	8889	-999999	0	33	100718	-999999	0																																																	1	InitialTR	3	2	ReadyList	1	2	16	116778	-17	118761	0	2
WM080112	366446_fnca	2	1	1	-351239716	1	75.031	75.031	2.0.10.147	2.0.10.242	2.0.10.242	1.0.0.439	7	234	2	3	Verdana	1	80	0	0	0	WM Stimuli\	0.8	1170	0.7	1388.57142857143	1	1261.8	0.9	1120	1	1020.3	0.5	846	0.9	1007.22222222222	0.7	977.285714285714	13	408019	2	408007	27	40	408046	-999999	408022	0	22	TRSyncPROC	""	2	2	1	SessionSelectionList	114	8889	-999999	0	33	100718	-999999	0																																																	1	InitialTR	2	3	ReadyList	1	3	15	118777	-16	120761	0	3
WM080112	366446_fnca	2	1	1	-351239716	1	75.031	75.031	2.0.10.147	2.0.10.242	2.0.10.242	1.0.0.439	7	234	2	3	Verdana	1	80	0	0	0	WM Stimuli\	0.8	1170	0.7	1388.57142857143	1	1261.8	0.9	1120	1	1020.3	0.5	846	0.9	1007.22222222222	0.7	977.285714285714	13	408019	2	408007	27	40	408046	-999999	408022	0	22	TRSyncPROC	""	2	2	1	SessionSelectionList	114	8889	-999999	0	33	100718	-999999	0																																																	1	InitialTR	1	4	ReadyList	1	4	15	120777	-16	122761	0	4
WM080112	366446_fnca	2	1	1	-351239716	1	75.031	75.031	2.0.10.147	2.0.10.242	2.0.10.242	1.0.0.439	7	234	2	3	Verdana	1	80	0	0	0	WM Stimuli\	0.8	1170	0.7	1388.57142857143	1	1261.8	0.9	1120	1	1020.3	0.5	846	0.9	1007.22222222222	0.7	977.285714285714	13	408019	2	408007	27	40	408046	-999999	408022	0	23	Cue2BackPROC	""	2	2	2	SessionSelectionList									14	122776	-15	0																																													2												
WM080112	366446_fnca	2	1	1	-351239716	1	75.031	75.031	2.0.10.147	2.0.10.242	2.0.10.242	1.0.0.439	7	234	2	3	Verdana	1	80	0	0	0	WM Stimuli\	0.8	1170	0.7	1388.57142857143	1	1261.8	0.9	1120	1	1020.3	0.5	846	0.9	1007.22222222222	0.7	977.285714285714	13	408019	2	408007	27	40	408046	-999999	408022	0	24	TrialsPROC	TO_014_TOOL14_BA.png	2	2	3	SessionSelectionList														nonlure	3	Tools	2-Back	2	80	1	0	0	0	1	52	127387	3	14	73	125335	-1	126788	1	1453	3	3	2052	66	127401	-67	0																3												
WM080112	366446_fnca	2	1	1	-351239716	1	75.031	75.031	2.0.10.147	2.0.10.242	2.0.10.242	1.0.0.439	7	234	2	3	Verdana	1	80	0	0	0	WM Stimuli\	0.8	1170	0.7	1388.57142857143	1	1261.8	0.9	1120	1	1020.3	0.5	846	0.9	1007.22222222222	0.7	977.285714285714	13	408019	2	408007	27	40	408046	-999999	408022	0	24	TrialsPROC	TO_013_TOOL13_BA.png	2	2	4	SessionSelectionList														nonlure	3	Tools	2-Back	3	80	2	0	0	0	2	39	129933	2	13	59	127894	-1	128380	1	486	3	3	2039	52	129946	-53	0																4												
WM080112	366446_fnca	2	1	1	-351239716	1	75.031	75.031	2.0.10.147	2.0.10.242	2.0.10.242	1.0.0.439	7	234	2	3	Verdana	1	80	0	0	0	WM Stimuli\	0.8	1170	0.7	1388.57142857143	1	1261.8	0.9	1120	1	1020.3	0.5	846	0.9	1007.22222222222	0.7	977.285714285714	13	408019	2	408007	27	40	408046	-999999	408022	0	24	TrialsPROC	TO_016_TOOL16_BA.png	2	2	5	SessionSelectionList														nonlure	3	Tools	2-Back	4	80	3	0	0	0	3	39	132492	1	13	59	130453	-1	131270	1	817	3	3	2039	52	132505	-53	0																5												
WM080112	366446_fnca	2	1	1	-351239716	1	75.031	75.031	2.0.10.147	2.0.10.242	2.0.10.242	1.0.0.439	7	234	2	3	Verdana	1	80	0	0	0	WM Stimuli\	0.8	1170	0.7	1388.57142857143	1	1261.8	0.9	1120	1	1020.3	0.5	846	0.9	1007.22222222222	0.7	977.285714285714	13	408019	2	408007	27	40	408046	-999999	408022	0	24	TrialsPROC	TO_014_TOOL14_BA.png	2	2	6	SessionSelectionList														lure	3	Tools	2-Back	5	80	4	0	0	0	4	39	135064	1	14	72	133025	-1	134120	1	1095	3	3	2039	53	135078	-54	0																6												
WM080112	366446_fnca	2	1	1	-351239716	1	75.031	75.031	2.0.10.147	2.0.10.242	2.0.10.242	1.0.0.439	7	234	2	3	Verdana	1	80	0	0	0	WM Stimuli\	0.8	1170	0.7	1388.57142857143	1	1261.8	0.9	1120	1	1020.3	0.5	846	0.9	1007.22222222222	0.7	977.285714285714	13	408019	2	408007	27	40	408046	-999999	408022	0	24	TrialsPROC	TO_016_TOOL16_BA.png	2	2	7	SessionSelectionList														target	2	Tools	2-Back	6	80	5	0	0	0	1	39	137623	1	13	59	135584	-1	136628	1	1044	2	2	2039	52	137636	-53	0																7												
WM080112	366446_fnca	2	1	1	-351239716	1	75.031	75.031	2.0.10.147	2.0.10.242	2.0.10.242	1.0.0.439	7	234	2	3	Verdana	1	80	0	0	0	WM Stimuli\	0.8	1170	0.7	1388.57142857143	1	1261.8	0.9	1120	1	1020.3	0.5	846	0.9	1007.22222222222	0.7	977.285714285714	13	408019	2	408007	27	40	408046	-999999	408022	0	24	TrialsPROC	TO_018_TOOL18_BA.png	2	2	8	SessionSelectionList														nonlure	3	Tools	2-Back	7	80	6	0	0	0	1	39	140182	1	13	59	138143	-1	139233	1	1090	3	3	2039	52	140195	-53	0																8												
WM080112	366446_fnca	2	1	1	-351239716	1	75.031	75.031	2.0.10.147	2.0.10.242	2.0.10.242	1.0.0.439	7	234	2	3	Verdana	1	80	0	0	0	WM Stimuli\	0.8	1170	0.7	1388.57142857143	1	1261.8	0.9	1120	1	1020.3	0.5	846	0.9	1007.22222222222	0.7	977.285714285714	13	408019	2	408007	27	40	408046	-999999	408022	0	24	TrialsPROC	TO_017_TOOL17_BA.png	2	2	9	SessionSelectionList														nonlure	3	Tools	2-Back	8	80	7	0	0	0	2	39	142741	1	13	59	140702	-1	141743	1	1041	3	3	2039	52	142754	-53	0																9												
WM080112	366446_fnca	2	1	1	-351239716	1	75.031	75.031	2.0.10.147	2.0.10.242	2.0.10.242	1.0.0.439	7	234	2	3	Verdana	1	80	0	0	0	WM Stimuli\	0.8	1170	0.7	1388.57142857143	1	1261.8	0.9	1120	1	1020.3	0.5	846	0.9	1007.22222222222	0.7	977.285714285714	13	408019	2	408007	27	40	408046	-999999	408022	0	24	TrialsPROC	TO_018_TOOL18_BA.png	2	2	10	SessionSelectionList														target	2	Tools	2-Back	9	80	8	0	0	0	1	39	145300	1	13	59	143261	-1	144041	1	780	2	2	2039	52	145313	-53	0																10												
WM080112	366446_fnca	2	1	1	-351239716	1	75.031	75.031	2.0.10.147	2.0.10.242	2.0.10.242	1.0.0.439	7	234	2	3	Verdana	1	80	0	0	0	WM Stimuli\	0.8	1170	0.7	1388.57142857143	1	1261.8	0.9	1120	1	1020.3	0.5	846	0.9	1007.22222222222	0.7	977.285714285714	13	408019	2	408007	27	40	408046	-999999	408022	0	24	TrialsPROC	TO_015_TOOL15_BA.png	2	2	11	SessionSelectionList														nonlure	3	Tools	2-Back	10	80	9	0	0	0	1	39	147859	1	13	59	145820	-1	147079	1	1259	3	3	2039	52	147872	-53	0																11												
WM080112	366446_fnca	2	1	1	-351239716	1	75.031	75.031	2.0.10.147	2.0.10.242	2.0.10.242	1.0.0.439	7	234	2	3	Verdana	1	80	0	0	0	WM Stimuli\	0.8	1170	0.7	1388.57142857143	1	1261.8	0.9	1120	1	1020.3	0.5	846	0.9	1007.22222222222	0.7	977.285714285714	13	408019	2	408007	27	40	408046	-999999	408022	0	24	TrialsPROC	TO_017_TOOL17_BA.png	2	2	12	SessionSelectionList														lure	3	Tools	2-Back	11	80	10	0	0	0	1	39	150418	1	13	59	148379	-1	149412	0	1033	2	3	2039	52	150431	-53	0																12												
WM080112	366446_fnca	2	1	1	-351239716	1	75.031	75.031	2.0.10.147	2.0.10.242	2.0.10.242	1.0.0.439	7	234	2	3	Verdana	1	80	0	0	0	WM Stimuli\	0.8	1170	0.7	1388.57142857143	1	1261.8	0.9	1120	1	1020.3	0.5	846	0.9	1007.22222222222	0.7	977.285714285714	13	408019	2	408007	27	40	408046	-999999	408022	0	25	Cue0BackPROC	BP_013_BP7_BA.png	2	2	13	SessionSelectionList																																										19	150898	-20	0												13												
WM080112	366446_fnca	2	1	1	-351239716	1	75.031	75.031	2.0.10.147	2.0.10.242	2.0.10.242	1.0.0.439	7	234	2	3	Verdana	1	80	0	0	0	WM Stimuli\	0.8	1170	0.7	1388.57142857143	1	1261.8	0.9	1120	1	1020.3	0.5	846	0.9	1007.22222222222	0.7	977.285714285714	13	408019	2	408007	27	40	408046	-999999	408022	0	26	TrialsPROC	BP_015_H10-T_BA.png	2	2	14	SessionSelectionList														nonlure	3	Body	0-Back	12	80	11	0	0	100	1	39	155469	1	13	51	153430	-1	155024	1	1594	3	3	2039	52	155482	-53	0																14												
WM080112	366446_fnca	2	1	1	-351239716	1	75.031	75.031	2.0.10.147	2.0.10.242	2.0.10.242	1.0.0.439	7	234	2	3	Verdana	1	80	0	0	0	WM Stimuli\	0.8	1170	0.7	1388.57142857143	1	1261.8	0.9	1120	1	1020.3	0.5	846	0.9	1007.22222222222	0.7	977.285714285714	13	408019	2	408007	27	40	408046	-999999	408022	0	26	TrialsPROC	BP_018_H13-T_BA.png	2	2	15	SessionSelectionList														nonlure	3	Body	0-Back	13	80	12	0	0	100	2	39	158028	1	13	59	155989	-1	157578	1	1589	3	3	2039	52	158041	-53	0																15												
WM080112	366446_fnca	2	1	1	-351239716	1	75.031	75.031	2.0.10.147	2.0.10.242	2.0.10.242	1.0.0.439	7	234	2	3	Verdana	1	80	0	0	0	WM Stimuli\	0.8	1170	0.7	1388.57142857143	1	1261.8	0.9	1120	1	1020.3	0.5	846	0.9	1007.22222222222	0.7	977.285714285714	13	408019	2	408007	27	40	408046	-999999	408022	0	26	TrialsPROC	BP_014_BP9_BA.png	2	2	16	SessionSelectionList														nonlure	3	Body	0-Back	14	80	12	0	1	67	2	39	160587	1	13	59	158548	-1	0	0	0	""	3	2039	52	160600	-53	0																16												
WM080112	366446_fnca	2	1	1	-351239716	1	75.031	75.031	2.0.10.147	2.0.10.242	2.0.10.242	1.0.0.439	7	234	2	3	Verdana	1	80	0	0	0	WM Stimuli\	0.8	1170	0.7	1388.57142857143	1	1261.8	0.9	1120	1	1020.3	0.5	846	0.9	1007.22222222222	0.7	977.285714285714	13	408019	2	408007	27	40	408046	-999999	408022	0	26	TrialsPROC	BP_018_H13-T_BA.png	2	2	17	SessionSelectionList														lure	3	Body	0-Back	15	80	13	0	0	75	1	39	163146	1	13	59	161107	-1	162649	1	1542	3	3	2039	52	163159	-53	0																17												
WM080112	366446_fnca	2	1	1	-351239716	1	75.031	75.031	2.0.10.147	2.0.10.242	2.0.10.242	1.0.0.439	7	234	2	3	Verdana	1	80	0	0	0	WM Stimuli\	0.8	1170	0.7	1388.57142857143	1	1261.8	0.9	1120	1	1020.3	0.5	846	0.9	1007.22222222222	0.7	977.285714285714	13	408019	2	408007	27	40	408046	-999999	408022	0	26	TrialsPROC	BP_013_BP7_BA.png	2	2	18	SessionSelectionList														target	2	Body	0-Back	16	80	14	0	0	80	1	39	165705	1	13	59	163666	-1	164993	1	1327	2	2	2039	52	165718	-53	0																18												
WM080112	366446_fnca	2	1	1	-351239716	1	75.031	75.031	2.0.10.147	2.0.10.242	2.0.10.242	1.0.0.439	7	234	2	3	Verdana	1	80	0	0	0	WM Stimuli\	0.8	1170	0.7	1388.57142857143	1	1261.8	0.9	1120	1	1020.3	0.5	846	0.9	1007.22222222222	0.7	977.285714285714	13	408019	2	408007	27	40	408046	-999999	408022	0	26	TrialsPROC	BP_015_H10-T_BA.png	2	2	19	SessionSelectionList														lure	3	Body	0-Back	17	80	15	0	0	83	1	39	168264	1	13	59	166225	-1	167407	1	1182	3	3	2039	52	168277	-53	0																19												
WM080112	366446_fnca	2	1	1	-351239716	1	75.031	75.031	2.0.10.147	2.0.10.242	2.0.10.242	1.0.0.439	7	234	2	3	Verdana	1	80	0	0	0	WM Stimuli\	0.8	1170	0.7	1388.57142857143	1	1261.8	0.9	1120	1	1020.3	0.5	846	0.9	1007.22222222222	0.7	977.285714285714	13	408019	2	408007	27	40	408046	-999999	408022	0	26	TrialsPROC	BP_016_H11-T_BA.png	2	2	20	SessionSelectionList														nonlure	3	Body	0-Back	18	80	16	0	0	71	1	39	170823	1	13	59	168784	-1	169915	0	1131	2	3	2039	52	170836	-53	0																20												
WM080112	366446_fnca	2	1	1	-351239716	1	75.031	75.031	2.0.10.147	2.0.10.242	2.0.10.242	1.0.0.439	7	234	2	3	Verdana	1	80	0	0	0	WM Stimuli\	0.8	1170	0.7	1388.57142857143	1	1261.8	0.9	1120	1	1020.3	0.5	846	0.9	1007.22222222222	0.7	977.285714285714	13	408019	2	408007	27	40	408046	-999999	408022	0	26	TrialsPROC	BP_013_BP7_BA.png	2	2	21	SessionSelectionList														target	2	Body	0-Back	19	80	17	0	0	75	2	39	173382	1	13	59	171343	-1	172151	1	808	2	2	2039	52	173395	-53	0																21												
WM080112	366446_fnca	2	1	1	-351239716	1	75.031	75.031	2.0.10.147	2.0.10.242	2.0.10.242	1.0.0.439	7	234	2	3	Verdana	1	80	0	0	0	WM Stimuli\	0.8	1170	0.7	1388.57142857143	1	1261.8	0.9	1120	1	1020.3	0.5	846	0.9	1007.22222222222	0.7	977.285714285714	13	408019	2	408007	27	40	408046	-999999	408022	0	26	TrialsPROC	BP_017_H12-T_BA.png	2	2	22	SessionSelectionList														nonlure	3	Body	0-Back	20	80	18	0	0	78	1	39	175941	1	13	59	173902	-1	175580	1	1678	3	3	2039	52	175954	-53	0																22												
WM080112	366446_fnca	2	1	1	-351239716	1	75.031	75.031	2.0.10.147	2.0.10.242	2.0.10.242	1.0.0.439	7	234	2	3	Verdana	1	80	0	0	0	WM Stimuli\	0.8	1170	0.7	1388.57142857143	1	1261.8	0.9	1120	1	1020.3	0.5	846	0.9	1007.22222222222	0.7	977.285714285714	13	408019	2	408007	27	40	408046	-999999	408022	0	26	TrialsPROC	BP_014_BP9_BA.png	2	2	23	SessionSelectionList														lure	3	Body	0-Back	21	80	19	0	0	70	1	39	178500	1	13	59	176461	-1	177603	0	1142	2	3	2039	52	178513	-53	0																23												
WM080112	366446_fnca	2	1	1	-351239716	1	75.031	75.031	2.0.10.147	2.0.10.242	2.0.10.242	1.0.0.439	7	234	2	3	Verdana	1	80	0	0	0	WM Stimuli\	0.8	1170	0.7	1388.57142857143	1	1261.8	0.9	1120	1	1020.3	0.5	846	0.9	1007.22222222222	0.7	977.285714285714	13	408019	2	408007	27	40	408046	-999999	408022	0	27	Fix15secPROC	""	2	2	24	SessionSelectionList																																															5	178966	-6	0							24												
WM080112	366446_fnca	2	1	1	-351239716	1	75.031	75.031	2.0.10.147	2.0.10.242	2.0.10.242	1.0.0.439	7	234	2	3	Verdana	1	80	0	0	0	WM Stimuli\	0.8	1170	0.7	1388.57142857143	1	1261.8	0.9	1120	1	1020.3	0.5	846	0.9	1007.22222222222	0.7	977.285714285714	13	408019	2	408007	27	40	408046	-999999	408022	0	28	Cue2BackPROC	""	2	2	25	SessionSelectionList									12	193973	-13	0																																													25												
WM080112	366446_fnca	2	1	1	-351239716	1	75.031	75.031	2.0.10.147	2.0.10.242	2.0.10.242	1.0.0.439	7	234	2	3	Verdana	1	80	0	0	0	WM Stimuli\	0.8	1170	0.7	1388.57142857143	1	1261.8	0.9	1120	1	1020.3	0.5	846	0.9	1007.22222222222	0.7	977.285714285714	13	408019	2	408007	27	40	408046	-999999	408022	0	29	TrialsPROC	FC_015_M8.png	2	2	26	SessionSelectionList														nonlure	3	Face	2-Back	22	80	20	0	0	70	1	39	198571	2	14	71	196532	-1	197819	1	1287	3	3	2039	53	198585	-54	0																26												
WM080112	366446_fnca	2	1	1	-351239716	1	75.031	75.031	2.0.10.147	2.0.10.242	2.0.10.242	1.0.0.439	7	234	2	3	Verdana	1	80	0	0	0	WM Stimuli\	0.8	1170	0.7	1388.57142857143	1	1261.8	0.9	1120	1	1020.3	0.5	846	0.9	1007.22222222222	0.7	977.285714285714	13	408019	2	408007	27	40	408046	-999999	408022	0	29	TrialsPROC	FC_018_F9.png	2	2	27	SessionSelectionList														nonlure	3	Face	2-Back	23	80	21	0	0	70	2	40	201144	1	13	72	199104	-1	200076	1	972	3	3	2040	53	201157	-54	0																27												
WM080112	366446_fnca	2	1	1	-351239716	1	75.031	75.031	2.0.10.147	2.0.10.242	2.0.10.242	1.0.0.439	7	234	2	3	Verdana	1	80	0	0	0	WM Stimuli\	0.8	1170	0.7	1388.57142857143	1	1261.8	0.9	1120	1	1020.3	0.5	846	0.9	1007.22222222222	0.7	977.285714285714	13	408019	2	408007	27	40	408046	-999999	408022	0	29	TrialsPROC	FC_018_F9.png	2	2	28	SessionSelectionList														lure	3	Face	2-Back	24	80	22	0	0	70	3	39	203716	1	13	73	201677	-1	203128	1	1451	3	3	2039	52	203729	-53	0																28												
WM080112	366446_fnca	2	1	1	-351239716	1	75.031	75.031	2.0.10.147	2.0.10.242	2.0.10.242	1.0.0.439	7	234	2	3	Verdana	1	80	0	0	0	WM Stimuli\	0.8	1170	0.7	1388.57142857143	1	1261.8	0.9	1120	1	1020.3	0.5	846	0.9	1007.22222222222	0.7	977.285714285714	13	408019	2	408007	27	40	408046	-999999	408022	0	29	TrialsPROC	FC_017_M9.png	2	2	29	SessionSelectionList														nonlure	3	Face	2-Back	25	80	23	0	0	70	4	39	206288	2	14	72	204249	-1	205403	1	1154	3	3	2039	53	206302	-54	0																29												
WM080112	366446_fnca	2	1	1	-351239716	1	75.031	75.031	2.0.10.147	2.0.10.242	2.0.10.242	1.0.0.439	7	234	2	3	Verdana	1	80	0	0	0	WM Stimuli\	0.8	1170	0.7	1388.57142857143	1	1261.8	0.9	1120	1	1020.3	0.5	846	0.9	1007.22222222222	0.7	977.285714285714	13	408019	2	408007	27	40	408046	-999999	408022	0	29	TrialsPROC	FC_017_M9.png	2	2	30	SessionSelectionList														lure	3	Face	2-Back	26	80	24	0	0	70	5	39	208860	2	14	72	206821	-1	207945	1	1124	3	3	2039	53	208874	-54	0																30												
WM080112	366446_fnca	2	1	1	-351239716	1	75.031	75.031	2.0.10.147	2.0.10.242	2.0.10.242	1.0.0.439	7	234	2	3	Verdana	1	80	0	0	0	WM Stimuli\	0.8	1170	0.7	1388.57142857143	1	1261.8	0.9	1120	1	1020.3	0.5	846	0.9	1007.22222222222	0.7	977.285714285714	13	408019	2	408007	27	40	408046	-999999	408022	0	29	TrialsPROC	FC_016_F8.png	2	2	31	SessionSelectionList														nonlure	3	Face	2-Back	27	80	25	0	0	70	6	39	211433	1	13	73	209394	-1	210615	1	1221	3	3	2039	52	211446	-53	0																31												
WM080112	366446_fnca	2	1	1	-351239716	1	75.031	75.031	2.0.10.147	2.0.10.242	2.0.10.242	1.0.0.439	7	234	2	3	Verdana	1	80	0	0	0	WM Stimuli\	0.8	1170	0.7	1388.57142857143	1	1261.8	0.9	1120	1	1020.3	0.5	846	0.9	1007.22222222222	0.7	977.285714285714	13	408019	2	408007	27	40	408046	-999999	408022	0	29	TrialsPROC	FC_013_M7.png	2	2	32	SessionSelectionList														nonlure	3	Face	2-Back	28	80	26	0	0	70	7	39	214005	1	13	72	211966	-1	213488	1	1522	3	3	2039	52	214018	-53	0																32												
WM080112	366446_fnca	2	1	1	-351239716	1	75.031	75.031	2.0.10.147	2.0.10.242	2.0.10.242	1.0.0.439	7	234	2	3	Verdana	1	80	0	0	0	WM Stimuli\	0.8	1170	0.7	1388.57142857143	1	1261.8	0.9	1120	1	1020.3	0.5	846	0.9	1007.22222222222	0.7	977.285714285714	13	408019	2	408007	27	40	408046	-999999	408022	0	29	TrialsPROC	FC_014_F7.png	2	2	33	SessionSelectionList														nonlure	3	Face	2-Back	29	80	27	0	0	70	8	39	216577	2	14	72	214538	-1	215808	1	1270	3	3	2039	53	216591	-54	0																33												
WM080112	366446_fnca	2	1	1	-351239716	1	75.031	75.031	2.0.10.147	2.0.10.242	2.0.10.242	1.0.0.439	7	234	2	3	Verdana	1	80	0	0	0	WM Stimuli\	0.8	1170	0.7	1388.57142857143	1	1261.8	0.9	1120	1	1020.3	0.5	846	0.9	1007.22222222222	0.7	977.285714285714	13	408019	2	408007	27	40	408046	-999999	408022	0	29	TrialsPROC	FC_013_M7.png	2	2	34	SessionSelectionList														target	2	Face	2-Back	30	80	28	0	0	70	1	40	219150	1	13	72	217110	-1	218052	1	942	2	2	2040	53	219163	-54	0																34												
WM080112	366446_fnca	2	1	1	-351239716	1	75.031	75.031	2.0.10.147	2.0.10.242	2.0.10.242	1.0.0.439	7	234	2	3	Verdana	1	80	0	0	0	WM Stimuli\	0.8	1170	0.7	1388.57142857143	1	1261.8	0.9	1120	1	1020.3	0.5	846	0.9	1007.22222222222	0.7	977.285714285714	13	408019	2	408007	27	40	408046	-999999	408022	0	29	TrialsPROC	FC_014_F7.png	2	2	35	SessionSelectionList														target	2	Face	2-Back	31	80	29	0	0	70	2	39	221722	1	13	73	219683	-1	221358	1	1675	2	2	2039	52	221735	-53	0																35												
WM080112	366446_fnca	2	1	1	-351239716	1	75.031	75.031	2.0.10.147	2.0.10.242	2.0.10.242	1.0.0.439	7	234	2	3	Verdana	1	80	0	0	0	WM Stimuli\	0.8	1170	0.7	1388.57142857143	1	1261.8	0.9	1120	1	1020.3	0.5	846	0.9	1007.22222222222	0.7	977.285714285714	13	408019	2	408007	27	40	408046	-999999	408022	0	30	Cue0BackPROC	TO_019_TOOL19_BA.png	2	2	36	SessionSelectionList																																										19	222202	-20	0												36												
WM080112	366446_fnca	2	1	1	-351239716	1	75.031	75.031	2.0.10.147	2.0.10.242	2.0.10.242	1.0.0.439	7	234	2	3	Verdana	1	80	0	0	0	WM Stimuli\	0.8	1170	0.7	1388.57142857143	1	1261.8	0.9	1120	1	1020.3	0.5	846	0.9	1007.22222222222	0.7	977.285714285714	13	408019	2	408007	27	40	408046	-999999	408022	0	31	TrialsPROC	TO_019_TOOL19_BA.png	2	2	37	SessionSelectionList														target	2	Tools	0-Back	32	80	30	0	0	73	3	39	226773	2	14	51	224734	-1	226439	1	1705	2	2	2039	53	226787	-54	0																37												
WM080112	366446_fnca	2	1	1	-351239716	1	75.031	75.031	2.0.10.147	2.0.10.242	2.0.10.242	1.0.0.439	7	234	2	3	Verdana	1	80	0	0	0	WM Stimuli\	0.8	1170	0.7	1388.57142857143	1	1261.8	0.9	1120	1	1020.3	0.5	846	0.9	1007.22222222222	0.7	977.285714285714	13	408019	2	408007	27	40	408046	-999999	408022	0	31	TrialsPROC	TO_024_TOOL24_BA.png	2	2	38	SessionSelectionList														nonlure	3	Tools	0-Back	33	80	31	0	0	75	1	39	229332	2	14	59	227293	-1	228556	1	1263	3	3	2039	53	229346	-54	0																38												
WM080112	366446_fnca	2	1	1	-351239716	1	75.031	75.031	2.0.10.147	2.0.10.242	2.0.10.242	1.0.0.439	7	234	2	3	Verdana	1	80	0	0	0	WM Stimuli\	0.8	1170	0.7	1388.57142857143	1	1261.8	0.9	1120	1	1020.3	0.5	846	0.9	1007.22222222222	0.7	977.285714285714	13	408019	2	408007	27	40	408046	-999999	408022	0	31	TrialsPROC	TO_019_TOOL19_BA.png	2	2	39	SessionSelectionList														target	2	Tools	0-Back	34	80	32	0	0	77	1	39	231891	1	13	59	229852	-1	230705	1	853	2	2	2039	52	231904	-53	0																39												
WM080112	366446_fnca	2	1	1	-351239716	1	75.031	75.031	2.0.10.147	2.0.10.242	2.0.10.242	1.0.0.439	7	234	2	3	Verdana	1	80	0	0	0	WM Stimuli\	0.8	1170	0.7	1388.57142857143	1	1261.8	0.9	1120	1	1020.3	0.5	846	0.9	1007.22222222222	0.7	977.285714285714	13	408019	2	408007	27	40	408046	-999999	408022	0	31	TrialsPROC	TO_023_TOOL23_BA.png	2	2	40	SessionSelectionList														nonlure	3	Tools	0-Back	35	80	33	0	0	79	1	39	234450	1	13	59	232411	-1	233132	1	721	3	3	2039	52	234463	-53	0																40												
WM080112	366446_fnca	2	1	1	-351239716	1	75.031	75.031	2.0.10.147	2.0.10.242	2.0.10.242	1.0.0.439	7	234	2	3	Verdana	1	80	0	0	0	WM Stimuli\	0.8	1170	0.7	1388.57142857143	1	1261.8	0.9	1120	1	1020.3	0.5	846	0.9	1007.22222222222	0.7	977.285714285714	13	408019	2	408007	27	40	408046	-999999	408022	0	31	TrialsPROC	TO_020_TOOL20_BA.png	2	2	41	SessionSelectionList														nonlure	3	Tools	0-Back	36	80	34	0	0	80	2	39	237009	1	13	59	234970	-1	235687	1	717	3	3	2039	52	237022	-53	0																41												
WM080112	366446_fnca	2	1	1	-351239716	1	75.031	75.031	2.0.10.147	2.0.10.242	2.0.10.242	1.0.0.439	7	234	2	3	Verdana	1	80	0	0	0	WM Stimuli\	0.8	1170	0.7	1388.57142857143	1	1261.8	0.9	1120	1	1020.3	0.5	846	0.9	1007.22222222222	0.7	977.285714285714	13	408019	2	408007	27	40	408046	-999999	408022	0	31	TrialsPROC	TO_020_TOOL20_BA.png	2	2	42	SessionSelectionList														lure	3	Tools	0-Back	37	80	35	0	0	81	3	39	239568	1	13	59	237529	-1	238060	1	531	3	3	2039	52	239581	-53	0																42												
WM080112	366446_fnca	2	1	1	-351239716	1	75.031	75.031	2.0.10.147	2.0.10.242	2.0.10.242	1.0.0.439	7	234	2	3	Verdana	1	80	0	0	0	WM Stimuli\	0.8	1170	0.7	1388.57142857143	1	1261.8	0.9	1120	1	1020.3	0.5	846	0.9	1007.22222222222	0.7	977.285714285714	13	408019	2	408007	27	40	408046	-999999	408022	0	31	TrialsPROC	TO_022_TOOL22_BA.png	2	2	43	SessionSelectionList														nonlure	3	Tools	0-Back	38	80	35	0	1	76	3	39	242127	1	13	59	240088	-1	0	0	0	""	3	2039	52	242140	-53	0																43												
WM080112	366446_fnca	2	1	1	-351239716	1	75.031	75.031	2.0.10.147	2.0.10.242	2.0.10.242	1.0.0.439	7	234	2	3	Verdana	1	80	0	0	0	WM Stimuli\	0.8	1170	0.7	1388.57142857143	1	1261.8	0.9	1120	1	1020.3	0.5	846	0.9	1007.22222222222	0.7	977.285714285714	13	408019	2	408007	27	40	408046	-999999	408022	0	31	TrialsPROC	TO_022_TOOL22_BA.png	2	2	44	SessionSelectionList														lure	3	Tools	0-Back	39	80	36	0	0	72	1	39	244686	2	13	59	242647	-1	243439	0	792	2	3	2039	52	244699	-53	0																44												
WM080112	366446_fnca	2	1	1	-351239716	1	75.031	75.031	2.0.10.147	2.0.10.242	2.0.10.242	1.0.0.439	7	234	2	3	Verdana	1	80	0	0	0	WM Stimuli\	0.8	1170	0.7	1388.57142857143	1	1261.8	0.9	1120	1	1020.3	0.5	846	0.9	1007.22222222222	0.7	977.285714285714	13	408019	2	408007	27	40	408046	-999999	408022	0	31	TrialsPROC	TO_021_TOOL21_BA.png	2	2	45	SessionSelectionList														nonlure	3	Tools	0-Back	40	80	37	0	0	74	1	39	247245	1	13	59	245206	-1	246257	1	1051	3	3	2039	52	247258	-53	0																45												
WM080112	366446_fnca	2	1	1	-351239716	1	75.031	75.031	2.0.10.147	2.0.10.242	2.0.10.242	1.0.0.439	7	234	2	3	Verdana	1	80	0	0	0	WM Stimuli\	0.8	1170	0.7	1388.57142857143	1	1261.8	0.9	1120	1	1020.3	0.5	846	0.9	1007.22222222222	0.7	977.285714285714	13	408019	2	408007	27	40	408046	-999999	408022	0	31	TrialsPROC	TO_021_TOOL21_BA.png	2	2	46	SessionSelectionList														lure	3	Tools	0-Back	41	80	38	0	0	70	1	39	249804	1	13	59	247765	-1	248841	0	1076	2	3	2039	52	249817	-53	0																46												
WM080112	366446_fnca	2	1	1	-351239716	1	75.031	75.031	2.0.10.147	2.0.10.242	2.0.10.242	1.0.0.439	7	234	2	3	Verdana	1	80	0	0	0	WM Stimuli\	0.8	1170	0.7	1388.57142857143	1	1261.8	0.9	1120	1	1020.3	0.5	846	0.9	1007.22222222222	0.7	977.285714285714	13	408019	2	408007	27	40	408046	-999999	408022	0	32	Fix15secPROC	""	2	2	47	SessionSelectionList																																															5	250270	-6	0							47												
WM080112	366446_fnca	2	1	1	-351239716	1	75.031	75.031	2.0.10.147	2.0.10.242	2.0.10.242	1.0.0.439	7	234	2	3	Verdana	1	80	0	0	0	WM Stimuli\	0.8	1170	0.7	1388.57142857143	1	1261.8	0.9	1120	1	1020.3	0.5	846	0.9	1007.22222222222	0.7	977.285714285714	13	408019	2	408007	27	40	408046	-999999	408022	0	33	Cue2BackPROC	""	2	2	48	SessionSelectionList									12	265277	-13	0																																													48												
WM080112	366446_fnca	2	1	1	-351239716	1	75.031	75.031	2.0.10.147	2.0.10.242	2.0.10.242	1.0.0.439	7	234	2	3	Verdana	1	80	0	0	0	WM Stimuli\	0.8	1170	0.7	1388.57142857143	1	1261.8	0.9	1120	1	1020.3	0.5	846	0.9	1007.22222222222	0.7	977.285714285714	13	408019	2	408007	27	40	408046	-999999	408022	0	34	TrialsPROC	BP_020_H17-T_BA.png	2	2	49	SessionSelectionList														nonlure	3	Body	2-Back	42	80	39	0	0	70	1	39	269862	2	14	58	267823	-1	269029	1	1206	3	3	2039	53	269876	-54	0																49												
WM080112	366446_fnca	2	1	1	-351239716	1	75.031	75.031	2.0.10.147	2.0.10.242	2.0.10.242	1.0.0.439	7	234	2	3	Verdana	1	80	0	0	0	WM Stimuli\	0.8	1170	0.7	1388.57142857143	1	1261.8	0.9	1120	1	1020.3	0.5	846	0.9	1007.22222222222	0.7	977.285714285714	13	408019	2	408007	27	40	408046	-999999	408022	0	34	TrialsPROC	BP_019_H14-T_BA.png	2	2	50	SessionSelectionList														nonlure	3	Body	2-Back	43	80	40	0	0	70	2	39	272421	1	14	59	270382	-1	271047	1	665	3	3	2039	53	272435	-54	0																50												
WM080112	366446_fnca	2	1	1	-351239716	1	75.031	75.031	2.0.10.147	2.0.10.242	2.0.10.242	1.0.0.439	7	234	2	3	Verdana	1	80	0	0	0	WM Stimuli\	0.8	1170	0.7	1388.57142857143	1	1261.8	0.9	1120	1	1020.3	0.5	846	0.9	1007.22222222222	0.7	977.285714285714	13	408019	2	408007	27	40	408046	-999999	408022	0	34	TrialsPROC	BP_020_H17-T_BA.png	2	2	51	SessionSelectionList														target	2	Body	2-Back	44	80	41	0	0	70	1	39	274980	1	13	59	272941	-1	273628	1	687	2	2	2039	52	274993	-53	0																51												
WM080112	366446_fnca	2	1	1	-351239716	1	75.031	75.031	2.0.10.147	2.0.10.242	2.0.10.242	1.0.0.439	7	234	2	3	Verdana	1	80	0	0	0	WM Stimuli\	0.8	1170	0.7	1388.57142857143	1	1261.8	0.9	1120	1	1020.3	0.5	846	0.9	1007.22222222222	0.7	977.285714285714	13	408019	2	408007	27	40	408046	-999999	408022	0	34	TrialsPROC	BP_019_H14-T_BA.png	2	2	52	SessionSelectionList														target	2	Body	2-Back	45	80	42	0	0	70	2	39	277539	1	13	59	275500	-1	277143	1	1643	2	2	2039	52	277552	-53	0																52												
WM080112	366446_fnca	2	1	1	-351239716	1	75.031	75.031	2.0.10.147	2.0.10.242	2.0.10.242	1.0.0.439	7	234	2	3	Verdana	1	80	0	0	0	WM Stimuli\	0.8	1170	0.7	1388.57142857143	1	1261.8	0.9	1120	1	1020.3	0.5	846	0.9	1007.22222222222	0.7	977.285714285714	13	408019	2	408007	27	40	408046	-999999	408022	0	34	TrialsPROC	BP_024_H3-T_BA.png	2	2	53	SessionSelectionList														nonlure	3	Body	2-Back	46	80	42	0	1	70	2	39	280098	1	13	59	278059	-1	0	0	0	""	3	2039	52	280111	-53	0																53												
WM080112	366446_fnca	2	1	1	-351239716	1	75.031	75.031	2.0.10.147	2.0.10.242	2.0.10.242	1.0.0.439	7	234	2	3	Verdana	1	80	0	0	0	WM Stimuli\	0.8	1170	0.7	1388.57142857143	1	1261.8	0.9	1120	1	1020.3	0.5	846	0.9	1007.22222222222	0.7	977.285714285714	13	408019	2	408007	27	40	408046	-999999	408022	0	34	TrialsPROC	BP_024_H3-T_BA.png	2	2	54	SessionSelectionList														lure	3	Body	2-Back	47	80	43	0	0	70	1	39	282657	1	13	59	280618	-1	281767	1	1149	3	3	2039	52	282670	-53	0																54												
WM080112	366446_fnca	2	1	1	-351239716	1	75.031	75.031	2.0.10.147	2.0.10.242	2.0.10.242	1.0.0.439	7	234	2	3	Verdana	1	80	0	0	0	WM Stimuli\	0.8	1170	0.7	1388.57142857143	1	1261.8	0.9	1120	1	1020.3	0.5	846	0.9	1007.22222222222	0.7	977.285714285714	13	408019	2	408007	27	40	408046	-999999	408022	0	34	TrialsPROC	BP_025_H5-T_BA.png	2	2	55	SessionSelectionList														nonlure	3	Body	2-Back	48	80	44	0	0	70	2	39	285216	1	13	59	283177	-1	284320	1	1143	3	3	2039	52	285229	-53	0																55												
WM080112	366446_fnca	2	1	1	-351239716	1	75.031	75.031	2.0.10.147	2.0.10.242	2.0.10.242	1.0.0.439	7	234	2	3	Verdana	1	80	0	0	0	WM Stimuli\	0.8	1170	0.7	1388.57142857143	1	1261.8	0.9	1120	1	1020.3	0.5	846	0.9	1007.22222222222	0.7	977.285714285714	13	408019	2	408007	27	40	408046	-999999	408022	0	34	TrialsPROC	BP_023_H25-T_BA.png	2	2	56	SessionSelectionList														nonlure	3	Body	2-Back	49	80	45	0	0	70	1	39	287775	1	13	59	285736	-1	286269	0	533	2	3	2039	52	287788	-53	0																56												
WM080112	366446_fnca	2	1	1	-351239716	1	75.031	75.031	2.0.10.147	2.0.10.242	2.0.10.242	1.0.0.439	7	234	2	3	Verdana	1	80	0	0	0	WM Stimuli\	0.8	1170	0.7	1388.57142857143	1	1261.8	0.9	1120	1	1020.3	0.5	846	0.9	1007.22222222222	0.7	977.285714285714	13	408019	2	408007	27	40	408046	-999999	408022	0	34	TrialsPROC	BP_022_H24-T_BA.png	2	2	57	SessionSelectionList														nonlure	3	Body	2-Back	50	80	46	0	0	70	1	39	290334	1	13	59	288295	-1	289553	1	1258	3	3	2039	52	290347	-53	0																57												
WM080112	366446_fnca	2	1	1	-351239716	1	75.031	75.031	2.0.10.147	2.0.10.242	2.0.10.242	1.0.0.439	7	234	2	3	Verdana	1	80	0	0	0	WM Stimuli\	0.8	1170	0.7	1388.57142857143	1	1261.8	0.9	1120	1	1020.3	0.5	846	0.9	1007.22222222222	0.7	977.285714285714	13	408019	2	408007	27	40	408046	-999999	408022	0	34	TrialsPROC	BP_022_H24-T_BA.png	2	2	58	SessionSelectionList														lure	3	Body	2-Back	51	80	47	0	0	70	2	39	292893	1	13	59	290854	-1	292463	1	1609	3	3	2039	52	292906	-53	0																58												
WM080112	366446_fnca	2	1	1	-351239716	1	75.031	75.031	2.0.10.147	2.0.10.242	2.0.10.242	1.0.0.439	7	234	2	3	Verdana	1	80	0	0	0	WM Stimuli\	0.8	1170	0.7	1388.57142857143	1	1261.8	0.9	1120	1	1020.3	0.5	846	0.9	1007.22222222222	0.7	977.285714285714	13	408019	2	408007	27	40	408046	-999999	408022	0	35	Cue2BackPROC	""	2	2	59	SessionSelectionList									5	293359	-6	0																																													59												
WM080112	366446_fnca	2	1	1	-351239716	1	75.031	75.031	2.0.10.147	2.0.10.242	2.0.10.242	1.0.0.439	7	234	2	3	Verdana	1	80	0	0	0	WM Stimuli\	0.8	1170	0.7	1388.57142857143	1	1261.8	0.9	1120	1	1020.3	0.5	846	0.9	1007.22222222222	0.7	977.285714285714	13	408019	2	408007	27	40	408046	-999999	408022	0	36	TrialsPROC	PL_019_SCENE_05.png	2	2	60	SessionSelectionList														nonlure	3	Place	2-Back	52	80	48	0	0	70	3	39	297957	2	14	64	295918	-1	297367	1	1449	3	3	2039	53	297971	-54	0																60												
WM080112	366446_fnca	2	1	1	-351239716	1	75.031	75.031	2.0.10.147	2.0.10.242	2.0.10.242	1.0.0.439	7	234	2	3	Verdana	1	80	0	0	0	WM Stimuli\	0.8	1170	0.7	1388.57142857143	1	1261.8	0.9	1120	1	1020.3	0.5	846	0.9	1007.22222222222	0.7	977.285714285714	13	408019	2	408007	27	40	408046	-999999	408022	0	36	TrialsPROC	PL_017_SCENE_03.png	2	2	61	SessionSelectionList														nonlure	3	Place	2-Back	53	80	49	0	0	70	4	40	300530	1	13	72	298490	-1	299165	1	675	3	3	2040	53	300543	-54	0																61												
WM080112	366446_fnca	2	1	1	-351239716	1	75.031	75.031	2.0.10.147	2.0.10.242	2.0.10.242	1.0.0.439	7	234	2	3	Verdana	1	80	0	0	0	WM Stimuli\	0.8	1170	0.7	1388.57142857143	1	1261.8	0.9	1120	1	1020.3	0.5	846	0.9	1007.22222222222	0.7	977.285714285714	13	408019	2	408007	27	40	408046	-999999	408022	0	36	TrialsPROC	PL_017_SCENE_03.png	2	2	62	SessionSelectionList														lure	3	Place	2-Back	54	80	50	0	0	70	5	39	303102	1	13	73	301063	-1	302119	1	1056	3	3	2039	52	303115	-53	0																62												
WM080112	366446_fnca	2	1	1	-351239716	1	75.031	75.031	2.0.10.147	2.0.10.242	2.0.10.242	1.0.0.439	7	234	2	3	Verdana	1	80	0	0	0	WM Stimuli\	0.8	1170	0.7	1388.57142857143	1	1261.8	0.9	1120	1	1020.3	0.5	846	0.9	1007.22222222222	0.7	977.285714285714	13	408019	2	408007	27	40	408046	-999999	408022	0	36	TrialsPROC	PL_016_SCENE_02.png	2	2	63	SessionSelectionList														nonlure	3	Place	2-Back	55	80	51	0	0	70	6	39	305674	2	14	72	303635	-1	304430	1	795	3	3	2039	53	305688	-54	0																63												
WM080112	366446_fnca	2	1	1	-351239716	1	75.031	75.031	2.0.10.147	2.0.10.242	2.0.10.242	1.0.0.439	7	234	2	3	Verdana	1	80	0	0	0	WM Stimuli\	0.8	1170	0.7	1388.57142857143	1	1261.8	0.9	1120	1	1020.3	0.5	846	0.9	1007.22222222222	0.7	977.285714285714	13	408019	2	408007	27	40	408046	-999999	408022	0	36	TrialsPROC	PL_015_SCENE_01.png	2	2	64	SessionSelectionList														nonlure	3	Place	2-Back	56	80	52	0	0	70	7	39	308246	2	14	72	306207	-1	307066	1	859	3	3	2039	53	308260	-54	0																64												
WM080112	366446_fnca	2	1	1	-351239716	1	75.031	75.031	2.0.10.147	2.0.10.242	2.0.10.242	1.0.0.439	7	234	2	3	Verdana	1	80	0	0	0	WM Stimuli\	0.8	1170	0.7	1388.57142857143	1	1261.8	0.9	1120	1	1020.3	0.5	846	0.9	1007.22222222222	0.7	977.285714285714	13	408019	2	408007	27	40	408046	-999999	408022	0	36	TrialsPROC	PL_016_SCENE_02.png	2	2	65	SessionSelectionList														target	2	Place	2-Back	57	80	53	0	0	70	1	40	310819	1	13	72	308779	-1	309343	1	564	2	2	2040	53	310832	-54	0																65												
WM080112	366446_fnca	2	1	1	-351239716	1	75.031	75.031	2.0.10.147	2.0.10.242	2.0.10.242	1.0.0.439	7	234	2	3	Verdana	1	80	0	0	0	WM Stimuli\	0.8	1170	0.7	1388.57142857143	1	1261.8	0.9	1120	1	1020.3	0.5	846	0.9	1007.22222222222	0.7	977.285714285714	13	408019	2	408007	27	40	408046	-999999	408022	0	36	TrialsPROC	PL_015_SCENE_01.png	2	2	66	SessionSelectionList														target	2	Place	2-Back	58	80	54	0	0	70	2	39	313391	1	13	73	311352	-1	313022	1	1670	2	2	2039	52	313404	-53	0																66												
WM080112	366446_fnca	2	1	1	-351239716	1	75.031	75.031	2.0.10.147	2.0.10.242	2.0.10.242	1.0.0.439	7	234	2	3	Verdana	1	80	0	0	0	WM Stimuli\	0.8	1170	0.7	1388.57142857143	1	1261.8	0.9	1120	1	1020.3	0.5	846	0.9	1007.22222222222	0.7	977.285714285714	13	408019	2	408007	27	40	408046	-999999	408022	0	36	TrialsPROC	PL_020_SCENE_06.png	2	2	67	SessionSelectionList														nonlure	3	Place	2-Back	59	80	55	0	0	70	1	39	315963	2	14	72	313924	-1	314635	1	711	3	3	2039	53	315977	-54	0																67												
WM080112	366446_fnca	2	1	1	-351239716	1	75.031	75.031	2.0.10.147	2.0.10.242	2.0.10.242	1.0.0.439	7	234	2	3	Verdana	1	80	0	0	0	WM Stimuli\	0.8	1170	0.7	1388.57142857143	1	1261.8	0.9	1120	1	1020.3	0.5	846	0.9	1007.22222222222	0.7	977.285714285714	13	408019	2	408007	27	40	408046	-999999	408022	0	36	TrialsPROC	PL_020_SCENE_06.png	2	2	68	SessionSelectionList														lure	3	Place	2-Back	60	80	56	0	0	70	2	39	318535	2	14	72	316496	-1	317513	1	1017	3	3	2039	53	318549	-54	0																68												
WM080112	366446_fnca	2	1	1	-351239716	1	75.031	75.031	2.0.10.147	2.0.10.242	2.0.10.242	1.0.0.439	7	234	2	3	Verdana	1	80	0	0	0	WM Stimuli\	0.8	1170	0.7	1388.57142857143	1	1261.8	0.9	1120	1	1020.3	0.5	846	0.9	1007.22222222222	0.7	977.285714285714	13	408019	2	408007	27	40	408046	-999999	408022	0	36	TrialsPROC	PL_018_SCENE_04.png	2	2	69	SessionSelectionList														nonlure	3	Place	2-Back	61	80	57	0	0	70	3	39	321108	1	13	73	319069	-1	320476	1	1407	3	3	2039	52	321121	-53	0																69												
WM080112	366446_fnca	2	1	1	-351239716	1	75.031	75.031	2.0.10.147	2.0.10.242	2.0.10.242	1.0.0.439	7	234	2	3	Verdana	1	80	0	0	0	WM Stimuli\	0.8	1170	0.7	1388.57142857143	1	1261.8	0.9	1120	1	1020.3	0.5	846	0.9	1007.22222222222	0.7	977.285714285714	13	408019	2	408007	27	40	408046	-999999	408022	0	37	Fix15secPROC	""	2	2	70	SessionSelectionList																																															5	321574	-6	0							70												
WM080112	366446_fnca	2	1	1	-351239716	1	75.031	75.031	2.0.10.147	2.0.10.242	2.0.10.242	1.0.0.439	7	234	2	3	Verdana	1	80	0	0	0	WM Stimuli\	0.8	1170	0.7	1388.57142857143	1	1261.8	0.9	1120	1	1020.3	0.5	846	0.9	1007.22222222222	0.7	977.285714285714	13	408019	2	408007	27	40	408046	-999999	408022	0	38	Cue0BackPROC	FC_020_F10.png	2	2	71	SessionSelectionList																																										26	336595	-27	0												71												
WM080112	366446_fnca	2	1	1	-351239716	1	75.031	75.031	2.0.10.147	2.0.10.242	2.0.10.242	1.0.0.439	7	234	2	3	Verdana	1	80	0	0	0	WM Stimuli\	0.8	1170	0.7	1388.57142857143	1	1261.8	0.9	1120	1	1020.3	0.5	846	0.9	1007.22222222222	0.7	977.285714285714	13	408019	2	408007	27	40	408046	-999999	408022	0	39	TrialsPROC	FC_024_F12.png	2	2	72	SessionSelectionList														nonlure	3	Face	0-Back	62	80	58	0	0	71	4	40	341180	1	13	71	339140	-1	340302	1	1162	3	3	2040	53	341193	-54	0																72												
WM080112	366446_fnca	2	1	1	-351239716	1	75.031	75.031	2.0.10.147	2.0.10.242	2.0.10.242	1.0.0.439	7	234	2	3	Verdana	1	80	0	0	0	WM Stimuli\	0.8	1170	0.7	1388.57142857143	1	1261.8	0.9	1120	1	1020.3	0.5	846	0.9	1007.22222222222	0.7	977.285714285714	13	408019	2	408007	27	40	408046	-999999	408022	0	39	TrialsPROC	FC_023_M12.png	2	2	73	SessionSelectionList														nonlure	3	Face	0-Back	63	80	59	0	0	73	5	39	343752	1	13	73	341713	-1	342373	1	660	3	3	2039	52	343765	-53	0																73												
WM080112	366446_fnca	2	1	1	-351239716	1	75.031	75.031	2.0.10.147	2.0.10.242	2.0.10.242	1.0.0.439	7	234	2	3	Verdana	1	80	0	0	0	WM Stimuli\	0.8	1170	0.7	1388.57142857143	1	1261.8	0.9	1120	1	1020.3	0.5	846	0.9	1007.22222222222	0.7	977.285714285714	13	408019	2	408007	27	40	408046	-999999	408022	0	39	TrialsPROC	FC_020_F10.png	2	2	74	SessionSelectionList														target	2	Face	0-Back	64	80	60	0	0	70	6	39	346324	1	14	72	344285	-1	344690	0	405	3	2	2039	53	346338	-54	0																74												
WM080112	366446_fnca	2	1	1	-351239716	1	75.031	75.031	2.0.10.147	2.0.10.242	2.0.10.242	1.0.0.439	7	234	2	3	Verdana	1	80	0	0	0	WM Stimuli\	0.8	1170	0.7	1388.57142857143	1	1261.8	0.9	1120	1	1020.3	0.5	846	0.9	1007.22222222222	0.7	977.285714285714	13	408019	2	408007	27	40	408046	-999999	408022	0	39	TrialsPROC	FC_024_F12.png	2	2	75	SessionSelectionList														lure	3	Face	0-Back	65	80	61	0	0	71	7	39	348896	2	14	72	346857	-1	348387	1	1530	3	3	2039	53	348910	-54	0																75												
WM080112	366446_fnca	2	1	1	-351239716	1	75.031	75.031	2.0.10.147	2.0.10.242	2.0.10.242	1.0.0.439	7	234	2	3	Verdana	1	80	0	0	0	WM Stimuli\	0.8	1170	0.7	1388.57142857143	1	1261.8	0.9	1120	1	1020.3	0.5	846	0.9	1007.22222222222	0.7	977.285714285714	13	408019	2	408007	27	40	408046	-999999	408022	0	39	TrialsPROC	FC_020_F10.png	2	2	76	SessionSelectionList														target	2	Face	0-Back	66	80	62	0	0	72	1	40	351469	1	13	72	349429	-1	350182	1	753	2	2	2040	53	351482	-54	0																76												
WM080112	366446_fnca	2	1	1	-351239716	1	75.031	75.031	2.0.10.147	2.0.10.242	2.0.10.242	1.0.0.439	7	234	2	3	Verdana	1	80	0	0	0	WM Stimuli\	0.8	1170	0.7	1388.57142857143	1	1261.8	0.9	1120	1	1020.3	0.5	846	0.9	1007.22222222222	0.7	977.285714285714	13	408019	2	408007	27	40	408046	-999999	408022	0	39	TrialsPROC	FC_022_F11.png	2	2	77	SessionSelectionList														nonlure	3	Face	0-Back	67	80	63	0	0	73	1	39	354041	1	13	73	352002	-1	353188	1	1186	3	3	2039	52	354054	-53	0																77												
WM080112	366446_fnca	2	1	1	-351239716	1	75.031	75.031	2.0.10.147	2.0.10.242	2.0.10.242	1.0.0.439	7	234	2	3	Verdana	1	80	0	0	0	WM Stimuli\	0.8	1170	0.7	1388.57142857143	1	1261.8	0.9	1120	1	1020.3	0.5	846	0.9	1007.22222222222	0.7	977.285714285714	13	408019	2	408007	27	40	408046	-999999	408022	0	39	TrialsPROC	FC_023_M12.png	2	2	78	SessionSelectionList														lure	3	Face	0-Back	68	80	64	0	0	74	2	39	356613	2	14	72	354574	-1	355329	1	755	3	3	2039	53	356627	-54	0																78												
WM080112	366446_fnca	2	1	1	-351239716	1	75.031	75.031	2.0.10.147	2.0.10.242	2.0.10.242	1.0.0.439	7	234	2	3	Verdana	1	80	0	0	0	WM Stimuli\	0.8	1170	0.7	1388.57142857143	1	1261.8	0.9	1120	1	1020.3	0.5	846	0.9	1007.22222222222	0.7	977.285714285714	13	408019	2	408007	27	40	408046	-999999	408022	0	39	TrialsPROC	FC_021_M11.png	2	2	79	SessionSelectionList														nonlure	3	Face	0-Back	69	80	65	0	0	75	3	39	359185	2	14	72	357146	-1	358413	1	1267	3	3	2039	53	359199	-54	0																79												
WM080112	366446_fnca	2	1	1	-351239716	1	75.031	75.031	2.0.10.147	2.0.10.242	2.0.10.242	1.0.0.439	7	234	2	3	Verdana	1	80	0	0	0	WM Stimuli\	0.8	1170	0.7	1388.57142857143	1	1261.8	0.9	1120	1	1020.3	0.5	846	0.9	1007.22222222222	0.7	977.285714285714	13	408019	2	408007	27	40	408046	-999999	408022	0	39	TrialsPROC	FC_021_M11.png	2	2	80	SessionSelectionList														lure	3	Face	0-Back	70	80	66	0	0	76	4	39	361758	1	13	73	359719	-1	361232	1	1513	3	3	2039	52	361771	-53	0																80												
WM080112	366446_fnca	2	1	1	-351239716	1	75.031	75.031	2.0.10.147	2.0.10.242	2.0.10.242	1.0.0.439	7	234	2	3	Verdana	1	80	0	0	0	WM Stimuli\	0.8	1170	0.7	1388.57142857143	1	1261.8	0.9	1120	1	1020.3	0.5	846	0.9	1007.22222222222	0.7	977.285714285714	13	408019	2	408007	27	40	408046	-999999	408022	0	39	TrialsPROC	FC_019_M10.png	2	2	81	SessionSelectionList														nonlure	3	Face	0-Back	71	80	67	0	0	77	5	39	364330	1	13	72	362291	-1	363545	1	1254	3	3	2039	52	364343	-53	0																81												
WM080112	366446_fnca	2	1	1	-351239716	1	75.031	75.031	2.0.10.147	2.0.10.242	2.0.10.242	1.0.0.439	7	234	2	3	Verdana	1	80	0	0	0	WM Stimuli\	0.8	1170	0.7	1388.57142857143	1	1261.8	0.9	1120	1	1020.3	0.5	846	0.9	1007.22222222222	0.7	977.285714285714	13	408019	2	408007	27	40	408046	-999999	408022	0	40	Cue0BackPROC	PL_021_SCENE_07.png	2	2	82	SessionSelectionList																																										19	364810	-20	0												82												
WM080112	366446_fnca	2	1	1	-351239716	1	75.031	75.031	2.0.10.147	2.0.10.242	2.0.10.242	1.0.0.439	7	234	2	3	Verdana	1	80	0	0	0	WM Stimuli\	0.8	1170	0.7	1388.57142857143	1	1261.8	0.9	1120	1	1020.3	0.5	846	0.9	1007.22222222222	0.7	977.285714285714	13	408019	2	408007	27	40	408046	-999999	408022	0	41	TrialsPROC	PL_025_SCENE_18.png	2	2	83	SessionSelectionList														nonlure	3	Place	0-Back	72	80	67	0	1	74	5	40	369395	1	13	64	367355	-1	0	0	0	""	3	2040	53	369408	-54	0																83												
WM080112	366446_fnca	2	1	1	-351239716	1	75.031	75.031	2.0.10.147	2.0.10.242	2.0.10.242	1.0.0.439	7	234	2	3	Verdana	1	80	0	0	0	WM Stimuli\	0.8	1170	0.7	1388.57142857143	1	1261.8	0.9	1120	1	1020.3	0.5	846	0.9	1007.22222222222	0.7	977.285714285714	13	408019	2	408007	27	40	408046	-999999	408022	0	41	TrialsPROC	PL_026_SCENE_24.png	2	2	84	SessionSelectionList														nonlure	3	Place	0-Back	73	80	68	0	0	75	1	39	371967	1	13	73	369928	-1	370997	1	1069	3	3	2039	52	371980	-53	0																84												
WM080112	366446_fnca	2	1	1	-351239716	1	75.031	75.031	2.0.10.147	2.0.10.242	2.0.10.242	1.0.0.439	7	234	2	3	Verdana	1	80	0	0	0	WM Stimuli\	0.8	1170	0.7	1388.57142857143	1	1261.8	0.9	1120	1	1020.3	0.5	846	0.9	1007.22222222222	0.7	977.285714285714	13	408019	2	408007	27	40	408046	-999999	408022	0	41	TrialsPROC	PL_025_SCENE_18.png	2	2	85	SessionSelectionList														lure	3	Place	0-Back	74	80	69	0	0	73	1	39	374539	2	14	72	372500	-1	373518	0	1018	2	3	2039	53	374553	-54	0																85												
WM080112	366446_fnca	2	1	1	-351239716	1	75.031	75.031	2.0.10.147	2.0.10.242	2.0.10.242	1.0.0.439	7	234	2	3	Verdana	1	80	0	0	0	WM Stimuli\	0.8	1170	0.7	1388.57142857143	1	1261.8	0.9	1120	1	1020.3	0.5	846	0.9	1007.22222222222	0.7	977.285714285714	13	408019	2	408007	27	40	408046	-999999	408022	0	41	TrialsPROC	PL_022_SCENE_08.png	2	2	86	SessionSelectionList														nonlure	3	Place	0-Back	75	80	70	0	0	71	2	39	377111	2	14	72	375072	-1	376615	0	1543	2	3	2039	53	377125	-54	0																86												
WM080112	366446_fnca	2	1	1	-351239716	1	75.031	75.031	2.0.10.147	2.0.10.242	2.0.10.242	1.0.0.439	7	234	2	3	Verdana	1	80	0	0	0	WM Stimuli\	0.8	1170	0.7	1388.57142857143	1	1261.8	0.9	1120	1	1020.3	0.5	846	0.9	1007.22222222222	0.7	977.285714285714	13	408019	2	408007	27	40	408046	-999999	408022	0	41	TrialsPROC	PL_026_SCENE_24.png	2	2	87	SessionSelectionList														lure	3	Place	0-Back	76	80	71	0	0	71	1	39	379684	1	13	73	377645	-1	378794	1	1149	3	3	2039	52	379697	-53	0																87												
WM080112	366446_fnca	2	1	1	-351239716	1	75.031	75.031	2.0.10.147	2.0.10.242	2.0.10.242	1.0.0.439	7	234	2	3	Verdana	1	80	0	0	0	WM Stimuli\	0.8	1170	0.7	1388.57142857143	1	1261.8	0.9	1120	1	1020.3	0.5	846	0.9	1007.22222222222	0.7	977.285714285714	13	408019	2	408007	27	40	408046	-999999	408022	0	41	TrialsPROC	PL_021_SCENE_07.png	2	2	88	SessionSelectionList														target	2	Place	0-Back	77	80	72	0	0	69	2	39	382256	1	13	72	380217	-1	381314	0	1097	3	2	2039	52	382269	-53	0																88												
WM080112	366446_fnca	2	1	1	-351239716	1	75.031	75.031	2.0.10.147	2.0.10.242	2.0.10.242	1.0.0.439	7	234	2	3	Verdana	1	80	0	0	0	WM Stimuli\	0.8	1170	0.7	1388.57142857143	1	1261.8	0.9	1120	1	1020.3	0.5	846	0.9	1007.22222222222	0.7	977.285714285714	13	408019	2	408007	27	40	408046	-999999	408022	0	41	TrialsPROC	PL_021_SCENE_07.png	2	2	89	SessionSelectionList														target	2	Place	0-Back	78	80	73	0	0	70	1	39	384828	2	14	72	382789	-1	383716	1	927	2	2	2039	53	384842	-54	0																89												
WM080112	366446_fnca	2	1	1	-351239716	1	75.031	75.031	2.0.10.147	2.0.10.242	2.0.10.242	1.0.0.439	7	234	2	3	Verdana	1	80	0	0	0	WM Stimuli\	0.8	1170	0.7	1388.57142857143	1	1261.8	0.9	1120	1	1020.3	0.5	846	0.9	1007.22222222222	0.7	977.285714285714	13	408019	2	408007	27	40	408046	-999999	408022	0	41	TrialsPROC	PL_023_SCENE_09.png	2	2	90	SessionSelectionList														nonlure	3	Place	0-Back	79	80	74	0	0	71	1	40	387401	1	13	72	385361	-1	386039	1	678	3	3	2040	53	387414	-54	0																90												
WM080112	366446_fnca	2	1	1	-351239716	1	75.031	75.031	2.0.10.147	2.0.10.242	2.0.10.242	1.0.0.439	7	234	2	3	Verdana	1	80	0	0	0	WM Stimuli\	0.8	1170	0.7	1388.57142857143	1	1261.8	0.9	1120	1	1020.3	0.5	846	0.9	1007.22222222222	0.7	977.285714285714	13	408019	2	408007	27	40	408046	-999999	408022	0	41	TrialsPROC	PL_024_SCENE_10.png	2	2	91	SessionSelectionList														nonlure	3	Place	0-Back	80	80	75	0	0	72	2	39	389973	1	13	73	387934	-1	388341	1	407	3	3	2039	52	389986	-53	0																91												
WM080112	366446_fnca	2	1	1	-351239716	1	75.031	75.031	2.0.10.147	2.0.10.242	2.0.10.242	1.0.0.439	7	234	2	3	Verdana	1	80	0	0	0	WM Stimuli\	0.8	1170	0.7	1388.57142857143	1	1261.8	0.9	1120	1	1020.3	0.5	846	0.9	1007.22222222222	0.7	977.285714285714	13	408019	2	408007	27	40	408046	-999999	408022	0	41	TrialsPROC	PL_022_SCENE_08.png	2	2	92	SessionSelectionList														lure	3	Place	0-Back	80	80	76	0	0	70	1	39	392545	2	14	72	390506	-1	391548	0	1042	2	3	2039	53	392559	-54	0																92												
WM080112	366446_fnca	2	1	1	-351239716	1	75.031	75.031	2.0.10.147	2.0.10.242	2.0.10.242	1.0.0.439	7	234	2	3	Verdana	1	80	0	0	0	WM Stimuli\	0.8	1170	0.7	1388.57142857143	1	1261.8	0.9	1120	1	1020.3	0.5	846	0.9	1007.22222222222	0.7	977.285714285714	13	408019	2	408007	27	40	408046	-999999	408022	0	42	Fix15secPROC	""	2	2	93	SessionSelectionList																																															6	393012	-7	0							93												
