ExperimentName	HCPID	RunNumber	Subject	Session	RandomSeed	Group	Laptop.RefreshRate	ScannerD2.RefreshRate	StudioVersion	RuntimeVersion	RuntimeVersionExpected	ExperimentVersion	triggercode	Allowed	Target	Nontarget	FontStyle	RunTrialNumber[Session]	TrialsPerRun[Session]	TotalRespGreater200[Session]	ConsecRTLess200[Session]	ConsecNonResp[Session]	StimuliDir	ACC_2_Back_Body	Avg_RT_For_Correct_Trials_2_Back_Body	ACC_0_Back_Body	Avg_RT_For_Correct_Trials_0_Back_Body	ACC_2_Back_Face	Avg_RT_For_Correct_Trials_2_Back_Face	ACC_0_Back_Face	Avg_RT_For_Correct_Trials_0_Back_Face	ACC_2_Back_Place	Avg_RT_For_Correct_Trials_2_Back_Place	ACC_0_Back_Place	Avg_RT_For_Correct_Trials_0_Back_Place	ACC_2_Back_Tools	Avg_RT_For_Correct_Trials_2_Back_Tools	ACC_0_Back_Tools	Avg_RT_For_Correct_Trials_0_Back_Tools	ExpInstrucFeelFreeToRest.OnsetDelay	ExpInstrucFeelFreeToRest.OnsetTime	ExpInstrucFeelFreeToRest.DurationError	ExpInstrucFeelFreeToRest.StartTime	ExpInstrucFeelFreeToRest.OnsetToOnsetTime	FeelFreeToRest.OnsetDelay	FeelFreeToRest.OnsetTime	FeelFreeToRest.DurationError	FeelFreeToRest.StartTime	FeelFreeToRest.OnsetToOnsetTime	SessionSelectionList	Procedure[Block]	Stimulus[Block]	RunNumberFilterValue	SessionSelectionList.Cycle	SessionSelectionList.Sample	Running[Block]	IntroButtonMap.OnsetDelay	IntroButtonMap.OnsetTime	IntroButtonMap.DurationError	IntroButtonMap.OnsetToOnsetTime	GetReady.OnsetDelay	GetReady.OnsetTime	GetReady.DurationError	GetReady.OnsetToOnsetTime	Cue2Back.OnsetDelay	Cue2Back.OnsetTime	Cue2Back.DurationError	Cue2Back.OnsetToOnsetTime	Run1Block1	TargetType	CorrectResponse	StimType	BlockType	RunTrialNumber[Block]	TrialsPerRun[Block]	TotalRespGreater200[Block]	ConsecRTLess200[Block]	ConsecNonResp[Block]	ControlAcc	ConsecSameResp	ExperimenterWindow.OnsetDelay	ExperimenterWindow.OnsetTime	ExperimenterWindow.DurationError	ExperimenterWindow.OnsetToOnsetTime	Stim.OnsetDelay	Stim.OnsetTime	Stim.DurationError	Stim.RTTime	Stim.ACC	Stim.RT	Stim.RESP	Stim.CRESP	Stim.OnsetToOnsetTime	Fix.OnsetDelay	Fix.OnsetTime	Fix.DurationError	Fix.OnsetToOnsetTime	CueTarget.OnsetDelay	CueTarget.OnsetTime	CueTarget.DurationError	CueTarget.OnsetToOnsetTime	Run1Block2	Fix15sec.OnsetDelay	Fix15sec.OnsetTime	Fix15sec.DurationError	Fix15sec.OnsetToOnsetTime	Run1Block3	Run1Block4	Run1Block5	Run1Block6	Run1Block7	Run1Block8	Block	Procedure[Trial]	Stimulus[Trial]	ReadyList	Running[Trial]	ReadyList.Cycle	ReadyList.Sample	SyncSlide.OnsetDelay	SyncSlide.OnsetTime	SyncSlide.DurationError	SyncSlide.FinishTime	SyncSlide.OnsetToOnsetTime	Trial
WM080112	366446_fnca	1	1	1	-1519994661	1	75.032	75.031	2.0.10.147	2.0.10.242	2.0.10.242	1.0.0.439	7	234	2	3	Verdana	1	80	0	0	0	WM Stimuli\	0.7	1325.85714285714	0.7	1178.85714285714	0.8	1237	0.8	1319	0.7	891.571428571429	0.9	993.222222222222	0.9	1191.77777777778	0.7	1450.57142857143	13	373099	2	373087	26	39	373125	-999999	373101	0	1	TRSyncPROC	""	1	2	1	SessionSelectionList	99	14312	-999999	0	30	66331	-999999	0																																																	1	InitialTR	4	1	ReadyList	1	1	18	79819	-19	81800	0	1
WM080112	366446_fnca	1	1	1	-1519994661	1	75.032	75.031	2.0.10.147	2.0.10.242	2.0.10.242	1.0.0.439	7	234	2	3	Verdana	1	80	0	0	0	WM Stimuli\	0.7	1325.85714285714	0.7	1178.85714285714	0.8	1237	0.8	1319	0.7	891.571428571429	0.9	993.222222222222	0.9	1191.77777777778	0.7	1450.57142857143	13	373099	2	373087	26	39	373125	-999999	373101	0	1	TRSyncPROC	""	1	2	1	SessionSelectionList	99	14312	-999999	0	30	66331	-999999	0																																																	1	InitialTR	3	2	ReadyList	1	2	17	81818	-18	83800	0	2
WM080112	366446_fnca	1	1	1	-1519994661	1	75.032	75.031	2.0.10.147	2.0.10.242	2.0.10.242	1.0.0.439	7	234	2	3	Verdana	1	80	0	0	0	WM Stimuli\	0.7	1325.85714285714	0.7	1178.85714285714	0.8	1237	0.8	1319	0.7	891.571428571429	0.9	993.222222222222	0.9	1191.77777777778	0.7	1450.57142857143	13	373099	2	373087	26	39	373125	-999999	373101	0	1	TRSyncPROC	""	1	2	1	SessionSelectionList	99	14312	-999999	0	30	66331	-999999	0																																																	1	InitialTR	2	3	ReadyList	1	3	3	83804	-4	85800	0	3
WM080112	366446_fnca	1	1	1	-1519994661	1	75.032	75.031	2.0.10.147	2.0.10.242	2.0.10.242	1.0.0.439	7	234	2	3	Verdana	1	80	0	0	0	WM Stimuli\	0.7	1325.85714285714	0.7	1178.85714285714	0.8	1237	0.8	1319	0.7	891.571428571429	0.9	993.222222222222	0.9	1191.77777777778	0.7	1450.57142857143	13	373099	2	373087	26	39	373125	-999999	373101	0	1	TRSyncPROC	""	1	2	1	SessionSelectionList	99	14312	-999999	0	30	66331	-999999	0																																																	1	InitialTR	1	4	ReadyList	1	4	15	85816	-16	87800	0	4
WM080112	366446_fnca	1	1	1	-1519994661	1	75.032	75.031	2.0.10.147	2.0.10.242	2.0.10.242	1.0.0.439	7	234	2	3	Verdana	1	80	0	0	0	WM Stimuli\	0.7	1325.85714285714	0.7	1178.85714285714	0.8	1237	0.8	1319	0.7	891.571428571429	0.9	993.222222222222	0.9	1191.77777777778	0.7	1450.57142857143	13	373099	2	373087	26	39	373125	-999999	373101	0	2	Cue2BackPROC	""	1	2	2	SessionSelectionList									15	87816	-16	0																																													2												
WM080112	366446_fnca	1	1	1	-1519994661	1	75.032	75.031	2.0.10.147	2.0.10.242	2.0.10.242	1.0.0.439	7	234	2	3	Verdana	1	80	0	0	0	WM Stimuli\	0.7	1325.85714285714	0.7	1178.85714285714	0.8	1237	0.8	1319	0.7	891.571428571429	0.9	993.222222222222	0.9	1191.77777777778	0.7	1450.57142857143	13	373099	2	373087	26	39	373125	-999999	373101	0	3	TrialsPROC	BP_002_BP10_BA.png	1	2	3	SessionSelectionList													1	nonlure	3	Body	2-Back	2	80	1	0	0	0	1	52	92427	3	13	74	90375	-1	91972	1	1597	3	3	2052	65	92440	-66	0																3												
WM080112	366446_fnca	1	1	1	-1519994661	1	75.032	75.031	2.0.10.147	2.0.10.242	2.0.10.242	1.0.0.439	7	234	2	3	Verdana	1	80	0	0	0	WM Stimuli\	0.7	1325.85714285714	0.7	1178.85714285714	0.8	1237	0.8	1319	0.7	891.571428571429	0.9	993.222222222222	0.9	1191.77777777778	0.7	1450.57142857143	13	373099	2	373087	26	39	373125	-999999	373101	0	3	TrialsPROC	BP_001_BP1_BA.png	1	2	4	SessionSelectionList													2	nonlure	3	Body	2-Back	3	80	2	0	0	0	2	39	94986	2	13	72	92947	-1	93940	1	993	3	3	2039	52	94999	-53	0																4												
WM080112	366446_fnca	1	1	1	-1519994661	1	75.032	75.031	2.0.10.147	2.0.10.242	2.0.10.242	1.0.0.439	7	234	2	3	Verdana	1	80	0	0	0	WM Stimuli\	0.7	1325.85714285714	0.7	1178.85714285714	0.8	1237	0.8	1319	0.7	891.571428571429	0.9	993.222222222222	0.9	1191.77777777778	0.7	1450.57142857143	13	373099	2	373087	26	39	373125	-999999	373101	0	3	TrialsPROC	BP_006_BP2_BA.png	1	2	5	SessionSelectionList													3	nonlure	3	Body	2-Back	4	80	3	0	0	0	3	39	97545	2	13	59	95506	-1	96511	1	1005	3	3	2039	52	97558	-53	0																5												
WM080112	366446_fnca	1	1	1	-1519994661	1	75.032	75.031	2.0.10.147	2.0.10.242	2.0.10.242	1.0.0.439	7	234	2	3	Verdana	1	80	0	0	0	WM Stimuli\	0.7	1325.85714285714	0.7	1178.85714285714	0.8	1237	0.8	1319	0.7	891.571428571429	0.9	993.222222222222	0.9	1191.77777777778	0.7	1450.57142857143	13	373099	2	373087	26	39	373125	-999999	373101	0	3	TrialsPROC	BP_001_BP1_BA.png	1	2	6	SessionSelectionList													4	target	2	Body	2-Back	5	80	4	0	0	0	1	39	100117	2	14	72	98078	-1	99430	1	1352	2	2	2039	53	100131	-54	0																6												
WM080112	366446_fnca	1	1	1	-1519994661	1	75.032	75.031	2.0.10.147	2.0.10.242	2.0.10.242	1.0.0.439	7	234	2	3	Verdana	1	80	0	0	0	WM Stimuli\	0.7	1325.85714285714	0.7	1178.85714285714	0.8	1237	0.8	1319	0.7	891.571428571429	0.9	993.222222222222	0.9	1191.77777777778	0.7	1450.57142857143	13	373099	2	373087	26	39	373125	-999999	373101	0	3	TrialsPROC	BP_005_BP19_BA.png	1	2	7	SessionSelectionList													5	nonlure	3	Body	2-Back	6	80	5	0	0	0	1	39	102689	3	14	72	100650	-1	102128	1	1478	3	3	2039	53	102703	-54	0																7												
WM080112	366446_fnca	1	1	1	-1519994661	1	75.032	75.031	2.0.10.147	2.0.10.242	2.0.10.242	1.0.0.439	7	234	2	3	Verdana	1	80	0	0	0	WM Stimuli\	0.7	1325.85714285714	0.7	1178.85714285714	0.8	1237	0.8	1319	0.7	891.571428571429	0.9	993.222222222222	0.9	1191.77777777778	0.7	1450.57142857143	13	373099	2	373087	26	39	373125	-999999	373101	0	3	TrialsPROC	BP_003_BP16_BA.png	1	2	8	SessionSelectionList													6	nonlure	3	Body	2-Back	7	80	6	0	0	0	2	39	105248	2	14	59	103209	-1	104613	1	1404	3	3	2039	53	105262	-54	0																8												
WM080112	366446_fnca	1	1	1	-1519994661	1	75.032	75.031	2.0.10.147	2.0.10.242	2.0.10.242	1.0.0.439	7	234	2	3	Verdana	1	80	0	0	0	WM Stimuli\	0.7	1325.85714285714	0.7	1178.85714285714	0.8	1237	0.8	1319	0.7	891.571428571429	0.9	993.222222222222	0.9	1191.77777777778	0.7	1450.57142857143	13	373099	2	373087	26	39	373125	-999999	373101	0	3	TrialsPROC	BP_006_BP2_BA.png	1	2	9	SessionSelectionList													7	lure	3	Body	2-Back	8	80	7	0	0	0	1	39	107807	3	14	59	105768	-1	107355	0	1587	2	3	2039	53	107821	-54	0																9												
WM080112	366446_fnca	1	1	1	-1519994661	1	75.032	75.031	2.0.10.147	2.0.10.242	2.0.10.242	1.0.0.439	7	234	2	3	Verdana	1	80	0	0	0	WM Stimuli\	0.7	1325.85714285714	0.7	1178.85714285714	0.8	1237	0.8	1319	0.7	891.571428571429	0.9	993.222222222222	0.9	1191.77777777778	0.7	1450.57142857143	13	373099	2	373087	26	39	373125	-999999	373101	0	3	TrialsPROC	BP_004_BP18_BA.png	1	2	10	SessionSelectionList													8	nonlure	3	Body	2-Back	9	80	8	0	0	0	1	39	110366	2	14	59	108327	-1	109779	1	1452	3	3	2039	53	110380	-54	0																10												
WM080112	366446_fnca	1	1	1	-1519994661	1	75.032	75.031	2.0.10.147	2.0.10.242	2.0.10.242	1.0.0.439	7	234	2	3	Verdana	1	80	0	0	0	WM Stimuli\	0.7	1325.85714285714	0.7	1178.85714285714	0.8	1237	0.8	1319	0.7	891.571428571429	0.9	993.222222222222	0.9	1191.77777777778	0.7	1450.57142857143	13	373099	2	373087	26	39	373125	-999999	373101	0	3	TrialsPROC	BP_005_BP19_BA.png	1	2	11	SessionSelectionList													9	lure	3	Body	2-Back	10	80	8	0	1	0	1	39	112925	3	14	59	110886	-1	0	0	0	""	3	2039	53	112939	-54	0																11												
WM080112	366446_fnca	1	1	1	-1519994661	1	75.032	75.031	2.0.10.147	2.0.10.242	2.0.10.242	1.0.0.439	7	234	2	3	Verdana	1	80	0	0	0	WM Stimuli\	0.7	1325.85714285714	0.7	1178.85714285714	0.8	1237	0.8	1319	0.7	891.571428571429	0.9	993.222222222222	0.9	1191.77777777778	0.7	1450.57142857143	13	373099	2	373087	26	39	373125	-999999	373101	0	3	TrialsPROC	BP_004_BP18_BA.png	1	2	12	SessionSelectionList													10	target	2	Body	2-Back	11	80	9	0	0	0	1	39	115484	3	14	59	113445	-1	115429	0	1984	3	2	2039	53	115498	-54	0																12												
WM080112	366446_fnca	1	1	1	-1519994661	1	75.032	75.031	2.0.10.147	2.0.10.242	2.0.10.242	1.0.0.439	7	234	2	3	Verdana	1	80	0	0	0	WM Stimuli\	0.7	1325.85714285714	0.7	1178.85714285714	0.8	1237	0.8	1319	0.7	891.571428571429	0.9	993.222222222222	0.9	1191.77777777778	0.7	1450.57142857143	13	373099	2	373087	26	39	373125	-999999	373101	0	4	Cue0BackPROC	FC_001_M1.png	1	2	13	SessionSelectionList																																										19	115964	-20	0												13												
WM080112	366446_fnca	1	1	1	-1519994661	1	75.032	75.031	2.0.10.147	2.0.10.242	2.0.10.242	1.0.0.439	7	234	2	3	Verdana	1	80	0	0	0	WM Stimuli\	0.7	1325.85714285714	0.7	1178.85714285714	0.8	1237	0.8	1319	0.7	891.571428571429	0.9	993.222222222222	0.9	1191.77777777778	0.7	1450.57142857143	13	373099	2	373087	26	39	373125	-999999	373101	0	5	TrialsPROC	FC_005_M3.png	1	2	14	SessionSelectionList														nonlure	3	Face	0-Back	12	80	10	0	0	100	2	39	120549	2	13	65	118510	-1	119728	1	1218	3	3	2039	52	120562	-53	0					1											14												
WM080112	366446_fnca	1	1	1	-1519994661	1	75.032	75.031	2.0.10.147	2.0.10.242	2.0.10.242	1.0.0.439	7	234	2	3	Verdana	1	80	0	0	0	WM Stimuli\	0.7	1325.85714285714	0.7	1178.85714285714	0.8	1237	0.8	1319	0.7	891.571428571429	0.9	993.222222222222	0.9	1191.77777777778	0.7	1450.57142857143	13	373099	2	373087	26	39	373125	-999999	373101	0	5	TrialsPROC	FC_001_M1.png	1	2	15	SessionSelectionList														target	2	Face	0-Back	13	80	11	0	0	100	1	39	123121	1	14	72	121082	-1	121945	1	863	2	2	2039	53	123135	-54	0					2											15												
WM080112	366446_fnca	1	1	1	-1519994661	1	75.032	75.031	2.0.10.147	2.0.10.242	2.0.10.242	1.0.0.439	7	234	2	3	Verdana	1	80	0	0	0	WM Stimuli\	0.7	1325.85714285714	0.7	1178.85714285714	0.8	1237	0.8	1319	0.7	891.571428571429	0.9	993.222222222222	0.9	1191.77777777778	0.7	1450.57142857143	13	373099	2	373087	26	39	373125	-999999	373101	0	5	TrialsPROC	FC_003_M2.png	1	2	16	SessionSelectionList														nonlure	3	Face	0-Back	14	80	12	0	0	100	1	39	125693	3	14	72	123654	-1	125550	1	1896	3	3	2039	53	125707	-54	0					3											16												
WM080112	366446_fnca	1	1	1	-1519994661	1	75.032	75.031	2.0.10.147	2.0.10.242	2.0.10.242	1.0.0.439	7	234	2	3	Verdana	1	80	0	0	0	WM Stimuli\	0.7	1325.85714285714	0.7	1178.85714285714	0.8	1237	0.8	1319	0.7	891.571428571429	0.9	993.222222222222	0.9	1191.77777777778	0.7	1450.57142857143	13	373099	2	373087	26	39	373125	-999999	373101	0	5	TrialsPROC	FC_004_F2.png	1	2	17	SessionSelectionList														nonlure	3	Face	0-Back	15	80	13	0	0	100	2	40	128266	2	13	72	126226	-1	127535	1	1309	3	3	2040	53	128279	-54	0					4											17												
WM080112	366446_fnca	1	1	1	-1519994661	1	75.032	75.031	2.0.10.147	2.0.10.242	2.0.10.242	1.0.0.439	7	234	2	3	Verdana	1	80	0	0	0	WM Stimuli\	0.7	1325.85714285714	0.7	1178.85714285714	0.8	1237	0.8	1319	0.7	891.571428571429	0.9	993.222222222222	0.9	1191.77777777778	0.7	1450.57142857143	13	373099	2	373087	26	39	373125	-999999	373101	0	5	TrialsPROC	FC_004_F2.png	1	2	18	SessionSelectionList														lure	3	Face	0-Back	16	80	13	0	1	80	2	39	130838	2	13	73	128799	-1	0	0	0	""	3	2039	52	130851	-53	0					5											18												
WM080112	366446_fnca	1	1	1	-1519994661	1	75.032	75.031	2.0.10.147	2.0.10.242	2.0.10.242	1.0.0.439	7	234	2	3	Verdana	1	80	0	0	0	WM Stimuli\	0.7	1325.85714285714	0.7	1178.85714285714	0.8	1237	0.8	1319	0.7	891.571428571429	0.9	993.222222222222	0.9	1191.77777777778	0.7	1450.57142857143	13	373099	2	373087	26	39	373125	-999999	373101	0	5	TrialsPROC	FC_001_M1.png	1	2	19	SessionSelectionList														target	2	Face	0-Back	17	80	14	0	0	83	1	39	133410	2	14	72	131371	-1	132428	1	1057	2	2	2039	53	133424	-54	0					6											19												
WM080112	366446_fnca	1	1	1	-1519994661	1	75.032	75.031	2.0.10.147	2.0.10.242	2.0.10.242	1.0.0.439	7	234	2	3	Verdana	1	80	0	0	0	WM Stimuli\	0.7	1325.85714285714	0.7	1178.85714285714	0.8	1237	0.8	1319	0.7	891.571428571429	0.9	993.222222222222	0.9	1191.77777777778	0.7	1450.57142857143	13	373099	2	373087	26	39	373125	-999999	373101	0	5	TrialsPROC	FC_006_F3.png	1	2	20	SessionSelectionList														nonlure	3	Face	0-Back	18	80	15	0	0	86	1	39	135982	2	14	72	133943	-1	135487	1	1544	3	3	2039	53	135996	-54	0					7											20												
WM080112	366446_fnca	1	1	1	-1519994661	1	75.032	75.031	2.0.10.147	2.0.10.242	2.0.10.242	1.0.0.439	7	234	2	3	Verdana	1	80	0	0	0	WM Stimuli\	0.7	1325.85714285714	0.7	1178.85714285714	0.8	1237	0.8	1319	0.7	891.571428571429	0.9	993.222222222222	0.9	1191.77777777778	0.7	1450.57142857143	13	373099	2	373087	26	39	373125	-999999	373101	0	5	TrialsPROC	FC_006_F3.png	1	2	21	SessionSelectionList														lure	3	Face	0-Back	19	80	16	0	0	75	1	39	138555	1	13	73	136516	-1	137733	0	1217	2	3	2039	52	138568	-53	0					8											21												
WM080112	366446_fnca	1	1	1	-1519994661	1	75.032	75.031	2.0.10.147	2.0.10.242	2.0.10.242	1.0.0.439	7	234	2	3	Verdana	1	80	0	0	0	WM Stimuli\	0.7	1325.85714285714	0.7	1178.85714285714	0.8	1237	0.8	1319	0.7	891.571428571429	0.9	993.222222222222	0.9	1191.77777777778	0.7	1450.57142857143	13	373099	2	373087	26	39	373125	-999999	373101	0	5	TrialsPROC	FC_003_M2.png	1	2	22	SessionSelectionList														lure	3	Face	0-Back	20	80	17	0	0	78	1	39	141127	3	13	72	139088	-1	140869	1	1781	3	3	2039	52	141140	-53	0					9											22												
WM080112	366446_fnca	1	1	1	-1519994661	1	75.032	75.031	2.0.10.147	2.0.10.242	2.0.10.242	1.0.0.439	7	234	2	3	Verdana	1	80	0	0	0	WM Stimuli\	0.7	1325.85714285714	0.7	1178.85714285714	0.8	1237	0.8	1319	0.7	891.571428571429	0.9	993.222222222222	0.9	1191.77777777778	0.7	1450.57142857143	13	373099	2	373087	26	39	373125	-999999	373101	0	5	TrialsPROC	FC_002_F1.png	1	2	23	SessionSelectionList														nonlure	3	Face	0-Back	21	80	18	0	0	80	2	39	143699	2	14	72	141660	-1	142544	1	884	3	3	2039	53	143713	-54	0					10											23												
WM080112	366446_fnca	1	1	1	-1519994661	1	75.032	75.031	2.0.10.147	2.0.10.242	2.0.10.242	1.0.0.439	7	234	2	3	Verdana	1	80	0	0	0	WM Stimuli\	0.7	1325.85714285714	0.7	1178.85714285714	0.8	1237	0.8	1319	0.7	891.571428571429	0.9	993.222222222222	0.9	1191.77777777778	0.7	1450.57142857143	13	373099	2	373087	26	39	373125	-999999	373101	0	6	Fix15secPROC	""	1	2	24	SessionSelectionList																																															6	144166	-7	0							24												
WM080112	366446_fnca	1	1	1	-1519994661	1	75.032	75.031	2.0.10.147	2.0.10.242	2.0.10.242	1.0.0.439	7	234	2	3	Verdana	1	80	0	0	0	WM Stimuli\	0.7	1325.85714285714	0.7	1178.85714285714	0.8	1237	0.8	1319	0.7	891.571428571429	0.9	993.222222222222	0.9	1191.77777777778	0.7	1450.57142857143	13	373099	2	373087	26	39	373125	-999999	373101	0	7	Cue2BackPROC	""	1	2	25	SessionSelectionList									13	159173	-14	0																																													25												
WM080112	366446_fnca	1	1	1	-1519994661	1	75.032	75.031	2.0.10.147	2.0.10.242	2.0.10.242	1.0.0.439	7	234	2	3	Verdana	1	80	0	0	0	WM Stimuli\	0.7	1325.85714285714	0.7	1178.85714285714	0.8	1237	0.8	1319	0.7	891.571428571429	0.9	993.222222222222	0.9	1191.77777777778	0.7	1450.57142857143	13	373099	2	373087	26	39	373125	-999999	373101	0	8	TrialsPROC	TO_001_TOOL1_BA.png	1	2	26	SessionSelectionList														nonlure	3	Tools	2-Back	22	80	19	0	0	80	3	39	163758	2	13	59	161719	-1	163341	1	1622	3	3	2039	52	163771	-53	0										1						26												
WM080112	366446_fnca	1	1	1	-1519994661	1	75.032	75.031	2.0.10.147	2.0.10.242	2.0.10.242	1.0.0.439	7	234	2	3	Verdana	1	80	0	0	0	WM Stimuli\	0.7	1325.85714285714	0.7	1178.85714285714	0.8	1237	0.8	1319	0.7	891.571428571429	0.9	993.222222222222	0.9	1191.77777777778	0.7	1450.57142857143	13	373099	2	373087	26	39	373125	-999999	373101	0	8	TrialsPROC	TO_002_TOOL2_BA.png	1	2	27	SessionSelectionList														nonlure	3	Tools	2-Back	23	80	20	0	0	80	4	39	166317	1	13	59	164278	-1	165966	1	1688	3	3	2039	52	166330	-53	0										2						27												
WM080112	366446_fnca	1	1	1	-1519994661	1	75.032	75.031	2.0.10.147	2.0.10.242	2.0.10.242	1.0.0.439	7	234	2	3	Verdana	1	80	0	0	0	WM Stimuli\	0.7	1325.85714285714	0.7	1178.85714285714	0.8	1237	0.8	1319	0.7	891.571428571429	0.9	993.222222222222	0.9	1191.77777777778	0.7	1450.57142857143	13	373099	2	373087	26	39	373125	-999999	373101	0	8	TrialsPROC	TO_004_TOOL4_BA.png	1	2	28	SessionSelectionList														nonlure	3	Tools	2-Back	24	80	21	0	0	80	5	39	168876	2	13	59	166837	-1	167638	1	801	3	3	2039	52	168889	-53	0										3						28												
WM080112	366446_fnca	1	1	1	-1519994661	1	75.032	75.031	2.0.10.147	2.0.10.242	2.0.10.242	1.0.0.439	7	234	2	3	Verdana	1	80	0	0	0	WM Stimuli\	0.7	1325.85714285714	0.7	1178.85714285714	0.8	1237	0.8	1319	0.7	891.571428571429	0.9	993.222222222222	0.9	1191.77777777778	0.7	1450.57142857143	13	373099	2	373087	26	39	373125	-999999	373101	0	8	TrialsPROC	TO_002_TOOL2_BA.png	1	2	29	SessionSelectionList														target	2	Tools	2-Back	25	80	22	0	0	80	1	40	171435	1	13	58	169395	-1	170595	1	1200	2	2	2040	53	171448	-54	0										4						29												
WM080112	366446_fnca	1	1	1	-1519994661	1	75.032	75.031	2.0.10.147	2.0.10.242	2.0.10.242	1.0.0.439	7	234	2	3	Verdana	1	80	0	0	0	WM Stimuli\	0.7	1325.85714285714	0.7	1178.85714285714	0.8	1237	0.8	1319	0.7	891.571428571429	0.9	993.222222222222	0.9	1191.77777777778	0.7	1450.57142857143	13	373099	2	373087	26	39	373125	-999999	373101	0	8	TrialsPROC	TO_001_TOOL1_BA.png	1	2	30	SessionSelectionList														lure	3	Tools	2-Back	26	80	23	0	0	80	1	40	173994	2	13	59	171954	-1	173211	1	1257	3	3	2040	53	174007	-54	0										5						30												
WM080112	366446_fnca	1	1	1	-1519994661	1	75.032	75.031	2.0.10.147	2.0.10.242	2.0.10.242	1.0.0.439	7	234	2	3	Verdana	1	80	0	0	0	WM Stimuli\	0.7	1325.85714285714	0.7	1178.85714285714	0.8	1237	0.8	1319	0.7	891.571428571429	0.9	993.222222222222	0.9	1191.77777777778	0.7	1450.57142857143	13	373099	2	373087	26	39	373125	-999999	373101	0	8	TrialsPROC	TO_004_TOOL4_BA.png	1	2	31	SessionSelectionList														lure	3	Tools	2-Back	27	80	24	0	0	80	1	39	176552	2	14	59	174513	-1	175862	0	1349	2	3	2039	53	176566	-54	0										6						31												
WM080112	366446_fnca	1	1	1	-1519994661	1	75.032	75.031	2.0.10.147	2.0.10.242	2.0.10.242	1.0.0.439	7	234	2	3	Verdana	1	80	0	0	0	WM Stimuli\	0.7	1325.85714285714	0.7	1178.85714285714	0.8	1237	0.8	1319	0.7	891.571428571429	0.9	993.222222222222	0.9	1191.77777777778	0.7	1450.57142857143	13	373099	2	373087	26	39	373125	-999999	373101	0	8	TrialsPROC	TO_006_TOOL6_BA.png	1	2	32	SessionSelectionList														nonlure	3	Tools	2-Back	28	80	25	0	0	80	1	39	179111	3	14	59	177072	-1	177957	1	885	3	3	2039	53	179125	-54	0										7						32												
WM080112	366446_fnca	1	1	1	-1519994661	1	75.032	75.031	2.0.10.147	2.0.10.242	2.0.10.242	1.0.0.439	7	234	2	3	Verdana	1	80	0	0	0	WM Stimuli\	0.7	1325.85714285714	0.7	1178.85714285714	0.8	1237	0.8	1319	0.7	891.571428571429	0.9	993.222222222222	0.9	1191.77777777778	0.7	1450.57142857143	13	373099	2	373087	26	39	373125	-999999	373101	0	8	TrialsPROC	TO_005_TOOL5_BA.png	1	2	33	SessionSelectionList														nonlure	3	Tools	2-Back	29	80	26	0	0	80	2	39	181670	3	14	59	179631	-1	181047	1	1416	3	3	2039	53	181684	-54	0										8						33												
WM080112	366446_fnca	1	1	1	-1519994661	1	75.032	75.031	2.0.10.147	2.0.10.242	2.0.10.242	1.0.0.439	7	234	2	3	Verdana	1	80	0	0	0	WM Stimuli\	0.7	1325.85714285714	0.7	1178.85714285714	0.8	1237	0.8	1319	0.7	891.571428571429	0.9	993.222222222222	0.9	1191.77777777778	0.7	1450.57142857143	13	373099	2	373087	26	39	373125	-999999	373101	0	8	TrialsPROC	TO_006_TOOL6_BA.png	1	2	34	SessionSelectionList														target	2	Tools	2-Back	30	80	27	0	0	80	1	39	184229	3	14	59	182190	-1	183099	1	909	2	2	2039	53	184243	-54	0										9						34												
WM080112	366446_fnca	1	1	1	-1519994661	1	75.032	75.031	2.0.10.147	2.0.10.242	2.0.10.242	1.0.0.439	7	234	2	3	Verdana	1	80	0	0	0	WM Stimuli\	0.7	1325.85714285714	0.7	1178.85714285714	0.8	1237	0.8	1319	0.7	891.571428571429	0.9	993.222222222222	0.9	1191.77777777778	0.7	1450.57142857143	13	373099	2	373087	26	39	373125	-999999	373101	0	8	TrialsPROC	TO_003_TOOL3_BA.png	1	2	35	SessionSelectionList														nonlure	3	Tools	2-Back	31	80	28	0	0	80	1	39	186788	3	14	59	184749	-1	185697	1	948	3	3	2039	53	186802	-54	0										10						35												
WM080112	366446_fnca	1	1	1	-1519994661	1	75.032	75.031	2.0.10.147	2.0.10.242	2.0.10.242	1.0.0.439	7	234	2	3	Verdana	1	80	0	0	0	WM Stimuli\	0.7	1325.85714285714	0.7	1178.85714285714	0.8	1237	0.8	1319	0.7	891.571428571429	0.9	993.222222222222	0.9	1191.77777777778	0.7	1450.57142857143	13	373099	2	373087	26	39	373125	-999999	373101	0	9	Cue0BackPROC	BP_007_BP20_BA.png	1	2	36	SessionSelectionList																																										19	187268	-20	0												36												
WM080112	366446_fnca	1	1	1	-1519994661	1	75.032	75.031	2.0.10.147	2.0.10.242	2.0.10.242	1.0.0.439	7	234	2	3	Verdana	1	80	0	0	0	WM Stimuli\	0.7	1325.85714285714	0.7	1178.85714285714	0.8	1237	0.8	1319	0.7	891.571428571429	0.9	993.222222222222	0.9	1191.77777777778	0.7	1450.57142857143	13	373099	2	373087	26	39	373125	-999999	373101	0	10	TrialsPROC	BP_007_BP20_BA.png	1	2	37	SessionSelectionList														target	2	Body	0-Back	32	80	29	0	0	82	1	40	191840	2	13	51	189800	-1	191428	1	1628	2	2	2040	53	191853	-54	0											1					37												
WM080112	366446_fnca	1	1	1	-1519994661	1	75.032	75.031	2.0.10.147	2.0.10.242	2.0.10.242	1.0.0.439	7	234	2	3	Verdana	1	80	0	0	0	WM Stimuli\	0.7	1325.85714285714	0.7	1178.85714285714	0.8	1237	0.8	1319	0.7	891.571428571429	0.9	993.222222222222	0.9	1191.77777777778	0.7	1450.57142857143	13	373099	2	373087	26	39	373125	-999999	373101	0	10	TrialsPROC	BP_011_BP4_BA.png	1	2	38	SessionSelectionList														nonlure	3	Body	0-Back	33	80	30	0	0	83	1	39	194412	1	13	73	192373	-1	193433	1	1060	3	3	2039	52	194425	-53	0											2					38												
WM080112	366446_fnca	1	1	1	-1519994661	1	75.032	75.031	2.0.10.147	2.0.10.242	2.0.10.242	1.0.0.439	7	234	2	3	Verdana	1	80	0	0	0	WM Stimuli\	0.7	1325.85714285714	0.7	1178.85714285714	0.8	1237	0.8	1319	0.7	891.571428571429	0.9	993.222222222222	0.9	1191.77777777778	0.7	1450.57142857143	13	373099	2	373087	26	39	373125	-999999	373101	0	10	TrialsPROC	BP_010_BP3_BA.png	1	2	39	SessionSelectionList														nonlure	3	Body	0-Back	34	80	30	0	1	77	1	39	196971	2	13	59	194932	-1	0	0	0	""	3	2039	52	196984	-53	0											3					39												
WM080112	366446_fnca	1	1	1	-1519994661	1	75.032	75.031	2.0.10.147	2.0.10.242	2.0.10.242	1.0.0.439	7	234	2	3	Verdana	1	80	0	0	0	WM Stimuli\	0.7	1325.85714285714	0.7	1178.85714285714	0.8	1237	0.8	1319	0.7	891.571428571429	0.9	993.222222222222	0.9	1191.77777777778	0.7	1450.57142857143	13	373099	2	373087	26	39	373125	-999999	373101	0	10	TrialsPROC	BP_008_BP21_BA.png	1	2	40	SessionSelectionList														nonlure	3	Body	0-Back	35	80	31	0	0	79	1	39	199530	1	13	59	197491	-1	198253	1	762	3	3	2039	52	199543	-53	0											4					40												
WM080112	366446_fnca	1	1	1	-1519994661	1	75.032	75.031	2.0.10.147	2.0.10.242	2.0.10.242	1.0.0.439	7	234	2	3	Verdana	1	80	0	0	0	WM Stimuli\	0.7	1325.85714285714	0.7	1178.85714285714	0.8	1237	0.8	1319	0.7	891.571428571429	0.9	993.222222222222	0.9	1191.77777777778	0.7	1450.57142857143	13	373099	2	373087	26	39	373125	-999999	373101	0	10	TrialsPROC	BP_011_BP4_BA.png	1	2	41	SessionSelectionList														lure	3	Body	0-Back	36	80	32	0	0	80	2	39	202102	2	13	72	200063	-1	200907	1	844	3	3	2039	52	202115	-53	0											5					41												
WM080112	366446_fnca	1	1	1	-1519994661	1	75.032	75.031	2.0.10.147	2.0.10.242	2.0.10.242	1.0.0.439	7	234	2	3	Verdana	1	80	0	0	0	WM Stimuli\	0.7	1325.85714285714	0.7	1178.85714285714	0.8	1237	0.8	1319	0.7	891.571428571429	0.9	993.222222222222	0.9	1191.77777777778	0.7	1450.57142857143	13	373099	2	373087	26	39	373125	-999999	373101	0	10	TrialsPROC	BP_009_BP22_BA.png	1	2	42	SessionSelectionList														nonlure	3	Body	0-Back	37	80	33	0	0	81	3	39	204661	2	13	59	202622	-1	203833	1	1211	3	3	2039	52	204674	-53	0											6					42												
WM080112	366446_fnca	1	1	1	-1519994661	1	75.032	75.031	2.0.10.147	2.0.10.242	2.0.10.242	1.0.0.439	7	234	2	3	Verdana	1	80	0	0	0	WM Stimuli\	0.7	1325.85714285714	0.7	1178.85714285714	0.8	1237	0.8	1319	0.7	891.571428571429	0.9	993.222222222222	0.9	1191.77777777778	0.7	1450.57142857143	13	373099	2	373087	26	39	373125	-999999	373101	0	10	TrialsPROC	BP_009_BP22_BA.png	1	2	43	SessionSelectionList														lure	3	Body	0-Back	38	80	34	0	0	76	1	39	207220	2	13	59	205181	-1	206599	0	1418	2	3	2039	52	207233	-53	0											7					43												
WM080112	366446_fnca	1	1	1	-1519994661	1	75.032	75.031	2.0.10.147	2.0.10.242	2.0.10.242	1.0.0.439	7	234	2	3	Verdana	1	80	0	0	0	WM Stimuli\	0.7	1325.85714285714	0.7	1178.85714285714	0.8	1237	0.8	1319	0.7	891.571428571429	0.9	993.222222222222	0.9	1191.77777777778	0.7	1450.57142857143	13	373099	2	373087	26	39	373125	-999999	373101	0	10	TrialsPROC	BP_008_BP21_BA.png	1	2	44	SessionSelectionList														lure	3	Body	0-Back	39	80	35	0	0	78	1	39	209779	1	13	59	207740	-1	209330	1	1590	3	3	2039	52	209792	-53	0											8					44												
WM080112	366446_fnca	1	1	1	-1519994661	1	75.032	75.031	2.0.10.147	2.0.10.242	2.0.10.242	1.0.0.439	7	234	2	3	Verdana	1	80	0	0	0	WM Stimuli\	0.7	1325.85714285714	0.7	1178.85714285714	0.8	1237	0.8	1319	0.7	891.571428571429	0.9	993.222222222222	0.9	1191.77777777778	0.7	1450.57142857143	13	373099	2	373087	26	39	373125	-999999	373101	0	10	TrialsPROC	BP_007_BP20_BA.png	1	2	45	SessionSelectionList														target	2	Body	0-Back	40	80	36	0	0	74	2	39	212338	2	13	59	210299	-1	210860	0	561	3	2	2039	52	212351	-53	0											9					45												
WM080112	366446_fnca	1	1	1	-1519994661	1	75.032	75.031	2.0.10.147	2.0.10.242	2.0.10.242	1.0.0.439	7	234	2	3	Verdana	1	80	0	0	0	WM Stimuli\	0.7	1325.85714285714	0.7	1178.85714285714	0.8	1237	0.8	1319	0.7	891.571428571429	0.9	993.222222222222	0.9	1191.77777777778	0.7	1450.57142857143	13	373099	2	373087	26	39	373125	-999999	373101	0	10	TrialsPROC	BP_012_BP5_BA.png	1	2	46	SessionSelectionList														nonlure	3	Body	0-Back	41	80	37	0	0	75	3	39	214897	2	13	59	212858	-1	214015	1	1157	3	3	2039	52	214910	-53	0											10					46												
WM080112	366446_fnca	1	1	1	-1519994661	1	75.032	75.031	2.0.10.147	2.0.10.242	2.0.10.242	1.0.0.439	7	234	2	3	Verdana	1	80	0	0	0	WM Stimuli\	0.7	1325.85714285714	0.7	1178.85714285714	0.8	1237	0.8	1319	0.7	891.571428571429	0.9	993.222222222222	0.9	1191.77777777778	0.7	1450.57142857143	13	373099	2	373087	26	39	373125	-999999	373101	0	11	Fix15secPROC	""	1	2	47	SessionSelectionList																																															5	215363	-6	0							47												
WM080112	366446_fnca	1	1	1	-1519994661	1	75.032	75.031	2.0.10.147	2.0.10.242	2.0.10.242	1.0.0.439	7	234	2	3	Verdana	1	80	0	0	0	WM Stimuli\	0.7	1325.85714285714	0.7	1178.85714285714	0.8	1237	0.8	1319	0.7	891.571428571429	0.9	993.222222222222	0.9	1191.77777777778	0.7	1450.57142857143	13	373099	2	373087	26	39	373125	-999999	373101	0	12	Cue0BackPROC	PL_001_92012.png	1	2	48	SessionSelectionList																																										12	230370	-13	0												48												
WM080112	366446_fnca	1	1	1	-1519994661	1	75.032	75.031	2.0.10.147	2.0.10.242	2.0.10.242	1.0.0.439	7	234	2	3	Verdana	1	80	0	0	0	WM Stimuli\	0.7	1325.85714285714	0.7	1178.85714285714	0.8	1237	0.8	1319	0.7	891.571428571429	0.9	993.222222222222	0.9	1191.77777777778	0.7	1450.57142857143	13	373099	2	373087	26	39	373125	-999999	373101	0	13	TrialsPROC	PL_003_92016.png	1	2	49	SessionSelectionList														nonlure	3	Place	0-Back	42	80	38	0	0	76	4	40	234969	1	13	71	232929	-1	234319	1	1390	3	3	2040	53	234982	-54	0												1				49												
WM080112	366446_fnca	1	1	1	-1519994661	1	75.032	75.031	2.0.10.147	2.0.10.242	2.0.10.242	1.0.0.439	7	234	2	3	Verdana	1	80	0	0	0	WM Stimuli\	0.7	1325.85714285714	0.7	1178.85714285714	0.8	1237	0.8	1319	0.7	891.571428571429	0.9	993.222222222222	0.9	1191.77777777778	0.7	1450.57142857143	13	373099	2	373087	26	39	373125	-999999	373101	0	13	TrialsPROC	PL_003_92016.png	1	2	50	SessionSelectionList														lure	3	Place	0-Back	43	80	39	0	0	77	5	39	237541	2	13	73	235502	-1	237051	1	1549	3	3	2039	52	237554	-53	0												2				50												
WM080112	366446_fnca	1	1	1	-1519994661	1	75.032	75.031	2.0.10.147	2.0.10.242	2.0.10.242	1.0.0.439	7	234	2	3	Verdana	1	80	0	0	0	WM Stimuli\	0.7	1325.85714285714	0.7	1178.85714285714	0.8	1237	0.8	1319	0.7	891.571428571429	0.9	993.222222222222	0.9	1191.77777777778	0.7	1450.57142857143	13	373099	2	373087	26	39	373125	-999999	373101	0	13	TrialsPROC	PL_006_92025.png	1	2	51	SessionSelectionList														nonlure	3	Place	0-Back	44	80	40	0	0	78	6	39	240113	1	14	72	238074	-1	239303	1	1229	3	3	2039	53	240127	-54	0												3				51												
WM080112	366446_fnca	1	1	1	-1519994661	1	75.032	75.031	2.0.10.147	2.0.10.242	2.0.10.242	1.0.0.439	7	234	2	3	Verdana	1	80	0	0	0	WM Stimuli\	0.7	1325.85714285714	0.7	1178.85714285714	0.8	1237	0.8	1319	0.7	891.571428571429	0.9	993.222222222222	0.9	1191.77777777778	0.7	1450.57142857143	13	373099	2	373087	26	39	373125	-999999	373101	0	13	TrialsPROC	PL_001_92012.png	1	2	52	SessionSelectionList														target	2	Place	0-Back	45	80	41	0	0	79	1	39	242685	2	14	72	240646	-1	241521	1	875	2	2	2039	53	242699	-54	0												4				52												
WM080112	366446_fnca	1	1	1	-1519994661	1	75.032	75.031	2.0.10.147	2.0.10.242	2.0.10.242	1.0.0.439	7	234	2	3	Verdana	1	80	0	0	0	WM Stimuli\	0.7	1325.85714285714	0.7	1178.85714285714	0.8	1237	0.8	1319	0.7	891.571428571429	0.9	993.222222222222	0.9	1191.77777777778	0.7	1450.57142857143	13	373099	2	373087	26	39	373125	-999999	373101	0	13	TrialsPROC	PL_004_92023.png	1	2	53	SessionSelectionList														nonlure	3	Place	0-Back	46	80	42	0	0	80	1	40	245258	2	13	72	243218	-1	244181	1	963	3	3	2040	53	245271	-54	0												5				53												
WM080112	366446_fnca	1	1	1	-1519994661	1	75.032	75.031	2.0.10.147	2.0.10.242	2.0.10.242	1.0.0.439	7	234	2	3	Verdana	1	80	0	0	0	WM Stimuli\	0.7	1325.85714285714	0.7	1178.85714285714	0.8	1237	0.8	1319	0.7	891.571428571429	0.9	993.222222222222	0.9	1191.77777777778	0.7	1450.57142857143	13	373099	2	373087	26	39	373125	-999999	373101	0	13	TrialsPROC	PL_005_92024.png	1	2	54	SessionSelectionList														nonlure	3	Place	0-Back	47	80	43	0	0	81	2	39	247830	2	13	73	245791	-1	246670	1	879	3	3	2039	52	247843	-53	0												6				54												
WM080112	366446_fnca	1	1	1	-1519994661	1	75.032	75.031	2.0.10.147	2.0.10.242	2.0.10.242	1.0.0.439	7	234	2	3	Verdana	1	80	0	0	0	WM Stimuli\	0.7	1325.85714285714	0.7	1178.85714285714	0.8	1237	0.8	1319	0.7	891.571428571429	0.9	993.222222222222	0.9	1191.77777777778	0.7	1450.57142857143	13	373099	2	373087	26	39	373125	-999999	373101	0	13	TrialsPROC	PL_001_92012.png	1	2	55	SessionSelectionList														target	2	Place	0-Back	48	80	44	0	0	81	1	39	250402	2	14	72	248363	-1	249213	1	850	2	2	2039	53	250416	-54	0												7				55												
WM080112	366446_fnca	1	1	1	-1519994661	1	75.032	75.031	2.0.10.147	2.0.10.242	2.0.10.242	1.0.0.439	7	234	2	3	Verdana	1	80	0	0	0	WM Stimuli\	0.7	1325.85714285714	0.7	1178.85714285714	0.8	1237	0.8	1319	0.7	891.571428571429	0.9	993.222222222222	0.9	1191.77777777778	0.7	1450.57142857143	13	373099	2	373087	26	39	373125	-999999	373101	0	13	TrialsPROC	PL_002_92014.png	1	2	56	SessionSelectionList														nonlure	3	Place	0-Back	49	80	44	0	1	79	1	39	252974	3	14	72	250935	-1	0	0	0	""	3	2039	53	252988	-54	0												8				56												
WM080112	366446_fnca	1	1	1	-1519994661	1	75.032	75.031	2.0.10.147	2.0.10.242	2.0.10.242	1.0.0.439	7	234	2	3	Verdana	1	80	0	0	0	WM Stimuli\	0.7	1325.85714285714	0.7	1178.85714285714	0.8	1237	0.8	1319	0.7	891.571428571429	0.9	993.222222222222	0.9	1191.77777777778	0.7	1450.57142857143	13	373099	2	373087	26	39	373125	-999999	373101	0	13	TrialsPROC	PL_004_92023.png	1	2	57	SessionSelectionList														lure	3	Place	0-Back	50	80	45	0	0	79	1	39	255547	1	13	73	253508	-1	253918	1	410	3	3	2039	52	255560	-53	0												9				57												
WM080112	366446_fnca	1	1	1	-1519994661	1	75.032	75.031	2.0.10.147	2.0.10.242	2.0.10.242	1.0.0.439	7	234	2	3	Verdana	1	80	0	0	0	WM Stimuli\	0.7	1325.85714285714	0.7	1178.85714285714	0.8	1237	0.8	1319	0.7	891.571428571429	0.9	993.222222222222	0.9	1191.77777777778	0.7	1450.57142857143	13	373099	2	373087	26	39	373125	-999999	373101	0	13	TrialsPROC	PL_006_92025.png	1	2	58	SessionSelectionList														lure	3	Place	0-Back	51	80	46	0	0	80	2	39	258119	3	13	72	256080	-1	256874	1	794	3	3	2039	52	258132	-53	0												10				58												
WM080112	366446_fnca	1	1	1	-1519994661	1	75.032	75.031	2.0.10.147	2.0.10.242	2.0.10.242	1.0.0.439	7	234	2	3	Verdana	1	80	0	0	0	WM Stimuli\	0.7	1325.85714285714	0.7	1178.85714285714	0.8	1237	0.8	1319	0.7	891.571428571429	0.9	993.222222222222	0.9	1191.77777777778	0.7	1450.57142857143	13	373099	2	373087	26	39	373125	-999999	373101	0	14	Cue2BackPROC	""	1	2	59	SessionSelectionList									6	258586	-7	0																																													59												
WM080112	366446_fnca	1	1	1	-1519994661	1	75.032	75.031	2.0.10.147	2.0.10.242	2.0.10.242	1.0.0.439	7	234	2	3	Verdana	1	80	0	0	0	WM Stimuli\	0.7	1325.85714285714	0.7	1178.85714285714	0.8	1237	0.8	1319	0.7	891.571428571429	0.9	993.222222222222	0.9	1191.77777777778	0.7	1450.57142857143	13	373099	2	373087	26	39	373125	-999999	373101	0	15	TrialsPROC	FC_010_F5.png	1	2	60	SessionSelectionList														nonlure	3	Face	2-Back	52	80	46	0	1	80	2	40	263184	1	13	64	261144	-1	0	0	0	""	3	2040	53	263197	-54	0													1			60												
WM080112	366446_fnca	1	1	1	-1519994661	1	75.032	75.031	2.0.10.147	2.0.10.242	2.0.10.242	1.0.0.439	7	234	2	3	Verdana	1	80	0	0	0	WM Stimuli\	0.7	1325.85714285714	0.7	1178.85714285714	0.8	1237	0.8	1319	0.7	891.571428571429	0.9	993.222222222222	0.9	1191.77777777778	0.7	1450.57142857143	13	373099	2	373087	26	39	373125	-999999	373101	0	15	TrialsPROC	FC_012_F6.png	1	2	61	SessionSelectionList														nonlure	3	Face	2-Back	53	80	47	0	0	80	1	39	265756	2	13	73	263717	-1	264372	1	655	3	3	2039	52	265769	-53	0													2			61												
WM080112	366446_fnca	1	1	1	-1519994661	1	75.032	75.031	2.0.10.147	2.0.10.242	2.0.10.242	1.0.0.439	7	234	2	3	Verdana	1	80	0	0	0	WM Stimuli\	0.7	1325.85714285714	0.7	1178.85714285714	0.8	1237	0.8	1319	0.7	891.571428571429	0.9	993.222222222222	0.9	1191.77777777778	0.7	1450.57142857143	13	373099	2	373087	26	39	373125	-999999	373101	0	15	TrialsPROC	FC_010_F5.png	1	2	62	SessionSelectionList														target	2	Face	2-Back	54	80	48	0	0	80	1	39	268328	3	14	72	266289	-1	267225	1	936	2	2	2039	53	268342	-54	0													3			62												
WM080112	366446_fnca	1	1	1	-1519994661	1	75.032	75.031	2.0.10.147	2.0.10.242	2.0.10.242	1.0.0.439	7	234	2	3	Verdana	1	80	0	0	0	WM Stimuli\	0.7	1325.85714285714	0.7	1178.85714285714	0.8	1237	0.8	1319	0.7	891.571428571429	0.9	993.222222222222	0.9	1191.77777777778	0.7	1450.57142857143	13	373099	2	373087	26	39	373125	-999999	373101	0	15	TrialsPROC	FC_008_F4.png	1	2	63	SessionSelectionList														nonlure	3	Face	2-Back	55	80	49	0	0	80	1	39	270900	2	14	72	268861	-1	269852	1	991	3	3	2039	53	270914	-54	0													4			63												
WM080112	366446_fnca	1	1	1	-1519994661	1	75.032	75.031	2.0.10.147	2.0.10.242	2.0.10.242	1.0.0.439	7	234	2	3	Verdana	1	80	0	0	0	WM Stimuli\	0.7	1325.85714285714	0.7	1178.85714285714	0.8	1237	0.8	1319	0.7	891.571428571429	0.9	993.222222222222	0.9	1191.77777777778	0.7	1450.57142857143	13	373099	2	373087	26	39	373125	-999999	373101	0	15	TrialsPROC	FC_012_F6.png	1	2	64	SessionSelectionList														lure	3	Face	2-Back	56	80	50	0	0	80	1	39	273473	1	13	73	271434	-1	272603	0	1169	2	3	2039	52	273486	-53	0													5			64												
WM080112	366446_fnca	1	1	1	-1519994661	1	75.032	75.031	2.0.10.147	2.0.10.242	2.0.10.242	1.0.0.439	7	234	2	3	Verdana	1	80	0	0	0	WM Stimuli\	0.7	1325.85714285714	0.7	1178.85714285714	0.8	1237	0.8	1319	0.7	891.571428571429	0.9	993.222222222222	0.9	1191.77777777778	0.7	1450.57142857143	13	373099	2	373087	26	39	373125	-999999	373101	0	15	TrialsPROC	FC_008_F4.png	1	2	65	SessionSelectionList														target	2	Face	2-Back	57	80	51	0	0	80	2	39	276045	3	13	72	274006	-1	275346	1	1340	2	2	2039	52	276058	-53	0													6			65												
WM080112	366446_fnca	1	1	1	-1519994661	1	75.032	75.031	2.0.10.147	2.0.10.242	2.0.10.242	1.0.0.439	7	234	2	3	Verdana	1	80	0	0	0	WM Stimuli\	0.7	1325.85714285714	0.7	1178.85714285714	0.8	1237	0.8	1319	0.7	891.571428571429	0.9	993.222222222222	0.9	1191.77777777778	0.7	1450.57142857143	13	373099	2	373087	26	39	373125	-999999	373101	0	15	TrialsPROC	FC_007_M4.png	1	2	66	SessionSelectionList														nonlure	3	Face	2-Back	58	80	52	0	0	80	1	39	278617	2	14	72	276578	-1	277326	1	748	3	3	2039	53	278631	-54	0													7			66												
WM080112	366446_fnca	1	1	1	-1519994661	1	75.032	75.031	2.0.10.147	2.0.10.242	2.0.10.242	1.0.0.439	7	234	2	3	Verdana	1	80	0	0	0	WM Stimuli\	0.7	1325.85714285714	0.7	1178.85714285714	0.8	1237	0.8	1319	0.7	891.571428571429	0.9	993.222222222222	0.9	1191.77777777778	0.7	1450.57142857143	13	373099	2	373087	26	39	373125	-999999	373101	0	15	TrialsPROC	FC_007_M4.png	1	2	67	SessionSelectionList														lure	3	Face	2-Back	59	80	53	0	0	80	2	40	281190	1	13	72	279150	-1	280969	1	1819	3	3	2040	53	281203	-54	0													8			67												
WM080112	366446_fnca	1	1	1	-1519994661	1	75.032	75.031	2.0.10.147	2.0.10.242	2.0.10.242	1.0.0.439	7	234	2	3	Verdana	1	80	0	0	0	WM Stimuli\	0.7	1325.85714285714	0.7	1178.85714285714	0.8	1237	0.8	1319	0.7	891.571428571429	0.9	993.222222222222	0.9	1191.77777777778	0.7	1450.57142857143	13	373099	2	373087	26	39	373125	-999999	373101	0	15	TrialsPROC	FC_009_M5.png	1	2	68	SessionSelectionList														nonlure	3	Face	2-Back	60	80	54	0	0	80	3	39	283762	2	13	73	281723	-1	283402	1	1679	3	3	2039	52	283775	-53	0													9			68												
WM080112	366446_fnca	1	1	1	-1519994661	1	75.032	75.031	2.0.10.147	2.0.10.242	2.0.10.242	1.0.0.439	7	234	2	3	Verdana	1	80	0	0	0	WM Stimuli\	0.7	1325.85714285714	0.7	1178.85714285714	0.8	1237	0.8	1319	0.7	891.571428571429	0.9	993.222222222222	0.9	1191.77777777778	0.7	1450.57142857143	13	373099	2	373087	26	39	373125	-999999	373101	0	15	TrialsPROC	FC_011_M6.png	1	2	69	SessionSelectionList														nonlure	3	Face	2-Back	61	80	55	0	0	80	4	39	286334	3	14	72	284295	-1	286023	1	1728	3	3	2039	53	286348	-54	0													10			69												
WM080112	366446_fnca	1	1	1	-1519994661	1	75.032	75.031	2.0.10.147	2.0.10.242	2.0.10.242	1.0.0.439	7	234	2	3	Verdana	1	80	0	0	0	WM Stimuli\	0.7	1325.85714285714	0.7	1178.85714285714	0.8	1237	0.8	1319	0.7	891.571428571429	0.9	993.222222222222	0.9	1191.77777777778	0.7	1450.57142857143	13	373099	2	373087	26	39	373125	-999999	373101	0	16	Fix15secPROC	""	1	2	70	SessionSelectionList																																															6	286801	-7	0							70												
WM080112	366446_fnca	1	1	1	-1519994661	1	75.032	75.031	2.0.10.147	2.0.10.242	2.0.10.242	1.0.0.439	7	234	2	3	Verdana	1	80	0	0	0	WM Stimuli\	0.7	1325.85714285714	0.7	1178.85714285714	0.8	1237	0.8	1319	0.7	891.571428571429	0.9	993.222222222222	0.9	1191.77777777778	0.7	1450.57142857143	13	373099	2	373087	26	39	373125	-999999	373101	0	17	Cue0BackPROC	TO_007_TOOL7_BA.png	1	2	71	SessionSelectionList																																										13	301808	-14	0												71												
WM080112	366446_fnca	1	1	1	-1519994661	1	75.032	75.031	2.0.10.147	2.0.10.242	2.0.10.242	1.0.0.439	7	234	2	3	Verdana	1	80	0	0	0	WM Stimuli\	0.7	1325.85714285714	0.7	1178.85714285714	0.8	1237	0.8	1319	0.7	891.571428571429	0.9	993.222222222222	0.9	1191.77777777778	0.7	1450.57142857143	13	373099	2	373087	26	39	373125	-999999	373101	0	18	TrialsPROC	TO_010_TOOL10_BA.png	1	2	72	SessionSelectionList														nonlure	3	Tools	0-Back	62	80	56	0	0	81	5	40	306393	2	13	58	304353	-1	306332	1	1979	3	3	2040	53	306406	-54	0														1		72												
WM080112	366446_fnca	1	1	1	-1519994661	1	75.032	75.031	2.0.10.147	2.0.10.242	2.0.10.242	1.0.0.439	7	234	2	3	Verdana	1	80	0	0	0	WM Stimuli\	0.7	1325.85714285714	0.7	1178.85714285714	0.8	1237	0.8	1319	0.7	891.571428571429	0.9	993.222222222222	0.9	1191.77777777778	0.7	1450.57142857143	13	373099	2	373087	26	39	373125	-999999	373101	0	18	TrialsPROC	TO_009_TOOL9_BA.png	1	2	73	SessionSelectionList														nonlure	3	Tools	0-Back	63	80	57	0	0	81	6	40	308952	1	13	59	306912	-1	308565	1	1653	3	3	2040	53	308965	-54	0														2		73												
WM080112	366446_fnca	1	1	1	-1519994661	1	75.032	75.031	2.0.10.147	2.0.10.242	2.0.10.242	1.0.0.439	7	234	2	3	Verdana	1	80	0	0	0	WM Stimuli\	0.7	1325.85714285714	0.7	1178.85714285714	0.8	1237	0.8	1319	0.7	891.571428571429	0.9	993.222222222222	0.9	1191.77777777778	0.7	1450.57142857143	13	373099	2	373087	26	39	373125	-999999	373101	0	18	TrialsPROC	TO_009_TOOL9_BA.png	1	2	74	SessionSelectionList														lure	3	Tools	0-Back	64	80	58	0	0	79	1	39	311510	3	14	59	309471	-1	310651	0	1180	2	3	2039	53	311524	-54	0														3		74												
WM080112	366446_fnca	1	1	1	-1519994661	1	75.032	75.031	2.0.10.147	2.0.10.242	2.0.10.242	1.0.0.439	7	234	2	3	Verdana	1	80	0	0	0	WM Stimuli\	0.7	1325.85714285714	0.7	1178.85714285714	0.8	1237	0.8	1319	0.7	891.571428571429	0.9	993.222222222222	0.9	1191.77777777778	0.7	1450.57142857143	13	373099	2	373087	26	39	373125	-999999	373101	0	18	TrialsPROC	TO_008_TOOL8_BA.png	1	2	75	SessionSelectionList														nonlure	3	Tools	0-Back	65	80	59	0	0	79	1	39	314069	3	14	59	312030	-1	313470	1	1440	3	3	2039	53	314083	-54	0														4		75												
WM080112	366446_fnca	1	1	1	-1519994661	1	75.032	75.031	2.0.10.147	2.0.10.242	2.0.10.242	1.0.0.439	7	234	2	3	Verdana	1	80	0	0	0	WM Stimuli\	0.7	1325.85714285714	0.7	1178.85714285714	0.8	1237	0.8	1319	0.7	891.571428571429	0.9	993.222222222222	0.9	1191.77777777778	0.7	1450.57142857143	13	373099	2	373087	26	39	373125	-999999	373101	0	18	TrialsPROC	TO_011_TOOL11_BA.png	1	2	76	SessionSelectionList														nonlure	3	Tools	0-Back	66	80	60	0	0	80	2	39	316628	3	14	59	314589	-1	315908	1	1319	3	3	2039	53	316642	-54	0														5		76												
WM080112	366446_fnca	1	1	1	-1519994661	1	75.032	75.031	2.0.10.147	2.0.10.242	2.0.10.242	1.0.0.439	7	234	2	3	Verdana	1	80	0	0	0	WM Stimuli\	0.7	1325.85714285714	0.7	1178.85714285714	0.8	1237	0.8	1319	0.7	891.571428571429	0.9	993.222222222222	0.9	1191.77777777778	0.7	1450.57142857143	13	373099	2	373087	26	39	373125	-999999	373101	0	18	TrialsPROC	TO_012_TOOL12_BA.png	1	2	77	SessionSelectionList														nonlure	3	Tools	0-Back	67	80	61	0	0	81	3	39	319187	3	14	59	317148	-1	318179	1	1031	3	3	2039	53	319201	-54	0														6		77												
WM080112	366446_fnca	1	1	1	-1519994661	1	75.032	75.031	2.0.10.147	2.0.10.242	2.0.10.242	1.0.0.439	7	234	2	3	Verdana	1	80	0	0	0	WM Stimuli\	0.7	1325.85714285714	0.7	1178.85714285714	0.8	1237	0.8	1319	0.7	891.571428571429	0.9	993.222222222222	0.9	1191.77777777778	0.7	1450.57142857143	13	373099	2	373087	26	39	373125	-999999	373101	0	18	TrialsPROC	TO_010_TOOL10_BA.png	1	2	78	SessionSelectionList														lure	3	Tools	0-Back	68	80	62	0	0	81	4	39	321746	2	14	59	319707	-1	321233	1	1526	3	3	2039	53	321760	-54	0														7		78												
WM080112	366446_fnca	1	1	1	-1519994661	1	75.032	75.031	2.0.10.147	2.0.10.242	2.0.10.242	1.0.0.439	7	234	2	3	Verdana	1	80	0	0	0	WM Stimuli\	0.7	1325.85714285714	0.7	1178.85714285714	0.8	1237	0.8	1319	0.7	891.571428571429	0.9	993.222222222222	0.9	1191.77777777778	0.7	1450.57142857143	13	373099	2	373087	26	39	373125	-999999	373101	0	18	TrialsPROC	TO_007_TOOL7_BA.png	1	2	79	SessionSelectionList														target	2	Tools	0-Back	69	80	63	0	0	79	5	39	324305	2	14	59	322266	-1	323831	0	1565	3	2	2039	53	324319	-54	0														8		79												
WM080112	366446_fnca	1	1	1	-1519994661	1	75.032	75.031	2.0.10.147	2.0.10.242	2.0.10.242	1.0.0.439	7	234	2	3	Verdana	1	80	0	0	0	WM Stimuli\	0.7	1325.85714285714	0.7	1178.85714285714	0.8	1237	0.8	1319	0.7	891.571428571429	0.9	993.222222222222	0.9	1191.77777777778	0.7	1450.57142857143	13	373099	2	373087	26	39	373125	-999999	373101	0	18	TrialsPROC	TO_008_TOOL8_BA.png	1	2	80	SessionSelectionList														lure	3	Tools	0-Back	70	80	63	0	1	77	5	39	326864	3	14	59	324825	-1	0	0	0	""	3	2039	53	326878	-54	0														9		80												
WM080112	366446_fnca	1	1	1	-1519994661	1	75.032	75.031	2.0.10.147	2.0.10.242	2.0.10.242	1.0.0.439	7	234	2	3	Verdana	1	80	0	0	0	WM Stimuli\	0.7	1325.85714285714	0.7	1178.85714285714	0.8	1237	0.8	1319	0.7	891.571428571429	0.9	993.222222222222	0.9	1191.77777777778	0.7	1450.57142857143	13	373099	2	373087	26	39	373125	-999999	373101	0	18	TrialsPROC	TO_007_TOOL7_BA.png	1	2	81	SessionSelectionList														target	2	Tools	0-Back	71	80	64	0	0	78	1	39	329423	2	14	59	327384	-1	328590	1	1206	2	2	2039	53	329437	-54	0														10		81												
WM080112	366446_fnca	1	1	1	-1519994661	1	75.032	75.031	2.0.10.147	2.0.10.242	2.0.10.242	1.0.0.439	7	234	2	3	Verdana	1	80	0	0	0	WM Stimuli\	0.7	1325.85714285714	0.7	1178.85714285714	0.8	1237	0.8	1319	0.7	891.571428571429	0.9	993.222222222222	0.9	1191.77777777778	0.7	1450.57142857143	13	373099	2	373087	26	39	373125	-999999	373101	0	19	Cue2BackPROC	""	1	2	82	SessionSelectionList									6	329890	-7	0																																													82												
WM080112	366446_fnca	1	1	1	-1519994661	1	75.032	75.031	2.0.10.147	2.0.10.242	2.0.10.242	1.0.0.439	7	234	2	3	Verdana	1	80	0	0	0	WM Stimuli\	0.7	1325.85714285714	0.7	1178.85714285714	0.8	1237	0.8	1319	0.7	891.571428571429	0.9	993.222222222222	0.9	1191.77777777778	0.7	1450.57142857143	13	373099	2	373087	26	39	373125	-999999	373101	0	20	TrialsPROC	PL_007_92026.png	1	2	83	SessionSelectionList														nonlure	3	Place	2-Back	72	80	64	0	1	78	1	39	334488	1	13	65	332449	-1	0	0	0	""	3	2039	52	334501	-53	0															1	83												
WM080112	366446_fnca	1	1	1	-1519994661	1	75.032	75.031	2.0.10.147	2.0.10.242	2.0.10.242	1.0.0.439	7	234	2	3	Verdana	1	80	0	0	0	WM Stimuli\	0.7	1325.85714285714	0.7	1178.85714285714	0.8	1237	0.8	1319	0.7	891.571428571429	0.9	993.222222222222	0.9	1191.77777777778	0.7	1450.57142857143	13	373099	2	373087	26	39	373125	-999999	373101	0	20	TrialsPROC	PL_007_92026.png	1	2	84	SessionSelectionList														lure	3	Place	2-Back	73	80	65	0	0	78	1	39	337060	2	13	72	335021	-1	335536	1	515	3	3	2039	52	337073	-53	0															2	84												
WM080112	366446_fnca	1	1	1	-1519994661	1	75.032	75.031	2.0.10.147	2.0.10.242	2.0.10.242	1.0.0.439	7	234	2	3	Verdana	1	80	0	0	0	WM Stimuli\	0.7	1325.85714285714	0.7	1178.85714285714	0.8	1237	0.8	1319	0.7	891.571428571429	0.9	993.222222222222	0.9	1191.77777777778	0.7	1450.57142857143	13	373099	2	373087	26	39	373125	-999999	373101	0	20	TrialsPROC	PL_010_92038.png	1	2	85	SessionSelectionList														nonlure	3	Place	2-Back	74	80	66	0	0	78	2	39	339632	2	14	72	337593	-1	338676	1	1083	3	3	2039	53	339646	-54	0															3	85												
WM080112	366446_fnca	1	1	1	-1519994661	1	75.032	75.031	2.0.10.147	2.0.10.242	2.0.10.242	1.0.0.439	7	234	2	3	Verdana	1	80	0	0	0	WM Stimuli\	0.7	1325.85714285714	0.7	1178.85714285714	0.8	1237	0.8	1319	0.7	891.571428571429	0.9	993.222222222222	0.9	1191.77777777778	0.7	1450.57142857143	13	373099	2	373087	26	39	373125	-999999	373101	0	20	TrialsPROC	PL_009_92037.png	1	2	86	SessionSelectionList														nonlure	3	Place	2-Back	75	80	67	0	0	78	3	40	342205	2	13	72	340165	-1	341064	1	899	3	3	2040	53	342218	-54	0															4	86												
WM080112	366446_fnca	1	1	1	-1519994661	1	75.032	75.031	2.0.10.147	2.0.10.242	2.0.10.242	1.0.0.439	7	234	2	3	Verdana	1	80	0	0	0	WM Stimuli\	0.7	1325.85714285714	0.7	1178.85714285714	0.8	1237	0.8	1319	0.7	891.571428571429	0.9	993.222222222222	0.9	1191.77777777778	0.7	1450.57142857143	13	373099	2	373087	26	39	373125	-999999	373101	0	20	TrialsPROC	PL_010_92038.png	1	2	87	SessionSelectionList														target	2	Place	2-Back	76	80	68	0	0	78	1	39	344763	2	14	59	342724	-1	343710	1	986	2	2	2039	53	344777	-54	0															5	87												
WM080112	366446_fnca	1	1	1	-1519994661	1	75.032	75.031	2.0.10.147	2.0.10.242	2.0.10.242	1.0.0.439	7	234	2	3	Verdana	1	80	0	0	0	WM Stimuli\	0.7	1325.85714285714	0.7	1178.85714285714	0.8	1237	0.8	1319	0.7	891.571428571429	0.9	993.222222222222	0.9	1191.77777777778	0.7	1450.57142857143	13	373099	2	373087	26	39	373125	-999999	373101	0	20	TrialsPROC	PL_009_92037.png	1	2	88	SessionSelectionList														target	2	Place	2-Back	77	80	68	0	1	78	1	39	347336	1	13	73	345297	-1	0	0	0	""	2	2039	52	347349	-53	0															6	88												
WM080112	366446_fnca	1	1	1	-1519994661	1	75.032	75.031	2.0.10.147	2.0.10.242	2.0.10.242	1.0.0.439	7	234	2	3	Verdana	1	80	0	0	0	WM Stimuli\	0.7	1325.85714285714	0.7	1178.85714285714	0.8	1237	0.8	1319	0.7	891.571428571429	0.9	993.222222222222	0.9	1191.77777777778	0.7	1450.57142857143	13	373099	2	373087	26	39	373125	-999999	373101	0	20	TrialsPROC	PL_008_92033.png	1	2	89	SessionSelectionList														nonlure	3	Place	2-Back	78	80	69	0	0	78	1	39	349908	1	14	72	347869	-1	348874	0	1005	2	3	2039	53	349922	-54	0															7	89												
WM080112	366446_fnca	1	1	1	-1519994661	1	75.032	75.031	2.0.10.147	2.0.10.242	2.0.10.242	1.0.0.439	7	234	2	3	Verdana	1	80	0	0	0	WM Stimuli\	0.7	1325.85714285714	0.7	1178.85714285714	0.8	1237	0.8	1319	0.7	891.571428571429	0.9	993.222222222222	0.9	1191.77777777778	0.7	1450.57142857143	13	373099	2	373087	26	39	373125	-999999	373101	0	20	TrialsPROC	PL_012_92047.png	1	2	90	SessionSelectionList														nonlure	3	Place	2-Back	79	80	70	0	0	78	1	39	352480	2	14	72	350441	-1	351296	1	855	3	3	2039	53	352494	-54	0															8	90												
WM080112	366446_fnca	1	1	1	-1519994661	1	75.032	75.031	2.0.10.147	2.0.10.242	2.0.10.242	1.0.0.439	7	234	2	3	Verdana	1	80	0	0	0	WM Stimuli\	0.7	1325.85714285714	0.7	1178.85714285714	0.8	1237	0.8	1319	0.7	891.571428571429	0.9	993.222222222222	0.9	1191.77777777778	0.7	1450.57142857143	13	373099	2	373087	26	39	373125	-999999	373101	0	20	TrialsPROC	PL_012_92047.png	1	2	91	SessionSelectionList														lure	3	Place	2-Back	80	80	71	0	0	78	2	40	355053	1	13	72	353013	-1	353862	1	849	3	3	2040	53	355066	-54	0															9	91												
WM080112	366446_fnca	1	1	1	-1519994661	1	75.032	75.031	2.0.10.147	2.0.10.242	2.0.10.242	1.0.0.439	7	234	2	3	Verdana	1	80	0	0	0	WM Stimuli\	0.7	1325.85714285714	0.7	1178.85714285714	0.8	1237	0.8	1319	0.7	891.571428571429	0.9	993.222222222222	0.9	1191.77777777778	0.7	1450.57142857143	13	373099	2	373087	26	39	373125	-999999	373101	0	20	TrialsPROC	PL_011_92044.png	1	2	92	SessionSelectionList														nonlure	3	Place	2-Back	80	80	72	0	0	78	3	39	357625	2	13	73	355586	-1	356640	1	1054	3	3	2039	52	357638	-53	0															10	92												
WM080112	366446_fnca	1	1	1	-1519994661	1	75.032	75.031	2.0.10.147	2.0.10.242	2.0.10.242	1.0.0.439	7	234	2	3	Verdana	1	80	0	0	0	WM Stimuli\	0.7	1325.85714285714	0.7	1178.85714285714	0.8	1237	0.8	1319	0.7	891.571428571429	0.9	993.222222222222	0.9	1191.77777777778	0.7	1450.57142857143	13	373099	2	373087	26	39	373125	-999999	373101	0	21	Fix15secPROC	""	1	2	93	SessionSelectionList																																															5	358091	-6	0							93												
