ExperimentName	HCPID	RunNumber	Subject	Session	RandomSeed	Group	Laptop.RefreshRate	ScannerD2.RefreshRate	StudioVersion	RuntimeVersion	RuntimeVersionExpected	ExperimentVersion	triggercode	Allowed	Target	Nontarget	FontStyle	RunTrialNumber[Session]	TrialsPerRun[Session]	TotalRespGreater200[Session]	ConsecRTLess200[Session]	ConsecNonResp[Session]	StimuliDir	ACC_2_Back_Body	Avg_RT_For_Correct_Trials_2_Back_Body	ACC_0_Back_Body	Avg_RT_For_Correct_Trials_0_Back_Body	ACC_2_Back_Face	Avg_RT_For_Correct_Trials_2_Back_Face	ACC_0_Back_Face	Avg_RT_For_Correct_Trials_0_Back_Face	ACC_2_Back_Place	Avg_RT_For_Correct_Trials_2_Back_Place	ACC_0_Back_Place	Avg_RT_For_Correct_Trials_0_Back_Place	ACC_2_Back_Tools	Avg_RT_For_Correct_Trials_2_Back_Tools	ACC_0_Back_Tools	Avg_RT_For_Correct_Trials_0_Back_Tools	ExpInstrucFeelFreeToRest.OnsetDelay	ExpInstrucFeelFreeToRest.OnsetTime	ExpInstrucFeelFreeToRest.DurationError	ExpInstrucFeelFreeToRest.StartTime	ExpInstrucFeelFreeToRest.OnsetToOnsetTime	FeelFreeToRest.OnsetDelay	FeelFreeToRest.OnsetTime	FeelFreeToRest.DurationError	FeelFreeToRest.StartTime	FeelFreeToRest.OnsetToOnsetTime	SessionSelectionList	Procedure[Block]	Stimulus[Block]	RunNumberFilterValue	SessionSelectionList.Cycle	SessionSelectionList.Sample	Running[Block]	IntroButtonMap.OnsetDelay	IntroButtonMap.OnsetTime	IntroButtonMap.DurationError	IntroButtonMap.OnsetToOnsetTime	GetReady.OnsetDelay	GetReady.OnsetTime	GetReady.DurationError	GetReady.OnsetToOnsetTime	Cue2Back.OnsetDelay	Cue2Back.OnsetTime	Cue2Back.DurationError	Cue2Back.OnsetToOnsetTime	Run1Block1	TargetType	CorrectResponse	StimType	BlockType	RunTrialNumber[Block]	TrialsPerRun[Block]	TotalRespGreater200[Block]	ConsecRTLess200[Block]	ConsecNonResp[Block]	ControlAcc	ConsecSameResp	ExperimenterWindow.OnsetDelay	ExperimenterWindow.OnsetTime	ExperimenterWindow.DurationError	ExperimenterWindow.OnsetToOnsetTime	Stim.OnsetDelay	Stim.OnsetTime	Stim.DurationError	Stim.RTTime	Stim.ACC	Stim.RT	Stim.RESP	Stim.CRESP	Stim.OnsetToOnsetTime	Fix.OnsetDelay	Fix.OnsetTime	Fix.DurationError	Fix.OnsetToOnsetTime	CueTarget.OnsetDelay	CueTarget.OnsetTime	CueTarget.DurationError	CueTarget.OnsetToOnsetTime	Run1Block2	Fix15sec.OnsetDelay	Fix15sec.OnsetTime	Fix15sec.DurationError	Fix15sec.OnsetToOnsetTime	Run1Block3	Run1Block4	Run1Block5	Run1Block6	Run1Block7	Run1Block8	Block	Procedure[Trial]	Stimulus[Trial]	ReadyList	Running[Trial]	ReadyList.Cycle	ReadyList.Sample	SyncSlide.OnsetDelay	SyncSlide.OnsetTime	SyncSlide.DurationError	SyncSlide.FinishTime	SyncSlide.OnsetToOnsetTime	Trial
WM080112	414229_fnca	2	1	1	-216591432	1	75.031	75.031	2.0.10.147	2.0.10.242	2.0.10.242	1.0.0.439	7	234	2	3	Verdana	1	80	0	0	0	WM Stimuli\	1	689.6	1	574.5	1	628.6	1	501.5	1	758.1	1	570.9	1	579.4	1	624.9	13	335686	2	335674	27	40	335713	-999999	335689	0	22	TRSyncPROC	""	2	2	1	SessionSelectionList	117	19095	-999999	0	34	28959	-999999	0																																																	1	InitialTR	4	1	ReadyList	1	1	11	41913	-12	43901	0	1
WM080112	414229_fnca	2	1	1	-216591432	1	75.031	75.031	2.0.10.147	2.0.10.242	2.0.10.242	1.0.0.439	7	234	2	3	Verdana	1	80	0	0	0	WM Stimuli\	1	689.6	1	574.5	1	628.6	1	501.5	1	758.1	1	570.9	1	579.4	1	624.9	13	335686	2	335674	27	40	335713	-999999	335689	0	22	TRSyncPROC	""	2	2	1	SessionSelectionList	117	19095	-999999	0	34	28959	-999999	0																																																	1	InitialTR	3	2	ReadyList	1	2	10	43912	-11	45901	0	2
WM080112	414229_fnca	2	1	1	-216591432	1	75.031	75.031	2.0.10.147	2.0.10.242	2.0.10.242	1.0.0.439	7	234	2	3	Verdana	1	80	0	0	0	WM Stimuli\	1	689.6	1	574.5	1	628.6	1	501.5	1	758.1	1	570.9	1	579.4	1	624.9	13	335686	2	335674	27	40	335713	-999999	335689	0	22	TRSyncPROC	""	2	2	1	SessionSelectionList	117	19095	-999999	0	34	28959	-999999	0																																																	1	InitialTR	2	3	ReadyList	1	3	9	45911	-10	47901	0	3
WM080112	414229_fnca	2	1	1	-216591432	1	75.031	75.031	2.0.10.147	2.0.10.242	2.0.10.242	1.0.0.439	7	234	2	3	Verdana	1	80	0	0	0	WM Stimuli\	1	689.6	1	574.5	1	628.6	1	501.5	1	758.1	1	570.9	1	579.4	1	624.9	13	335686	2	335674	27	40	335713	-999999	335689	0	22	TRSyncPROC	""	2	2	1	SessionSelectionList	117	19095	-999999	0	34	28959	-999999	0																																																	1	InitialTR	1	4	ReadyList	1	4	8	47910	-9	49901	0	4
WM080112	414229_fnca	2	1	1	-216591432	1	75.031	75.031	2.0.10.147	2.0.10.242	2.0.10.242	1.0.0.439	7	234	2	3	Verdana	1	80	0	0	0	WM Stimuli\	1	689.6	1	574.5	1	628.6	1	501.5	1	758.1	1	570.9	1	579.4	1	624.9	13	335686	2	335674	27	40	335713	-999999	335689	0	23	Cue2BackPROC	""	2	2	2	SessionSelectionList									8	49910	-9	0																																													2												
WM080112	414229_fnca	2	1	1	-216591432	1	75.031	75.031	2.0.10.147	2.0.10.242	2.0.10.242	1.0.0.439	7	234	2	3	Verdana	1	80	0	0	0	WM Stimuli\	1	689.6	1	574.5	1	628.6	1	501.5	1	758.1	1	570.9	1	579.4	1	624.9	13	335686	2	335674	27	40	335713	-999999	335689	0	24	TrialsPROC	TO_014_TOOL14_BA.png	2	2	3	SessionSelectionList														nonlure	3	Tools	2-Back	2	80	1	0	0	0	1	52	54534	3	14	80	52482	-1	52973	1	491	3	3	2052	66	54548	-67	0																3												
WM080112	414229_fnca	2	1	1	-216591432	1	75.031	75.031	2.0.10.147	2.0.10.242	2.0.10.242	1.0.0.439	7	234	2	3	Verdana	1	80	0	0	0	WM Stimuli\	1	689.6	1	574.5	1	628.6	1	501.5	1	758.1	1	570.9	1	579.4	1	624.9	13	335686	2	335674	27	40	335713	-999999	335689	0	24	TrialsPROC	TO_013_TOOL13_BA.png	2	2	4	SessionSelectionList														nonlure	3	Tools	2-Back	3	80	2	0	0	0	2	39	57093	3	14	72	55054	-1	55565	1	511	3	3	2039	53	57107	-54	0																4												
WM080112	414229_fnca	2	1	1	-216591432	1	75.031	75.031	2.0.10.147	2.0.10.242	2.0.10.242	1.0.0.439	7	234	2	3	Verdana	1	80	0	0	0	WM Stimuli\	1	689.6	1	574.5	1	628.6	1	501.5	1	758.1	1	570.9	1	579.4	1	624.9	13	335686	2	335674	27	40	335713	-999999	335689	0	24	TrialsPROC	TO_016_TOOL16_BA.png	2	2	5	SessionSelectionList														nonlure	3	Tools	2-Back	4	80	3	0	0	0	3	40	59666	1	13	72	57626	-1	58203	1	577	3	3	2040	53	59679	-54	0																5												
WM080112	414229_fnca	2	1	1	-216591432	1	75.031	75.031	2.0.10.147	2.0.10.242	2.0.10.242	1.0.0.439	7	234	2	3	Verdana	1	80	0	0	0	WM Stimuli\	1	689.6	1	574.5	1	628.6	1	501.5	1	758.1	1	570.9	1	579.4	1	624.9	13	335686	2	335674	27	40	335713	-999999	335689	0	24	TrialsPROC	TO_014_TOOL14_BA.png	2	2	6	SessionSelectionList														lure	3	Tools	2-Back	5	80	4	0	0	0	4	39	62238	1	14	73	60199	-1	60817	1	618	3	3	2039	53	62252	-54	0																6												
WM080112	414229_fnca	2	1	1	-216591432	1	75.031	75.031	2.0.10.147	2.0.10.242	2.0.10.242	1.0.0.439	7	234	2	3	Verdana	1	80	0	0	0	WM Stimuli\	1	689.6	1	574.5	1	628.6	1	501.5	1	758.1	1	570.9	1	579.4	1	624.9	13	335686	2	335674	27	40	335713	-999999	335689	0	24	TrialsPROC	TO_016_TOOL16_BA.png	2	2	7	SessionSelectionList														target	2	Tools	2-Back	6	80	5	0	0	0	1	39	64810	3	14	72	62771	-1	63360	1	589	2	2	2039	53	64824	-54	0																7												
WM080112	414229_fnca	2	1	1	-216591432	1	75.031	75.031	2.0.10.147	2.0.10.242	2.0.10.242	1.0.0.439	7	234	2	3	Verdana	1	80	0	0	0	WM Stimuli\	1	689.6	1	574.5	1	628.6	1	501.5	1	758.1	1	570.9	1	579.4	1	624.9	13	335686	2	335674	27	40	335713	-999999	335689	0	24	TrialsPROC	TO_018_TOOL18_BA.png	2	2	8	SessionSelectionList														nonlure	3	Tools	2-Back	7	80	6	0	0	0	1	39	67382	2	14	72	65343	-1	65904	1	561	3	3	2039	53	67396	-54	0																8												
WM080112	414229_fnca	2	1	1	-216591432	1	75.031	75.031	2.0.10.147	2.0.10.242	2.0.10.242	1.0.0.439	7	234	2	3	Verdana	1	80	0	0	0	WM Stimuli\	1	689.6	1	574.5	1	628.6	1	501.5	1	758.1	1	570.9	1	579.4	1	624.9	13	335686	2	335674	27	40	335713	-999999	335689	0	24	TrialsPROC	TO_017_TOOL17_BA.png	2	2	9	SessionSelectionList														nonlure	3	Tools	2-Back	8	80	7	0	0	0	2	40	69955	1	13	72	67915	-1	68470	1	555	3	3	2040	53	69968	-54	0																9												
WM080112	414229_fnca	2	1	1	-216591432	1	75.031	75.031	2.0.10.147	2.0.10.242	2.0.10.242	1.0.0.439	7	234	2	3	Verdana	1	80	0	0	0	WM Stimuli\	1	689.6	1	574.5	1	628.6	1	501.5	1	758.1	1	570.9	1	579.4	1	624.9	13	335686	2	335674	27	40	335713	-999999	335689	0	24	TrialsPROC	TO_018_TOOL18_BA.png	2	2	10	SessionSelectionList														target	2	Tools	2-Back	9	80	8	0	0	0	1	40	72514	1	13	59	70474	-1	70971	1	497	2	2	2040	53	72527	-54	0																10												
WM080112	414229_fnca	2	1	1	-216591432	1	75.031	75.031	2.0.10.147	2.0.10.242	2.0.10.242	1.0.0.439	7	234	2	3	Verdana	1	80	0	0	0	WM Stimuli\	1	689.6	1	574.5	1	628.6	1	501.5	1	758.1	1	570.9	1	579.4	1	624.9	13	335686	2	335674	27	40	335713	-999999	335689	0	24	TrialsPROC	TO_015_TOOL15_BA.png	2	2	11	SessionSelectionList														nonlure	3	Tools	2-Back	10	80	9	0	0	0	1	38	75072	2	14	60	73034	-1	73595	1	561	3	3	2038	52	75086	-53	0																11												
WM080112	414229_fnca	2	1	1	-216591432	1	75.031	75.031	2.0.10.147	2.0.10.242	2.0.10.242	1.0.0.439	7	234	2	3	Verdana	1	80	0	0	0	WM Stimuli\	1	689.6	1	574.5	1	628.6	1	501.5	1	758.1	1	570.9	1	579.4	1	624.9	13	335686	2	335674	27	40	335713	-999999	335689	0	24	TrialsPROC	TO_017_TOOL17_BA.png	2	2	12	SessionSelectionList														lure	3	Tools	2-Back	11	80	10	0	0	0	2	39	77631	2	14	58	75592	-1	76426	1	834	3	3	2039	53	77645	-54	0																12												
WM080112	414229_fnca	2	1	1	-216591432	1	75.031	75.031	2.0.10.147	2.0.10.242	2.0.10.242	1.0.0.439	7	234	2	3	Verdana	1	80	0	0	0	WM Stimuli\	1	689.6	1	574.5	1	628.6	1	501.5	1	758.1	1	570.9	1	579.4	1	624.9	13	335686	2	335674	27	40	335713	-999999	335689	0	25	Cue0BackPROC	BP_013_BP7_BA.png	2	2	13	SessionSelectionList																																										46	78138	-47	0												13												
WM080112	414229_fnca	2	1	1	-216591432	1	75.031	75.031	2.0.10.147	2.0.10.242	2.0.10.242	1.0.0.439	7	234	2	3	Verdana	1	80	0	0	0	WM Stimuli\	1	689.6	1	574.5	1	628.6	1	501.5	1	758.1	1	570.9	1	579.4	1	624.9	13	335686	2	335674	27	40	335713	-999999	335689	0	26	TrialsPROC	BP_015_H10-T_BA.png	2	2	14	SessionSelectionList														nonlure	3	Body	0-Back	12	80	11	0	0	100	3	39	82696	3	14	65	80657	-1	81367	1	710	3	3	2039	53	82710	-54	0																14												
WM080112	414229_fnca	2	1	1	-216591432	1	75.031	75.031	2.0.10.147	2.0.10.242	2.0.10.242	1.0.0.439	7	234	2	3	Verdana	1	80	0	0	0	WM Stimuli\	1	689.6	1	574.5	1	628.6	1	501.5	1	758.1	1	570.9	1	579.4	1	624.9	13	335686	2	335674	27	40	335713	-999999	335689	0	26	TrialsPROC	BP_018_H13-T_BA.png	2	2	15	SessionSelectionList														nonlure	3	Body	0-Back	13	80	12	0	0	100	4	39	85295	2	14	99	83256	-1	83912	1	656	3	3	2039	53	85309	-54	0																15												
WM080112	414229_fnca	2	1	1	-216591432	1	75.031	75.031	2.0.10.147	2.0.10.242	2.0.10.242	1.0.0.439	7	234	2	3	Verdana	1	80	0	0	0	WM Stimuli\	1	689.6	1	574.5	1	628.6	1	501.5	1	758.1	1	570.9	1	579.4	1	624.9	13	335686	2	335674	27	40	335713	-999999	335689	0	26	TrialsPROC	BP_014_BP9_BA.png	2	2	16	SessionSelectionList														nonlure	3	Body	0-Back	14	80	13	0	0	100	5	39	87867	3	14	72	85828	-1	86453	1	625	3	3	2039	53	87881	-54	0																16												
WM080112	414229_fnca	2	1	1	-216591432	1	75.031	75.031	2.0.10.147	2.0.10.242	2.0.10.242	1.0.0.439	7	234	2	3	Verdana	1	80	0	0	0	WM Stimuli\	1	689.6	1	574.5	1	628.6	1	501.5	1	758.1	1	570.9	1	579.4	1	624.9	13	335686	2	335674	27	40	335713	-999999	335689	0	26	TrialsPROC	BP_018_H13-T_BA.png	2	2	17	SessionSelectionList														lure	3	Body	0-Back	15	80	14	0	0	100	6	39	90426	2	14	59	88387	-1	88872	1	485	3	3	2039	53	90440	-54	0																17												
WM080112	414229_fnca	2	1	1	-216591432	1	75.031	75.031	2.0.10.147	2.0.10.242	2.0.10.242	1.0.0.439	7	234	2	3	Verdana	1	80	0	0	0	WM Stimuli\	1	689.6	1	574.5	1	628.6	1	501.5	1	758.1	1	570.9	1	579.4	1	624.9	13	335686	2	335674	27	40	335713	-999999	335689	0	26	TrialsPROC	BP_013_BP7_BA.png	2	2	18	SessionSelectionList														target	2	Body	0-Back	16	80	15	0	0	100	1	39	92985	3	14	59	90946	-1	91533	1	587	2	2	2039	53	92999	-54	0																18												
WM080112	414229_fnca	2	1	1	-216591432	1	75.031	75.031	2.0.10.147	2.0.10.242	2.0.10.242	1.0.0.439	7	234	2	3	Verdana	1	80	0	0	0	WM Stimuli\	1	689.6	1	574.5	1	628.6	1	501.5	1	758.1	1	570.9	1	579.4	1	624.9	13	335686	2	335674	27	40	335713	-999999	335689	0	26	TrialsPROC	BP_015_H10-T_BA.png	2	2	19	SessionSelectionList														lure	3	Body	0-Back	17	80	16	0	0	100	1	39	95544	1	14	59	93505	-1	94072	1	567	3	3	2039	53	95558	-54	0																19												
WM080112	414229_fnca	2	1	1	-216591432	1	75.031	75.031	2.0.10.147	2.0.10.242	2.0.10.242	1.0.0.439	7	234	2	3	Verdana	1	80	0	0	0	WM Stimuli\	1	689.6	1	574.5	1	628.6	1	501.5	1	758.1	1	570.9	1	579.4	1	624.9	13	335686	2	335674	27	40	335713	-999999	335689	0	26	TrialsPROC	BP_016_H11-T_BA.png	2	2	20	SessionSelectionList														nonlure	3	Body	0-Back	18	80	17	0	0	100	2	39	98116	2	14	72	96077	-1	96553	1	476	3	3	2039	53	98130	-54	0																20												
WM080112	414229_fnca	2	1	1	-216591432	1	75.031	75.031	2.0.10.147	2.0.10.242	2.0.10.242	1.0.0.439	7	234	2	3	Verdana	1	80	0	0	0	WM Stimuli\	1	689.6	1	574.5	1	628.6	1	501.5	1	758.1	1	570.9	1	579.4	1	624.9	13	335686	2	335674	27	40	335713	-999999	335689	0	26	TrialsPROC	BP_013_BP7_BA.png	2	2	21	SessionSelectionList														target	2	Body	0-Back	19	80	18	0	0	100	1	40	100689	2	13	72	98649	-1	99219	1	570	2	2	2040	53	100702	-54	0																21												
WM080112	414229_fnca	2	1	1	-216591432	1	75.031	75.031	2.0.10.147	2.0.10.242	2.0.10.242	1.0.0.439	7	234	2	3	Verdana	1	80	0	0	0	WM Stimuli\	1	689.6	1	574.5	1	628.6	1	501.5	1	758.1	1	570.9	1	579.4	1	624.9	13	335686	2	335674	27	40	335713	-999999	335689	0	26	TrialsPROC	BP_017_H12-T_BA.png	2	2	22	SessionSelectionList														nonlure	3	Body	0-Back	20	80	19	0	0	100	1	39	103261	1	14	73	101222	-1	101749	1	527	3	3	2039	53	103275	-54	0																22												
WM080112	414229_fnca	2	1	1	-216591432	1	75.031	75.031	2.0.10.147	2.0.10.242	2.0.10.242	1.0.0.439	7	234	2	3	Verdana	1	80	0	0	0	WM Stimuli\	1	689.6	1	574.5	1	628.6	1	501.5	1	758.1	1	570.9	1	579.4	1	624.9	13	335686	2	335674	27	40	335713	-999999	335689	0	26	TrialsPROC	BP_014_BP9_BA.png	2	2	23	SessionSelectionList														lure	3	Body	0-Back	21	80	20	0	0	100	2	39	105820	2	14	59	103781	-1	104323	1	542	3	3	2039	53	105834	-54	0																23												
WM080112	414229_fnca	2	1	1	-216591432	1	75.031	75.031	2.0.10.147	2.0.10.242	2.0.10.242	1.0.0.439	7	234	2	3	Verdana	1	80	0	0	0	WM Stimuli\	1	689.6	1	574.5	1	628.6	1	501.5	1	758.1	1	570.9	1	579.4	1	624.9	13	335686	2	335674	27	40	335713	-999999	335689	0	27	Fix15secPROC	""	2	2	24	SessionSelectionList																																															6	106287	-7	0							24												
WM080112	414229_fnca	2	1	1	-216591432	1	75.031	75.031	2.0.10.147	2.0.10.242	2.0.10.242	1.0.0.439	7	234	2	3	Verdana	1	80	0	0	0	WM Stimuli\	1	689.6	1	574.5	1	628.6	1	501.5	1	758.1	1	570.9	1	579.4	1	624.9	13	335686	2	335674	27	40	335713	-999999	335689	0	28	Cue2BackPROC	""	2	2	25	SessionSelectionList									13	121294	-14	0																																													25												
WM080112	414229_fnca	2	1	1	-216591432	1	75.031	75.031	2.0.10.147	2.0.10.242	2.0.10.242	1.0.0.439	7	234	2	3	Verdana	1	80	0	0	0	WM Stimuli\	1	689.6	1	574.5	1	628.6	1	501.5	1	758.1	1	570.9	1	579.4	1	624.9	13	335686	2	335674	27	40	335713	-999999	335689	0	29	TrialsPROC	FC_015_M8.png	2	2	26	SessionSelectionList														nonlure	3	Face	2-Back	22	80	21	0	0	100	3	39	125905	2	14	85	123866	-1	124308	1	442	3	3	2039	53	125919	-54	0																26												
WM080112	414229_fnca	2	1	1	-216591432	1	75.031	75.031	2.0.10.147	2.0.10.242	2.0.10.242	1.0.0.439	7	234	2	3	Verdana	1	80	0	0	0	WM Stimuli\	1	689.6	1	574.5	1	628.6	1	501.5	1	758.1	1	570.9	1	579.4	1	624.9	13	335686	2	335674	27	40	335713	-999999	335689	0	29	TrialsPROC	FC_018_F9.png	2	2	27	SessionSelectionList														nonlure	3	Face	2-Back	23	80	22	0	0	100	4	40	128491	1	13	85	126451	-1	127017	1	566	3	3	2040	53	128504	-54	0																27												
WM080112	414229_fnca	2	1	1	-216591432	1	75.031	75.031	2.0.10.147	2.0.10.242	2.0.10.242	1.0.0.439	7	234	2	3	Verdana	1	80	0	0	0	WM Stimuli\	1	689.6	1	574.5	1	628.6	1	501.5	1	758.1	1	570.9	1	579.4	1	624.9	13	335686	2	335674	27	40	335713	-999999	335689	0	29	TrialsPROC	FC_018_F9.png	2	2	28	SessionSelectionList														lure	3	Face	2-Back	24	80	23	0	0	100	5	39	131063	2	14	73	129024	-1	129656	1	632	3	3	2039	53	131077	-54	0																28												
WM080112	414229_fnca	2	1	1	-216591432	1	75.031	75.031	2.0.10.147	2.0.10.242	2.0.10.242	1.0.0.439	7	234	2	3	Verdana	1	80	0	0	0	WM Stimuli\	1	689.6	1	574.5	1	628.6	1	501.5	1	758.1	1	570.9	1	579.4	1	624.9	13	335686	2	335674	27	40	335713	-999999	335689	0	29	TrialsPROC	FC_017_M9.png	2	2	29	SessionSelectionList														nonlure	3	Face	2-Back	25	80	24	0	0	100	6	39	133635	2	14	72	131596	-1	132197	1	601	3	3	2039	53	133649	-54	0																29												
WM080112	414229_fnca	2	1	1	-216591432	1	75.031	75.031	2.0.10.147	2.0.10.242	2.0.10.242	1.0.0.439	7	234	2	3	Verdana	1	80	0	0	0	WM Stimuli\	1	689.6	1	574.5	1	628.6	1	501.5	1	758.1	1	570.9	1	579.4	1	624.9	13	335686	2	335674	27	40	335713	-999999	335689	0	29	TrialsPROC	FC_017_M9.png	2	2	30	SessionSelectionList														lure	3	Face	2-Back	26	80	25	0	0	100	7	39	136207	2	14	72	134168	-1	134937	1	769	3	3	2039	53	136221	-54	0																30												
WM080112	414229_fnca	2	1	1	-216591432	1	75.031	75.031	2.0.10.147	2.0.10.242	2.0.10.242	1.0.0.439	7	234	2	3	Verdana	1	80	0	0	0	WM Stimuli\	1	689.6	1	574.5	1	628.6	1	501.5	1	758.1	1	570.9	1	579.4	1	624.9	13	335686	2	335674	27	40	335713	-999999	335689	0	29	TrialsPROC	FC_016_F8.png	2	2	31	SessionSelectionList														nonlure	3	Face	2-Back	27	80	26	0	0	100	8	39	138793	3	14	86	136754	-1	137456	1	702	3	3	2039	53	138807	-54	0																31												
WM080112	414229_fnca	2	1	1	-216591432	1	75.031	75.031	2.0.10.147	2.0.10.242	2.0.10.242	1.0.0.439	7	234	2	3	Verdana	1	80	0	0	0	WM Stimuli\	1	689.6	1	574.5	1	628.6	1	501.5	1	758.1	1	570.9	1	579.4	1	624.9	13	335686	2	335674	27	40	335713	-999999	335689	0	29	TrialsPROC	FC_013_M7.png	2	2	32	SessionSelectionList														nonlure	3	Face	2-Back	28	80	27	0	0	100	9	40	141379	1	13	85	139339	-1	139874	1	535	3	3	2040	53	141392	-54	0																32												
WM080112	414229_fnca	2	1	1	-216591432	1	75.031	75.031	2.0.10.147	2.0.10.242	2.0.10.242	1.0.0.439	7	234	2	3	Verdana	1	80	0	0	0	WM Stimuli\	1	689.6	1	574.5	1	628.6	1	501.5	1	758.1	1	570.9	1	579.4	1	624.9	13	335686	2	335674	27	40	335713	-999999	335689	0	29	TrialsPROC	FC_014_F7.png	2	2	33	SessionSelectionList														nonlure	3	Face	2-Back	29	80	28	0	0	100	10	39	143951	2	14	73	141912	-1	142539	1	627	3	3	2039	53	143965	-54	0																33												
WM080112	414229_fnca	2	1	1	-216591432	1	75.031	75.031	2.0.10.147	2.0.10.242	2.0.10.242	1.0.0.439	7	234	2	3	Verdana	1	80	0	0	0	WM Stimuli\	1	689.6	1	574.5	1	628.6	1	501.5	1	758.1	1	570.9	1	579.4	1	624.9	13	335686	2	335674	27	40	335713	-999999	335689	0	29	TrialsPROC	FC_013_M7.png	2	2	34	SessionSelectionList														target	2	Face	2-Back	30	80	29	0	0	100	1	39	146523	2	14	72	144484	-1	144955	1	471	2	2	2039	53	146537	-54	0																34												
WM080112	414229_fnca	2	1	1	-216591432	1	75.031	75.031	2.0.10.147	2.0.10.242	2.0.10.242	1.0.0.439	7	234	2	3	Verdana	1	80	0	0	0	WM Stimuli\	1	689.6	1	574.5	1	628.6	1	501.5	1	758.1	1	570.9	1	579.4	1	624.9	13	335686	2	335674	27	40	335713	-999999	335689	0	29	TrialsPROC	FC_014_F7.png	2	2	35	SessionSelectionList														target	2	Face	2-Back	31	80	30	0	0	100	2	39	149095	3	14	72	147056	-1	147997	1	941	2	2	2039	53	149109	-54	0																35												
WM080112	414229_fnca	2	1	1	-216591432	1	75.031	75.031	2.0.10.147	2.0.10.242	2.0.10.242	1.0.0.439	7	234	2	3	Verdana	1	80	0	0	0	WM Stimuli\	1	689.6	1	574.5	1	628.6	1	501.5	1	758.1	1	570.9	1	579.4	1	624.9	13	335686	2	335674	27	40	335713	-999999	335689	0	30	Cue0BackPROC	TO_019_TOOL19_BA.png	2	2	36	SessionSelectionList																																										33	149589	-34	0												36												
WM080112	414229_fnca	2	1	1	-216591432	1	75.031	75.031	2.0.10.147	2.0.10.242	2.0.10.242	1.0.0.439	7	234	2	3	Verdana	1	80	0	0	0	WM Stimuli\	1	689.6	1	574.5	1	628.6	1	501.5	1	758.1	1	570.9	1	579.4	1	624.9	13	335686	2	335674	27	40	335713	-999999	335689	0	31	TrialsPROC	TO_019_TOOL19_BA.png	2	2	37	SessionSelectionList														target	2	Tools	0-Back	32	80	31	0	0	100	3	39	154147	1	13	52	152108	-1	153407	1	1299	2	2	2039	52	154160	-53	0																37												
WM080112	414229_fnca	2	1	1	-216591432	1	75.031	75.031	2.0.10.147	2.0.10.242	2.0.10.242	1.0.0.439	7	234	2	3	Verdana	1	80	0	0	0	WM Stimuli\	1	689.6	1	574.5	1	628.6	1	501.5	1	758.1	1	570.9	1	579.4	1	624.9	13	335686	2	335674	27	40	335713	-999999	335689	0	31	TrialsPROC	TO_024_TOOL24_BA.png	2	2	38	SessionSelectionList														nonlure	3	Tools	0-Back	33	80	32	0	0	100	1	39	156719	1	14	72	154680	-1	155260	1	580	3	3	2039	53	156733	-54	0																38												
WM080112	414229_fnca	2	1	1	-216591432	1	75.031	75.031	2.0.10.147	2.0.10.242	2.0.10.242	1.0.0.439	7	234	2	3	Verdana	1	80	0	0	0	WM Stimuli\	1	689.6	1	574.5	1	628.6	1	501.5	1	758.1	1	570.9	1	579.4	1	624.9	13	335686	2	335674	27	40	335713	-999999	335689	0	31	TrialsPROC	TO_019_TOOL19_BA.png	2	2	39	SessionSelectionList														target	2	Tools	0-Back	34	80	33	0	0	100	1	39	159278	1	14	59	157239	-1	157775	1	536	2	2	2039	53	159292	-54	0																39												
WM080112	414229_fnca	2	1	1	-216591432	1	75.031	75.031	2.0.10.147	2.0.10.242	2.0.10.242	1.0.0.439	7	234	2	3	Verdana	1	80	0	0	0	WM Stimuli\	1	689.6	1	574.5	1	628.6	1	501.5	1	758.1	1	570.9	1	579.4	1	624.9	13	335686	2	335674	27	40	335713	-999999	335689	0	31	TrialsPROC	TO_023_TOOL23_BA.png	2	2	40	SessionSelectionList														nonlure	3	Tools	0-Back	35	80	34	0	0	100	1	39	161850	2	14	72	159811	-1	160392	1	581	3	3	2039	53	161864	-54	0																40												
WM080112	414229_fnca	2	1	1	-216591432	1	75.031	75.031	2.0.10.147	2.0.10.242	2.0.10.242	1.0.0.439	7	234	2	3	Verdana	1	80	0	0	0	WM Stimuli\	1	689.6	1	574.5	1	628.6	1	501.5	1	758.1	1	570.9	1	579.4	1	624.9	13	335686	2	335674	27	40	335713	-999999	335689	0	31	TrialsPROC	TO_020_TOOL20_BA.png	2	2	41	SessionSelectionList														nonlure	3	Tools	0-Back	36	80	35	0	0	100	2	39	164409	3	14	59	162370	-1	162813	1	443	3	3	2039	53	164423	-54	0																41												
WM080112	414229_fnca	2	1	1	-216591432	1	75.031	75.031	2.0.10.147	2.0.10.242	2.0.10.242	1.0.0.439	7	234	2	3	Verdana	1	80	0	0	0	WM Stimuli\	1	689.6	1	574.5	1	628.6	1	501.5	1	758.1	1	570.9	1	579.4	1	624.9	13	335686	2	335674	27	40	335713	-999999	335689	0	31	TrialsPROC	TO_020_TOOL20_BA.png	2	2	42	SessionSelectionList														lure	3	Tools	0-Back	37	80	36	0	0	100	3	39	166968	2	14	59	164929	-1	165572	1	643	3	3	2039	53	166982	-54	0																42												
WM080112	414229_fnca	2	1	1	-216591432	1	75.031	75.031	2.0.10.147	2.0.10.242	2.0.10.242	1.0.0.439	7	234	2	3	Verdana	1	80	0	0	0	WM Stimuli\	1	689.6	1	574.5	1	628.6	1	501.5	1	758.1	1	570.9	1	579.4	1	624.9	13	335686	2	335674	27	40	335713	-999999	335689	0	31	TrialsPROC	TO_022_TOOL22_BA.png	2	2	43	SessionSelectionList														nonlure	3	Tools	0-Back	38	80	37	0	0	100	4	39	169540	3	14	72	167501	-1	168066	1	565	3	3	2039	53	169554	-54	0																43												
WM080112	414229_fnca	2	1	1	-216591432	1	75.031	75.031	2.0.10.147	2.0.10.242	2.0.10.242	1.0.0.439	7	234	2	3	Verdana	1	80	0	0	0	WM Stimuli\	1	689.6	1	574.5	1	628.6	1	501.5	1	758.1	1	570.9	1	579.4	1	624.9	13	335686	2	335674	27	40	335713	-999999	335689	0	31	TrialsPROC	TO_022_TOOL22_BA.png	2	2	44	SessionSelectionList														lure	3	Tools	0-Back	39	80	38	0	0	100	5	39	172099	2	14	59	170060	-1	170621	1	561	3	3	2039	53	172113	-54	0																44												
WM080112	414229_fnca	2	1	1	-216591432	1	75.031	75.031	2.0.10.147	2.0.10.242	2.0.10.242	1.0.0.439	7	234	2	3	Verdana	1	80	0	0	0	WM Stimuli\	1	689.6	1	574.5	1	628.6	1	501.5	1	758.1	1	570.9	1	579.4	1	624.9	13	335686	2	335674	27	40	335713	-999999	335689	0	31	TrialsPROC	TO_021_TOOL21_BA.png	2	2	45	SessionSelectionList														nonlure	3	Tools	0-Back	40	80	39	0	0	100	6	40	174672	2	13	72	172632	-1	173195	1	563	3	3	2040	53	174685	-54	0																45												
WM080112	414229_fnca	2	1	1	-216591432	1	75.031	75.031	2.0.10.147	2.0.10.242	2.0.10.242	1.0.0.439	7	234	2	3	Verdana	1	80	0	0	0	WM Stimuli\	1	689.6	1	574.5	1	628.6	1	501.5	1	758.1	1	570.9	1	579.4	1	624.9	13	335686	2	335674	27	40	335713	-999999	335689	0	31	TrialsPROC	TO_021_TOOL21_BA.png	2	2	46	SessionSelectionList														lure	3	Tools	0-Back	41	80	40	0	0	100	7	40	177231	1	13	59	175191	-1	175669	1	478	3	3	2040	53	177244	-54	0																46												
WM080112	414229_fnca	2	1	1	-216591432	1	75.031	75.031	2.0.10.147	2.0.10.242	2.0.10.242	1.0.0.439	7	234	2	3	Verdana	1	80	0	0	0	WM Stimuli\	1	689.6	1	574.5	1	628.6	1	501.5	1	758.1	1	570.9	1	579.4	1	624.9	13	335686	2	335674	27	40	335713	-999999	335689	0	32	Fix15secPROC	""	2	2	47	SessionSelectionList																																															6	177697	-7	0							47												
WM080112	414229_fnca	2	1	1	-216591432	1	75.031	75.031	2.0.10.147	2.0.10.242	2.0.10.242	1.0.0.439	7	234	2	3	Verdana	1	80	0	0	0	WM Stimuli\	1	689.6	1	574.5	1	628.6	1	501.5	1	758.1	1	570.9	1	579.4	1	624.9	13	335686	2	335674	27	40	335713	-999999	335689	0	33	Cue2BackPROC	""	2	2	48	SessionSelectionList									13	192704	-14	0																																													48												
WM080112	414229_fnca	2	1	1	-216591432	1	75.031	75.031	2.0.10.147	2.0.10.242	2.0.10.242	1.0.0.439	7	234	2	3	Verdana	1	80	0	0	0	WM Stimuli\	1	689.6	1	574.5	1	628.6	1	501.5	1	758.1	1	570.9	1	579.4	1	624.9	13	335686	2	335674	27	40	335713	-999999	335689	0	34	TrialsPROC	BP_020_H17-T_BA.png	2	2	49	SessionSelectionList														nonlure	3	Body	2-Back	42	80	41	0	0	100	8	39	197302	2	14	72	195263	-1	195734	1	471	3	3	2039	53	197316	-54	0																49												
WM080112	414229_fnca	2	1	1	-216591432	1	75.031	75.031	2.0.10.147	2.0.10.242	2.0.10.242	1.0.0.439	7	234	2	3	Verdana	1	80	0	0	0	WM Stimuli\	1	689.6	1	574.5	1	628.6	1	501.5	1	758.1	1	570.9	1	579.4	1	624.9	13	335686	2	335674	27	40	335713	-999999	335689	0	34	TrialsPROC	BP_019_H14-T_BA.png	2	2	50	SessionSelectionList														nonlure	3	Body	2-Back	43	80	42	0	0	100	9	40	199875	2	13	72	197835	-1	198318	1	483	3	3	2040	53	199888	-54	0																50												
WM080112	414229_fnca	2	1	1	-216591432	1	75.031	75.031	2.0.10.147	2.0.10.242	2.0.10.242	1.0.0.439	7	234	2	3	Verdana	1	80	0	0	0	WM Stimuli\	1	689.6	1	574.5	1	628.6	1	501.5	1	758.1	1	570.9	1	579.4	1	624.9	13	335686	2	335674	27	40	335713	-999999	335689	0	34	TrialsPROC	BP_020_H17-T_BA.png	2	2	51	SessionSelectionList														target	2	Body	2-Back	44	80	43	0	0	100	1	39	202434	2	13	60	200395	-1	200913	1	518	2	2	2039	52	202447	-53	0																51												
WM080112	414229_fnca	2	1	1	-216591432	1	75.031	75.031	2.0.10.147	2.0.10.242	2.0.10.242	1.0.0.439	7	234	2	3	Verdana	1	80	0	0	0	WM Stimuli\	1	689.6	1	574.5	1	628.6	1	501.5	1	758.1	1	570.9	1	579.4	1	624.9	13	335686	2	335674	27	40	335713	-999999	335689	0	34	TrialsPROC	BP_019_H14-T_BA.png	2	2	52	SessionSelectionList														target	2	Body	2-Back	45	80	44	0	0	100	2	39	205006	2	14	72	202967	-1	203449	1	482	2	2	2039	53	205020	-54	0																52												
WM080112	414229_fnca	2	1	1	-216591432	1	75.031	75.031	2.0.10.147	2.0.10.242	2.0.10.242	1.0.0.439	7	234	2	3	Verdana	1	80	0	0	0	WM Stimuli\	1	689.6	1	574.5	1	628.6	1	501.5	1	758.1	1	570.9	1	579.4	1	624.9	13	335686	2	335674	27	40	335713	-999999	335689	0	34	TrialsPROC	BP_024_H3-T_BA.png	2	2	53	SessionSelectionList														nonlure	3	Body	2-Back	46	80	45	0	0	100	1	39	207565	1	14	59	205526	-1	206264	1	738	3	3	2039	53	207579	-54	0																53												
WM080112	414229_fnca	2	1	1	-216591432	1	75.031	75.031	2.0.10.147	2.0.10.242	2.0.10.242	1.0.0.439	7	234	2	3	Verdana	1	80	0	0	0	WM Stimuli\	1	689.6	1	574.5	1	628.6	1	501.5	1	758.1	1	570.9	1	579.4	1	624.9	13	335686	2	335674	27	40	335713	-999999	335689	0	34	TrialsPROC	BP_024_H3-T_BA.png	2	2	54	SessionSelectionList														lure	3	Body	2-Back	47	80	46	0	0	100	2	39	210124	1	13	59	208085	-1	209178	1	1093	3	3	2039	52	210137	-53	0																54												
WM080112	414229_fnca	2	1	1	-216591432	1	75.031	75.031	2.0.10.147	2.0.10.242	2.0.10.242	1.0.0.439	7	234	2	3	Verdana	1	80	0	0	0	WM Stimuli\	1	689.6	1	574.5	1	628.6	1	501.5	1	758.1	1	570.9	1	579.4	1	624.9	13	335686	2	335674	27	40	335713	-999999	335689	0	34	TrialsPROC	BP_025_H5-T_BA.png	2	2	55	SessionSelectionList														nonlure	3	Body	2-Back	48	80	47	0	0	100	3	39	212683	1	13	59	210644	-1	211381	1	737	3	3	2039	52	212696	-53	0																55												
WM080112	414229_fnca	2	1	1	-216591432	1	75.031	75.031	2.0.10.147	2.0.10.242	2.0.10.242	1.0.0.439	7	234	2	3	Verdana	1	80	0	0	0	WM Stimuli\	1	689.6	1	574.5	1	628.6	1	501.5	1	758.1	1	570.9	1	579.4	1	624.9	13	335686	2	335674	27	40	335713	-999999	335689	0	34	TrialsPROC	BP_023_H25-T_BA.png	2	2	56	SessionSelectionList														nonlure	3	Body	2-Back	49	80	48	0	0	100	4	39	215255	1	14	72	213216	-1	214060	1	844	3	3	2039	53	215269	-54	0																56												
WM080112	414229_fnca	2	1	1	-216591432	1	75.031	75.031	2.0.10.147	2.0.10.242	2.0.10.242	1.0.0.439	7	234	2	3	Verdana	1	80	0	0	0	WM Stimuli\	1	689.6	1	574.5	1	628.6	1	501.5	1	758.1	1	570.9	1	579.4	1	624.9	13	335686	2	335674	27	40	335713	-999999	335689	0	34	TrialsPROC	BP_022_H24-T_BA.png	2	2	57	SessionSelectionList														nonlure	3	Body	2-Back	50	80	49	0	0	100	5	39	217827	3	14	72	215788	-1	216404	1	616	3	3	2039	53	217841	-54	0																57												
WM080112	414229_fnca	2	1	1	-216591432	1	75.031	75.031	2.0.10.147	2.0.10.242	2.0.10.242	1.0.0.439	7	234	2	3	Verdana	1	80	0	0	0	WM Stimuli\	1	689.6	1	574.5	1	628.6	1	501.5	1	758.1	1	570.9	1	579.4	1	624.9	13	335686	2	335674	27	40	335713	-999999	335689	0	34	TrialsPROC	BP_022_H24-T_BA.png	2	2	58	SessionSelectionList														lure	3	Body	2-Back	51	80	50	0	0	100	6	39	220386	2	14	59	218347	-1	219261	1	914	3	3	2039	53	220400	-54	0																58												
WM080112	414229_fnca	2	1	1	-216591432	1	75.031	75.031	2.0.10.147	2.0.10.242	2.0.10.242	1.0.0.439	7	234	2	3	Verdana	1	80	0	0	0	WM Stimuli\	1	689.6	1	574.5	1	628.6	1	501.5	1	758.1	1	570.9	1	579.4	1	624.9	13	335686	2	335674	27	40	335713	-999999	335689	0	35	Cue2BackPROC	""	2	2	59	SessionSelectionList									6	220853	-7	0																																													59												
WM080112	414229_fnca	2	1	1	-216591432	1	75.031	75.031	2.0.10.147	2.0.10.242	2.0.10.242	1.0.0.439	7	234	2	3	Verdana	1	80	0	0	0	WM Stimuli\	1	689.6	1	574.5	1	628.6	1	501.5	1	758.1	1	570.9	1	579.4	1	624.9	13	335686	2	335674	27	40	335713	-999999	335689	0	36	TrialsPROC	PL_019_SCENE_05.png	2	2	60	SessionSelectionList														nonlure	3	Place	2-Back	52	80	51	0	0	100	7	39	225451	2	14	65	223412	-1	224352	1	940	3	3	2039	53	225465	-54	0																60												
WM080112	414229_fnca	2	1	1	-216591432	1	75.031	75.031	2.0.10.147	2.0.10.242	2.0.10.242	1.0.0.439	7	234	2	3	Verdana	1	80	0	0	0	WM Stimuli\	1	689.6	1	574.5	1	628.6	1	501.5	1	758.1	1	570.9	1	579.4	1	624.9	13	335686	2	335674	27	40	335713	-999999	335689	0	36	TrialsPROC	PL_017_SCENE_03.png	2	2	61	SessionSelectionList														nonlure	3	Place	2-Back	53	80	52	0	0	100	8	39	228036	3	14	85	225997	-1	226608	1	611	3	3	2039	53	228050	-54	0																61												
WM080112	414229_fnca	2	1	1	-216591432	1	75.031	75.031	2.0.10.147	2.0.10.242	2.0.10.242	1.0.0.439	7	234	2	3	Verdana	1	80	0	0	0	WM Stimuli\	1	689.6	1	574.5	1	628.6	1	501.5	1	758.1	1	570.9	1	579.4	1	624.9	13	335686	2	335674	27	40	335713	-999999	335689	0	36	TrialsPROC	PL_017_SCENE_03.png	2	2	62	SessionSelectionList														lure	3	Place	2-Back	54	80	53	0	0	100	9	39	230609	1	13	73	228570	-1	229186	1	616	3	3	2039	52	230622	-53	0																62												
WM080112	414229_fnca	2	1	1	-216591432	1	75.031	75.031	2.0.10.147	2.0.10.242	2.0.10.242	1.0.0.439	7	234	2	3	Verdana	1	80	0	0	0	WM Stimuli\	1	689.6	1	574.5	1	628.6	1	501.5	1	758.1	1	570.9	1	579.4	1	624.9	13	335686	2	335674	27	40	335713	-999999	335689	0	36	TrialsPROC	PL_016_SCENE_02.png	2	2	63	SessionSelectionList														nonlure	3	Place	2-Back	55	80	54	0	0	100	10	39	233181	1	14	72	231142	-1	231898	1	756	3	3	2039	53	233195	-54	0																63												
WM080112	414229_fnca	2	1	1	-216591432	1	75.031	75.031	2.0.10.147	2.0.10.242	2.0.10.242	1.0.0.439	7	234	2	3	Verdana	1	80	0	0	0	WM Stimuli\	1	689.6	1	574.5	1	628.6	1	501.5	1	758.1	1	570.9	1	579.4	1	624.9	13	335686	2	335674	27	40	335713	-999999	335689	0	36	TrialsPROC	PL_015_SCENE_01.png	2	2	64	SessionSelectionList														nonlure	3	Place	2-Back	56	80	55	0	0	100	11	40	235767	2	13	85	233727	-1	234573	1	846	3	3	2040	53	235780	-54	0																64												
WM080112	414229_fnca	2	1	1	-216591432	1	75.031	75.031	2.0.10.147	2.0.10.242	2.0.10.242	1.0.0.439	7	234	2	3	Verdana	1	80	0	0	0	WM Stimuli\	1	689.6	1	574.5	1	628.6	1	501.5	1	758.1	1	570.9	1	579.4	1	624.9	13	335686	2	335674	27	40	335713	-999999	335689	0	36	TrialsPROC	PL_016_SCENE_02.png	2	2	65	SessionSelectionList														target	2	Place	2-Back	57	80	56	0	0	100	1	39	238339	2	14	73	236300	-1	237287	1	987	2	2	2039	53	238353	-54	0																65												
WM080112	414229_fnca	2	1	1	-216591432	1	75.031	75.031	2.0.10.147	2.0.10.242	2.0.10.242	1.0.0.439	7	234	2	3	Verdana	1	80	0	0	0	WM Stimuli\	1	689.6	1	574.5	1	628.6	1	501.5	1	758.1	1	570.9	1	579.4	1	624.9	13	335686	2	335674	27	40	335713	-999999	335689	0	36	TrialsPROC	PL_015_SCENE_01.png	2	2	66	SessionSelectionList														target	2	Place	2-Back	58	80	57	0	0	100	2	39	240911	2	14	72	238872	-1	240086	1	1214	2	2	2039	53	240925	-54	0																66												
WM080112	414229_fnca	2	1	1	-216591432	1	75.031	75.031	2.0.10.147	2.0.10.242	2.0.10.242	1.0.0.439	7	234	2	3	Verdana	1	80	0	0	0	WM Stimuli\	1	689.6	1	574.5	1	628.6	1	501.5	1	758.1	1	570.9	1	579.4	1	624.9	13	335686	2	335674	27	40	335713	-999999	335689	0	36	TrialsPROC	PL_020_SCENE_06.png	2	2	67	SessionSelectionList														nonlure	3	Place	2-Back	59	80	58	0	0	100	1	39	243510	1	14	99	241471	-1	241996	1	525	3	3	2039	53	243524	-54	0																67												
WM080112	414229_fnca	2	1	1	-216591432	1	75.031	75.031	2.0.10.147	2.0.10.242	2.0.10.242	1.0.0.439	7	234	2	3	Verdana	1	80	0	0	0	WM Stimuli\	1	689.6	1	574.5	1	628.6	1	501.5	1	758.1	1	570.9	1	579.4	1	624.9	13	335686	2	335674	27	40	335713	-999999	335689	0	36	TrialsPROC	PL_020_SCENE_06.png	2	2	68	SessionSelectionList														lure	3	Place	2-Back	60	80	59	0	0	100	2	39	246082	3	14	72	244043	-1	244537	1	494	3	3	2039	53	246096	-54	0																68												
WM080112	414229_fnca	2	1	1	-216591432	1	75.031	75.031	2.0.10.147	2.0.10.242	2.0.10.242	1.0.0.439	7	234	2	3	Verdana	1	80	0	0	0	WM Stimuli\	1	689.6	1	574.5	1	628.6	1	501.5	1	758.1	1	570.9	1	579.4	1	624.9	13	335686	2	335674	27	40	335713	-999999	335689	0	36	TrialsPROC	PL_018_SCENE_04.png	2	2	69	SessionSelectionList														nonlure	3	Place	2-Back	61	80	60	0	0	100	3	39	248668	1	14	86	246629	-1	247221	1	592	3	3	2039	53	248682	-54	0																69												
WM080112	414229_fnca	2	1	1	-216591432	1	75.031	75.031	2.0.10.147	2.0.10.242	2.0.10.242	1.0.0.439	7	234	2	3	Verdana	1	80	0	0	0	WM Stimuli\	1	689.6	1	574.5	1	628.6	1	501.5	1	758.1	1	570.9	1	579.4	1	624.9	13	335686	2	335674	27	40	335713	-999999	335689	0	37	Fix15secPROC	""	2	2	70	SessionSelectionList																																															6	249135	-7	0							70												
WM080112	414229_fnca	2	1	1	-216591432	1	75.031	75.031	2.0.10.147	2.0.10.242	2.0.10.242	1.0.0.439	7	234	2	3	Verdana	1	80	0	0	0	WM Stimuli\	1	689.6	1	574.5	1	628.6	1	501.5	1	758.1	1	570.9	1	579.4	1	624.9	13	335686	2	335674	27	40	335713	-999999	335689	0	38	Cue0BackPROC	FC_020_F10.png	2	2	71	SessionSelectionList																																										39	264168	-40	0												71												
WM080112	414229_fnca	2	1	1	-216591432	1	75.031	75.031	2.0.10.147	2.0.10.242	2.0.10.242	1.0.0.439	7	234	2	3	Verdana	1	80	0	0	0	WM Stimuli\	1	689.6	1	574.5	1	628.6	1	501.5	1	758.1	1	570.9	1	579.4	1	624.9	13	335686	2	335674	27	40	335713	-999999	335689	0	39	TrialsPROC	FC_024_F12.png	2	2	72	SessionSelectionList														nonlure	3	Face	0-Back	62	80	61	0	0	100	4	39	268753	1	14	85	266714	-1	267503	1	789	3	3	2039	53	268767	-54	0																72												
WM080112	414229_fnca	2	1	1	-216591432	1	75.031	75.031	2.0.10.147	2.0.10.242	2.0.10.242	1.0.0.439	7	234	2	3	Verdana	1	80	0	0	0	WM Stimuli\	1	689.6	1	574.5	1	628.6	1	501.5	1	758.1	1	570.9	1	579.4	1	624.9	13	335686	2	335674	27	40	335713	-999999	335689	0	39	TrialsPROC	FC_023_M12.png	2	2	73	SessionSelectionList														nonlure	3	Face	0-Back	63	80	62	0	0	100	5	40	271339	1	13	85	269299	-1	269783	1	484	3	3	2040	53	271352	-54	0																73												
WM080112	414229_fnca	2	1	1	-216591432	1	75.031	75.031	2.0.10.147	2.0.10.242	2.0.10.242	1.0.0.439	7	234	2	3	Verdana	1	80	0	0	0	WM Stimuli\	1	689.6	1	574.5	1	628.6	1	501.5	1	758.1	1	570.9	1	579.4	1	624.9	13	335686	2	335674	27	40	335713	-999999	335689	0	39	TrialsPROC	FC_020_F10.png	2	2	74	SessionSelectionList														target	2	Face	0-Back	64	80	63	0	0	100	1	39	273911	1	14	73	271872	-1	272378	1	506	2	2	2039	53	273925	-54	0																74												
WM080112	414229_fnca	2	1	1	-216591432	1	75.031	75.031	2.0.10.147	2.0.10.242	2.0.10.242	1.0.0.439	7	234	2	3	Verdana	1	80	0	0	0	WM Stimuli\	1	689.6	1	574.5	1	628.6	1	501.5	1	758.1	1	570.9	1	579.4	1	624.9	13	335686	2	335674	27	40	335713	-999999	335689	0	39	TrialsPROC	FC_024_F12.png	2	2	75	SessionSelectionList														lure	3	Face	0-Back	65	80	64	0	0	100	1	39	276483	3	14	72	274444	-1	274815	1	371	3	3	2039	53	276497	-54	0																75												
WM080112	414229_fnca	2	1	1	-216591432	1	75.031	75.031	2.0.10.147	2.0.10.242	2.0.10.242	1.0.0.439	7	234	2	3	Verdana	1	80	0	0	0	WM Stimuli\	1	689.6	1	574.5	1	628.6	1	501.5	1	758.1	1	570.9	1	579.4	1	624.9	13	335686	2	335674	27	40	335713	-999999	335689	0	39	TrialsPROC	FC_020_F10.png	2	2	76	SessionSelectionList														target	2	Face	0-Back	66	80	65	0	0	100	1	39	279055	2	14	72	277016	-1	277466	1	450	2	2	2039	53	279069	-54	0																76												
WM080112	414229_fnca	2	1	1	-216591432	1	75.031	75.031	2.0.10.147	2.0.10.242	2.0.10.242	1.0.0.439	7	234	2	3	Verdana	1	80	0	0	0	WM Stimuli\	1	689.6	1	574.5	1	628.6	1	501.5	1	758.1	1	570.9	1	579.4	1	624.9	13	335686	2	335674	27	40	335713	-999999	335689	0	39	TrialsPROC	FC_022_F11.png	2	2	77	SessionSelectionList														nonlure	3	Face	0-Back	67	80	66	0	0	100	1	39	281641	1	14	86	279602	-1	279980	1	378	3	3	2039	53	281655	-54	0																77												
WM080112	414229_fnca	2	1	1	-216591432	1	75.031	75.031	2.0.10.147	2.0.10.242	2.0.10.242	1.0.0.439	7	234	2	3	Verdana	1	80	0	0	0	WM Stimuli\	1	689.6	1	574.5	1	628.6	1	501.5	1	758.1	1	570.9	1	579.4	1	624.9	13	335686	2	335674	27	40	335713	-999999	335689	0	39	TrialsPROC	FC_023_M12.png	2	2	78	SessionSelectionList														lure	3	Face	0-Back	68	80	67	0	0	100	2	39	284213	2	14	72	282174	-1	282739	1	565	3	3	2039	53	284227	-54	0																78												
WM080112	414229_fnca	2	1	1	-216591432	1	75.031	75.031	2.0.10.147	2.0.10.242	2.0.10.242	1.0.0.439	7	234	2	3	Verdana	1	80	0	0	0	WM Stimuli\	1	689.6	1	574.5	1	628.6	1	501.5	1	758.1	1	570.9	1	579.4	1	624.9	13	335686	2	335674	27	40	335713	-999999	335689	0	39	TrialsPROC	FC_021_M11.png	2	2	79	SessionSelectionList														nonlure	3	Face	0-Back	69	80	68	0	0	100	3	39	286799	2	14	86	284760	-1	285186	1	426	3	3	2039	53	286813	-54	0																79												
WM080112	414229_fnca	2	1	1	-216591432	1	75.031	75.031	2.0.10.147	2.0.10.242	2.0.10.242	1.0.0.439	7	234	2	3	Verdana	1	80	0	0	0	WM Stimuli\	1	689.6	1	574.5	1	628.6	1	501.5	1	758.1	1	570.9	1	579.4	1	624.9	13	335686	2	335674	27	40	335713	-999999	335689	0	39	TrialsPROC	FC_021_M11.png	2	2	80	SessionSelectionList														lure	3	Face	0-Back	70	80	69	0	0	100	4	39	289371	2	14	72	287332	-1	287804	1	472	3	3	2039	53	289385	-54	0																80												
WM080112	414229_fnca	2	1	1	-216591432	1	75.031	75.031	2.0.10.147	2.0.10.242	2.0.10.242	1.0.0.439	7	234	2	3	Verdana	1	80	0	0	0	WM Stimuli\	1	689.6	1	574.5	1	628.6	1	501.5	1	758.1	1	570.9	1	579.4	1	624.9	13	335686	2	335674	27	40	335713	-999999	335689	0	39	TrialsPROC	FC_019_M10.png	2	2	81	SessionSelectionList														nonlure	3	Face	0-Back	71	80	70	0	0	100	5	39	291957	2	14	86	289918	-1	290492	1	574	3	3	2039	53	291971	-54	0																81												
WM080112	414229_fnca	2	1	1	-216591432	1	75.031	75.031	2.0.10.147	2.0.10.242	2.0.10.242	1.0.0.439	7	234	2	3	Verdana	1	80	0	0	0	WM Stimuli\	1	689.6	1	574.5	1	628.6	1	501.5	1	758.1	1	570.9	1	579.4	1	624.9	13	335686	2	335674	27	40	335713	-999999	335689	0	40	Cue0BackPROC	PL_021_SCENE_07.png	2	2	82	SessionSelectionList																																										45	292463	-46	0												82												
WM080112	414229_fnca	2	1	1	-216591432	1	75.031	75.031	2.0.10.147	2.0.10.242	2.0.10.242	1.0.0.439	7	234	2	3	Verdana	1	80	0	0	0	WM Stimuli\	1	689.6	1	574.5	1	628.6	1	501.5	1	758.1	1	570.9	1	579.4	1	624.9	13	335686	2	335674	27	40	335713	-999999	335689	0	41	TrialsPROC	PL_025_SCENE_18.png	2	2	83	SessionSelectionList														nonlure	3	Place	0-Back	72	80	71	0	0	100	6	39	297048	3	14	91	295009	-1	295480	1	471	3	3	2039	53	297062	-54	0																83												
WM080112	414229_fnca	2	1	1	-216591432	1	75.031	75.031	2.0.10.147	2.0.10.242	2.0.10.242	1.0.0.439	7	234	2	3	Verdana	1	80	0	0	0	WM Stimuli\	1	689.6	1	574.5	1	628.6	1	501.5	1	758.1	1	570.9	1	579.4	1	624.9	13	335686	2	335674	27	40	335713	-999999	335689	0	41	TrialsPROC	PL_026_SCENE_24.png	2	2	84	SessionSelectionList														nonlure	3	Place	0-Back	73	80	72	0	0	100	7	39	299634	2	13	86	297595	-1	298328	1	733	3	3	2039	52	299647	-53	0																84												
WM080112	414229_fnca	2	1	1	-216591432	1	75.031	75.031	2.0.10.147	2.0.10.242	2.0.10.242	1.0.0.439	7	234	2	3	Verdana	1	80	0	0	0	WM Stimuli\	1	689.6	1	574.5	1	628.6	1	501.5	1	758.1	1	570.9	1	579.4	1	624.9	13	335686	2	335674	27	40	335713	-999999	335689	0	41	TrialsPROC	PL_025_SCENE_18.png	2	2	85	SessionSelectionList														lure	3	Place	0-Back	74	80	73	0	0	100	8	39	302206	2	14	72	300167	-1	300828	1	661	3	3	2039	53	302220	-54	0																85												
WM080112	414229_fnca	2	1	1	-216591432	1	75.031	75.031	2.0.10.147	2.0.10.242	2.0.10.242	1.0.0.439	7	234	2	3	Verdana	1	80	0	0	0	WM Stimuli\	1	689.6	1	574.5	1	628.6	1	501.5	1	758.1	1	570.9	1	579.4	1	624.9	13	335686	2	335674	27	40	335713	-999999	335689	0	41	TrialsPROC	PL_022_SCENE_08.png	2	2	86	SessionSelectionList														nonlure	3	Place	0-Back	75	80	74	0	0	100	9	39	304778	2	14	72	302739	-1	303343	1	604	3	3	2039	53	304792	-54	0																86												
WM080112	414229_fnca	2	1	1	-216591432	1	75.031	75.031	2.0.10.147	2.0.10.242	2.0.10.242	1.0.0.439	7	234	2	3	Verdana	1	80	0	0	0	WM Stimuli\	1	689.6	1	574.5	1	628.6	1	501.5	1	758.1	1	570.9	1	579.4	1	624.9	13	335686	2	335674	27	40	335713	-999999	335689	0	41	TrialsPROC	PL_026_SCENE_24.png	2	2	87	SessionSelectionList														lure	3	Place	0-Back	76	80	75	0	0	100	10	40	307351	2	13	72	305311	-1	305851	1	540	3	3	2040	53	307364	-54	0																87												
WM080112	414229_fnca	2	1	1	-216591432	1	75.031	75.031	2.0.10.147	2.0.10.242	2.0.10.242	1.0.0.439	7	234	2	3	Verdana	1	80	0	0	0	WM Stimuli\	1	689.6	1	574.5	1	628.6	1	501.5	1	758.1	1	570.9	1	579.4	1	624.9	13	335686	2	335674	27	40	335713	-999999	335689	0	41	TrialsPROC	PL_021_SCENE_07.png	2	2	88	SessionSelectionList														target	2	Place	0-Back	77	80	76	0	0	100	1	39	309923	2	14	73	307884	-1	308386	1	502	2	2	2039	53	309937	-54	0																88												
WM080112	414229_fnca	2	1	1	-216591432	1	75.031	75.031	2.0.10.147	2.0.10.242	2.0.10.242	1.0.0.439	7	234	2	3	Verdana	1	80	0	0	0	WM Stimuli\	1	689.6	1	574.5	1	628.6	1	501.5	1	758.1	1	570.9	1	579.4	1	624.9	13	335686	2	335674	27	40	335713	-999999	335689	0	41	TrialsPROC	PL_021_SCENE_07.png	2	2	89	SessionSelectionList														target	2	Place	0-Back	78	80	77	0	0	100	2	39	312495	1	14	72	310456	-1	311004	1	548	2	2	2039	53	312509	-54	0																89												
WM080112	414229_fnca	2	1	1	-216591432	1	75.031	75.031	2.0.10.147	2.0.10.242	2.0.10.242	1.0.0.439	7	234	2	3	Verdana	1	80	0	0	0	WM Stimuli\	1	689.6	1	574.5	1	628.6	1	501.5	1	758.1	1	570.9	1	579.4	1	624.9	13	335686	2	335674	27	40	335713	-999999	335689	0	41	TrialsPROC	PL_023_SCENE_09.png	2	2	90	SessionSelectionList														nonlure	3	Place	0-Back	79	80	78	0	0	100	1	39	315067	3	14	72	313028	-1	313510	1	482	3	3	2039	53	315081	-54	0																90												
WM080112	414229_fnca	2	1	1	-216591432	1	75.031	75.031	2.0.10.147	2.0.10.242	2.0.10.242	1.0.0.439	7	234	2	3	Verdana	1	80	0	0	0	WM Stimuli\	1	689.6	1	574.5	1	628.6	1	501.5	1	758.1	1	570.9	1	579.4	1	624.9	13	335686	2	335674	27	40	335713	-999999	335689	0	41	TrialsPROC	PL_024_SCENE_10.png	2	2	91	SessionSelectionList														nonlure	3	Place	0-Back	80	80	79	0	0	100	2	40	317640	1	13	72	315600	-1	316213	1	613	3	3	2040	53	317653	-54	0																91												
WM080112	414229_fnca	2	1	1	-216591432	1	75.031	75.031	2.0.10.147	2.0.10.242	2.0.10.242	1.0.0.439	7	234	2	3	Verdana	1	80	0	0	0	WM Stimuli\	1	689.6	1	574.5	1	628.6	1	501.5	1	758.1	1	570.9	1	579.4	1	624.9	13	335686	2	335674	27	40	335713	-999999	335689	0	41	TrialsPROC	PL_022_SCENE_08.png	2	2	92	SessionSelectionList														lure	3	Place	0-Back	80	80	80	0	0	100	3	39	320212	1	14	73	318173	-1	318728	1	555	3	3	2039	53	320226	-54	0																92												
WM080112	414229_fnca	2	1	1	-216591432	1	75.031	75.031	2.0.10.147	2.0.10.242	2.0.10.242	1.0.0.439	7	234	2	3	Verdana	1	80	0	0	0	WM Stimuli\	1	689.6	1	574.5	1	628.6	1	501.5	1	758.1	1	570.9	1	579.4	1	624.9	13	335686	2	335674	27	40	335713	-999999	335689	0	42	Fix15secPROC	""	2	2	93	SessionSelectionList																																															6	320679	-7	0							93												
