ExperimentName	HCPID	RunNumber	Subject	Session	RandomSeed	Group	Laptop.RefreshRate	ScannerD2.RefreshRate	StudioVersion	RuntimeVersion	RuntimeVersionExpected	ExperimentVersion	triggercode	Allowed	Target	Nontarget	FontStyle	RunTrialNumber[Session]	TrialsPerRun[Session]	TotalRespGreater200[Session]	ConsecRTLess200[Session]	ConsecNonResp[Session]	StimuliDir	ACC_2_Back_Body	Avg_RT_For_Correct_Trials_2_Back_Body	ACC_0_Back_Body	Avg_RT_For_Correct_Trials_0_Back_Body	ACC_2_Back_Face	Avg_RT_For_Correct_Trials_2_Back_Face	ACC_0_Back_Face	Avg_RT_For_Correct_Trials_0_Back_Face	ACC_2_Back_Place	Avg_RT_For_Correct_Trials_2_Back_Place	ACC_0_Back_Place	Avg_RT_For_Correct_Trials_0_Back_Place	ACC_2_Back_Tools	Avg_RT_For_Correct_Trials_2_Back_Tools	ACC_0_Back_Tools	Avg_RT_For_Correct_Trials_0_Back_Tools	ExpInstrucFeelFreeToRest.OnsetDelay	ExpInstrucFeelFreeToRest.OnsetTime	ExpInstrucFeelFreeToRest.DurationError	ExpInstrucFeelFreeToRest.StartTime	ExpInstrucFeelFreeToRest.OnsetToOnsetTime	FeelFreeToRest.OnsetDelay	FeelFreeToRest.OnsetTime	FeelFreeToRest.DurationError	FeelFreeToRest.StartTime	FeelFreeToRest.OnsetToOnsetTime	SessionSelectionList	Procedure[Block]	Stimulus[Block]	RunNumberFilterValue	SessionSelectionList.Cycle	SessionSelectionList.Sample	Running[Block]	IntroButtonMap.OnsetDelay	IntroButtonMap.OnsetTime	IntroButtonMap.DurationError	IntroButtonMap.OnsetToOnsetTime	GetReady.OnsetDelay	GetReady.OnsetTime	GetReady.DurationError	GetReady.OnsetToOnsetTime	Cue2Back.OnsetDelay	Cue2Back.OnsetTime	Cue2Back.DurationError	Cue2Back.OnsetToOnsetTime	Run1Block1	TargetType	CorrectResponse	StimType	BlockType	RunTrialNumber[Block]	TrialsPerRun[Block]	TotalRespGreater200[Block]	ConsecRTLess200[Block]	ConsecNonResp[Block]	ControlAcc	ConsecSameResp	ExperimenterWindow.OnsetDelay	ExperimenterWindow.OnsetTime	ExperimenterWindow.DurationError	ExperimenterWindow.OnsetToOnsetTime	Stim.OnsetDelay	Stim.OnsetTime	Stim.DurationError	Stim.RTTime	Stim.ACC	Stim.RT	Stim.RESP	Stim.CRESP	Stim.OnsetToOnsetTime	Fix.OnsetDelay	Fix.OnsetTime	Fix.DurationError	Fix.OnsetToOnsetTime	CueTarget.OnsetDelay	CueTarget.OnsetTime	CueTarget.DurationError	CueTarget.OnsetToOnsetTime	Run1Block2	Fix15sec.OnsetDelay	Fix15sec.OnsetTime	Fix15sec.DurationError	Fix15sec.OnsetToOnsetTime	Run1Block3	Run1Block4	Run1Block5	Run1Block6	Run1Block7	Run1Block8	Block	Procedure[Trial]	Stimulus[Trial]	ReadyList	Running[Trial]	ReadyList.Cycle	ReadyList.Sample	SyncSlide.OnsetDelay	SyncSlide.OnsetTime	SyncSlide.DurationError	SyncSlide.FinishTime	SyncSlide.OnsetToOnsetTime	Trial
WM080112	414229_fnca	1	1	1	-2104768240	1	75.035	75.031	2.0.10.147	2.0.10.242	2.0.10.242	1.0.0.439	7	234	2	3	Verdana	1	80	0	0	0	WM Stimuli\	0.9	809.444444444444	1	920.8	1	868.6	1	648.1	1	645	1	663.2	0.9	659.444444444444	1	587	13	610004	3	609992	27	40	610031	-999999	610007	0	1	TRSyncPROC	""	1	2	1	SessionSelectionList	169	251058	-999999	0	28	302411	-999999	0																																																	1	InitialTR	4	1	ReadyList	1	1	21	316378	-22	318356	0	1
WM080112	414229_fnca	1	1	1	-2104768240	1	75.035	75.031	2.0.10.147	2.0.10.242	2.0.10.242	1.0.0.439	7	234	2	3	Verdana	1	80	0	0	0	WM Stimuli\	0.9	809.444444444444	1	920.8	1	868.6	1	648.1	1	645	1	663.2	0.9	659.444444444444	1	587	13	610004	3	609992	27	40	610031	-999999	610007	0	1	TRSyncPROC	""	1	2	1	SessionSelectionList	169	251058	-999999	0	28	302411	-999999	0																																																	1	InitialTR	3	2	ReadyList	1	2	20	318377	-21	320356	0	2
WM080112	414229_fnca	1	1	1	-2104768240	1	75.035	75.031	2.0.10.147	2.0.10.242	2.0.10.242	1.0.0.439	7	234	2	3	Verdana	1	80	0	0	0	WM Stimuli\	0.9	809.444444444444	1	920.8	1	868.6	1	648.1	1	645	1	663.2	0.9	659.444444444444	1	587	13	610004	3	609992	27	40	610031	-999999	610007	0	1	TRSyncPROC	""	1	2	1	SessionSelectionList	169	251058	-999999	0	28	302411	-999999	0																																																	1	InitialTR	2	3	ReadyList	1	3	6	320363	-7	322356	0	3
WM080112	414229_fnca	1	1	1	-2104768240	1	75.035	75.031	2.0.10.147	2.0.10.242	2.0.10.242	1.0.0.439	7	234	2	3	Verdana	1	80	0	0	0	WM Stimuli\	0.9	809.444444444444	1	920.8	1	868.6	1	648.1	1	645	1	663.2	0.9	659.444444444444	1	587	13	610004	3	609992	27	40	610031	-999999	610007	0	1	TRSyncPROC	""	1	2	1	SessionSelectionList	169	251058	-999999	0	28	302411	-999999	0																																																	1	InitialTR	1	4	ReadyList	1	4	5	322362	-6	324356	0	4
WM080112	414229_fnca	1	1	1	-2104768240	1	75.035	75.031	2.0.10.147	2.0.10.242	2.0.10.242	1.0.0.439	7	234	2	3	Verdana	1	80	0	0	0	WM Stimuli\	0.9	809.444444444444	1	920.8	1	868.6	1	648.1	1	645	1	663.2	0.9	659.444444444444	1	587	13	610004	3	609992	27	40	610031	-999999	610007	0	2	Cue2BackPROC	""	1	2	2	SessionSelectionList									18	324375	-19	0																																													2												
WM080112	414229_fnca	1	1	1	-2104768240	1	75.035	75.031	2.0.10.147	2.0.10.242	2.0.10.242	1.0.0.439	7	234	2	3	Verdana	1	80	0	0	0	WM Stimuli\	0.9	809.444444444444	1	920.8	1	868.6	1	648.1	1	645	1	663.2	0.9	659.444444444444	1	587	13	610004	3	609992	27	40	610031	-999999	610007	0	3	TrialsPROC	BP_002_BP10_BA.png	1	2	3	SessionSelectionList													1	nonlure	3	Body	2-Back	2	80	1	0	0	0	1	53	329000	2	13	90	326947	-1	327690	1	743	3	3	2053	66	329013	-67	0																3												
WM080112	414229_fnca	1	1	1	-2104768240	1	75.035	75.031	2.0.10.147	2.0.10.242	2.0.10.242	1.0.0.439	7	234	2	3	Verdana	1	80	0	0	0	WM Stimuli\	0.9	809.444444444444	1	920.8	1	868.6	1	648.1	1	645	1	663.2	0.9	659.444444444444	1	587	13	610004	3	609992	27	40	610031	-999999	610007	0	3	TrialsPROC	BP_001_BP1_BA.png	1	2	4	SessionSelectionList													2	nonlure	3	Body	2-Back	3	80	2	0	0	0	2	40	331559	2	13	72	329519	-1	330181	1	662	3	3	2040	53	331572	-54	0																4												
WM080112	414229_fnca	1	1	1	-2104768240	1	75.035	75.031	2.0.10.147	2.0.10.242	2.0.10.242	1.0.0.439	7	234	2	3	Verdana	1	80	0	0	0	WM Stimuli\	0.9	809.444444444444	1	920.8	1	868.6	1	648.1	1	645	1	663.2	0.9	659.444444444444	1	587	13	610004	3	609992	27	40	610031	-999999	610007	0	3	TrialsPROC	BP_006_BP2_BA.png	1	2	5	SessionSelectionList													3	nonlure	3	Body	2-Back	4	80	3	0	0	0	1	39	334117	2	14	59	332078	-1	332918	0	840	2	3	2039	53	334131	-54	0																5												
WM080112	414229_fnca	1	1	1	-2104768240	1	75.035	75.031	2.0.10.147	2.0.10.242	2.0.10.242	1.0.0.439	7	234	2	3	Verdana	1	80	0	0	0	WM Stimuli\	0.9	809.444444444444	1	920.8	1	868.6	1	648.1	1	645	1	663.2	0.9	659.444444444444	1	587	13	610004	3	609992	27	40	610031	-999999	610007	0	3	TrialsPROC	BP_001_BP1_BA.png	1	2	6	SessionSelectionList													4	target	2	Body	2-Back	5	80	4	0	0	0	2	39	336690	1	14	73	334651	-1	335470	1	819	2	2	2039	53	336704	-54	0																6												
WM080112	414229_fnca	1	1	1	-2104768240	1	75.035	75.031	2.0.10.147	2.0.10.242	2.0.10.242	1.0.0.439	7	234	2	3	Verdana	1	80	0	0	0	WM Stimuli\	0.9	809.444444444444	1	920.8	1	868.6	1	648.1	1	645	1	663.2	0.9	659.444444444444	1	587	13	610004	3	609992	27	40	610031	-999999	610007	0	3	TrialsPROC	BP_005_BP19_BA.png	1	2	7	SessionSelectionList													5	nonlure	3	Body	2-Back	6	80	5	0	0	0	1	39	339262	1	14	72	337223	-1	337841	1	618	3	3	2039	53	339276	-54	0																7												
WM080112	414229_fnca	1	1	1	-2104768240	1	75.035	75.031	2.0.10.147	2.0.10.242	2.0.10.242	1.0.0.439	7	234	2	3	Verdana	1	80	0	0	0	WM Stimuli\	0.9	809.444444444444	1	920.8	1	868.6	1	648.1	1	645	1	663.2	0.9	659.444444444444	1	587	13	610004	3	609992	27	40	610031	-999999	610007	0	3	TrialsPROC	BP_003_BP16_BA.png	1	2	8	SessionSelectionList													6	nonlure	3	Body	2-Back	7	80	6	0	0	0	2	39	341821	1	14	59	339782	-1	340363	1	581	3	3	2039	53	341835	-54	0																8												
WM080112	414229_fnca	1	1	1	-2104768240	1	75.035	75.031	2.0.10.147	2.0.10.242	2.0.10.242	1.0.0.439	7	234	2	3	Verdana	1	80	0	0	0	WM Stimuli\	0.9	809.444444444444	1	920.8	1	868.6	1	648.1	1	645	1	663.2	0.9	659.444444444444	1	587	13	610004	3	609992	27	40	610031	-999999	610007	0	3	TrialsPROC	BP_006_BP2_BA.png	1	2	9	SessionSelectionList													7	lure	3	Body	2-Back	8	80	7	0	0	0	3	39	344380	1	14	59	342341	-1	343194	1	853	3	3	2039	53	344394	-54	0																9												
WM080112	414229_fnca	1	1	1	-2104768240	1	75.035	75.031	2.0.10.147	2.0.10.242	2.0.10.242	1.0.0.439	7	234	2	3	Verdana	1	80	0	0	0	WM Stimuli\	0.9	809.444444444444	1	920.8	1	868.6	1	648.1	1	645	1	663.2	0.9	659.444444444444	1	587	13	610004	3	609992	27	40	610031	-999999	610007	0	3	TrialsPROC	BP_004_BP18_BA.png	1	2	10	SessionSelectionList													8	nonlure	3	Body	2-Back	9	80	8	0	0	0	4	39	346939	1	14	59	344900	-1	345911	1	1011	3	3	2039	53	346953	-54	0																10												
WM080112	414229_fnca	1	1	1	-2104768240	1	75.035	75.031	2.0.10.147	2.0.10.242	2.0.10.242	1.0.0.439	7	234	2	3	Verdana	1	80	0	0	0	WM Stimuli\	0.9	809.444444444444	1	920.8	1	868.6	1	648.1	1	645	1	663.2	0.9	659.444444444444	1	587	13	610004	3	609992	27	40	610031	-999999	610007	0	3	TrialsPROC	BP_005_BP19_BA.png	1	2	11	SessionSelectionList													9	lure	3	Body	2-Back	10	80	9	0	0	0	5	39	349498	1	14	59	347459	-1	348657	1	1198	3	3	2039	53	349512	-54	0																11												
WM080112	414229_fnca	1	1	1	-2104768240	1	75.035	75.031	2.0.10.147	2.0.10.242	2.0.10.242	1.0.0.439	7	234	2	3	Verdana	1	80	0	0	0	WM Stimuli\	0.9	809.444444444444	1	920.8	1	868.6	1	648.1	1	645	1	663.2	0.9	659.444444444444	1	587	13	610004	3	609992	27	40	610031	-999999	610007	0	3	TrialsPROC	BP_004_BP18_BA.png	1	2	12	SessionSelectionList													10	target	2	Body	2-Back	11	80	10	0	0	0	1	39	352057	1	14	59	350018	-1	350818	1	800	2	2	2039	53	352071	-54	0																12												
WM080112	414229_fnca	1	1	1	-2104768240	1	75.035	75.031	2.0.10.147	2.0.10.242	2.0.10.242	1.0.0.439	7	234	2	3	Verdana	1	80	0	0	0	WM Stimuli\	0.9	809.444444444444	1	920.8	1	868.6	1	648.1	1	645	1	663.2	0.9	659.444444444444	1	587	13	610004	3	609992	27	40	610031	-999999	610007	0	4	Cue0BackPROC	FC_001_M1.png	1	2	13	SessionSelectionList																																										45	352563	-46	0												13												
WM080112	414229_fnca	1	1	1	-2104768240	1	75.035	75.031	2.0.10.147	2.0.10.242	2.0.10.242	1.0.0.439	7	234	2	3	Verdana	1	80	0	0	0	WM Stimuli\	0.9	809.444444444444	1	920.8	1	868.6	1	648.1	1	645	1	663.2	0.9	659.444444444444	1	587	13	610004	3	609992	27	40	610031	-999999	610007	0	5	TrialsPROC	FC_005_M3.png	1	2	14	SessionSelectionList														nonlure	3	Face	0-Back	12	80	11	0	0	100	1	39	357121	2	14	64	355082	-1	356095	1	1013	3	3	2039	53	357135	-54	0					1											14												
WM080112	414229_fnca	1	1	1	-2104768240	1	75.035	75.031	2.0.10.147	2.0.10.242	2.0.10.242	1.0.0.439	7	234	2	3	Verdana	1	80	0	0	0	WM Stimuli\	0.9	809.444444444444	1	920.8	1	868.6	1	648.1	1	645	1	663.2	0.9	659.444444444444	1	587	13	610004	3	609992	27	40	610031	-999999	610007	0	5	TrialsPROC	FC_001_M1.png	1	2	15	SessionSelectionList														target	2	Face	0-Back	13	80	12	0	0	100	1	40	359694	1	13	72	357654	-1	358263	1	609	2	2	2040	53	359707	-54	0					2											15												
WM080112	414229_fnca	1	1	1	-2104768240	1	75.035	75.031	2.0.10.147	2.0.10.242	2.0.10.242	1.0.0.439	7	234	2	3	Verdana	1	80	0	0	0	WM Stimuli\	0.9	809.444444444444	1	920.8	1	868.6	1	648.1	1	645	1	663.2	0.9	659.444444444444	1	587	13	610004	3	609992	27	40	610031	-999999	610007	0	5	TrialsPROC	FC_003_M2.png	1	2	16	SessionSelectionList														nonlure	3	Face	0-Back	14	80	13	0	0	100	1	39	362266	1	14	73	360227	-1	360762	1	535	3	3	2039	53	362280	-54	0					3											16												
WM080112	414229_fnca	1	1	1	-2104768240	1	75.035	75.031	2.0.10.147	2.0.10.242	2.0.10.242	1.0.0.439	7	234	2	3	Verdana	1	80	0	0	0	WM Stimuli\	0.9	809.444444444444	1	920.8	1	868.6	1	648.1	1	645	1	663.2	0.9	659.444444444444	1	587	13	610004	3	609992	27	40	610031	-999999	610007	0	5	TrialsPROC	FC_004_F2.png	1	2	17	SessionSelectionList														nonlure	3	Face	0-Back	15	80	14	0	0	100	2	40	364852	1	13	85	362812	-1	363358	1	546	3	3	2040	53	364865	-54	0					4											17												
WM080112	414229_fnca	1	1	1	-2104768240	1	75.035	75.031	2.0.10.147	2.0.10.242	2.0.10.242	1.0.0.439	7	234	2	3	Verdana	1	80	0	0	0	WM Stimuli\	0.9	809.444444444444	1	920.8	1	868.6	1	648.1	1	645	1	663.2	0.9	659.444444444444	1	587	13	610004	3	609992	27	40	610031	-999999	610007	0	5	TrialsPROC	FC_004_F2.png	1	2	18	SessionSelectionList														lure	3	Face	0-Back	16	80	15	0	0	100	3	39	367424	1	14	73	365385	-1	365885	1	500	3	3	2039	53	367438	-54	0					5											18												
WM080112	414229_fnca	1	1	1	-2104768240	1	75.035	75.031	2.0.10.147	2.0.10.242	2.0.10.242	1.0.0.439	7	234	2	3	Verdana	1	80	0	0	0	WM Stimuli\	0.9	809.444444444444	1	920.8	1	868.6	1	648.1	1	645	1	663.2	0.9	659.444444444444	1	587	13	610004	3	609992	27	40	610031	-999999	610007	0	5	TrialsPROC	FC_001_M1.png	1	2	19	SessionSelectionList														target	2	Face	0-Back	17	80	16	0	0	100	1	39	369996	2	14	72	367957	-1	368515	1	558	2	2	2039	53	370010	-54	0					6											19												
WM080112	414229_fnca	1	1	1	-2104768240	1	75.035	75.031	2.0.10.147	2.0.10.242	2.0.10.242	1.0.0.439	7	234	2	3	Verdana	1	80	0	0	0	WM Stimuli\	0.9	809.444444444444	1	920.8	1	868.6	1	648.1	1	645	1	663.2	0.9	659.444444444444	1	587	13	610004	3	609992	27	40	610031	-999999	610007	0	5	TrialsPROC	FC_006_F3.png	1	2	20	SessionSelectionList														nonlure	3	Face	0-Back	18	80	17	0	0	100	1	39	372568	2	14	72	370529	-1	371126	1	597	3	3	2039	53	372582	-54	0					7											20												
WM080112	414229_fnca	1	1	1	-2104768240	1	75.035	75.031	2.0.10.147	2.0.10.242	2.0.10.242	1.0.0.439	7	234	2	3	Verdana	1	80	0	0	0	WM Stimuli\	0.9	809.444444444444	1	920.8	1	868.6	1	648.1	1	645	1	663.2	0.9	659.444444444444	1	587	13	610004	3	609992	27	40	610031	-999999	610007	0	5	TrialsPROC	FC_006_F3.png	1	2	21	SessionSelectionList														lure	3	Face	0-Back	19	80	18	0	0	100	2	39	375141	1	13	73	373102	-1	373653	1	551	3	3	2039	52	375154	-53	0					8											21												
WM080112	414229_fnca	1	1	1	-2104768240	1	75.035	75.031	2.0.10.147	2.0.10.242	2.0.10.242	1.0.0.439	7	234	2	3	Verdana	1	80	0	0	0	WM Stimuli\	0.9	809.444444444444	1	920.8	1	868.6	1	648.1	1	645	1	663.2	0.9	659.444444444444	1	587	13	610004	3	609992	27	40	610031	-999999	610007	0	5	TrialsPROC	FC_003_M2.png	1	2	22	SessionSelectionList														lure	3	Face	0-Back	20	80	19	0	0	100	3	39	377713	1	14	72	375674	-1	376540	1	866	3	3	2039	53	377727	-54	0					9											22												
WM080112	414229_fnca	1	1	1	-2104768240	1	75.035	75.031	2.0.10.147	2.0.10.242	2.0.10.242	1.0.0.439	7	234	2	3	Verdana	1	80	0	0	0	WM Stimuli\	0.9	809.444444444444	1	920.8	1	868.6	1	648.1	1	645	1	663.2	0.9	659.444444444444	1	587	13	610004	3	609992	27	40	610031	-999999	610007	0	5	TrialsPROC	FC_002_F1.png	1	2	23	SessionSelectionList														nonlure	3	Face	0-Back	21	80	20	0	0	100	4	40	380299	1	13	85	378259	-1	378965	1	706	3	3	2040	53	380312	-54	0					10											23												
WM080112	414229_fnca	1	1	1	-2104768240	1	75.035	75.031	2.0.10.147	2.0.10.242	2.0.10.242	1.0.0.439	7	234	2	3	Verdana	1	80	0	0	0	WM Stimuli\	0.9	809.444444444444	1	920.8	1	868.6	1	648.1	1	645	1	663.2	0.9	659.444444444444	1	587	13	610004	3	609992	27	40	610031	-999999	610007	0	6	Fix15secPROC	""	1	2	24	SessionSelectionList																																															6	380765	-7	0							24												
WM080112	414229_fnca	1	1	1	-2104768240	1	75.035	75.031	2.0.10.147	2.0.10.242	2.0.10.242	1.0.0.439	7	234	2	3	Verdana	1	80	0	0	0	WM Stimuli\	0.9	809.444444444444	1	920.8	1	868.6	1	648.1	1	645	1	663.2	0.9	659.444444444444	1	587	13	610004	3	609992	27	40	610031	-999999	610007	0	7	Cue2BackPROC	""	1	2	25	SessionSelectionList									13	395772	-14	0																																													25												
WM080112	414229_fnca	1	1	1	-2104768240	1	75.035	75.031	2.0.10.147	2.0.10.242	2.0.10.242	1.0.0.439	7	234	2	3	Verdana	1	80	0	0	0	WM Stimuli\	0.9	809.444444444444	1	920.8	1	868.6	1	648.1	1	645	1	663.2	0.9	659.444444444444	1	587	13	610004	3	609992	27	40	610031	-999999	610007	0	8	TrialsPROC	TO_001_TOOL1_BA.png	1	2	26	SessionSelectionList														nonlure	3	Tools	2-Back	22	80	21	0	0	100	5	40	400384	1	13	85	398344	-1	399056	1	712	3	3	2040	53	400397	-54	0										1						26												
WM080112	414229_fnca	1	1	1	-2104768240	1	75.035	75.031	2.0.10.147	2.0.10.242	2.0.10.242	1.0.0.439	7	234	2	3	Verdana	1	80	0	0	0	WM Stimuli\	0.9	809.444444444444	1	920.8	1	868.6	1	648.1	1	645	1	663.2	0.9	659.444444444444	1	587	13	610004	3	609992	27	40	610031	-999999	610007	0	8	TrialsPROC	TO_002_TOOL2_BA.png	1	2	27	SessionSelectionList														nonlure	3	Tools	2-Back	23	80	22	0	0	100	6	39	402956	2	14	73	400917	-1	401636	1	719	3	3	2039	53	402970	-54	0										2						27												
WM080112	414229_fnca	1	1	1	-2104768240	1	75.035	75.031	2.0.10.147	2.0.10.242	2.0.10.242	1.0.0.439	7	234	2	3	Verdana	1	80	0	0	0	WM Stimuli\	0.9	809.444444444444	1	920.8	1	868.6	1	648.1	1	645	1	663.2	0.9	659.444444444444	1	587	13	610004	3	609992	27	40	610031	-999999	610007	0	8	TrialsPROC	TO_004_TOOL4_BA.png	1	2	28	SessionSelectionList														nonlure	3	Tools	2-Back	24	80	23	0	0	100	7	39	405528	2	14	72	403489	-1	404259	1	770	3	3	2039	53	405542	-54	0										3						28												
WM080112	414229_fnca	1	1	1	-2104768240	1	75.035	75.031	2.0.10.147	2.0.10.242	2.0.10.242	1.0.0.439	7	234	2	3	Verdana	1	80	0	0	0	WM Stimuli\	0.9	809.444444444444	1	920.8	1	868.6	1	648.1	1	645	1	663.2	0.9	659.444444444444	1	587	13	610004	3	609992	27	40	610031	-999999	610007	0	8	TrialsPROC	TO_002_TOOL2_BA.png	1	2	29	SessionSelectionList														target	2	Tools	2-Back	25	80	24	0	0	100	1	39	408087	2	14	59	406048	-1	406606	1	558	2	2	2039	53	408101	-54	0										4						29												
WM080112	414229_fnca	1	1	1	-2104768240	1	75.035	75.031	2.0.10.147	2.0.10.242	2.0.10.242	1.0.0.439	7	234	2	3	Verdana	1	80	0	0	0	WM Stimuli\	0.9	809.444444444444	1	920.8	1	868.6	1	648.1	1	645	1	663.2	0.9	659.444444444444	1	587	13	610004	3	609992	27	40	610031	-999999	610007	0	8	TrialsPROC	TO_001_TOOL1_BA.png	1	2	30	SessionSelectionList														lure	3	Tools	2-Back	26	80	25	0	0	100	1	39	410646	1	14	59	408607	-1	409350	1	743	3	3	2039	53	410660	-54	0										5						30												
WM080112	414229_fnca	1	1	1	-2104768240	1	75.035	75.031	2.0.10.147	2.0.10.242	2.0.10.242	1.0.0.439	7	234	2	3	Verdana	1	80	0	0	0	WM Stimuli\	0.9	809.444444444444	1	920.8	1	868.6	1	648.1	1	645	1	663.2	0.9	659.444444444444	1	587	13	610004	3	609992	27	40	610031	-999999	610007	0	8	TrialsPROC	TO_004_TOOL4_BA.png	1	2	31	SessionSelectionList														lure	3	Tools	2-Back	27	80	26	0	0	100	1	39	413205	1	14	59	411166	-1	412114	0	948	2	3	2039	53	413219	-54	0										6						31												
WM080112	414229_fnca	1	1	1	-2104768240	1	75.035	75.031	2.0.10.147	2.0.10.242	2.0.10.242	1.0.0.439	7	234	2	3	Verdana	1	80	0	0	0	WM Stimuli\	0.9	809.444444444444	1	920.8	1	868.6	1	648.1	1	645	1	663.2	0.9	659.444444444444	1	587	13	610004	3	609992	27	40	610031	-999999	610007	0	8	TrialsPROC	TO_006_TOOL6_BA.png	1	2	32	SessionSelectionList														nonlure	3	Tools	2-Back	28	80	27	0	0	100	1	39	415777	2	14	72	413738	-1	414347	1	609	3	3	2039	53	415791	-54	0										7						32												
WM080112	414229_fnca	1	1	1	-2104768240	1	75.035	75.031	2.0.10.147	2.0.10.242	2.0.10.242	1.0.0.439	7	234	2	3	Verdana	1	80	0	0	0	WM Stimuli\	0.9	809.444444444444	1	920.8	1	868.6	1	648.1	1	645	1	663.2	0.9	659.444444444444	1	587	13	610004	3	609992	27	40	610031	-999999	610007	0	8	TrialsPROC	TO_005_TOOL5_BA.png	1	2	33	SessionSelectionList														nonlure	3	Tools	2-Back	29	80	28	0	0	100	2	39	418336	2	14	59	416297	-1	416874	1	577	3	3	2039	53	418350	-54	0										8						33												
WM080112	414229_fnca	1	1	1	-2104768240	1	75.035	75.031	2.0.10.147	2.0.10.242	2.0.10.242	1.0.0.439	7	234	2	3	Verdana	1	80	0	0	0	WM Stimuli\	0.9	809.444444444444	1	920.8	1	868.6	1	648.1	1	645	1	663.2	0.9	659.444444444444	1	587	13	610004	3	609992	27	40	610031	-999999	610007	0	8	TrialsPROC	TO_006_TOOL6_BA.png	1	2	34	SessionSelectionList														target	2	Tools	2-Back	30	80	29	0	0	100	1	39	420895	2	14	59	418856	-1	419419	1	563	2	2	2039	53	420909	-54	0										9						34												
WM080112	414229_fnca	1	1	1	-2104768240	1	75.035	75.031	2.0.10.147	2.0.10.242	2.0.10.242	1.0.0.439	7	234	2	3	Verdana	1	80	0	0	0	WM Stimuli\	0.9	809.444444444444	1	920.8	1	868.6	1	648.1	1	645	1	663.2	0.9	659.444444444444	1	587	13	610004	3	609992	27	40	610031	-999999	610007	0	8	TrialsPROC	TO_003_TOOL3_BA.png	1	2	35	SessionSelectionList														nonlure	3	Tools	2-Back	31	80	30	0	0	100	1	39	423467	2	14	72	421428	-1	422112	1	684	3	3	2039	53	423481	-54	0										10						35												
WM080112	414229_fnca	1	1	1	-2104768240	1	75.035	75.031	2.0.10.147	2.0.10.242	2.0.10.242	1.0.0.439	7	234	2	3	Verdana	1	80	0	0	0	WM Stimuli\	0.9	809.444444444444	1	920.8	1	868.6	1	648.1	1	645	1	663.2	0.9	659.444444444444	1	587	13	610004	3	609992	27	40	610031	-999999	610007	0	9	Cue0BackPROC	BP_007_BP20_BA.png	1	2	36	SessionSelectionList																																										19	423947	-20	0												36												
WM080112	414229_fnca	1	1	1	-2104768240	1	75.035	75.031	2.0.10.147	2.0.10.242	2.0.10.242	1.0.0.439	7	234	2	3	Verdana	1	80	0	0	0	WM Stimuli\	0.9	809.444444444444	1	920.8	1	868.6	1	648.1	1	645	1	663.2	0.9	659.444444444444	1	587	13	610004	3	609992	27	40	610031	-999999	610007	0	10	TrialsPROC	BP_007_BP20_BA.png	1	2	37	SessionSelectionList														target	2	Body	0-Back	32	80	31	0	0	100	1	39	428519	1	13	52	426480	-1	428279	1	1799	2	2	2039	52	428532	-53	0											1					37												
WM080112	414229_fnca	1	1	1	-2104768240	1	75.035	75.031	2.0.10.147	2.0.10.242	2.0.10.242	1.0.0.439	7	234	2	3	Verdana	1	80	0	0	0	WM Stimuli\	0.9	809.444444444444	1	920.8	1	868.6	1	648.1	1	645	1	663.2	0.9	659.444444444444	1	587	13	610004	3	609992	27	40	610031	-999999	610007	0	10	TrialsPROC	BP_011_BP4_BA.png	1	2	38	SessionSelectionList														nonlure	3	Body	0-Back	33	80	32	0	0	100	1	39	431104	2	14	85	429065	-1	430500	1	1435	3	3	2039	53	431118	-54	0											2					38												
WM080112	414229_fnca	1	1	1	-2104768240	1	75.035	75.031	2.0.10.147	2.0.10.242	2.0.10.242	1.0.0.439	7	234	2	3	Verdana	1	80	0	0	0	WM Stimuli\	0.9	809.444444444444	1	920.8	1	868.6	1	648.1	1	645	1	663.2	0.9	659.444444444444	1	587	13	610004	3	609992	27	40	610031	-999999	610007	0	10	TrialsPROC	BP_010_BP3_BA.png	1	2	39	SessionSelectionList														nonlure	3	Body	0-Back	34	80	33	0	0	100	2	40	433677	1	13	72	431637	-1	432614	1	977	3	3	2040	53	433690	-54	0											3					39												
WM080112	414229_fnca	1	1	1	-2104768240	1	75.035	75.031	2.0.10.147	2.0.10.242	2.0.10.242	1.0.0.439	7	234	2	3	Verdana	1	80	0	0	0	WM Stimuli\	0.9	809.444444444444	1	920.8	1	868.6	1	648.1	1	645	1	663.2	0.9	659.444444444444	1	587	13	610004	3	609992	27	40	610031	-999999	610007	0	10	TrialsPROC	BP_008_BP21_BA.png	1	2	40	SessionSelectionList														nonlure	3	Body	0-Back	35	80	34	0	0	100	3	40	436236	1	13	59	434196	-1	434992	1	796	3	3	2040	53	436249	-54	0											4					40												
WM080112	414229_fnca	1	1	1	-2104768240	1	75.035	75.031	2.0.10.147	2.0.10.242	2.0.10.242	1.0.0.439	7	234	2	3	Verdana	1	80	0	0	0	WM Stimuli\	0.9	809.444444444444	1	920.8	1	868.6	1	648.1	1	645	1	663.2	0.9	659.444444444444	1	587	13	610004	3	609992	27	40	610031	-999999	610007	0	10	TrialsPROC	BP_011_BP4_BA.png	1	2	41	SessionSelectionList														lure	3	Body	0-Back	36	80	35	0	0	100	4	40	438795	1	13	59	436755	-1	437540	1	785	3	3	2040	53	438808	-54	0											5					41												
WM080112	414229_fnca	1	1	1	-2104768240	1	75.035	75.031	2.0.10.147	2.0.10.242	2.0.10.242	1.0.0.439	7	234	2	3	Verdana	1	80	0	0	0	WM Stimuli\	0.9	809.444444444444	1	920.8	1	868.6	1	648.1	1	645	1	663.2	0.9	659.444444444444	1	587	13	610004	3	609992	27	40	610031	-999999	610007	0	10	TrialsPROC	BP_009_BP22_BA.png	1	2	42	SessionSelectionList														nonlure	3	Body	0-Back	37	80	36	0	0	100	5	40	441354	1	13	59	439314	-1	439949	1	635	3	3	2040	53	441367	-54	0											6					42												
WM080112	414229_fnca	1	1	1	-2104768240	1	75.035	75.031	2.0.10.147	2.0.10.242	2.0.10.242	1.0.0.439	7	234	2	3	Verdana	1	80	0	0	0	WM Stimuli\	0.9	809.444444444444	1	920.8	1	868.6	1	648.1	1	645	1	663.2	0.9	659.444444444444	1	587	13	610004	3	609992	27	40	610031	-999999	610007	0	10	TrialsPROC	BP_009_BP22_BA.png	1	2	43	SessionSelectionList														lure	3	Body	0-Back	38	80	37	0	0	100	6	39	443912	2	14	59	441873	-1	442704	1	831	3	3	2039	53	443926	-54	0											7					43												
WM080112	414229_fnca	1	1	1	-2104768240	1	75.035	75.031	2.0.10.147	2.0.10.242	2.0.10.242	1.0.0.439	7	234	2	3	Verdana	1	80	0	0	0	WM Stimuli\	0.9	809.444444444444	1	920.8	1	868.6	1	648.1	1	645	1	663.2	0.9	659.444444444444	1	587	13	610004	3	609992	27	40	610031	-999999	610007	0	10	TrialsPROC	BP_008_BP21_BA.png	1	2	44	SessionSelectionList														lure	3	Body	0-Back	39	80	38	0	0	100	7	39	446471	2	14	59	444432	-1	445208	1	776	3	3	2039	53	446485	-54	0											8					44												
WM080112	414229_fnca	1	1	1	-2104768240	1	75.035	75.031	2.0.10.147	2.0.10.242	2.0.10.242	1.0.0.439	7	234	2	3	Verdana	1	80	0	0	0	WM Stimuli\	0.9	809.444444444444	1	920.8	1	868.6	1	648.1	1	645	1	663.2	0.9	659.444444444444	1	587	13	610004	3	609992	27	40	610031	-999999	610007	0	10	TrialsPROC	BP_007_BP20_BA.png	1	2	45	SessionSelectionList														target	2	Body	0-Back	40	80	39	0	0	100	1	39	449030	2	14	59	446991	-1	447656	1	665	2	2	2039	53	449044	-54	0											9					45												
WM080112	414229_fnca	1	1	1	-2104768240	1	75.035	75.031	2.0.10.147	2.0.10.242	2.0.10.242	1.0.0.439	7	234	2	3	Verdana	1	80	0	0	0	WM Stimuli\	0.9	809.444444444444	1	920.8	1	868.6	1	648.1	1	645	1	663.2	0.9	659.444444444444	1	587	13	610004	3	609992	27	40	610031	-999999	610007	0	10	TrialsPROC	BP_012_BP5_BA.png	1	2	46	SessionSelectionList														nonlure	3	Body	0-Back	41	80	40	0	0	100	1	40	451603	1	13	72	449563	-1	450072	1	509	3	3	2040	53	451616	-54	0											10					46												
WM080112	414229_fnca	1	1	1	-2104768240	1	75.035	75.031	2.0.10.147	2.0.10.242	2.0.10.242	1.0.0.439	7	234	2	3	Verdana	1	80	0	0	0	WM Stimuli\	0.9	809.444444444444	1	920.8	1	868.6	1	648.1	1	645	1	663.2	0.9	659.444444444444	1	587	13	610004	3	609992	27	40	610031	-999999	610007	0	11	Fix15secPROC	""	1	2	47	SessionSelectionList																																															7	452070	-8	0							47												
WM080112	414229_fnca	1	1	1	-2104768240	1	75.035	75.031	2.0.10.147	2.0.10.242	2.0.10.242	1.0.0.439	7	234	2	3	Verdana	1	80	0	0	0	WM Stimuli\	0.9	809.444444444444	1	920.8	1	868.6	1	648.1	1	645	1	663.2	0.9	659.444444444444	1	587	13	610004	3	609992	27	40	610031	-999999	610007	0	12	Cue0BackPROC	PL_001_92012.png	1	2	48	SessionSelectionList																																										27	467090	-28	0												48												
WM080112	414229_fnca	1	1	1	-2104768240	1	75.035	75.031	2.0.10.147	2.0.10.242	2.0.10.242	1.0.0.439	7	234	2	3	Verdana	1	80	0	0	0	WM Stimuli\	0.9	809.444444444444	1	920.8	1	868.6	1	648.1	1	645	1	663.2	0.9	659.444444444444	1	587	13	610004	3	609992	27	40	610031	-999999	610007	0	13	TrialsPROC	PL_003_92016.png	1	2	49	SessionSelectionList														nonlure	3	Place	0-Back	42	80	41	0	0	100	2	39	471674	2	14	72	469635	-1	470376	1	741	3	3	2039	53	471688	-54	0												1				49												
WM080112	414229_fnca	1	1	1	-2104768240	1	75.035	75.031	2.0.10.147	2.0.10.242	2.0.10.242	1.0.0.439	7	234	2	3	Verdana	1	80	0	0	0	WM Stimuli\	0.9	809.444444444444	1	920.8	1	868.6	1	648.1	1	645	1	663.2	0.9	659.444444444444	1	587	13	610004	3	609992	27	40	610031	-999999	610007	0	13	TrialsPROC	PL_003_92016.png	1	2	50	SessionSelectionList														lure	3	Place	0-Back	43	80	42	0	0	100	3	39	474247	1	13	73	472208	-1	472857	1	649	3	3	2039	52	474260	-53	0												2				50												
WM080112	414229_fnca	1	1	1	-2104768240	1	75.035	75.031	2.0.10.147	2.0.10.242	2.0.10.242	1.0.0.439	7	234	2	3	Verdana	1	80	0	0	0	WM Stimuli\	0.9	809.444444444444	1	920.8	1	868.6	1	648.1	1	645	1	663.2	0.9	659.444444444444	1	587	13	610004	3	609992	27	40	610031	-999999	610007	0	13	TrialsPROC	PL_006_92025.png	1	2	51	SessionSelectionList														nonlure	3	Place	0-Back	44	80	43	0	0	100	4	39	476819	1	14	72	474780	-1	475431	1	651	3	3	2039	53	476833	-54	0												3				51												
WM080112	414229_fnca	1	1	1	-2104768240	1	75.035	75.031	2.0.10.147	2.0.10.242	2.0.10.242	1.0.0.439	7	234	2	3	Verdana	1	80	0	0	0	WM Stimuli\	0.9	809.444444444444	1	920.8	1	868.6	1	648.1	1	645	1	663.2	0.9	659.444444444444	1	587	13	610004	3	609992	27	40	610031	-999999	610007	0	13	TrialsPROC	PL_001_92012.png	1	2	52	SessionSelectionList														target	2	Place	0-Back	45	80	44	0	0	100	1	39	479391	2	14	72	477352	-1	478434	1	1082	2	2	2039	53	479405	-54	0												4				52												
WM080112	414229_fnca	1	1	1	-2104768240	1	75.035	75.031	2.0.10.147	2.0.10.242	2.0.10.242	1.0.0.439	7	234	2	3	Verdana	1	80	0	0	0	WM Stimuli\	0.9	809.444444444444	1	920.8	1	868.6	1	648.1	1	645	1	663.2	0.9	659.444444444444	1	587	13	610004	3	609992	27	40	610031	-999999	610007	0	13	TrialsPROC	PL_004_92023.png	1	2	53	SessionSelectionList														nonlure	3	Place	0-Back	46	80	45	0	0	100	1	40	481964	1	13	72	479924	-1	480454	1	530	3	3	2040	53	481977	-54	0												5				53												
WM080112	414229_fnca	1	1	1	-2104768240	1	75.035	75.031	2.0.10.147	2.0.10.242	2.0.10.242	1.0.0.439	7	234	2	3	Verdana	1	80	0	0	0	WM Stimuli\	0.9	809.444444444444	1	920.8	1	868.6	1	648.1	1	645	1	663.2	0.9	659.444444444444	1	587	13	610004	3	609992	27	40	610031	-999999	610007	0	13	TrialsPROC	PL_005_92024.png	1	2	54	SessionSelectionList														nonlure	3	Place	0-Back	47	80	46	0	0	100	2	39	484536	1	14	73	482497	-1	483129	1	632	3	3	2039	53	484550	-54	0												6				54												
WM080112	414229_fnca	1	1	1	-2104768240	1	75.035	75.031	2.0.10.147	2.0.10.242	2.0.10.242	1.0.0.439	7	234	2	3	Verdana	1	80	0	0	0	WM Stimuli\	0.9	809.444444444444	1	920.8	1	868.6	1	648.1	1	645	1	663.2	0.9	659.444444444444	1	587	13	610004	3	609992	27	40	610031	-999999	610007	0	13	TrialsPROC	PL_001_92012.png	1	2	55	SessionSelectionList														target	2	Place	0-Back	48	80	47	0	0	100	1	39	487108	1	14	72	485069	-1	485865	1	796	2	2	2039	53	487122	-54	0												7				55												
WM080112	414229_fnca	1	1	1	-2104768240	1	75.035	75.031	2.0.10.147	2.0.10.242	2.0.10.242	1.0.0.439	7	234	2	3	Verdana	1	80	0	0	0	WM Stimuli\	0.9	809.444444444444	1	920.8	1	868.6	1	648.1	1	645	1	663.2	0.9	659.444444444444	1	587	13	610004	3	609992	27	40	610031	-999999	610007	0	13	TrialsPROC	PL_002_92014.png	1	2	56	SessionSelectionList														nonlure	3	Place	0-Back	49	80	48	0	0	100	1	39	489680	2	14	72	487641	-1	488059	1	418	3	3	2039	53	489694	-54	0												8				56												
WM080112	414229_fnca	1	1	1	-2104768240	1	75.035	75.031	2.0.10.147	2.0.10.242	2.0.10.242	1.0.0.439	7	234	2	3	Verdana	1	80	0	0	0	WM Stimuli\	0.9	809.444444444444	1	920.8	1	868.6	1	648.1	1	645	1	663.2	0.9	659.444444444444	1	587	13	610004	3	609992	27	40	610031	-999999	610007	0	13	TrialsPROC	PL_004_92023.png	1	2	57	SessionSelectionList														lure	3	Place	0-Back	50	80	49	0	0	100	2	40	492253	1	13	72	490213	-1	490677	1	464	3	3	2040	53	492266	-54	0												9				57												
WM080112	414229_fnca	1	1	1	-2104768240	1	75.035	75.031	2.0.10.147	2.0.10.242	2.0.10.242	1.0.0.439	7	234	2	3	Verdana	1	80	0	0	0	WM Stimuli\	0.9	809.444444444444	1	920.8	1	868.6	1	648.1	1	645	1	663.2	0.9	659.444444444444	1	587	13	610004	3	609992	27	40	610031	-999999	610007	0	13	TrialsPROC	PL_006_92025.png	1	2	58	SessionSelectionList														lure	3	Place	0-Back	51	80	50	0	0	100	3	39	494825	2	14	73	492786	-1	493455	1	669	3	3	2039	53	494839	-54	0												10				58												
WM080112	414229_fnca	1	1	1	-2104768240	1	75.035	75.031	2.0.10.147	2.0.10.242	2.0.10.242	1.0.0.439	7	234	2	3	Verdana	1	80	0	0	0	WM Stimuli\	0.9	809.444444444444	1	920.8	1	868.6	1	648.1	1	645	1	663.2	0.9	659.444444444444	1	587	13	610004	3	609992	27	40	610031	-999999	610007	0	14	Cue2BackPROC	""	1	2	59	SessionSelectionList									5	495291	-6	0																																													59												
WM080112	414229_fnca	1	1	1	-2104768240	1	75.035	75.031	2.0.10.147	2.0.10.242	2.0.10.242	1.0.0.439	7	234	2	3	Verdana	1	80	0	0	0	WM Stimuli\	0.9	809.444444444444	1	920.8	1	868.6	1	648.1	1	645	1	663.2	0.9	659.444444444444	1	587	13	610004	3	609992	27	40	610031	-999999	610007	0	15	TrialsPROC	FC_010_F5.png	1	2	60	SessionSelectionList														nonlure	3	Face	2-Back	52	80	51	0	0	100	4	39	499916	1	14	91	497877	-1	498612	1	735	3	3	2039	53	499930	-54	0													1			60												
WM080112	414229_fnca	1	1	1	-2104768240	1	75.035	75.031	2.0.10.147	2.0.10.242	2.0.10.242	1.0.0.439	7	234	2	3	Verdana	1	80	0	0	0	WM Stimuli\	0.9	809.444444444444	1	920.8	1	868.6	1	648.1	1	645	1	663.2	0.9	659.444444444444	1	587	13	610004	3	609992	27	40	610031	-999999	610007	0	15	TrialsPROC	FC_012_F6.png	1	2	61	SessionSelectionList														nonlure	3	Face	2-Back	53	80	52	0	0	100	5	39	502488	2	14	72	500449	-1	500880	1	431	3	3	2039	53	502502	-54	0													2			61												
WM080112	414229_fnca	1	1	1	-2104768240	1	75.035	75.031	2.0.10.147	2.0.10.242	2.0.10.242	1.0.0.439	7	234	2	3	Verdana	1	80	0	0	0	WM Stimuli\	0.9	809.444444444444	1	920.8	1	868.6	1	648.1	1	645	1	663.2	0.9	659.444444444444	1	587	13	610004	3	609992	27	40	610031	-999999	610007	0	15	TrialsPROC	FC_010_F5.png	1	2	62	SessionSelectionList														target	2	Face	2-Back	54	80	53	0	0	100	1	39	505061	2	13	73	503022	-1	503605	1	583	2	2	2039	52	505074	-53	0													3			62												
WM080112	414229_fnca	1	1	1	-2104768240	1	75.035	75.031	2.0.10.147	2.0.10.242	2.0.10.242	1.0.0.439	7	234	2	3	Verdana	1	80	0	0	0	WM Stimuli\	0.9	809.444444444444	1	920.8	1	868.6	1	648.1	1	645	1	663.2	0.9	659.444444444444	1	587	13	610004	3	609992	27	40	610031	-999999	610007	0	15	TrialsPROC	FC_008_F4.png	1	2	63	SessionSelectionList														nonlure	3	Face	2-Back	55	80	54	0	0	100	1	39	507633	1	14	72	505594	-1	506584	1	990	3	3	2039	53	507647	-54	0													4			63												
WM080112	414229_fnca	1	1	1	-2104768240	1	75.035	75.031	2.0.10.147	2.0.10.242	2.0.10.242	1.0.0.439	7	234	2	3	Verdana	1	80	0	0	0	WM Stimuli\	0.9	809.444444444444	1	920.8	1	868.6	1	648.1	1	645	1	663.2	0.9	659.444444444444	1	587	13	610004	3	609992	27	40	610031	-999999	610007	0	15	TrialsPROC	FC_012_F6.png	1	2	64	SessionSelectionList														lure	3	Face	2-Back	56	80	55	0	0	100	2	39	510205	2	14	72	508166	-1	509667	1	1501	3	3	2039	53	510219	-54	0													5			64												
WM080112	414229_fnca	1	1	1	-2104768240	1	75.035	75.031	2.0.10.147	2.0.10.242	2.0.10.242	1.0.0.439	7	234	2	3	Verdana	1	80	0	0	0	WM Stimuli\	0.9	809.444444444444	1	920.8	1	868.6	1	648.1	1	645	1	663.2	0.9	659.444444444444	1	587	13	610004	3	609992	27	40	610031	-999999	610007	0	15	TrialsPROC	FC_008_F4.png	1	2	65	SessionSelectionList														target	2	Face	2-Back	57	80	56	0	0	100	1	40	512778	1	13	72	510738	-1	512184	1	1446	2	2	2040	53	512791	-54	0													6			65												
WM080112	414229_fnca	1	1	1	-2104768240	1	75.035	75.031	2.0.10.147	2.0.10.242	2.0.10.242	1.0.0.439	7	234	2	3	Verdana	1	80	0	0	0	WM Stimuli\	0.9	809.444444444444	1	920.8	1	868.6	1	648.1	1	645	1	663.2	0.9	659.444444444444	1	587	13	610004	3	609992	27	40	610031	-999999	610007	0	15	TrialsPROC	FC_007_M4.png	1	2	66	SessionSelectionList														nonlure	3	Face	2-Back	58	80	57	0	0	100	1	39	515363	2	14	86	513324	-1	513926	1	602	3	3	2039	53	515377	-54	0													7			66												
WM080112	414229_fnca	1	1	1	-2104768240	1	75.035	75.031	2.0.10.147	2.0.10.242	2.0.10.242	1.0.0.439	7	234	2	3	Verdana	1	80	0	0	0	WM Stimuli\	0.9	809.444444444444	1	920.8	1	868.6	1	648.1	1	645	1	663.2	0.9	659.444444444444	1	587	13	610004	3	609992	27	40	610031	-999999	610007	0	15	TrialsPROC	FC_007_M4.png	1	2	67	SessionSelectionList														lure	3	Face	2-Back	59	80	58	0	0	100	2	39	517935	2	14	72	515896	-1	516730	1	834	3	3	2039	53	517949	-54	0													8			67												
WM080112	414229_fnca	1	1	1	-2104768240	1	75.035	75.031	2.0.10.147	2.0.10.242	2.0.10.242	1.0.0.439	7	234	2	3	Verdana	1	80	0	0	0	WM Stimuli\	0.9	809.444444444444	1	920.8	1	868.6	1	648.1	1	645	1	663.2	0.9	659.444444444444	1	587	13	610004	3	609992	27	40	610031	-999999	610007	0	15	TrialsPROC	FC_009_M5.png	1	2	68	SessionSelectionList														nonlure	3	Face	2-Back	60	80	59	0	0	100	3	39	520521	1	14	86	518482	-1	519256	1	774	3	3	2039	53	520535	-54	0													9			68												
WM080112	414229_fnca	1	1	1	-2104768240	1	75.035	75.031	2.0.10.147	2.0.10.242	2.0.10.242	1.0.0.439	7	234	2	3	Verdana	1	80	0	0	0	WM Stimuli\	0.9	809.444444444444	1	920.8	1	868.6	1	648.1	1	645	1	663.2	0.9	659.444444444444	1	587	13	610004	3	609992	27	40	610031	-999999	610007	0	15	TrialsPROC	FC_011_M6.png	1	2	69	SessionSelectionList														nonlure	3	Face	2-Back	61	80	60	0	0	100	4	40	523107	1	13	85	521067	-1	521857	1	790	3	3	2040	53	523120	-54	0													10			69												
WM080112	414229_fnca	1	1	1	-2104768240	1	75.035	75.031	2.0.10.147	2.0.10.242	2.0.10.242	1.0.0.439	7	234	2	3	Verdana	1	80	0	0	0	WM Stimuli\	0.9	809.444444444444	1	920.8	1	868.6	1	648.1	1	645	1	663.2	0.9	659.444444444444	1	587	13	610004	3	609992	27	40	610031	-999999	610007	0	16	Fix15secPROC	""	1	2	70	SessionSelectionList																																															7	523574	-8	0							70												
WM080112	414229_fnca	1	1	1	-2104768240	1	75.035	75.031	2.0.10.147	2.0.10.242	2.0.10.242	1.0.0.439	7	234	2	3	Verdana	1	80	0	0	0	WM Stimuli\	0.9	809.444444444444	1	920.8	1	868.6	1	648.1	1	645	1	663.2	0.9	659.444444444444	1	587	13	610004	3	609992	27	40	610031	-999999	610007	0	17	Cue0BackPROC	TO_007_TOOL7_BA.png	1	2	71	SessionSelectionList																																										40	538607	-41	0												71												
WM080112	414229_fnca	1	1	1	-2104768240	1	75.035	75.031	2.0.10.147	2.0.10.242	2.0.10.242	1.0.0.439	7	234	2	3	Verdana	1	80	0	0	0	WM Stimuli\	0.9	809.444444444444	1	920.8	1	868.6	1	648.1	1	645	1	663.2	0.9	659.444444444444	1	587	13	610004	3	609992	27	40	610031	-999999	610007	0	18	TrialsPROC	TO_010_TOOL10_BA.png	1	2	72	SessionSelectionList														nonlure	3	Tools	0-Back	62	80	61	0	0	100	5	39	543178	2	14	72	541139	-1	542166	1	1027	3	3	2039	53	543192	-54	0														1		72												
WM080112	414229_fnca	1	1	1	-2104768240	1	75.035	75.031	2.0.10.147	2.0.10.242	2.0.10.242	1.0.0.439	7	234	2	3	Verdana	1	80	0	0	0	WM Stimuli\	0.9	809.444444444444	1	920.8	1	868.6	1	648.1	1	645	1	663.2	0.9	659.444444444444	1	587	13	610004	3	609992	27	40	610031	-999999	610007	0	18	TrialsPROC	TO_009_TOOL9_BA.png	1	2	73	SessionSelectionList														nonlure	3	Tools	0-Back	63	80	62	0	0	100	6	40	545751	1	13	72	543711	-1	544251	1	540	3	3	2040	53	545764	-54	0														2		73												
WM080112	414229_fnca	1	1	1	-2104768240	1	75.035	75.031	2.0.10.147	2.0.10.242	2.0.10.242	1.0.0.439	7	234	2	3	Verdana	1	80	0	0	0	WM Stimuli\	0.9	809.444444444444	1	920.8	1	868.6	1	648.1	1	645	1	663.2	0.9	659.444444444444	1	587	13	610004	3	609992	27	40	610031	-999999	610007	0	18	TrialsPROC	TO_009_TOOL9_BA.png	1	2	74	SessionSelectionList														lure	3	Tools	0-Back	64	80	63	0	0	100	7	40	548310	1	13	59	546270	-1	546740	1	470	3	3	2040	53	548323	-54	0														3		74												
WM080112	414229_fnca	1	1	1	-2104768240	1	75.035	75.031	2.0.10.147	2.0.10.242	2.0.10.242	1.0.0.439	7	234	2	3	Verdana	1	80	0	0	0	WM Stimuli\	0.9	809.444444444444	1	920.8	1	868.6	1	648.1	1	645	1	663.2	0.9	659.444444444444	1	587	13	610004	3	609992	27	40	610031	-999999	610007	0	18	TrialsPROC	TO_008_TOOL8_BA.png	1	2	75	SessionSelectionList														nonlure	3	Tools	0-Back	65	80	64	0	0	100	8	39	550895	2	14	86	548856	-1	549396	1	540	3	3	2039	53	550909	-54	0														4		75												
WM080112	414229_fnca	1	1	1	-2104768240	1	75.035	75.031	2.0.10.147	2.0.10.242	2.0.10.242	1.0.0.439	7	234	2	3	Verdana	1	80	0	0	0	WM Stimuli\	0.9	809.444444444444	1	920.8	1	868.6	1	648.1	1	645	1	663.2	0.9	659.444444444444	1	587	13	610004	3	609992	27	40	610031	-999999	610007	0	18	TrialsPROC	TO_011_TOOL11_BA.png	1	2	76	SessionSelectionList														nonlure	3	Tools	0-Back	66	80	65	0	0	100	9	39	553481	1	14	86	551442	-1	551917	1	475	3	3	2039	53	553495	-54	0														5		76												
WM080112	414229_fnca	1	1	1	-2104768240	1	75.035	75.031	2.0.10.147	2.0.10.242	2.0.10.242	1.0.0.439	7	234	2	3	Verdana	1	80	0	0	0	WM Stimuli\	0.9	809.444444444444	1	920.8	1	868.6	1	648.1	1	645	1	663.2	0.9	659.444444444444	1	587	13	610004	3	609992	27	40	610031	-999999	610007	0	18	TrialsPROC	TO_012_TOOL12_BA.png	1	2	77	SessionSelectionList														nonlure	3	Tools	0-Back	67	80	66	0	0	100	10	39	556066	3	14	85	554027	-1	554519	1	492	3	3	2039	53	556080	-54	0														6		77												
WM080112	414229_fnca	1	1	1	-2104768240	1	75.035	75.031	2.0.10.147	2.0.10.242	2.0.10.242	1.0.0.439	7	234	2	3	Verdana	1	80	0	0	0	WM Stimuli\	0.9	809.444444444444	1	920.8	1	868.6	1	648.1	1	645	1	663.2	0.9	659.444444444444	1	587	13	610004	3	609992	27	40	610031	-999999	610007	0	18	TrialsPROC	TO_010_TOOL10_BA.png	1	2	78	SessionSelectionList														lure	3	Tools	0-Back	68	80	67	0	0	100	11	39	558625	2	14	59	556586	-1	557403	1	817	3	3	2039	53	558639	-54	0														7		78												
WM080112	414229_fnca	1	1	1	-2104768240	1	75.035	75.031	2.0.10.147	2.0.10.242	2.0.10.242	1.0.0.439	7	234	2	3	Verdana	1	80	0	0	0	WM Stimuli\	0.9	809.444444444444	1	920.8	1	868.6	1	648.1	1	645	1	663.2	0.9	659.444444444444	1	587	13	610004	3	609992	27	40	610031	-999999	610007	0	18	TrialsPROC	TO_007_TOOL7_BA.png	1	2	79	SessionSelectionList														target	2	Tools	0-Back	69	80	68	0	0	100	1	39	561184	2	14	59	559145	-1	559698	1	553	2	2	2039	53	561198	-54	0														8		79												
WM080112	414229_fnca	1	1	1	-2104768240	1	75.035	75.031	2.0.10.147	2.0.10.242	2.0.10.242	1.0.0.439	7	234	2	3	Verdana	1	80	0	0	0	WM Stimuli\	0.9	809.444444444444	1	920.8	1	868.6	1	648.1	1	645	1	663.2	0.9	659.444444444444	1	587	13	610004	3	609992	27	40	610031	-999999	610007	0	18	TrialsPROC	TO_008_TOOL8_BA.png	1	2	80	SessionSelectionList														lure	3	Tools	0-Back	70	80	69	0	0	100	1	39	563743	2	14	59	561704	-1	562137	1	433	3	3	2039	53	563757	-54	0														9		80												
WM080112	414229_fnca	1	1	1	-2104768240	1	75.035	75.031	2.0.10.147	2.0.10.242	2.0.10.242	1.0.0.439	7	234	2	3	Verdana	1	80	0	0	0	WM Stimuli\	0.9	809.444444444444	1	920.8	1	868.6	1	648.1	1	645	1	663.2	0.9	659.444444444444	1	587	13	610004	3	609992	27	40	610031	-999999	610007	0	18	TrialsPROC	TO_007_TOOL7_BA.png	1	2	81	SessionSelectionList														target	2	Tools	0-Back	71	80	70	0	0	100	1	39	566302	2	14	59	564263	-1	564786	1	523	2	2	2039	53	566316	-54	0														10		81												
WM080112	414229_fnca	1	1	1	-2104768240	1	75.035	75.031	2.0.10.147	2.0.10.242	2.0.10.242	1.0.0.439	7	234	2	3	Verdana	1	80	0	0	0	WM Stimuli\	0.9	809.444444444444	1	920.8	1	868.6	1	648.1	1	645	1	663.2	0.9	659.444444444444	1	587	13	610004	3	609992	27	40	610031	-999999	610007	0	19	Cue2BackPROC	""	1	2	82	SessionSelectionList									6	566769	-7	0																																													82												
WM080112	414229_fnca	1	1	1	-2104768240	1	75.035	75.031	2.0.10.147	2.0.10.242	2.0.10.242	1.0.0.439	7	234	2	3	Verdana	1	80	0	0	0	WM Stimuli\	0.9	809.444444444444	1	920.8	1	868.6	1	648.1	1	645	1	663.2	0.9	659.444444444444	1	587	13	610004	3	609992	27	40	610031	-999999	610007	0	20	TrialsPROC	PL_007_92026.png	1	2	83	SessionSelectionList														nonlure	3	Place	2-Back	72	80	71	0	0	100	1	52	571380	2	14	65	569328	-1	569774	1	446	3	3	2052	66	571394	-67	0															1	83												
WM080112	414229_fnca	1	1	1	-2104768240	1	75.035	75.031	2.0.10.147	2.0.10.242	2.0.10.242	1.0.0.439	7	234	2	3	Verdana	1	80	0	0	0	WM Stimuli\	0.9	809.444444444444	1	920.8	1	868.6	1	648.1	1	645	1	663.2	0.9	659.444444444444	1	587	13	610004	3	609992	27	40	610031	-999999	610007	0	20	TrialsPROC	PL_007_92026.png	1	2	84	SessionSelectionList														lure	3	Place	2-Back	73	80	72	0	0	100	2	39	573926	1	14	59	571887	-1	572608	1	721	3	3	2039	53	573940	-54	0															2	84												
WM080112	414229_fnca	1	1	1	-2104768240	1	75.035	75.031	2.0.10.147	2.0.10.242	2.0.10.242	1.0.0.439	7	234	2	3	Verdana	1	80	0	0	0	WM Stimuli\	0.9	809.444444444444	1	920.8	1	868.6	1	648.1	1	645	1	663.2	0.9	659.444444444444	1	587	13	610004	3	609992	27	40	610031	-999999	610007	0	20	TrialsPROC	PL_010_92038.png	1	2	85	SessionSelectionList														nonlure	3	Place	2-Back	74	80	73	0	0	100	3	39	576511	2	14	85	574472	-1	575132	1	660	3	3	2039	53	576525	-54	0															3	85												
WM080112	414229_fnca	1	1	1	-2104768240	1	75.035	75.031	2.0.10.147	2.0.10.242	2.0.10.242	1.0.0.439	7	234	2	3	Verdana	1	80	0	0	0	WM Stimuli\	0.9	809.444444444444	1	920.8	1	868.6	1	648.1	1	645	1	663.2	0.9	659.444444444444	1	587	13	610004	3	609992	27	40	610031	-999999	610007	0	20	TrialsPROC	PL_009_92037.png	1	2	86	SessionSelectionList														nonlure	3	Place	2-Back	75	80	74	0	0	100	4	40	579084	1	13	72	577044	-1	577600	1	556	3	3	2040	53	579097	-54	0															4	86												
WM080112	414229_fnca	1	1	1	-2104768240	1	75.035	75.031	2.0.10.147	2.0.10.242	2.0.10.242	1.0.0.439	7	234	2	3	Verdana	1	80	0	0	0	WM Stimuli\	0.9	809.444444444444	1	920.8	1	868.6	1	648.1	1	645	1	663.2	0.9	659.444444444444	1	587	13	610004	3	609992	27	40	610031	-999999	610007	0	20	TrialsPROC	PL_010_92038.png	1	2	87	SessionSelectionList														target	2	Place	2-Back	76	80	75	0	0	100	1	39	581656	1	14	73	579617	-1	580119	1	502	2	2	2039	53	581670	-54	0															5	87												
WM080112	414229_fnca	1	1	1	-2104768240	1	75.035	75.031	2.0.10.147	2.0.10.242	2.0.10.242	1.0.0.439	7	234	2	3	Verdana	1	80	0	0	0	WM Stimuli\	0.9	809.444444444444	1	920.8	1	868.6	1	648.1	1	645	1	663.2	0.9	659.444444444444	1	587	13	610004	3	609992	27	40	610031	-999999	610007	0	20	TrialsPROC	PL_009_92037.png	1	2	88	SessionSelectionList														target	2	Place	2-Back	77	80	76	0	0	100	2	39	584215	1	14	59	582176	-1	583132	1	956	2	2	2039	53	584229	-54	0															6	88												
WM080112	414229_fnca	1	1	1	-2104768240	1	75.035	75.031	2.0.10.147	2.0.10.242	2.0.10.242	1.0.0.439	7	234	2	3	Verdana	1	80	0	0	0	WM Stimuli\	0.9	809.444444444444	1	920.8	1	868.6	1	648.1	1	645	1	663.2	0.9	659.444444444444	1	587	13	610004	3	609992	27	40	610031	-999999	610007	0	20	TrialsPROC	PL_008_92033.png	1	2	89	SessionSelectionList														nonlure	3	Place	2-Back	78	80	77	0	0	100	1	39	586800	2	14	85	584761	-1	585401	1	640	3	3	2039	53	586814	-54	0															7	89												
WM080112	414229_fnca	1	1	1	-2104768240	1	75.035	75.031	2.0.10.147	2.0.10.242	2.0.10.242	1.0.0.439	7	234	2	3	Verdana	1	80	0	0	0	WM Stimuli\	0.9	809.444444444444	1	920.8	1	868.6	1	648.1	1	645	1	663.2	0.9	659.444444444444	1	587	13	610004	3	609992	27	40	610031	-999999	610007	0	20	TrialsPROC	PL_012_92047.png	1	2	90	SessionSelectionList														nonlure	3	Place	2-Back	79	80	78	0	0	100	2	39	589386	1	14	86	587347	-1	587918	1	571	3	3	2039	53	589400	-54	0															8	90												
WM080112	414229_fnca	1	1	1	-2104768240	1	75.035	75.031	2.0.10.147	2.0.10.242	2.0.10.242	1.0.0.439	7	234	2	3	Verdana	1	80	0	0	0	WM Stimuli\	0.9	809.444444444444	1	920.8	1	868.6	1	648.1	1	645	1	663.2	0.9	659.444444444444	1	587	13	610004	3	609992	27	40	610031	-999999	610007	0	20	TrialsPROC	PL_012_92047.png	1	2	91	SessionSelectionList														lure	3	Place	2-Back	80	80	79	0	0	100	3	39	591958	2	14	72	589919	-1	590541	1	622	3	3	2039	53	591972	-54	0															9	91												
WM080112	414229_fnca	1	1	1	-2104768240	1	75.035	75.031	2.0.10.147	2.0.10.242	2.0.10.242	1.0.0.439	7	234	2	3	Verdana	1	80	0	0	0	WM Stimuli\	0.9	809.444444444444	1	920.8	1	868.6	1	648.1	1	645	1	663.2	0.9	659.444444444444	1	587	13	610004	3	609992	27	40	610031	-999999	610007	0	20	TrialsPROC	PL_011_92044.png	1	2	92	SessionSelectionList														nonlure	3	Place	2-Back	80	80	80	0	0	100	4	40	594531	1	13	72	592491	-1	593267	1	776	3	3	2040	53	594544	-54	0															10	92												
WM080112	414229_fnca	1	1	1	-2104768240	1	75.035	75.031	2.0.10.147	2.0.10.242	2.0.10.242	1.0.0.439	7	234	2	3	Verdana	1	80	0	0	0	WM Stimuli\	0.9	809.444444444444	1	920.8	1	868.6	1	648.1	1	645	1	663.2	0.9	659.444444444444	1	587	13	610004	3	609992	27	40	610031	-999999	610007	0	21	Fix15secPROC	""	1	2	93	SessionSelectionList																																															7	594998	-8	0							93												
