ExperimentName	HCPID	RunNumber	Subject	Session	RandomSeed	Group	Laptop.RefreshRate	ScannerD2.RefreshRate	StudioVersion	RuntimeVersion	RuntimeVersionExpected	ExperimentVersion	triggercode	Allowed	Target	Nontarget	FontStyle	RunTrialNumber[Session]	TrialsPerRun[Session]	TotalRespGreater200[Session]	ConsecRTLess200[Session]	ConsecNonResp[Session]	StimuliDir	ACC_2_Back_Body	Avg_RT_For_Correct_Trials_2_Back_Body	ACC_0_Back_Body	Avg_RT_For_Correct_Trials_0_Back_Body	ACC_2_Back_Face	Avg_RT_For_Correct_Trials_2_Back_Face	ACC_0_Back_Face	Avg_RT_For_Correct_Trials_0_Back_Face	ACC_2_Back_Place	Avg_RT_For_Correct_Trials_2_Back_Place	ACC_0_Back_Place	Avg_RT_For_Correct_Trials_0_Back_Place	ACC_2_Back_Tools	Avg_RT_For_Correct_Trials_2_Back_Tools	ACC_0_Back_Tools	Avg_RT_For_Correct_Trials_0_Back_Tools	ExpInstrucFeelFreeToRest.OnsetDelay	ExpInstrucFeelFreeToRest.OnsetTime	ExpInstrucFeelFreeToRest.DurationError	ExpInstrucFeelFreeToRest.StartTime	ExpInstrucFeelFreeToRest.OnsetToOnsetTime	FeelFreeToRest.OnsetDelay	FeelFreeToRest.OnsetTime	FeelFreeToRest.DurationError	FeelFreeToRest.StartTime	FeelFreeToRest.OnsetToOnsetTime	SessionSelectionList	Procedure[Block]	Stimulus[Block]	RunNumberFilterValue	SessionSelectionList.Cycle	SessionSelectionList.Sample	Running[Block]	IntroButtonMap.OnsetDelay	IntroButtonMap.OnsetTime	IntroButtonMap.DurationError	IntroButtonMap.OnsetToOnsetTime	GetReady.OnsetDelay	GetReady.OnsetTime	GetReady.DurationError	GetReady.OnsetToOnsetTime	Cue2Back.OnsetDelay	Cue2Back.OnsetTime	Cue2Back.DurationError	Cue2Back.OnsetToOnsetTime	Run1Block1	TargetType	CorrectResponse	StimType	BlockType	RunTrialNumber[Block]	TrialsPerRun[Block]	TotalRespGreater200[Block]	ConsecRTLess200[Block]	ConsecNonResp[Block]	ControlAcc	ConsecSameResp	ExperimenterWindow.OnsetDelay	ExperimenterWindow.OnsetTime	ExperimenterWindow.DurationError	ExperimenterWindow.OnsetToOnsetTime	Stim.OnsetDelay	Stim.OnsetTime	Stim.DurationError	Stim.RTTime	Stim.ACC	Stim.RT	Stim.RESP	Stim.CRESP	Stim.OnsetToOnsetTime	Fix.OnsetDelay	Fix.OnsetTime	Fix.DurationError	Fix.OnsetToOnsetTime	CueTarget.OnsetDelay	CueTarget.OnsetTime	CueTarget.DurationError	CueTarget.OnsetToOnsetTime	Run1Block2	Fix15sec.OnsetDelay	Fix15sec.OnsetTime	Fix15sec.DurationError	Fix15sec.OnsetToOnsetTime	Run1Block3	Run1Block4	Run1Block5	Run1Block6	Run1Block7	Run1Block8	Block	Procedure[Trial]	Stimulus[Trial]	ReadyList	Running[Trial]	ReadyList.Cycle	ReadyList.Sample	SyncSlide.OnsetDelay	SyncSlide.OnsetTime	SyncSlide.DurationError	SyncSlide.FinishTime	SyncSlide.OnsetToOnsetTime	Trial
WM080112	499566_fnca	1	1	1	1992291393	1	75.031	75.031	2.0.10.147	2.0.10.242	2.0.10.242	1.0.0.439	7	234	2	3	Verdana	1	80	0	0	0	WM Stimuli\	1	951	1	883.1	1	985.8	1	679.5	0.9	1038.66666666667	1	798.4	0.9	1087.55555555556	1	685	13	563042	2	563030	27	40	563069	-999999	563045	0	1	TRSyncPROC	""	1	2	1	SessionSelectionList	100	220276	-999999	0	32	255182	-999999	0																																																	1	InitialTR	4	1	ReadyList	1	1	14	269749	-15	271734	0	1
WM080112	499566_fnca	1	1	1	1992291393	1	75.031	75.031	2.0.10.147	2.0.10.242	2.0.10.242	1.0.0.439	7	234	2	3	Verdana	1	80	0	0	0	WM Stimuli\	1	951	1	883.1	1	985.8	1	679.5	0.9	1038.66666666667	1	798.4	0.9	1087.55555555556	1	685	13	563042	2	563030	27	40	563069	-999999	563045	0	1	TRSyncPROC	""	1	2	1	SessionSelectionList	100	220276	-999999	0	32	255182	-999999	0																																																	1	InitialTR	3	2	ReadyList	1	2	13	271748	-14	273734	0	2
WM080112	499566_fnca	1	1	1	1992291393	1	75.031	75.031	2.0.10.147	2.0.10.242	2.0.10.242	1.0.0.439	7	234	2	3	Verdana	1	80	0	0	0	WM Stimuli\	1	951	1	883.1	1	985.8	1	679.5	0.9	1038.66666666667	1	798.4	0.9	1087.55555555556	1	685	13	563042	2	563030	27	40	563069	-999999	563045	0	1	TRSyncPROC	""	1	2	1	SessionSelectionList	100	220276	-999999	0	32	255182	-999999	0																																																	1	InitialTR	2	3	ReadyList	1	3	13	273748	-14	275734	0	3
WM080112	499566_fnca	1	1	1	1992291393	1	75.031	75.031	2.0.10.147	2.0.10.242	2.0.10.242	1.0.0.439	7	234	2	3	Verdana	1	80	0	0	0	WM Stimuli\	1	951	1	883.1	1	985.8	1	679.5	0.9	1038.66666666667	1	798.4	0.9	1087.55555555556	1	685	13	563042	2	563030	27	40	563069	-999999	563045	0	1	TRSyncPROC	""	1	2	1	SessionSelectionList	100	220276	-999999	0	32	255182	-999999	0																																																	1	InitialTR	1	4	ReadyList	1	4	12	275747	-13	277734	0	4
WM080112	499566_fnca	1	1	1	1992291393	1	75.031	75.031	2.0.10.147	2.0.10.242	2.0.10.242	1.0.0.439	7	234	2	3	Verdana	1	80	0	0	0	WM Stimuli\	1	951	1	883.1	1	985.8	1	679.5	0.9	1038.66666666667	1	798.4	0.9	1087.55555555556	1	685	13	563042	2	563030	27	40	563069	-999999	563045	0	2	Cue2BackPROC	""	1	2	2	SessionSelectionList									11	277746	-12	0																																													2												
WM080112	499566_fnca	1	1	1	1992291393	1	75.031	75.031	2.0.10.147	2.0.10.242	2.0.10.242	1.0.0.439	7	234	2	3	Verdana	1	80	0	0	0	WM Stimuli\	1	951	1	883.1	1	985.8	1	679.5	0.9	1038.66666666667	1	798.4	0.9	1087.55555555556	1	685	13	563042	2	563030	27	40	563069	-999999	563045	0	3	TrialsPROC	BP_002_BP10_BA.png	1	2	3	SessionSelectionList													1	nonlure	3	Body	2-Back	2	80	1	0	0	0	1	53	282371	3	13	83	280318	-1	281003	1	685	3	3	2053	66	282384	-67	0																3												
WM080112	499566_fnca	1	1	1	1992291393	1	75.031	75.031	2.0.10.147	2.0.10.242	2.0.10.242	1.0.0.439	7	234	2	3	Verdana	1	80	0	0	0	WM Stimuli\	1	951	1	883.1	1	985.8	1	679.5	0.9	1038.66666666667	1	798.4	0.9	1087.55555555556	1	685	13	563042	2	563030	27	40	563069	-999999	563045	0	3	TrialsPROC	BP_001_BP1_BA.png	1	2	4	SessionSelectionList													2	nonlure	3	Body	2-Back	3	80	2	0	0	0	2	40	284930	2	13	72	282890	-1	283772	1	882	3	3	2040	53	284943	-54	0																4												
WM080112	499566_fnca	1	1	1	1992291393	1	75.031	75.031	2.0.10.147	2.0.10.242	2.0.10.242	1.0.0.439	7	234	2	3	Verdana	1	80	0	0	0	WM Stimuli\	1	951	1	883.1	1	985.8	1	679.5	0.9	1038.66666666667	1	798.4	0.9	1087.55555555556	1	685	13	563042	2	563030	27	40	563069	-999999	563045	0	3	TrialsPROC	BP_006_BP2_BA.png	1	2	5	SessionSelectionList													3	nonlure	3	Body	2-Back	4	80	3	0	0	0	3	40	287489	2	13	59	285449	-1	286603	1	1154	3	3	2040	53	287502	-54	0																5												
WM080112	499566_fnca	1	1	1	1992291393	1	75.031	75.031	2.0.10.147	2.0.10.242	2.0.10.242	1.0.0.439	7	234	2	3	Verdana	1	80	0	0	0	WM Stimuli\	1	951	1	883.1	1	985.8	1	679.5	0.9	1038.66666666667	1	798.4	0.9	1087.55555555556	1	685	13	563042	2	563030	27	40	563069	-999999	563045	0	3	TrialsPROC	BP_001_BP1_BA.png	1	2	6	SessionSelectionList													4	target	2	Body	2-Back	5	80	4	0	0	0	1	39	290061	1	13	73	288022	-1	289246	1	1224	2	2	2039	52	290074	-53	0																6												
WM080112	499566_fnca	1	1	1	1992291393	1	75.031	75.031	2.0.10.147	2.0.10.242	2.0.10.242	1.0.0.439	7	234	2	3	Verdana	1	80	0	0	0	WM Stimuli\	1	951	1	883.1	1	985.8	1	679.5	0.9	1038.66666666667	1	798.4	0.9	1087.55555555556	1	685	13	563042	2	563030	27	40	563069	-999999	563045	0	3	TrialsPROC	BP_005_BP19_BA.png	1	2	7	SessionSelectionList													5	nonlure	3	Body	2-Back	6	80	5	0	0	0	1	39	292633	3	14	72	290594	-1	291617	1	1023	3	3	2039	53	292647	-54	0																7												
WM080112	499566_fnca	1	1	1	1992291393	1	75.031	75.031	2.0.10.147	2.0.10.242	2.0.10.242	1.0.0.439	7	234	2	3	Verdana	1	80	0	0	0	WM Stimuli\	1	951	1	883.1	1	985.8	1	679.5	0.9	1038.66666666667	1	798.4	0.9	1087.55555555556	1	685	13	563042	2	563030	27	40	563069	-999999	563045	0	3	TrialsPROC	BP_003_BP16_BA.png	1	2	8	SessionSelectionList													6	nonlure	3	Body	2-Back	7	80	6	0	0	0	2	39	295192	1	13	59	293153	-1	294030	1	877	3	3	2039	52	295205	-53	0																8												
WM080112	499566_fnca	1	1	1	1992291393	1	75.031	75.031	2.0.10.147	2.0.10.242	2.0.10.242	1.0.0.439	7	234	2	3	Verdana	1	80	0	0	0	WM Stimuli\	1	951	1	883.1	1	985.8	1	679.5	0.9	1038.66666666667	1	798.4	0.9	1087.55555555556	1	685	13	563042	2	563030	27	40	563069	-999999	563045	0	3	TrialsPROC	BP_006_BP2_BA.png	1	2	9	SessionSelectionList													7	lure	3	Body	2-Back	8	80	7	0	0	0	3	39	297751	1	13	59	295712	-1	296606	1	894	3	3	2039	52	297764	-53	0																9												
WM080112	499566_fnca	1	1	1	1992291393	1	75.031	75.031	2.0.10.147	2.0.10.242	2.0.10.242	1.0.0.439	7	234	2	3	Verdana	1	80	0	0	0	WM Stimuli\	1	951	1	883.1	1	985.8	1	679.5	0.9	1038.66666666667	1	798.4	0.9	1087.55555555556	1	685	13	563042	2	563030	27	40	563069	-999999	563045	0	3	TrialsPROC	BP_004_BP18_BA.png	1	2	10	SessionSelectionList													8	nonlure	3	Body	2-Back	9	80	8	0	0	0	4	39	300310	1	13	59	298271	-1	299233	1	962	3	3	2039	52	300323	-53	0																10												
WM080112	499566_fnca	1	1	1	1992291393	1	75.031	75.031	2.0.10.147	2.0.10.242	2.0.10.242	1.0.0.439	7	234	2	3	Verdana	1	80	0	0	0	WM Stimuli\	1	951	1	883.1	1	985.8	1	679.5	0.9	1038.66666666667	1	798.4	0.9	1087.55555555556	1	685	13	563042	2	563030	27	40	563069	-999999	563045	0	3	TrialsPROC	BP_005_BP19_BA.png	1	2	11	SessionSelectionList													9	lure	3	Body	2-Back	10	80	9	0	0	0	5	39	302869	1	13	59	300830	-1	301687	1	857	3	3	2039	52	302882	-53	0																11												
WM080112	499566_fnca	1	1	1	1992291393	1	75.031	75.031	2.0.10.147	2.0.10.242	2.0.10.242	1.0.0.439	7	234	2	3	Verdana	1	80	0	0	0	WM Stimuli\	1	951	1	883.1	1	985.8	1	679.5	0.9	1038.66666666667	1	798.4	0.9	1087.55555555556	1	685	13	563042	2	563030	27	40	563069	-999999	563045	0	3	TrialsPROC	BP_004_BP18_BA.png	1	2	12	SessionSelectionList													10	target	2	Body	2-Back	11	80	10	0	0	0	1	39	305428	1	13	59	303389	-1	304341	1	952	2	2	2039	52	305441	-53	0																12												
WM080112	499566_fnca	1	1	1	1992291393	1	75.031	75.031	2.0.10.147	2.0.10.242	2.0.10.242	1.0.0.439	7	234	2	3	Verdana	1	80	0	0	0	WM Stimuli\	1	951	1	883.1	1	985.8	1	679.5	0.9	1038.66666666667	1	798.4	0.9	1087.55555555556	1	685	13	563042	2	563030	27	40	563069	-999999	563045	0	4	Cue0BackPROC	FC_001_M1.png	1	2	13	SessionSelectionList																																										19	305908	-20	0												13												
WM080112	499566_fnca	1	1	1	1992291393	1	75.031	75.031	2.0.10.147	2.0.10.242	2.0.10.242	1.0.0.439	7	234	2	3	Verdana	1	80	0	0	0	WM Stimuli\	1	951	1	883.1	1	985.8	1	679.5	0.9	1038.66666666667	1	798.4	0.9	1087.55555555556	1	685	13	563042	2	563030	27	40	563069	-999999	563045	0	5	TrialsPROC	FC_005_M3.png	1	2	14	SessionSelectionList														nonlure	3	Face	0-Back	12	80	11	0	0	100	1	39	310492	2	14	64	308453	-1	309361	1	908	3	3	2039	53	310506	-54	0					1											14												
WM080112	499566_fnca	1	1	1	1992291393	1	75.031	75.031	2.0.10.147	2.0.10.242	2.0.10.242	1.0.0.439	7	234	2	3	Verdana	1	80	0	0	0	WM Stimuli\	1	951	1	883.1	1	985.8	1	679.5	0.9	1038.66666666667	1	798.4	0.9	1087.55555555556	1	685	13	563042	2	563030	27	40	563069	-999999	563045	0	5	TrialsPROC	FC_001_M1.png	1	2	15	SessionSelectionList														target	2	Face	0-Back	13	80	12	0	0	100	1	40	313065	1	13	72	311025	-1	311647	1	622	2	2	2040	53	313078	-54	0					2											15												
WM080112	499566_fnca	1	1	1	1992291393	1	75.031	75.031	2.0.10.147	2.0.10.242	2.0.10.242	1.0.0.439	7	234	2	3	Verdana	1	80	0	0	0	WM Stimuli\	1	951	1	883.1	1	985.8	1	679.5	0.9	1038.66666666667	1	798.4	0.9	1087.55555555556	1	685	13	563042	2	563030	27	40	563069	-999999	563045	0	5	TrialsPROC	FC_003_M2.png	1	2	16	SessionSelectionList														nonlure	3	Face	0-Back	14	80	13	0	0	100	1	39	315637	2	13	73	313598	-1	314297	1	699	3	3	2039	52	315650	-53	0					3											16												
WM080112	499566_fnca	1	1	1	1992291393	1	75.031	75.031	2.0.10.147	2.0.10.242	2.0.10.242	1.0.0.439	7	234	2	3	Verdana	1	80	0	0	0	WM Stimuli\	1	951	1	883.1	1	985.8	1	679.5	0.9	1038.66666666667	1	798.4	0.9	1087.55555555556	1	685	13	563042	2	563030	27	40	563069	-999999	563045	0	5	TrialsPROC	FC_004_F2.png	1	2	17	SessionSelectionList														nonlure	3	Face	0-Back	15	80	14	0	0	100	2	39	318209	2	14	72	316170	-1	316927	1	757	3	3	2039	53	318223	-54	0					4											17												
WM080112	499566_fnca	1	1	1	1992291393	1	75.031	75.031	2.0.10.147	2.0.10.242	2.0.10.242	1.0.0.439	7	234	2	3	Verdana	1	80	0	0	0	WM Stimuli\	1	951	1	883.1	1	985.8	1	679.5	0.9	1038.66666666667	1	798.4	0.9	1087.55555555556	1	685	13	563042	2	563030	27	40	563069	-999999	563045	0	5	TrialsPROC	FC_004_F2.png	1	2	18	SessionSelectionList														lure	3	Face	0-Back	16	80	15	0	0	100	3	39	320781	3	14	72	318742	-1	319442	1	700	3	3	2039	53	320795	-54	0					5											18												
WM080112	499566_fnca	1	1	1	1992291393	1	75.031	75.031	2.0.10.147	2.0.10.242	2.0.10.242	1.0.0.439	7	234	2	3	Verdana	1	80	0	0	0	WM Stimuli\	1	951	1	883.1	1	985.8	1	679.5	0.9	1038.66666666667	1	798.4	0.9	1087.55555555556	1	685	13	563042	2	563030	27	40	563069	-999999	563045	0	5	TrialsPROC	FC_001_M1.png	1	2	19	SessionSelectionList														target	2	Face	0-Back	17	80	16	0	0	100	1	39	323354	2	13	73	321315	-1	321922	1	607	2	2	2039	52	323367	-53	0					6											19												
WM080112	499566_fnca	1	1	1	1992291393	1	75.031	75.031	2.0.10.147	2.0.10.242	2.0.10.242	1.0.0.439	7	234	2	3	Verdana	1	80	0	0	0	WM Stimuli\	1	951	1	883.1	1	985.8	1	679.5	0.9	1038.66666666667	1	798.4	0.9	1087.55555555556	1	685	13	563042	2	563030	27	40	563069	-999999	563045	0	5	TrialsPROC	FC_006_F3.png	1	2	20	SessionSelectionList														nonlure	3	Face	0-Back	18	80	17	0	0	100	1	39	325926	3	14	72	323887	-1	324478	1	591	3	3	2039	53	325940	-54	0					7											20												
WM080112	499566_fnca	1	1	1	1992291393	1	75.031	75.031	2.0.10.147	2.0.10.242	2.0.10.242	1.0.0.439	7	234	2	3	Verdana	1	80	0	0	0	WM Stimuli\	1	951	1	883.1	1	985.8	1	679.5	0.9	1038.66666666667	1	798.4	0.9	1087.55555555556	1	685	13	563042	2	563030	27	40	563069	-999999	563045	0	5	TrialsPROC	FC_006_F3.png	1	2	21	SessionSelectionList														lure	3	Face	0-Back	19	80	18	0	0	100	2	39	328498	2	14	72	326459	-1	327012	1	553	3	3	2039	53	328512	-54	0					8											21												
WM080112	499566_fnca	1	1	1	1992291393	1	75.031	75.031	2.0.10.147	2.0.10.242	2.0.10.242	1.0.0.439	7	234	2	3	Verdana	1	80	0	0	0	WM Stimuli\	1	951	1	883.1	1	985.8	1	679.5	0.9	1038.66666666667	1	798.4	0.9	1087.55555555556	1	685	13	563042	2	563030	27	40	563069	-999999	563045	0	5	TrialsPROC	FC_003_M2.png	1	2	22	SessionSelectionList														lure	3	Face	0-Back	20	80	19	0	0	100	3	40	331071	1	13	72	329031	-1	329724	1	693	3	3	2040	53	331084	-54	0					9											22												
WM080112	499566_fnca	1	1	1	1992291393	1	75.031	75.031	2.0.10.147	2.0.10.242	2.0.10.242	1.0.0.439	7	234	2	3	Verdana	1	80	0	0	0	WM Stimuli\	1	951	1	883.1	1	985.8	1	679.5	0.9	1038.66666666667	1	798.4	0.9	1087.55555555556	1	685	13	563042	2	563030	27	40	563069	-999999	563045	0	5	TrialsPROC	FC_002_F1.png	1	2	23	SessionSelectionList														nonlure	3	Face	0-Back	21	80	20	0	0	100	4	39	333643	1	13	73	331604	-1	332269	1	665	3	3	2039	52	333656	-53	0					10											23												
WM080112	499566_fnca	1	1	1	1992291393	1	75.031	75.031	2.0.10.147	2.0.10.242	2.0.10.242	1.0.0.439	7	234	2	3	Verdana	1	80	0	0	0	WM Stimuli\	1	951	1	883.1	1	985.8	1	679.5	0.9	1038.66666666667	1	798.4	0.9	1087.55555555556	1	685	13	563042	2	563030	27	40	563069	-999999	563045	0	6	Fix15secPROC	""	1	2	24	SessionSelectionList																																															5	334109	-6	0							24												
WM080112	499566_fnca	1	1	1	1992291393	1	75.031	75.031	2.0.10.147	2.0.10.242	2.0.10.242	1.0.0.439	7	234	2	3	Verdana	1	80	0	0	0	WM Stimuli\	1	951	1	883.1	1	985.8	1	679.5	0.9	1038.66666666667	1	798.4	0.9	1087.55555555556	1	685	13	563042	2	563030	27	40	563069	-999999	563045	0	7	Cue2BackPROC	""	1	2	25	SessionSelectionList									12	349116	-13	0																																													25												
WM080112	499566_fnca	1	1	1	1992291393	1	75.031	75.031	2.0.10.147	2.0.10.242	2.0.10.242	1.0.0.439	7	234	2	3	Verdana	1	80	0	0	0	WM Stimuli\	1	951	1	883.1	1	985.8	1	679.5	0.9	1038.66666666667	1	798.4	0.9	1087.55555555556	1	685	13	563042	2	563030	27	40	563069	-999999	563045	0	8	TrialsPROC	TO_001_TOOL1_BA.png	1	2	26	SessionSelectionList														nonlure	3	Tools	2-Back	22	80	21	0	0	100	5	39	353701	2	14	58	351662	-1	353233	1	1571	3	3	2039	53	353715	-54	0										1						26												
WM080112	499566_fnca	1	1	1	1992291393	1	75.031	75.031	2.0.10.147	2.0.10.242	2.0.10.242	1.0.0.439	7	234	2	3	Verdana	1	80	0	0	0	WM Stimuli\	1	951	1	883.1	1	985.8	1	679.5	0.9	1038.66666666667	1	798.4	0.9	1087.55555555556	1	685	13	563042	2	563030	27	40	563069	-999999	563045	0	8	TrialsPROC	TO_002_TOOL2_BA.png	1	2	27	SessionSelectionList														nonlure	3	Tools	2-Back	23	80	22	0	0	100	6	39	356260	2	14	59	354221	-1	355484	1	1263	3	3	2039	53	356274	-54	0										2						27												
WM080112	499566_fnca	1	1	1	1992291393	1	75.031	75.031	2.0.10.147	2.0.10.242	2.0.10.242	1.0.0.439	7	234	2	3	Verdana	1	80	0	0	0	WM Stimuli\	1	951	1	883.1	1	985.8	1	679.5	0.9	1038.66666666667	1	798.4	0.9	1087.55555555556	1	685	13	563042	2	563030	27	40	563069	-999999	563045	0	8	TrialsPROC	TO_004_TOOL4_BA.png	1	2	28	SessionSelectionList														nonlure	3	Tools	2-Back	24	80	23	0	0	100	7	39	358819	2	14	59	356780	-1	357783	1	1003	3	3	2039	53	358833	-54	0										3						28												
WM080112	499566_fnca	1	1	1	1992291393	1	75.031	75.031	2.0.10.147	2.0.10.242	2.0.10.242	1.0.0.439	7	234	2	3	Verdana	1	80	0	0	0	WM Stimuli\	1	951	1	883.1	1	985.8	1	679.5	0.9	1038.66666666667	1	798.4	0.9	1087.55555555556	1	685	13	563042	2	563030	27	40	563069	-999999	563045	0	8	TrialsPROC	TO_002_TOOL2_BA.png	1	2	29	SessionSelectionList														target	2	Tools	2-Back	25	80	24	0	0	100	1	39	361378	1	14	59	359339	-1	360144	1	805	2	2	2039	53	361392	-54	0										4						29												
WM080112	499566_fnca	1	1	1	1992291393	1	75.031	75.031	2.0.10.147	2.0.10.242	2.0.10.242	1.0.0.439	7	234	2	3	Verdana	1	80	0	0	0	WM Stimuli\	1	951	1	883.1	1	985.8	1	679.5	0.9	1038.66666666667	1	798.4	0.9	1087.55555555556	1	685	13	563042	2	563030	27	40	563069	-999999	563045	0	8	TrialsPROC	TO_001_TOOL1_BA.png	1	2	30	SessionSelectionList														lure	3	Tools	2-Back	26	80	25	0	0	100	1	39	363937	3	14	59	361898	-1	362913	1	1015	3	3	2039	53	363951	-54	0										5						30												
WM080112	499566_fnca	1	1	1	1992291393	1	75.031	75.031	2.0.10.147	2.0.10.242	2.0.10.242	1.0.0.439	7	234	2	3	Verdana	1	80	0	0	0	WM Stimuli\	1	951	1	883.1	1	985.8	1	679.5	0.9	1038.66666666667	1	798.4	0.9	1087.55555555556	1	685	13	563042	2	563030	27	40	563069	-999999	563045	0	8	TrialsPROC	TO_004_TOOL4_BA.png	1	2	31	SessionSelectionList														lure	3	Tools	2-Back	27	80	26	0	0	100	1	39	366496	3	13	59	364457	-1	365901	0	1444	2	3	2039	52	366509	-53	0										6						31												
WM080112	499566_fnca	1	1	1	1992291393	1	75.031	75.031	2.0.10.147	2.0.10.242	2.0.10.242	1.0.0.439	7	234	2	3	Verdana	1	80	0	0	0	WM Stimuli\	1	951	1	883.1	1	985.8	1	679.5	0.9	1038.66666666667	1	798.4	0.9	1087.55555555556	1	685	13	563042	2	563030	27	40	563069	-999999	563045	0	8	TrialsPROC	TO_006_TOOL6_BA.png	1	2	32	SessionSelectionList														nonlure	3	Tools	2-Back	28	80	27	0	0	100	1	39	369055	1	13	59	367016	-1	368323	1	1307	3	3	2039	52	369068	-53	0										7						32												
WM080112	499566_fnca	1	1	1	1992291393	1	75.031	75.031	2.0.10.147	2.0.10.242	2.0.10.242	1.0.0.439	7	234	2	3	Verdana	1	80	0	0	0	WM Stimuli\	1	951	1	883.1	1	985.8	1	679.5	0.9	1038.66666666667	1	798.4	0.9	1087.55555555556	1	685	13	563042	2	563030	27	40	563069	-999999	563045	0	8	TrialsPROC	TO_005_TOOL5_BA.png	1	2	33	SessionSelectionList														nonlure	3	Tools	2-Back	29	80	28	0	0	100	2	39	371614	2	13	59	369575	-1	370674	1	1099	3	3	2039	52	371627	-53	0										8						33												
WM080112	499566_fnca	1	1	1	1992291393	1	75.031	75.031	2.0.10.147	2.0.10.242	2.0.10.242	1.0.0.439	7	234	2	3	Verdana	1	80	0	0	0	WM Stimuli\	1	951	1	883.1	1	985.8	1	679.5	0.9	1038.66666666667	1	798.4	0.9	1087.55555555556	1	685	13	563042	2	563030	27	40	563069	-999999	563045	0	8	TrialsPROC	TO_006_TOOL6_BA.png	1	2	34	SessionSelectionList														target	2	Tools	2-Back	30	80	29	0	0	100	1	39	374173	1	13	59	372134	-1	372956	1	822	2	2	2039	52	374186	-53	0										9						34												
WM080112	499566_fnca	1	1	1	1992291393	1	75.031	75.031	2.0.10.147	2.0.10.242	2.0.10.242	1.0.0.439	7	234	2	3	Verdana	1	80	0	0	0	WM Stimuli\	1	951	1	883.1	1	985.8	1	679.5	0.9	1038.66666666667	1	798.4	0.9	1087.55555555556	1	685	13	563042	2	563030	27	40	563069	-999999	563045	0	8	TrialsPROC	TO_003_TOOL3_BA.png	1	2	35	SessionSelectionList														nonlure	3	Tools	2-Back	31	80	30	0	0	100	1	39	376732	1	13	59	374693	-1	375596	1	903	3	3	2039	52	376745	-53	0										10						35												
WM080112	499566_fnca	1	1	1	1992291393	1	75.031	75.031	2.0.10.147	2.0.10.242	2.0.10.242	1.0.0.439	7	234	2	3	Verdana	1	80	0	0	0	WM Stimuli\	1	951	1	883.1	1	985.8	1	679.5	0.9	1038.66666666667	1	798.4	0.9	1087.55555555556	1	685	13	563042	2	563030	27	40	563069	-999999	563045	0	9	Cue0BackPROC	BP_007_BP20_BA.png	1	2	36	SessionSelectionList																																										19	377212	-20	0												36												
WM080112	499566_fnca	1	1	1	1992291393	1	75.031	75.031	2.0.10.147	2.0.10.242	2.0.10.242	1.0.0.439	7	234	2	3	Verdana	1	80	0	0	0	WM Stimuli\	1	951	1	883.1	1	985.8	1	679.5	0.9	1038.66666666667	1	798.4	0.9	1087.55555555556	1	685	13	563042	2	563030	27	40	563069	-999999	563045	0	10	TrialsPROC	BP_007_BP20_BA.png	1	2	37	SessionSelectionList														target	2	Body	0-Back	32	80	31	0	0	100	1	39	381783	3	13	51	379744	-1	380998	1	1254	2	2	2039	52	381796	-53	0											1					37												
WM080112	499566_fnca	1	1	1	1992291393	1	75.031	75.031	2.0.10.147	2.0.10.242	2.0.10.242	1.0.0.439	7	234	2	3	Verdana	1	80	0	0	0	WM Stimuli\	1	951	1	883.1	1	985.8	1	679.5	0.9	1038.66666666667	1	798.4	0.9	1087.55555555556	1	685	13	563042	2	563030	27	40	563069	-999999	563045	0	10	TrialsPROC	BP_011_BP4_BA.png	1	2	38	SessionSelectionList														nonlure	3	Body	0-Back	33	80	32	0	0	100	1	39	384355	2	14	72	382316	-1	383040	1	724	3	3	2039	53	384369	-54	0											2					38												
WM080112	499566_fnca	1	1	1	1992291393	1	75.031	75.031	2.0.10.147	2.0.10.242	2.0.10.242	1.0.0.439	7	234	2	3	Verdana	1	80	0	0	0	WM Stimuli\	1	951	1	883.1	1	985.8	1	679.5	0.9	1038.66666666667	1	798.4	0.9	1087.55555555556	1	685	13	563042	2	563030	27	40	563069	-999999	563045	0	10	TrialsPROC	BP_010_BP3_BA.png	1	2	39	SessionSelectionList														nonlure	3	Body	0-Back	34	80	33	0	0	100	2	39	386914	3	14	59	384875	-1	385662	1	787	3	3	2039	53	386928	-54	0											3					39												
WM080112	499566_fnca	1	1	1	1992291393	1	75.031	75.031	2.0.10.147	2.0.10.242	2.0.10.242	1.0.0.439	7	234	2	3	Verdana	1	80	0	0	0	WM Stimuli\	1	951	1	883.1	1	985.8	1	679.5	0.9	1038.66666666667	1	798.4	0.9	1087.55555555556	1	685	13	563042	2	563030	27	40	563069	-999999	563045	0	10	TrialsPROC	BP_008_BP21_BA.png	1	2	40	SessionSelectionList														nonlure	3	Body	0-Back	35	80	34	0	0	100	3	39	389473	3	14	59	387434	-1	388532	1	1098	3	3	2039	53	389487	-54	0											4					40												
WM080112	499566_fnca	1	1	1	1992291393	1	75.031	75.031	2.0.10.147	2.0.10.242	2.0.10.242	1.0.0.439	7	234	2	3	Verdana	1	80	0	0	0	WM Stimuli\	1	951	1	883.1	1	985.8	1	679.5	0.9	1038.66666666667	1	798.4	0.9	1087.55555555556	1	685	13	563042	2	563030	27	40	563069	-999999	563045	0	10	TrialsPROC	BP_011_BP4_BA.png	1	2	41	SessionSelectionList														lure	3	Body	0-Back	36	80	35	0	0	100	4	40	392046	1	13	72	390006	-1	390892	1	886	3	3	2040	53	392059	-54	0											5					41												
WM080112	499566_fnca	1	1	1	1992291393	1	75.031	75.031	2.0.10.147	2.0.10.242	2.0.10.242	1.0.0.439	7	234	2	3	Verdana	1	80	0	0	0	WM Stimuli\	1	951	1	883.1	1	985.8	1	679.5	0.9	1038.66666666667	1	798.4	0.9	1087.55555555556	1	685	13	563042	2	563030	27	40	563069	-999999	563045	0	10	TrialsPROC	BP_009_BP22_BA.png	1	2	42	SessionSelectionList														nonlure	3	Body	0-Back	37	80	36	0	0	100	5	39	394604	2	14	59	392565	-1	393506	1	941	3	3	2039	53	394618	-54	0											6					42												
WM080112	499566_fnca	1	1	1	1992291393	1	75.031	75.031	2.0.10.147	2.0.10.242	2.0.10.242	1.0.0.439	7	234	2	3	Verdana	1	80	0	0	0	WM Stimuli\	1	951	1	883.1	1	985.8	1	679.5	0.9	1038.66666666667	1	798.4	0.9	1087.55555555556	1	685	13	563042	2	563030	27	40	563069	-999999	563045	0	10	TrialsPROC	BP_009_BP22_BA.png	1	2	43	SessionSelectionList														lure	3	Body	0-Back	38	80	37	0	0	100	6	39	397163	2	14	59	395124	-1	395932	1	808	3	3	2039	53	397177	-54	0											7					43												
WM080112	499566_fnca	1	1	1	1992291393	1	75.031	75.031	2.0.10.147	2.0.10.242	2.0.10.242	1.0.0.439	7	234	2	3	Verdana	1	80	0	0	0	WM Stimuli\	1	951	1	883.1	1	985.8	1	679.5	0.9	1038.66666666667	1	798.4	0.9	1087.55555555556	1	685	13	563042	2	563030	27	40	563069	-999999	563045	0	10	TrialsPROC	BP_008_BP21_BA.png	1	2	44	SessionSelectionList														lure	3	Body	0-Back	39	80	38	0	0	100	7	39	399722	3	14	59	397683	-1	398501	1	818	3	3	2039	53	399736	-54	0											8					44												
WM080112	499566_fnca	1	1	1	1992291393	1	75.031	75.031	2.0.10.147	2.0.10.242	2.0.10.242	1.0.0.439	7	234	2	3	Verdana	1	80	0	0	0	WM Stimuli\	1	951	1	883.1	1	985.8	1	679.5	0.9	1038.66666666667	1	798.4	0.9	1087.55555555556	1	685	13	563042	2	563030	27	40	563069	-999999	563045	0	10	TrialsPROC	BP_007_BP20_BA.png	1	2	45	SessionSelectionList														target	2	Body	0-Back	40	80	39	0	0	100	1	39	402281	2	14	59	400242	-1	400950	1	708	2	2	2039	53	402295	-54	0											9					45												
WM080112	499566_fnca	1	1	1	1992291393	1	75.031	75.031	2.0.10.147	2.0.10.242	2.0.10.242	1.0.0.439	7	234	2	3	Verdana	1	80	0	0	0	WM Stimuli\	1	951	1	883.1	1	985.8	1	679.5	0.9	1038.66666666667	1	798.4	0.9	1087.55555555556	1	685	13	563042	2	563030	27	40	563069	-999999	563045	0	10	TrialsPROC	BP_012_BP5_BA.png	1	2	46	SessionSelectionList														nonlure	3	Body	0-Back	41	80	40	0	0	100	1	39	404840	2	14	59	402801	-1	403608	1	807	3	3	2039	53	404854	-54	0											10					46												
WM080112	499566_fnca	1	1	1	1992291393	1	75.031	75.031	2.0.10.147	2.0.10.242	2.0.10.242	1.0.0.439	7	234	2	3	Verdana	1	80	0	0	0	WM Stimuli\	1	951	1	883.1	1	985.8	1	679.5	0.9	1038.66666666667	1	798.4	0.9	1087.55555555556	1	685	13	563042	2	563030	27	40	563069	-999999	563045	0	11	Fix15secPROC	""	1	2	47	SessionSelectionList																																															6	405307	-7	0							47												
WM080112	499566_fnca	1	1	1	1992291393	1	75.031	75.031	2.0.10.147	2.0.10.242	2.0.10.242	1.0.0.439	7	234	2	3	Verdana	1	80	0	0	0	WM Stimuli\	1	951	1	883.1	1	985.8	1	679.5	0.9	1038.66666666667	1	798.4	0.9	1087.55555555556	1	685	13	563042	2	563030	27	40	563069	-999999	563045	0	12	Cue0BackPROC	PL_001_92012.png	1	2	48	SessionSelectionList																																										13	420314	-14	0												48												
WM080112	499566_fnca	1	1	1	1992291393	1	75.031	75.031	2.0.10.147	2.0.10.242	2.0.10.242	1.0.0.439	7	234	2	3	Verdana	1	80	0	0	0	WM Stimuli\	1	951	1	883.1	1	985.8	1	679.5	0.9	1038.66666666667	1	798.4	0.9	1087.55555555556	1	685	13	563042	2	563030	27	40	563069	-999999	563045	0	13	TrialsPROC	PL_003_92016.png	1	2	49	SessionSelectionList														nonlure	3	Place	0-Back	42	80	41	0	0	100	2	39	424912	1	13	72	422873	-1	423870	1	997	3	3	2039	52	424925	-53	0												1				49												
WM080112	499566_fnca	1	1	1	1992291393	1	75.031	75.031	2.0.10.147	2.0.10.242	2.0.10.242	1.0.0.439	7	234	2	3	Verdana	1	80	0	0	0	WM Stimuli\	1	951	1	883.1	1	985.8	1	679.5	0.9	1038.66666666667	1	798.4	0.9	1087.55555555556	1	685	13	563042	2	563030	27	40	563069	-999999	563045	0	13	TrialsPROC	PL_003_92016.png	1	2	50	SessionSelectionList														lure	3	Place	0-Back	43	80	42	0	0	100	3	39	427484	2	14	72	425445	-1	426257	1	812	3	3	2039	53	427498	-54	0												2				50												
WM080112	499566_fnca	1	1	1	1992291393	1	75.031	75.031	2.0.10.147	2.0.10.242	2.0.10.242	1.0.0.439	7	234	2	3	Verdana	1	80	0	0	0	WM Stimuli\	1	951	1	883.1	1	985.8	1	679.5	0.9	1038.66666666667	1	798.4	0.9	1087.55555555556	1	685	13	563042	2	563030	27	40	563069	-999999	563045	0	13	TrialsPROC	PL_006_92025.png	1	2	51	SessionSelectionList														nonlure	3	Place	0-Back	44	80	43	0	0	100	4	40	430057	1	13	72	428017	-1	428950	1	933	3	3	2040	53	430070	-54	0												3				51												
WM080112	499566_fnca	1	1	1	1992291393	1	75.031	75.031	2.0.10.147	2.0.10.242	2.0.10.242	1.0.0.439	7	234	2	3	Verdana	1	80	0	0	0	WM Stimuli\	1	951	1	883.1	1	985.8	1	679.5	0.9	1038.66666666667	1	798.4	0.9	1087.55555555556	1	685	13	563042	2	563030	27	40	563069	-999999	563045	0	13	TrialsPROC	PL_001_92012.png	1	2	52	SessionSelectionList														target	2	Place	0-Back	45	80	44	0	0	100	1	39	432629	2	13	73	430590	-1	431430	1	840	2	2	2039	52	432642	-53	0												4				52												
WM080112	499566_fnca	1	1	1	1992291393	1	75.031	75.031	2.0.10.147	2.0.10.242	2.0.10.242	1.0.0.439	7	234	2	3	Verdana	1	80	0	0	0	WM Stimuli\	1	951	1	883.1	1	985.8	1	679.5	0.9	1038.66666666667	1	798.4	0.9	1087.55555555556	1	685	13	563042	2	563030	27	40	563069	-999999	563045	0	13	TrialsPROC	PL_004_92023.png	1	2	53	SessionSelectionList														nonlure	3	Place	0-Back	46	80	45	0	0	100	1	39	435201	1	14	72	433162	-1	433887	1	725	3	3	2039	53	435215	-54	0												5				53												
WM080112	499566_fnca	1	1	1	1992291393	1	75.031	75.031	2.0.10.147	2.0.10.242	2.0.10.242	1.0.0.439	7	234	2	3	Verdana	1	80	0	0	0	WM Stimuli\	1	951	1	883.1	1	985.8	1	679.5	0.9	1038.66666666667	1	798.4	0.9	1087.55555555556	1	685	13	563042	2	563030	27	40	563069	-999999	563045	0	13	TrialsPROC	PL_005_92024.png	1	2	54	SessionSelectionList														nonlure	3	Place	0-Back	47	80	46	0	0	100	2	39	437773	2	14	72	435734	-1	436676	1	942	3	3	2039	53	437787	-54	0												6				54												
WM080112	499566_fnca	1	1	1	1992291393	1	75.031	75.031	2.0.10.147	2.0.10.242	2.0.10.242	1.0.0.439	7	234	2	3	Verdana	1	80	0	0	0	WM Stimuli\	1	951	1	883.1	1	985.8	1	679.5	0.9	1038.66666666667	1	798.4	0.9	1087.55555555556	1	685	13	563042	2	563030	27	40	563069	-999999	563045	0	13	TrialsPROC	PL_001_92012.png	1	2	55	SessionSelectionList														target	2	Place	0-Back	48	80	47	0	0	100	1	40	440346	1	13	72	438306	-1	438978	1	672	2	2	2040	53	440359	-54	0												7				55												
WM080112	499566_fnca	1	1	1	1992291393	1	75.031	75.031	2.0.10.147	2.0.10.242	2.0.10.242	1.0.0.439	7	234	2	3	Verdana	1	80	0	0	0	WM Stimuli\	1	951	1	883.1	1	985.8	1	679.5	0.9	1038.66666666667	1	798.4	0.9	1087.55555555556	1	685	13	563042	2	563030	27	40	563069	-999999	563045	0	13	TrialsPROC	PL_002_92014.png	1	2	56	SessionSelectionList														nonlure	3	Place	0-Back	49	80	48	0	0	100	1	39	442918	1	13	73	440879	-1	441566	1	687	3	3	2039	52	442931	-53	0												8				56												
WM080112	499566_fnca	1	1	1	1992291393	1	75.031	75.031	2.0.10.147	2.0.10.242	2.0.10.242	1.0.0.439	7	234	2	3	Verdana	1	80	0	0	0	WM Stimuli\	1	951	1	883.1	1	985.8	1	679.5	0.9	1038.66666666667	1	798.4	0.9	1087.55555555556	1	685	13	563042	2	563030	27	40	563069	-999999	563045	0	13	TrialsPROC	PL_004_92023.png	1	2	57	SessionSelectionList														lure	3	Place	0-Back	50	80	49	0	0	100	2	39	445490	3	14	72	443451	-1	444159	1	708	3	3	2039	53	445504	-54	0												9				57												
WM080112	499566_fnca	1	1	1	1992291393	1	75.031	75.031	2.0.10.147	2.0.10.242	2.0.10.242	1.0.0.439	7	234	2	3	Verdana	1	80	0	0	0	WM Stimuli\	1	951	1	883.1	1	985.8	1	679.5	0.9	1038.66666666667	1	798.4	0.9	1087.55555555556	1	685	13	563042	2	563030	27	40	563069	-999999	563045	0	13	TrialsPROC	PL_006_92025.png	1	2	58	SessionSelectionList														lure	3	Place	0-Back	51	80	50	0	0	100	3	39	448062	2	14	72	446023	-1	446691	1	668	3	3	2039	53	448076	-54	0												10				58												
WM080112	499566_fnca	1	1	1	1992291393	1	75.031	75.031	2.0.10.147	2.0.10.242	2.0.10.242	1.0.0.439	7	234	2	3	Verdana	1	80	0	0	0	WM Stimuli\	1	951	1	883.1	1	985.8	1	679.5	0.9	1038.66666666667	1	798.4	0.9	1087.55555555556	1	685	13	563042	2	563030	27	40	563069	-999999	563045	0	14	Cue2BackPROC	""	1	2	59	SessionSelectionList									6	448529	-7	0																																													59												
WM080112	499566_fnca	1	1	1	1992291393	1	75.031	75.031	2.0.10.147	2.0.10.242	2.0.10.242	1.0.0.439	7	234	2	3	Verdana	1	80	0	0	0	WM Stimuli\	1	951	1	883.1	1	985.8	1	679.5	0.9	1038.66666666667	1	798.4	0.9	1087.55555555556	1	685	13	563042	2	563030	27	40	563069	-999999	563045	0	15	TrialsPROC	FC_010_F5.png	1	2	60	SessionSelectionList														nonlure	3	Face	2-Back	52	80	51	0	0	100	4	39	453127	1	13	65	451088	-1	452523	1	1435	3	3	2039	52	453140	-53	0													1			60												
WM080112	499566_fnca	1	1	1	1992291393	1	75.031	75.031	2.0.10.147	2.0.10.242	2.0.10.242	1.0.0.439	7	234	2	3	Verdana	1	80	0	0	0	WM Stimuli\	1	951	1	883.1	1	985.8	1	679.5	0.9	1038.66666666667	1	798.4	0.9	1087.55555555556	1	685	13	563042	2	563030	27	40	563069	-999999	563045	0	15	TrialsPROC	FC_012_F6.png	1	2	61	SessionSelectionList														nonlure	3	Face	2-Back	53	80	52	0	0	100	5	39	455699	2	14	72	453660	-1	454607	1	947	3	3	2039	53	455713	-54	0													2			61												
WM080112	499566_fnca	1	1	1	1992291393	1	75.031	75.031	2.0.10.147	2.0.10.242	2.0.10.242	1.0.0.439	7	234	2	3	Verdana	1	80	0	0	0	WM Stimuli\	1	951	1	883.1	1	985.8	1	679.5	0.9	1038.66666666667	1	798.4	0.9	1087.55555555556	1	685	13	563042	2	563030	27	40	563069	-999999	563045	0	15	TrialsPROC	FC_010_F5.png	1	2	62	SessionSelectionList														target	2	Face	2-Back	54	80	53	0	0	100	1	40	458272	2	13	72	456232	-1	457187	1	955	2	2	2040	53	458285	-54	0													3			62												
WM080112	499566_fnca	1	1	1	1992291393	1	75.031	75.031	2.0.10.147	2.0.10.242	2.0.10.242	1.0.0.439	7	234	2	3	Verdana	1	80	0	0	0	WM Stimuli\	1	951	1	883.1	1	985.8	1	679.5	0.9	1038.66666666667	1	798.4	0.9	1087.55555555556	1	685	13	563042	2	563030	27	40	563069	-999999	563045	0	15	TrialsPROC	FC_008_F4.png	1	2	63	SessionSelectionList														nonlure	3	Face	2-Back	55	80	54	0	0	100	1	39	460844	2	13	73	458805	-1	459649	1	844	3	3	2039	52	460857	-53	0													4			63												
WM080112	499566_fnca	1	1	1	1992291393	1	75.031	75.031	2.0.10.147	2.0.10.242	2.0.10.242	1.0.0.439	7	234	2	3	Verdana	1	80	0	0	0	WM Stimuli\	1	951	1	883.1	1	985.8	1	679.5	0.9	1038.66666666667	1	798.4	0.9	1087.55555555556	1	685	13	563042	2	563030	27	40	563069	-999999	563045	0	15	TrialsPROC	FC_012_F6.png	1	2	64	SessionSelectionList														lure	3	Face	2-Back	56	80	55	0	0	100	2	39	463416	2	14	72	461377	-1	462499	1	1122	3	3	2039	53	463430	-54	0													5			64												
WM080112	499566_fnca	1	1	1	1992291393	1	75.031	75.031	2.0.10.147	2.0.10.242	2.0.10.242	1.0.0.439	7	234	2	3	Verdana	1	80	0	0	0	WM Stimuli\	1	951	1	883.1	1	985.8	1	679.5	0.9	1038.66666666667	1	798.4	0.9	1087.55555555556	1	685	13	563042	2	563030	27	40	563069	-999999	563045	0	15	TrialsPROC	FC_008_F4.png	1	2	65	SessionSelectionList														target	2	Face	2-Back	57	80	56	0	0	100	1	39	465988	2	14	72	463949	-1	464699	1	750	2	2	2039	53	466002	-54	0													6			65												
WM080112	499566_fnca	1	1	1	1992291393	1	75.031	75.031	2.0.10.147	2.0.10.242	2.0.10.242	1.0.0.439	7	234	2	3	Verdana	1	80	0	0	0	WM Stimuli\	1	951	1	883.1	1	985.8	1	679.5	0.9	1038.66666666667	1	798.4	0.9	1087.55555555556	1	685	13	563042	2	563030	27	40	563069	-999999	563045	0	15	TrialsPROC	FC_007_M4.png	1	2	66	SessionSelectionList														nonlure	3	Face	2-Back	58	80	57	0	0	100	1	39	468561	2	13	73	466522	-1	467354	1	832	3	3	2039	52	468574	-53	0													7			66												
WM080112	499566_fnca	1	1	1	1992291393	1	75.031	75.031	2.0.10.147	2.0.10.242	2.0.10.242	1.0.0.439	7	234	2	3	Verdana	1	80	0	0	0	WM Stimuli\	1	951	1	883.1	1	985.8	1	679.5	0.9	1038.66666666667	1	798.4	0.9	1087.55555555556	1	685	13	563042	2	563030	27	40	563069	-999999	563045	0	15	TrialsPROC	FC_007_M4.png	1	2	67	SessionSelectionList														lure	3	Face	2-Back	59	80	58	0	0	100	2	39	471133	2	13	72	469094	-1	470101	1	1007	3	3	2039	52	471146	-53	0													8			67												
WM080112	499566_fnca	1	1	1	1992291393	1	75.031	75.031	2.0.10.147	2.0.10.242	2.0.10.242	1.0.0.439	7	234	2	3	Verdana	1	80	0	0	0	WM Stimuli\	1	951	1	883.1	1	985.8	1	679.5	0.9	1038.66666666667	1	798.4	0.9	1087.55555555556	1	685	13	563042	2	563030	27	40	563069	-999999	563045	0	15	TrialsPROC	FC_009_M5.png	1	2	68	SessionSelectionList														nonlure	3	Face	2-Back	60	80	59	0	0	100	3	39	473705	3	14	72	471666	-1	472771	1	1105	3	3	2039	53	473719	-54	0													9			68												
WM080112	499566_fnca	1	1	1	1992291393	1	75.031	75.031	2.0.10.147	2.0.10.242	2.0.10.242	1.0.0.439	7	234	2	3	Verdana	1	80	0	0	0	WM Stimuli\	1	951	1	883.1	1	985.8	1	679.5	0.9	1038.66666666667	1	798.4	0.9	1087.55555555556	1	685	13	563042	2	563030	27	40	563069	-999999	563045	0	15	TrialsPROC	FC_011_M6.png	1	2	69	SessionSelectionList														nonlure	3	Face	2-Back	61	80	60	0	0	100	4	40	476278	2	13	72	474238	-1	475099	1	861	3	3	2040	53	476291	-54	0													10			69												
WM080112	499566_fnca	1	1	1	1992291393	1	75.031	75.031	2.0.10.147	2.0.10.242	2.0.10.242	1.0.0.439	7	234	2	3	Verdana	1	80	0	0	0	WM Stimuli\	1	951	1	883.1	1	985.8	1	679.5	0.9	1038.66666666667	1	798.4	0.9	1087.55555555556	1	685	13	563042	2	563030	27	40	563069	-999999	563045	0	16	Fix15secPROC	""	1	2	70	SessionSelectionList																																															6	476744	-7	0							70												
WM080112	499566_fnca	1	1	1	1992291393	1	75.031	75.031	2.0.10.147	2.0.10.242	2.0.10.242	1.0.0.439	7	234	2	3	Verdana	1	80	0	0	0	WM Stimuli\	1	951	1	883.1	1	985.8	1	679.5	0.9	1038.66666666667	1	798.4	0.9	1087.55555555556	1	685	13	563042	2	563030	27	40	563069	-999999	563045	0	17	Cue0BackPROC	TO_007_TOOL7_BA.png	1	2	71	SessionSelectionList																																										13	491751	-14	0												71												
WM080112	499566_fnca	1	1	1	1992291393	1	75.031	75.031	2.0.10.147	2.0.10.242	2.0.10.242	1.0.0.439	7	234	2	3	Verdana	1	80	0	0	0	WM Stimuli\	1	951	1	883.1	1	985.8	1	679.5	0.9	1038.66666666667	1	798.4	0.9	1087.55555555556	1	685	13	563042	2	563030	27	40	563069	-999999	563045	0	18	TrialsPROC	TO_010_TOOL10_BA.png	1	2	72	SessionSelectionList														nonlure	3	Tools	0-Back	62	80	61	0	0	100	5	39	496336	1	13	59	494297	-1	495243	1	946	3	3	2039	52	496349	-53	0														1		72												
WM080112	499566_fnca	1	1	1	1992291393	1	75.031	75.031	2.0.10.147	2.0.10.242	2.0.10.242	1.0.0.439	7	234	2	3	Verdana	1	80	0	0	0	WM Stimuli\	1	951	1	883.1	1	985.8	1	679.5	0.9	1038.66666666667	1	798.4	0.9	1087.55555555556	1	685	13	563042	2	563030	27	40	563069	-999999	563045	0	18	TrialsPROC	TO_009_TOOL9_BA.png	1	2	73	SessionSelectionList														nonlure	3	Tools	0-Back	63	80	62	0	0	100	6	39	498895	2	13	59	496856	-1	497625	1	769	3	3	2039	52	498908	-53	0														2		73												
WM080112	499566_fnca	1	1	1	1992291393	1	75.031	75.031	2.0.10.147	2.0.10.242	2.0.10.242	1.0.0.439	7	234	2	3	Verdana	1	80	0	0	0	WM Stimuli\	1	951	1	883.1	1	985.8	1	679.5	0.9	1038.66666666667	1	798.4	0.9	1087.55555555556	1	685	13	563042	2	563030	27	40	563069	-999999	563045	0	18	TrialsPROC	TO_009_TOOL9_BA.png	1	2	74	SessionSelectionList														lure	3	Tools	0-Back	64	80	63	0	0	100	7	39	501454	1	13	59	499415	-1	500251	1	836	3	3	2039	52	501467	-53	0														3		74												
WM080112	499566_fnca	1	1	1	1992291393	1	75.031	75.031	2.0.10.147	2.0.10.242	2.0.10.242	1.0.0.439	7	234	2	3	Verdana	1	80	0	0	0	WM Stimuli\	1	951	1	883.1	1	985.8	1	679.5	0.9	1038.66666666667	1	798.4	0.9	1087.55555555556	1	685	13	563042	2	563030	27	40	563069	-999999	563045	0	18	TrialsPROC	TO_008_TOOL8_BA.png	1	2	75	SessionSelectionList														nonlure	3	Tools	0-Back	65	80	64	0	0	100	8	39	504013	1	13	59	501974	-1	502531	1	557	3	3	2039	52	504026	-53	0														4		75												
WM080112	499566_fnca	1	1	1	1992291393	1	75.031	75.031	2.0.10.147	2.0.10.242	2.0.10.242	1.0.0.439	7	234	2	3	Verdana	1	80	0	0	0	WM Stimuli\	1	951	1	883.1	1	985.8	1	679.5	0.9	1038.66666666667	1	798.4	0.9	1087.55555555556	1	685	13	563042	2	563030	27	40	563069	-999999	563045	0	18	TrialsPROC	TO_011_TOOL11_BA.png	1	2	76	SessionSelectionList														nonlure	3	Tools	0-Back	66	80	65	0	0	100	9	39	506572	2	13	59	504533	-1	505211	1	678	3	3	2039	52	506585	-53	0														5		76												
WM080112	499566_fnca	1	1	1	1992291393	1	75.031	75.031	2.0.10.147	2.0.10.242	2.0.10.242	1.0.0.439	7	234	2	3	Verdana	1	80	0	0	0	WM Stimuli\	1	951	1	883.1	1	985.8	1	679.5	0.9	1038.66666666667	1	798.4	0.9	1087.55555555556	1	685	13	563042	2	563030	27	40	563069	-999999	563045	0	18	TrialsPROC	TO_012_TOOL12_BA.png	1	2	77	SessionSelectionList														nonlure	3	Tools	0-Back	67	80	66	0	0	100	10	40	509131	2	13	58	507091	-1	507695	1	604	3	3	2040	53	509144	-54	0														6		77												
WM080112	499566_fnca	1	1	1	1992291393	1	75.031	75.031	2.0.10.147	2.0.10.242	2.0.10.242	1.0.0.439	7	234	2	3	Verdana	1	80	0	0	0	WM Stimuli\	1	951	1	883.1	1	985.8	1	679.5	0.9	1038.66666666667	1	798.4	0.9	1087.55555555556	1	685	13	563042	2	563030	27	40	563069	-999999	563045	0	18	TrialsPROC	TO_010_TOOL10_BA.png	1	2	78	SessionSelectionList														lure	3	Tools	0-Back	68	80	67	0	0	100	11	40	511690	2	13	59	509650	-1	510272	1	622	3	3	2040	53	511703	-54	0														7		78												
WM080112	499566_fnca	1	1	1	1992291393	1	75.031	75.031	2.0.10.147	2.0.10.242	2.0.10.242	1.0.0.439	7	234	2	3	Verdana	1	80	0	0	0	WM Stimuli\	1	951	1	883.1	1	985.8	1	679.5	0.9	1038.66666666667	1	798.4	0.9	1087.55555555556	1	685	13	563042	2	563030	27	40	563069	-999999	563045	0	18	TrialsPROC	TO_007_TOOL7_BA.png	1	2	79	SessionSelectionList														target	2	Tools	0-Back	69	80	68	0	0	100	1	40	514249	1	13	59	512209	-1	512801	1	592	2	2	2040	53	514262	-54	0														8		79												
WM080112	499566_fnca	1	1	1	1992291393	1	75.031	75.031	2.0.10.147	2.0.10.242	2.0.10.242	1.0.0.439	7	234	2	3	Verdana	1	80	0	0	0	WM Stimuli\	1	951	1	883.1	1	985.8	1	679.5	0.9	1038.66666666667	1	798.4	0.9	1087.55555555556	1	685	13	563042	2	563030	27	40	563069	-999999	563045	0	18	TrialsPROC	TO_008_TOOL8_BA.png	1	2	80	SessionSelectionList														lure	3	Tools	0-Back	70	80	69	0	0	100	1	40	516808	2	13	59	514768	-1	515317	1	549	3	3	2040	53	516821	-54	0														9		80												
WM080112	499566_fnca	1	1	1	1992291393	1	75.031	75.031	2.0.10.147	2.0.10.242	2.0.10.242	1.0.0.439	7	234	2	3	Verdana	1	80	0	0	0	WM Stimuli\	1	951	1	883.1	1	985.8	1	679.5	0.9	1038.66666666667	1	798.4	0.9	1087.55555555556	1	685	13	563042	2	563030	27	40	563069	-999999	563045	0	18	TrialsPROC	TO_007_TOOL7_BA.png	1	2	81	SessionSelectionList														target	2	Tools	0-Back	71	80	70	0	0	100	1	39	519366	2	14	59	517327	-1	518024	1	697	2	2	2039	53	519380	-54	0														10		81												
WM080112	499566_fnca	1	1	1	1992291393	1	75.031	75.031	2.0.10.147	2.0.10.242	2.0.10.242	1.0.0.439	7	234	2	3	Verdana	1	80	0	0	0	WM Stimuli\	1	951	1	883.1	1	985.8	1	679.5	0.9	1038.66666666667	1	798.4	0.9	1087.55555555556	1	685	13	563042	2	563030	27	40	563069	-999999	563045	0	19	Cue2BackPROC	""	1	2	82	SessionSelectionList									6	519833	-7	0																																													82												
WM080112	499566_fnca	1	1	1	1992291393	1	75.031	75.031	2.0.10.147	2.0.10.242	2.0.10.242	1.0.0.439	7	234	2	3	Verdana	1	80	0	0	0	WM Stimuli\	1	951	1	883.1	1	985.8	1	679.5	0.9	1038.66666666667	1	798.4	0.9	1087.55555555556	1	685	13	563042	2	563030	27	40	563069	-999999	563045	0	20	TrialsPROC	PL_007_92026.png	1	2	83	SessionSelectionList														nonlure	3	Place	2-Back	72	80	71	0	0	100	1	39	524431	1	13	65	522392	-1	523877	1	1485	3	3	2039	52	524444	-53	0															1	83												
WM080112	499566_fnca	1	1	1	1992291393	1	75.031	75.031	2.0.10.147	2.0.10.242	2.0.10.242	1.0.0.439	7	234	2	3	Verdana	1	80	0	0	0	WM Stimuli\	1	951	1	883.1	1	985.8	1	679.5	0.9	1038.66666666667	1	798.4	0.9	1087.55555555556	1	685	13	563042	2	563030	27	40	563069	-999999	563045	0	20	TrialsPROC	PL_007_92026.png	1	2	84	SessionSelectionList														lure	3	Place	2-Back	73	80	72	0	0	100	2	39	527003	2	14	72	524964	-1	526068	1	1104	3	3	2039	53	527017	-54	0															2	84												
WM080112	499566_fnca	1	1	1	1992291393	1	75.031	75.031	2.0.10.147	2.0.10.242	2.0.10.242	1.0.0.439	7	234	2	3	Verdana	1	80	0	0	0	WM Stimuli\	1	951	1	883.1	1	985.8	1	679.5	0.9	1038.66666666667	1	798.4	0.9	1087.55555555556	1	685	13	563042	2	563030	27	40	563069	-999999	563045	0	20	TrialsPROC	PL_010_92038.png	1	2	85	SessionSelectionList														nonlure	3	Place	2-Back	74	80	73	0	0	100	3	40	529576	2	13	72	527536	-1	528799	1	1263	3	3	2040	53	529589	-54	0															3	85												
WM080112	499566_fnca	1	1	1	1992291393	1	75.031	75.031	2.0.10.147	2.0.10.242	2.0.10.242	1.0.0.439	7	234	2	3	Verdana	1	80	0	0	0	WM Stimuli\	1	951	1	883.1	1	985.8	1	679.5	0.9	1038.66666666667	1	798.4	0.9	1087.55555555556	1	685	13	563042	2	563030	27	40	563069	-999999	563045	0	20	TrialsPROC	PL_009_92037.png	1	2	86	SessionSelectionList														nonlure	3	Place	2-Back	75	80	74	0	0	100	4	39	532135	1	13	60	530096	-1	531091	1	995	3	3	2039	52	532148	-53	0															4	86												
WM080112	499566_fnca	1	1	1	1992291393	1	75.031	75.031	2.0.10.147	2.0.10.242	2.0.10.242	1.0.0.439	7	234	2	3	Verdana	1	80	0	0	0	WM Stimuli\	1	951	1	883.1	1	985.8	1	679.5	0.9	1038.66666666667	1	798.4	0.9	1087.55555555556	1	685	13	563042	2	563030	27	40	563069	-999999	563045	0	20	TrialsPROC	PL_010_92038.png	1	2	87	SessionSelectionList														target	2	Place	2-Back	76	80	75	0	0	100	1	39	534707	1	13	72	532668	-1	533485	1	817	2	2	2039	52	534720	-53	0															5	87												
WM080112	499566_fnca	1	1	1	1992291393	1	75.031	75.031	2.0.10.147	2.0.10.242	2.0.10.242	1.0.0.439	7	234	2	3	Verdana	1	80	0	0	0	WM Stimuli\	1	951	1	883.1	1	985.8	1	679.5	0.9	1038.66666666667	1	798.4	0.9	1087.55555555556	1	685	13	563042	2	563030	27	40	563069	-999999	563045	0	20	TrialsPROC	PL_009_92037.png	1	2	88	SessionSelectionList														target	2	Place	2-Back	77	80	76	0	0	100	1	39	537279	1	14	72	535240	-1	536313	0	1073	3	2	2039	53	537293	-54	0															6	88												
WM080112	499566_fnca	1	1	1	1992291393	1	75.031	75.031	2.0.10.147	2.0.10.242	2.0.10.242	1.0.0.439	7	234	2	3	Verdana	1	80	0	0	0	WM Stimuli\	1	951	1	883.1	1	985.8	1	679.5	0.9	1038.66666666667	1	798.4	0.9	1087.55555555556	1	685	13	563042	2	563030	27	40	563069	-999999	563045	0	20	TrialsPROC	PL_008_92033.png	1	2	89	SessionSelectionList														nonlure	3	Place	2-Back	78	80	77	0	0	100	2	39	539851	3	14	72	537812	-1	538837	1	1025	3	3	2039	53	539865	-54	0															7	89												
WM080112	499566_fnca	1	1	1	1992291393	1	75.031	75.031	2.0.10.147	2.0.10.242	2.0.10.242	1.0.0.439	7	234	2	3	Verdana	1	80	0	0	0	WM Stimuli\	1	951	1	883.1	1	985.8	1	679.5	0.9	1038.66666666667	1	798.4	0.9	1087.55555555556	1	685	13	563042	2	563030	27	40	563069	-999999	563045	0	20	TrialsPROC	PL_012_92047.png	1	2	90	SessionSelectionList														nonlure	3	Place	2-Back	79	80	78	0	0	100	3	40	542424	1	13	72	540384	-1	541207	1	823	3	3	2040	53	542437	-54	0															8	90												
WM080112	499566_fnca	1	1	1	1992291393	1	75.031	75.031	2.0.10.147	2.0.10.242	2.0.10.242	1.0.0.439	7	234	2	3	Verdana	1	80	0	0	0	WM Stimuli\	1	951	1	883.1	1	985.8	1	679.5	0.9	1038.66666666667	1	798.4	0.9	1087.55555555556	1	685	13	563042	2	563030	27	40	563069	-999999	563045	0	20	TrialsPROC	PL_012_92047.png	1	2	91	SessionSelectionList														lure	3	Place	2-Back	80	80	79	0	0	100	4	39	544996	2	13	73	542957	-1	543837	1	880	3	3	2039	52	545009	-53	0															9	91												
WM080112	499566_fnca	1	1	1	1992291393	1	75.031	75.031	2.0.10.147	2.0.10.242	2.0.10.242	1.0.0.439	7	234	2	3	Verdana	1	80	0	0	0	WM Stimuli\	1	951	1	883.1	1	985.8	1	679.5	0.9	1038.66666666667	1	798.4	0.9	1087.55555555556	1	685	13	563042	2	563030	27	40	563069	-999999	563045	0	20	TrialsPROC	PL_011_92044.png	1	2	92	SessionSelectionList														nonlure	3	Place	2-Back	80	80	80	0	0	100	5	39	547568	3	14	72	545529	-1	546485	1	956	3	3	2039	53	547582	-54	0															10	92												
WM080112	499566_fnca	1	1	1	1992291393	1	75.031	75.031	2.0.10.147	2.0.10.242	2.0.10.242	1.0.0.439	7	234	2	3	Verdana	1	80	0	0	0	WM Stimuli\	1	951	1	883.1	1	985.8	1	679.5	0.9	1038.66666666667	1	798.4	0.9	1087.55555555556	1	685	13	563042	2	563030	27	40	563069	-999999	563045	0	21	Fix15secPROC	""	1	2	93	SessionSelectionList																																															6	548035	-7	0							93												
