ExperimentName	HCPID	RunNumber	Subject	Session	RandomSeed	Group	Laptop.RefreshRate	ScannerD2.RefreshRate	StudioVersion	RuntimeVersion	RuntimeVersionExpected	ExperimentVersion	triggercode	Allowed	Target	Nontarget	FontStyle	RunTrialNumber[Session]	TrialsPerRun[Session]	TotalRespGreater200[Session]	ConsecRTLess200[Session]	ConsecNonResp[Session]	StimuliDir	ACC_2_Back_Body	Avg_RT_For_Correct_Trials_2_Back_Body	ACC_0_Back_Body	Avg_RT_For_Correct_Trials_0_Back_Body	ACC_2_Back_Face	Avg_RT_For_Correct_Trials_2_Back_Face	ACC_0_Back_Face	Avg_RT_For_Correct_Trials_0_Back_Face	ACC_2_Back_Place	Avg_RT_For_Correct_Trials_2_Back_Place	ACC_0_Back_Place	Avg_RT_For_Correct_Trials_0_Back_Place	ACC_2_Back_Tools	Avg_RT_For_Correct_Trials_2_Back_Tools	ACC_0_Back_Tools	Avg_RT_For_Correct_Trials_0_Back_Tools	ExpInstrucFeelFreeToRest.OnsetDelay	ExpInstrucFeelFreeToRest.OnsetTime	ExpInstrucFeelFreeToRest.DurationError	ExpInstrucFeelFreeToRest.StartTime	ExpInstrucFeelFreeToRest.OnsetToOnsetTime	FeelFreeToRest.OnsetDelay	FeelFreeToRest.OnsetTime	FeelFreeToRest.DurationError	FeelFreeToRest.StartTime	FeelFreeToRest.OnsetToOnsetTime	SessionSelectionList	Procedure[Block]	Stimulus[Block]	RunNumberFilterValue	SessionSelectionList.Cycle	SessionSelectionList.Sample	Running[Block]	IntroButtonMap.OnsetDelay	IntroButtonMap.OnsetTime	IntroButtonMap.DurationError	IntroButtonMap.OnsetToOnsetTime	GetReady.OnsetDelay	GetReady.OnsetTime	GetReady.DurationError	GetReady.OnsetToOnsetTime	Cue2Back.OnsetDelay	Cue2Back.OnsetTime	Cue2Back.DurationError	Cue2Back.OnsetToOnsetTime	Run1Block1	TargetType	CorrectResponse	StimType	BlockType	RunTrialNumber[Block]	TrialsPerRun[Block]	TotalRespGreater200[Block]	ConsecRTLess200[Block]	ConsecNonResp[Block]	ControlAcc	ConsecSameResp	ExperimenterWindow.OnsetDelay	ExperimenterWindow.OnsetTime	ExperimenterWindow.DurationError	ExperimenterWindow.OnsetToOnsetTime	Stim.OnsetDelay	Stim.OnsetTime	Stim.DurationError	Stim.RTTime	Stim.ACC	Stim.RT	Stim.RESP	Stim.CRESP	Stim.OnsetToOnsetTime	Fix.OnsetDelay	Fix.OnsetTime	Fix.DurationError	Fix.OnsetToOnsetTime	CueTarget.OnsetDelay	CueTarget.OnsetTime	CueTarget.DurationError	CueTarget.OnsetToOnsetTime	Run1Block2	Fix15sec.OnsetDelay	Fix15sec.OnsetTime	Fix15sec.DurationError	Fix15sec.OnsetToOnsetTime	Run1Block3	Run1Block4	Run1Block5	Run1Block6	Run1Block7	Run1Block8	Block	Procedure[Trial]	Stimulus[Trial]	ReadyList	Running[Trial]	ReadyList.Cycle	ReadyList.Sample	SyncSlide.OnsetDelay	SyncSlide.OnsetTime	SyncSlide.DurationError	SyncSlide.FinishTime	SyncSlide.OnsetToOnsetTime	Trial
WM080112	672756_fnca	1	1	1	119693121	1	75.030	75.030	2.0.10.147	2.0.10.242	2.0.10.242	1.0.0.439	7	234	2	3	Verdana	1	80	0	0	0	WM Stimuli\	0.7	1024.85714285714	0.6	1235.33333333333	0.7	842.571428571429	0.9	724	0.5	730.2	0.9	1079.66666666667	0.9	1020.11111111111	1	588.1	13	376847	2	376835	27	40	376874	-999999	376850	0	1	TRSyncPROC	""	1	2	1	SessionSelectionList	143	28734	-999999	0	40	69544	-999999	0																																																	1	InitialTR	4	1	ReadyList	1	1	15	82712	-16	84696	0	1
WM080112	672756_fnca	1	1	1	119693121	1	75.030	75.030	2.0.10.147	2.0.10.242	2.0.10.242	1.0.0.439	7	234	2	3	Verdana	1	80	0	0	0	WM Stimuli\	0.7	1024.85714285714	0.6	1235.33333333333	0.7	842.571428571429	0.9	724	0.5	730.2	0.9	1079.66666666667	0.9	1020.11111111111	1	588.1	13	376847	2	376835	27	40	376874	-999999	376850	0	1	TRSyncPROC	""	1	2	1	SessionSelectionList	143	28734	-999999	0	40	69544	-999999	0																																																	1	InitialTR	3	2	ReadyList	1	2	14	84711	-15	86696	0	2
WM080112	672756_fnca	1	1	1	119693121	1	75.030	75.030	2.0.10.147	2.0.10.242	2.0.10.242	1.0.0.439	7	234	2	3	Verdana	1	80	0	0	0	WM Stimuli\	0.7	1024.85714285714	0.6	1235.33333333333	0.7	842.571428571429	0.9	724	0.5	730.2	0.9	1079.66666666667	0.9	1020.11111111111	1	588.1	13	376847	2	376835	27	40	376874	-999999	376850	0	1	TRSyncPROC	""	1	2	1	SessionSelectionList	143	28734	-999999	0	40	69544	-999999	0																																																	1	InitialTR	2	3	ReadyList	1	3	13	86710	-14	88696	0	3
WM080112	672756_fnca	1	1	1	119693121	1	75.030	75.030	2.0.10.147	2.0.10.242	2.0.10.242	1.0.0.439	7	234	2	3	Verdana	1	80	0	0	0	WM Stimuli\	0.7	1024.85714285714	0.6	1235.33333333333	0.7	842.571428571429	0.9	724	0.5	730.2	0.9	1079.66666666667	0.9	1020.11111111111	1	588.1	13	376847	2	376835	27	40	376874	-999999	376850	0	1	TRSyncPROC	""	1	2	1	SessionSelectionList	143	28734	-999999	0	40	69544	-999999	0																																																	1	InitialTR	1	4	ReadyList	1	4	12	88709	-13	90696	0	4
WM080112	672756_fnca	1	1	1	119693121	1	75.030	75.030	2.0.10.147	2.0.10.242	2.0.10.242	1.0.0.439	7	234	2	3	Verdana	1	80	0	0	0	WM Stimuli\	0.7	1024.85714285714	0.6	1235.33333333333	0.7	842.571428571429	0.9	724	0.5	730.2	0.9	1079.66666666667	0.9	1020.11111111111	1	588.1	13	376847	2	376835	27	40	376874	-999999	376850	0	2	Cue2BackPROC	""	1	2	2	SessionSelectionList									12	90709	-13	0																																													2												
WM080112	672756_fnca	1	1	1	119693121	1	75.030	75.030	2.0.10.147	2.0.10.242	2.0.10.242	1.0.0.439	7	234	2	3	Verdana	1	80	0	0	0	WM Stimuli\	0.7	1024.85714285714	0.6	1235.33333333333	0.7	842.571428571429	0.9	724	0.5	730.2	0.9	1079.66666666667	0.9	1020.11111111111	1	588.1	13	376847	2	376835	27	40	376874	-999999	376850	0	3	TrialsPROC	BP_002_BP10_BA.png	1	2	3	SessionSelectionList													1	nonlure	3	Body	2-Back	2	80	1	0	0	0	1	53	95347	3	13	97	93294	-1	94501	1	1207	3	3	2053	66	95360	-67	0																3												
WM080112	672756_fnca	1	1	1	119693121	1	75.030	75.030	2.0.10.147	2.0.10.242	2.0.10.242	1.0.0.439	7	234	2	3	Verdana	1	80	0	0	0	WM Stimuli\	0.7	1024.85714285714	0.6	1235.33333333333	0.7	842.571428571429	0.9	724	0.5	730.2	0.9	1079.66666666667	0.9	1020.11111111111	1	588.1	13	376847	2	376835	27	40	376874	-999999	376850	0	3	TrialsPROC	BP_001_BP1_BA.png	1	2	4	SessionSelectionList													2	nonlure	3	Body	2-Back	3	80	2	0	0	0	2	39	97919	2	14	86	95880	-1	96830	1	950	3	3	2039	53	97933	-54	0																4												
WM080112	672756_fnca	1	1	1	119693121	1	75.030	75.030	2.0.10.147	2.0.10.242	2.0.10.242	1.0.0.439	7	234	2	3	Verdana	1	80	0	0	0	WM Stimuli\	0.7	1024.85714285714	0.6	1235.33333333333	0.7	842.571428571429	0.9	724	0.5	730.2	0.9	1079.66666666667	0.9	1020.11111111111	1	588.1	13	376847	2	376835	27	40	376874	-999999	376850	0	3	TrialsPROC	BP_006_BP2_BA.png	1	2	5	SessionSelectionList													3	nonlure	3	Body	2-Back	4	80	3	0	0	0	3	39	100505	1	13	86	98466	-1	99314	1	848	3	3	2039	52	100518	-53	0																5												
WM080112	672756_fnca	1	1	1	119693121	1	75.030	75.030	2.0.10.147	2.0.10.242	2.0.10.242	1.0.0.439	7	234	2	3	Verdana	1	80	0	0	0	WM Stimuli\	0.7	1024.85714285714	0.6	1235.33333333333	0.7	842.571428571429	0.9	724	0.5	730.2	0.9	1079.66666666667	0.9	1020.11111111111	1	588.1	13	376847	2	376835	27	40	376874	-999999	376850	0	3	TrialsPROC	BP_001_BP1_BA.png	1	2	6	SessionSelectionList													4	target	2	Body	2-Back	5	80	4	0	0	0	1	39	103077	1	14	72	101038	-1	101870	1	832	2	2	2039	53	103091	-54	0																6												
WM080112	672756_fnca	1	1	1	119693121	1	75.030	75.030	2.0.10.147	2.0.10.242	2.0.10.242	1.0.0.439	7	234	2	3	Verdana	1	80	0	0	0	WM Stimuli\	0.7	1024.85714285714	0.6	1235.33333333333	0.7	842.571428571429	0.9	724	0.5	730.2	0.9	1079.66666666667	0.9	1020.11111111111	1	588.1	13	376847	2	376835	27	40	376874	-999999	376850	0	3	TrialsPROC	BP_005_BP19_BA.png	1	2	7	SessionSelectionList													5	nonlure	3	Body	2-Back	6	80	5	0	0	0	1	40	105663	1	13	85	103623	-1	104680	1	1057	3	3	2040	53	105676	-54	0																7												
WM080112	672756_fnca	1	1	1	119693121	1	75.030	75.030	2.0.10.147	2.0.10.242	2.0.10.242	1.0.0.439	7	234	2	3	Verdana	1	80	0	0	0	WM Stimuli\	0.7	1024.85714285714	0.6	1235.33333333333	0.7	842.571428571429	0.9	724	0.5	730.2	0.9	1079.66666666667	0.9	1020.11111111111	1	588.1	13	376847	2	376835	27	40	376874	-999999	376850	0	3	TrialsPROC	BP_003_BP16_BA.png	1	2	8	SessionSelectionList													6	nonlure	3	Body	2-Back	7	80	6	0	0	0	2	39	108248	2	14	86	106209	-1	107155	1	946	3	3	2039	53	108262	-54	0																8												
WM080112	672756_fnca	1	1	1	119693121	1	75.030	75.030	2.0.10.147	2.0.10.242	2.0.10.242	1.0.0.439	7	234	2	3	Verdana	1	80	0	0	0	WM Stimuli\	0.7	1024.85714285714	0.6	1235.33333333333	0.7	842.571428571429	0.9	724	0.5	730.2	0.9	1079.66666666667	0.9	1020.11111111111	1	588.1	13	376847	2	376835	27	40	376874	-999999	376850	0	3	TrialsPROC	BP_006_BP2_BA.png	1	2	9	SessionSelectionList													7	lure	3	Body	2-Back	8	80	7	0	0	0	1	39	110807	2	14	59	108768	-1	109454	0	686	2	3	2039	53	110821	-54	0																9												
WM080112	672756_fnca	1	1	1	119693121	1	75.030	75.030	2.0.10.147	2.0.10.242	2.0.10.242	1.0.0.439	7	234	2	3	Verdana	1	80	0	0	0	WM Stimuli\	0.7	1024.85714285714	0.6	1235.33333333333	0.7	842.571428571429	0.9	724	0.5	730.2	0.9	1079.66666666667	0.9	1020.11111111111	1	588.1	13	376847	2	376835	27	40	376874	-999999	376850	0	3	TrialsPROC	BP_004_BP18_BA.png	1	2	10	SessionSelectionList													8	nonlure	3	Body	2-Back	9	80	8	0	0	0	1	39	113393	1	14	86	111354	-1	112688	1	1334	3	3	2039	53	113407	-54	0																10												
WM080112	672756_fnca	1	1	1	119693121	1	75.030	75.030	2.0.10.147	2.0.10.242	2.0.10.242	1.0.0.439	7	234	2	3	Verdana	1	80	0	0	0	WM Stimuli\	0.7	1024.85714285714	0.6	1235.33333333333	0.7	842.571428571429	0.9	724	0.5	730.2	0.9	1079.66666666667	0.9	1020.11111111111	1	588.1	13	376847	2	376835	27	40	376874	-999999	376850	0	3	TrialsPROC	BP_005_BP19_BA.png	1	2	11	SessionSelectionList													9	lure	3	Body	2-Back	10	80	9	0	0	0	1	39	115952	1	14	59	113913	-1	115762	0	1849	2	3	2039	53	115966	-54	0																11												
WM080112	672756_fnca	1	1	1	119693121	1	75.030	75.030	2.0.10.147	2.0.10.242	2.0.10.242	1.0.0.439	7	234	2	3	Verdana	1	80	0	0	0	WM Stimuli\	0.7	1024.85714285714	0.6	1235.33333333333	0.7	842.571428571429	0.9	724	0.5	730.2	0.9	1079.66666666667	0.9	1020.11111111111	1	588.1	13	376847	2	376835	27	40	376874	-999999	376850	0	3	TrialsPROC	BP_004_BP18_BA.png	1	2	12	SessionSelectionList													10	target	2	Body	2-Back	11	80	10	0	0	0	1	39	118511	1	13	59	116472	-1	117415	0	943	3	2	2039	52	118524	-53	0																12												
WM080112	672756_fnca	1	1	1	119693121	1	75.030	75.030	2.0.10.147	2.0.10.242	2.0.10.242	1.0.0.439	7	234	2	3	Verdana	1	80	0	0	0	WM Stimuli\	0.7	1024.85714285714	0.6	1235.33333333333	0.7	842.571428571429	0.9	724	0.5	730.2	0.9	1079.66666666667	0.9	1020.11111111111	1	588.1	13	376847	2	376835	27	40	376874	-999999	376850	0	4	Cue0BackPROC	FC_001_M1.png	1	2	13	SessionSelectionList																																										45	119017	-46	0												13												
WM080112	672756_fnca	1	1	1	119693121	1	75.030	75.030	2.0.10.147	2.0.10.242	2.0.10.242	1.0.0.439	7	234	2	3	Verdana	1	80	0	0	0	WM Stimuli\	0.7	1024.85714285714	0.6	1235.33333333333	0.7	842.571428571429	0.9	724	0.5	730.2	0.9	1079.66666666667	0.9	1020.11111111111	1	588.1	13	376847	2	376835	27	40	376874	-999999	376850	0	5	TrialsPROC	FC_005_M3.png	1	2	14	SessionSelectionList														nonlure	3	Face	0-Back	12	80	11	0	0	100	2	39	123589	1	13	78	121550	-1	122615	1	1065	3	3	2039	52	123602	-53	0					1											14												
WM080112	672756_fnca	1	1	1	119693121	1	75.030	75.030	2.0.10.147	2.0.10.242	2.0.10.242	1.0.0.439	7	234	2	3	Verdana	1	80	0	0	0	WM Stimuli\	0.7	1024.85714285714	0.6	1235.33333333333	0.7	842.571428571429	0.9	724	0.5	730.2	0.9	1079.66666666667	0.9	1020.11111111111	1	588.1	13	376847	2	376835	27	40	376874	-999999	376850	0	5	TrialsPROC	FC_001_M1.png	1	2	15	SessionSelectionList														target	2	Face	0-Back	13	80	12	0	0	100	1	39	126161	1	14	72	124122	-1	124866	1	744	2	2	2039	53	126175	-54	0					2											15												
WM080112	672756_fnca	1	1	1	119693121	1	75.030	75.030	2.0.10.147	2.0.10.242	2.0.10.242	1.0.0.439	7	234	2	3	Verdana	1	80	0	0	0	WM Stimuli\	0.7	1024.85714285714	0.6	1235.33333333333	0.7	842.571428571429	0.9	724	0.5	730.2	0.9	1079.66666666667	0.9	1020.11111111111	1	588.1	13	376847	2	376835	27	40	376874	-999999	376850	0	5	TrialsPROC	FC_003_M2.png	1	2	16	SessionSelectionList														nonlure	3	Face	0-Back	14	80	13	0	0	100	1	39	128760	1	14	99	126721	-1	127864	1	1143	3	3	2039	53	128774	-54	0					3											16												
WM080112	672756_fnca	1	1	1	119693121	1	75.030	75.030	2.0.10.147	2.0.10.242	2.0.10.242	1.0.0.439	7	234	2	3	Verdana	1	80	0	0	0	WM Stimuli\	0.7	1024.85714285714	0.6	1235.33333333333	0.7	842.571428571429	0.9	724	0.5	730.2	0.9	1079.66666666667	0.9	1020.11111111111	1	588.1	13	376847	2	376835	27	40	376874	-999999	376850	0	5	TrialsPROC	FC_004_F2.png	1	2	17	SessionSelectionList														nonlure	3	Face	0-Back	15	80	14	0	0	100	2	40	131346	1	13	85	129306	-1	129882	1	576	3	3	2040	53	131359	-54	0					4											17												
WM080112	672756_fnca	1	1	1	119693121	1	75.030	75.030	2.0.10.147	2.0.10.242	2.0.10.242	1.0.0.439	7	234	2	3	Verdana	1	80	0	0	0	WM Stimuli\	0.7	1024.85714285714	0.6	1235.33333333333	0.7	842.571428571429	0.9	724	0.5	730.2	0.9	1079.66666666667	0.9	1020.11111111111	1	588.1	13	376847	2	376835	27	40	376874	-999999	376850	0	5	TrialsPROC	FC_004_F2.png	1	2	18	SessionSelectionList														lure	3	Face	0-Back	16	80	15	0	0	100	3	39	133918	2	14	73	131879	-1	132345	1	466	3	3	2039	53	133932	-54	0					5											18												
WM080112	672756_fnca	1	1	1	119693121	1	75.030	75.030	2.0.10.147	2.0.10.242	2.0.10.242	1.0.0.439	7	234	2	3	Verdana	1	80	0	0	0	WM Stimuli\	0.7	1024.85714285714	0.6	1235.33333333333	0.7	842.571428571429	0.9	724	0.5	730.2	0.9	1079.66666666667	0.9	1020.11111111111	1	588.1	13	376847	2	376835	27	40	376874	-999999	376850	0	5	TrialsPROC	FC_001_M1.png	1	2	19	SessionSelectionList														target	2	Face	0-Back	17	80	16	0	0	100	1	39	136490	2	14	72	134451	-1	135573	1	1122	2	2	2039	53	136504	-54	0					6											19												
WM080112	672756_fnca	1	1	1	119693121	1	75.030	75.030	2.0.10.147	2.0.10.242	2.0.10.242	1.0.0.439	7	234	2	3	Verdana	1	80	0	0	0	WM Stimuli\	0.7	1024.85714285714	0.6	1235.33333333333	0.7	842.571428571429	0.9	724	0.5	730.2	0.9	1079.66666666667	0.9	1020.11111111111	1	588.1	13	376847	2	376835	27	40	376874	-999999	376850	0	5	TrialsPROC	FC_006_F3.png	1	2	20	SessionSelectionList														nonlure	3	Face	0-Back	18	80	17	0	0	100	1	39	139076	2	14	86	137037	-1	137525	1	488	3	3	2039	53	139090	-54	0					7											20												
WM080112	672756_fnca	1	1	1	119693121	1	75.030	75.030	2.0.10.147	2.0.10.242	2.0.10.242	1.0.0.439	7	234	2	3	Verdana	1	80	0	0	0	WM Stimuli\	0.7	1024.85714285714	0.6	1235.33333333333	0.7	842.571428571429	0.9	724	0.5	730.2	0.9	1079.66666666667	0.9	1020.11111111111	1	588.1	13	376847	2	376835	27	40	376874	-999999	376850	0	5	TrialsPROC	FC_006_F3.png	1	2	21	SessionSelectionList														lure	3	Face	0-Back	19	80	18	0	0	100	2	39	141648	2	14	72	139609	-1	140047	1	438	3	3	2039	53	141662	-54	0					8											21												
WM080112	672756_fnca	1	1	1	119693121	1	75.030	75.030	2.0.10.147	2.0.10.242	2.0.10.242	1.0.0.439	7	234	2	3	Verdana	1	80	0	0	0	WM Stimuli\	0.7	1024.85714285714	0.6	1235.33333333333	0.7	842.571428571429	0.9	724	0.5	730.2	0.9	1079.66666666667	0.9	1020.11111111111	1	588.1	13	376847	2	376835	27	40	376874	-999999	376850	0	5	TrialsPROC	FC_003_M2.png	1	2	22	SessionSelectionList														lure	3	Face	0-Back	20	80	19	0	0	89	1	39	144220	2	14	72	142181	-1	143092	0	911	2	3	2039	53	144234	-54	0					9											22												
WM080112	672756_fnca	1	1	1	119693121	1	75.030	75.030	2.0.10.147	2.0.10.242	2.0.10.242	1.0.0.439	7	234	2	3	Verdana	1	80	0	0	0	WM Stimuli\	0.7	1024.85714285714	0.6	1235.33333333333	0.7	842.571428571429	0.9	724	0.5	730.2	0.9	1079.66666666667	0.9	1020.11111111111	1	588.1	13	376847	2	376835	27	40	376874	-999999	376850	0	5	TrialsPROC	FC_002_F1.png	1	2	23	SessionSelectionList														nonlure	3	Face	0-Back	21	80	20	0	0	90	1	39	146806	1	14	86	144767	-1	145241	1	474	3	3	2039	53	146820	-54	0					10											23												
WM080112	672756_fnca	1	1	1	119693121	1	75.030	75.030	2.0.10.147	2.0.10.242	2.0.10.242	1.0.0.439	7	234	2	3	Verdana	1	80	0	0	0	WM Stimuli\	0.7	1024.85714285714	0.6	1235.33333333333	0.7	842.571428571429	0.9	724	0.5	730.2	0.9	1079.66666666667	0.9	1020.11111111111	1	588.1	13	376847	2	376835	27	40	376874	-999999	376850	0	6	Fix15secPROC	""	1	2	24	SessionSelectionList																																															6	147273	-7	0							24												
WM080112	672756_fnca	1	1	1	119693121	1	75.030	75.030	2.0.10.147	2.0.10.242	2.0.10.242	1.0.0.439	7	234	2	3	Verdana	1	80	0	0	0	WM Stimuli\	0.7	1024.85714285714	0.6	1235.33333333333	0.7	842.571428571429	0.9	724	0.5	730.2	0.9	1079.66666666667	0.9	1020.11111111111	1	588.1	13	376847	2	376835	27	40	376874	-999999	376850	0	7	Cue2BackPROC	""	1	2	25	SessionSelectionList									13	162280	-14	0																																													25												
WM080112	672756_fnca	1	1	1	119693121	1	75.030	75.030	2.0.10.147	2.0.10.242	2.0.10.242	1.0.0.439	7	234	2	3	Verdana	1	80	0	0	0	WM Stimuli\	0.7	1024.85714285714	0.6	1235.33333333333	0.7	842.571428571429	0.9	724	0.5	730.2	0.9	1079.66666666667	0.9	1020.11111111111	1	588.1	13	376847	2	376835	27	40	376874	-999999	376850	0	8	TrialsPROC	TO_001_TOOL1_BA.png	1	2	26	SessionSelectionList														nonlure	3	Tools	2-Back	22	80	21	0	0	90	2	39	166891	2	14	85	164852	-1	165792	1	940	3	3	2039	53	166905	-54	0										1						26												
WM080112	672756_fnca	1	1	1	119693121	1	75.030	75.030	2.0.10.147	2.0.10.242	2.0.10.242	1.0.0.439	7	234	2	3	Verdana	1	80	0	0	0	WM Stimuli\	0.7	1024.85714285714	0.6	1235.33333333333	0.7	842.571428571429	0.9	724	0.5	730.2	0.9	1079.66666666667	0.9	1020.11111111111	1	588.1	13	376847	2	376835	27	40	376874	-999999	376850	0	8	TrialsPROC	TO_002_TOOL2_BA.png	1	2	27	SessionSelectionList														nonlure	3	Tools	2-Back	23	80	22	0	0	90	3	39	169490	2	14	99	167451	-1	168928	1	1477	3	3	2039	53	169504	-54	0										2						27												
WM080112	672756_fnca	1	1	1	119693121	1	75.030	75.030	2.0.10.147	2.0.10.242	2.0.10.242	1.0.0.439	7	234	2	3	Verdana	1	80	0	0	0	WM Stimuli\	0.7	1024.85714285714	0.6	1235.33333333333	0.7	842.571428571429	0.9	724	0.5	730.2	0.9	1079.66666666667	0.9	1020.11111111111	1	588.1	13	376847	2	376835	27	40	376874	-999999	376850	0	8	TrialsPROC	TO_004_TOOL4_BA.png	1	2	28	SessionSelectionList														nonlure	3	Tools	2-Back	24	80	23	0	0	90	4	39	172076	1	14	86	170037	-1	170924	1	887	3	3	2039	53	172090	-54	0										3						28												
WM080112	672756_fnca	1	1	1	119693121	1	75.030	75.030	2.0.10.147	2.0.10.242	2.0.10.242	1.0.0.439	7	234	2	3	Verdana	1	80	0	0	0	WM Stimuli\	0.7	1024.85714285714	0.6	1235.33333333333	0.7	842.571428571429	0.9	724	0.5	730.2	0.9	1079.66666666667	0.9	1020.11111111111	1	588.1	13	376847	2	376835	27	40	376874	-999999	376850	0	8	TrialsPROC	TO_002_TOOL2_BA.png	1	2	29	SessionSelectionList														target	2	Tools	2-Back	25	80	24	0	0	90	1	39	174635	1	14	59	172596	-1	173427	1	831	2	2	2039	53	174649	-54	0										4						29												
WM080112	672756_fnca	1	1	1	119693121	1	75.030	75.030	2.0.10.147	2.0.10.242	2.0.10.242	1.0.0.439	7	234	2	3	Verdana	1	80	0	0	0	WM Stimuli\	0.7	1024.85714285714	0.6	1235.33333333333	0.7	842.571428571429	0.9	724	0.5	730.2	0.9	1079.66666666667	0.9	1020.11111111111	1	588.1	13	376847	2	376835	27	40	376874	-999999	376850	0	8	TrialsPROC	TO_001_TOOL1_BA.png	1	2	30	SessionSelectionList														lure	3	Tools	2-Back	26	80	25	0	0	90	1	39	177194	1	14	59	175155	-1	176968	1	1813	3	3	2039	53	177208	-54	0										5						30												
WM080112	672756_fnca	1	1	1	119693121	1	75.030	75.030	2.0.10.147	2.0.10.242	2.0.10.242	1.0.0.439	7	234	2	3	Verdana	1	80	0	0	0	WM Stimuli\	0.7	1024.85714285714	0.6	1235.33333333333	0.7	842.571428571429	0.9	724	0.5	730.2	0.9	1079.66666666667	0.9	1020.11111111111	1	588.1	13	376847	2	376835	27	40	376874	-999999	376850	0	8	TrialsPROC	TO_004_TOOL4_BA.png	1	2	31	SessionSelectionList														lure	3	Tools	2-Back	27	80	26	0	0	90	1	39	179753	1	14	59	177714	-1	179291	0	1577	2	3	2039	53	179767	-54	0										6						31												
WM080112	672756_fnca	1	1	1	119693121	1	75.030	75.030	2.0.10.147	2.0.10.242	2.0.10.242	1.0.0.439	7	234	2	3	Verdana	1	80	0	0	0	WM Stimuli\	0.7	1024.85714285714	0.6	1235.33333333333	0.7	842.571428571429	0.9	724	0.5	730.2	0.9	1079.66666666667	0.9	1020.11111111111	1	588.1	13	376847	2	376835	27	40	376874	-999999	376850	0	8	TrialsPROC	TO_006_TOOL6_BA.png	1	2	32	SessionSelectionList														nonlure	3	Tools	2-Back	28	80	27	0	0	90	1	40	182339	1	13	85	180299	-1	181201	1	902	3	3	2040	53	182352	-54	0										7						32												
WM080112	672756_fnca	1	1	1	119693121	1	75.030	75.030	2.0.10.147	2.0.10.242	2.0.10.242	1.0.0.439	7	234	2	3	Verdana	1	80	0	0	0	WM Stimuli\	0.7	1024.85714285714	0.6	1235.33333333333	0.7	842.571428571429	0.9	724	0.5	730.2	0.9	1079.66666666667	0.9	1020.11111111111	1	588.1	13	376847	2	376835	27	40	376874	-999999	376850	0	8	TrialsPROC	TO_005_TOOL5_BA.png	1	2	33	SessionSelectionList														nonlure	3	Tools	2-Back	29	80	28	0	0	90	2	39	184911	1	13	73	182872	-1	183762	1	890	3	3	2039	52	184924	-53	0										8						33												
WM080112	672756_fnca	1	1	1	119693121	1	75.030	75.030	2.0.10.147	2.0.10.242	2.0.10.242	1.0.0.439	7	234	2	3	Verdana	1	80	0	0	0	WM Stimuli\	0.7	1024.85714285714	0.6	1235.33333333333	0.7	842.571428571429	0.9	724	0.5	730.2	0.9	1079.66666666667	0.9	1020.11111111111	1	588.1	13	376847	2	376835	27	40	376874	-999999	376850	0	8	TrialsPROC	TO_006_TOOL6_BA.png	1	2	34	SessionSelectionList														target	2	Tools	2-Back	30	80	29	0	0	90	1	39	187470	1	13	59	185431	-1	186166	1	735	2	2	2039	52	187483	-53	0										9						34												
WM080112	672756_fnca	1	1	1	119693121	1	75.030	75.030	2.0.10.147	2.0.10.242	2.0.10.242	1.0.0.439	7	234	2	3	Verdana	1	80	0	0	0	WM Stimuli\	0.7	1024.85714285714	0.6	1235.33333333333	0.7	842.571428571429	0.9	724	0.5	730.2	0.9	1079.66666666667	0.9	1020.11111111111	1	588.1	13	376847	2	376835	27	40	376874	-999999	376850	0	8	TrialsPROC	TO_003_TOOL3_BA.png	1	2	35	SessionSelectionList														nonlure	3	Tools	2-Back	31	80	30	0	0	90	1	39	190029	1	13	59	187990	-1	188696	1	706	3	3	2039	52	190042	-53	0										10						35												
WM080112	672756_fnca	1	1	1	119693121	1	75.030	75.030	2.0.10.147	2.0.10.242	2.0.10.242	1.0.0.439	7	234	2	3	Verdana	1	80	0	0	0	WM Stimuli\	0.7	1024.85714285714	0.6	1235.33333333333	0.7	842.571428571429	0.9	724	0.5	730.2	0.9	1079.66666666667	0.9	1020.11111111111	1	588.1	13	376847	2	376835	27	40	376874	-999999	376850	0	9	Cue0BackPROC	BP_007_BP20_BA.png	1	2	36	SessionSelectionList																																										32	190522	-33	0												36												
WM080112	672756_fnca	1	1	1	119693121	1	75.030	75.030	2.0.10.147	2.0.10.242	2.0.10.242	1.0.0.439	7	234	2	3	Verdana	1	80	0	0	0	WM Stimuli\	0.7	1024.85714285714	0.6	1235.33333333333	0.7	842.571428571429	0.9	724	0.5	730.2	0.9	1079.66666666667	0.9	1020.11111111111	1	588.1	13	376847	2	376835	27	40	376874	-999999	376850	0	10	TrialsPROC	BP_007_BP20_BA.png	1	2	37	SessionSelectionList														target	2	Body	0-Back	32	80	30	0	1	82	1	39	195080	1	14	51	193041	-1	0	0	0	""	2	2039	53	195094	-54	0											1					37												
WM080112	672756_fnca	1	1	1	119693121	1	75.030	75.030	2.0.10.147	2.0.10.242	2.0.10.242	1.0.0.439	7	234	2	3	Verdana	1	80	0	0	0	WM Stimuli\	0.7	1024.85714285714	0.6	1235.33333333333	0.7	842.571428571429	0.9	724	0.5	730.2	0.9	1079.66666666667	0.9	1020.11111111111	1	588.1	13	376847	2	376835	27	40	376874	-999999	376850	0	10	TrialsPROC	BP_011_BP4_BA.png	1	2	38	SessionSelectionList														nonlure	3	Body	0-Back	33	80	31	0	0	83	1	39	197666	1	13	86	195627	-1	196602	1	975	3	3	2039	52	197679	-53	0											2					38												
WM080112	672756_fnca	1	1	1	119693121	1	75.030	75.030	2.0.10.147	2.0.10.242	2.0.10.242	1.0.0.439	7	234	2	3	Verdana	1	80	0	0	0	WM Stimuli\	0.7	1024.85714285714	0.6	1235.33333333333	0.7	842.571428571429	0.9	724	0.5	730.2	0.9	1079.66666666667	0.9	1020.11111111111	1	588.1	13	376847	2	376835	27	40	376874	-999999	376850	0	10	TrialsPROC	BP_010_BP3_BA.png	1	2	39	SessionSelectionList														nonlure	3	Body	0-Back	34	80	32	0	0	85	2	39	200238	1	14	72	198199	-1	199804	1	1605	3	3	2039	53	200252	-54	0											3					39												
WM080112	672756_fnca	1	1	1	119693121	1	75.030	75.030	2.0.10.147	2.0.10.242	2.0.10.242	1.0.0.439	7	234	2	3	Verdana	1	80	0	0	0	WM Stimuli\	0.7	1024.85714285714	0.6	1235.33333333333	0.7	842.571428571429	0.9	724	0.5	730.2	0.9	1079.66666666667	0.9	1020.11111111111	1	588.1	13	376847	2	376835	27	40	376874	-999999	376850	0	10	TrialsPROC	BP_008_BP21_BA.png	1	2	40	SessionSelectionList														nonlure	3	Body	0-Back	35	80	33	0	0	86	3	40	202824	1	13	85	200784	-1	202250	1	1466	3	3	2040	53	202837	-54	0											4					40												
WM080112	672756_fnca	1	1	1	119693121	1	75.030	75.030	2.0.10.147	2.0.10.242	2.0.10.242	1.0.0.439	7	234	2	3	Verdana	1	80	0	0	0	WM Stimuli\	0.7	1024.85714285714	0.6	1235.33333333333	0.7	842.571428571429	0.9	724	0.5	730.2	0.9	1079.66666666667	0.9	1020.11111111111	1	588.1	13	376847	2	376835	27	40	376874	-999999	376850	0	10	TrialsPROC	BP_011_BP4_BA.png	1	2	41	SessionSelectionList														lure	3	Body	0-Back	36	80	34	0	0	80	1	39	205396	1	14	73	203357	-1	204678	0	1321	2	3	2039	53	205410	-54	0											5					41												
WM080112	672756_fnca	1	1	1	119693121	1	75.030	75.030	2.0.10.147	2.0.10.242	2.0.10.242	1.0.0.439	7	234	2	3	Verdana	1	80	0	0	0	WM Stimuli\	0.7	1024.85714285714	0.6	1235.33333333333	0.7	842.571428571429	0.9	724	0.5	730.2	0.9	1079.66666666667	0.9	1020.11111111111	1	588.1	13	376847	2	376835	27	40	376874	-999999	376850	0	10	TrialsPROC	BP_009_BP22_BA.png	1	2	42	SessionSelectionList														nonlure	3	Body	0-Back	37	80	35	0	0	81	1	40	207982	1	13	85	205942	-1	207038	1	1096	3	3	2040	53	207995	-54	0											6					42												
WM080112	672756_fnca	1	1	1	119693121	1	75.030	75.030	2.0.10.147	2.0.10.242	2.0.10.242	1.0.0.439	7	234	2	3	Verdana	1	80	0	0	0	WM Stimuli\	0.7	1024.85714285714	0.6	1235.33333333333	0.7	842.571428571429	0.9	724	0.5	730.2	0.9	1079.66666666667	0.9	1020.11111111111	1	588.1	13	376847	2	376835	27	40	376874	-999999	376850	0	10	TrialsPROC	BP_009_BP22_BA.png	1	2	43	SessionSelectionList														lure	3	Body	0-Back	38	80	36	0	0	82	2	40	210541	1	13	59	208501	-1	210022	1	1521	3	3	2040	53	210554	-54	0											7					43												
WM080112	672756_fnca	1	1	1	119693121	1	75.030	75.030	2.0.10.147	2.0.10.242	2.0.10.242	1.0.0.439	7	234	2	3	Verdana	1	80	0	0	0	WM Stimuli\	0.7	1024.85714285714	0.6	1235.33333333333	0.7	842.571428571429	0.9	724	0.5	730.2	0.9	1079.66666666667	0.9	1020.11111111111	1	588.1	13	376847	2	376835	27	40	376874	-999999	376850	0	10	TrialsPROC	BP_008_BP21_BA.png	1	2	44	SessionSelectionList														lure	3	Body	0-Back	39	80	37	0	0	78	1	39	213099	2	14	59	211060	-1	212551	0	1491	2	3	2039	53	213113	-54	0											8					44												
WM080112	672756_fnca	1	1	1	119693121	1	75.030	75.030	2.0.10.147	2.0.10.242	2.0.10.242	1.0.0.439	7	234	2	3	Verdana	1	80	0	0	0	WM Stimuli\	0.7	1024.85714285714	0.6	1235.33333333333	0.7	842.571428571429	0.9	724	0.5	730.2	0.9	1079.66666666667	0.9	1020.11111111111	1	588.1	13	376847	2	376835	27	40	376874	-999999	376850	0	10	TrialsPROC	BP_007_BP20_BA.png	1	2	45	SessionSelectionList														target	2	Body	0-Back	40	80	37	0	1	74	1	39	215658	2	14	59	213619	-1	0	0	0	""	2	2039	53	215672	-54	0											9					45												
WM080112	672756_fnca	1	1	1	119693121	1	75.030	75.030	2.0.10.147	2.0.10.242	2.0.10.242	1.0.0.439	7	234	2	3	Verdana	1	80	0	0	0	WM Stimuli\	0.7	1024.85714285714	0.6	1235.33333333333	0.7	842.571428571429	0.9	724	0.5	730.2	0.9	1079.66666666667	0.9	1020.11111111111	1	588.1	13	376847	2	376835	27	40	376874	-999999	376850	0	10	TrialsPROC	BP_012_BP5_BA.png	1	2	46	SessionSelectionList														nonlure	3	Body	0-Back	41	80	38	0	0	75	1	39	218244	1	14	86	216205	-1	216954	1	749	3	3	2039	53	218258	-54	0											10					46												
WM080112	672756_fnca	1	1	1	119693121	1	75.030	75.030	2.0.10.147	2.0.10.242	2.0.10.242	1.0.0.439	7	234	2	3	Verdana	1	80	0	0	0	WM Stimuli\	0.7	1024.85714285714	0.6	1235.33333333333	0.7	842.571428571429	0.9	724	0.5	730.2	0.9	1079.66666666667	0.9	1020.11111111111	1	588.1	13	376847	2	376835	27	40	376874	-999999	376850	0	11	Fix15secPROC	""	1	2	47	SessionSelectionList																																															6	218711	-7	0							47												
WM080112	672756_fnca	1	1	1	119693121	1	75.030	75.030	2.0.10.147	2.0.10.242	2.0.10.242	1.0.0.439	7	234	2	3	Verdana	1	80	0	0	0	WM Stimuli\	0.7	1024.85714285714	0.6	1235.33333333333	0.7	842.571428571429	0.9	724	0.5	730.2	0.9	1079.66666666667	0.9	1020.11111111111	1	588.1	13	376847	2	376835	27	40	376874	-999999	376850	0	12	Cue0BackPROC	PL_001_92012.png	1	2	48	SessionSelectionList																																										40	233745	-41	0												48												
WM080112	672756_fnca	1	1	1	119693121	1	75.030	75.030	2.0.10.147	2.0.10.242	2.0.10.242	1.0.0.439	7	234	2	3	Verdana	1	80	0	0	0	WM Stimuli\	0.7	1024.85714285714	0.6	1235.33333333333	0.7	842.571428571429	0.9	724	0.5	730.2	0.9	1079.66666666667	0.9	1020.11111111111	1	588.1	13	376847	2	376835	27	40	376874	-999999	376850	0	13	TrialsPROC	PL_003_92016.png	1	2	49	SessionSelectionList														nonlure	3	Place	0-Back	42	80	39	0	0	76	2	40	238343	1	13	98	236303	-1	237566	1	1263	3	3	2040	53	238356	-54	0												1				49												
WM080112	672756_fnca	1	1	1	119693121	1	75.030	75.030	2.0.10.147	2.0.10.242	2.0.10.242	1.0.0.439	7	234	2	3	Verdana	1	80	0	0	0	WM Stimuli\	0.7	1024.85714285714	0.6	1235.33333333333	0.7	842.571428571429	0.9	724	0.5	730.2	0.9	1079.66666666667	0.9	1020.11111111111	1	588.1	13	376847	2	376835	27	40	376874	-999999	376850	0	13	TrialsPROC	PL_003_92016.png	1	2	50	SessionSelectionList														lure	3	Place	0-Back	43	80	40	0	0	77	3	39	240915	1	14	73	238876	-1	240366	1	1490	3	3	2039	53	240929	-54	0												2				50												
WM080112	672756_fnca	1	1	1	119693121	1	75.030	75.030	2.0.10.147	2.0.10.242	2.0.10.242	1.0.0.439	7	234	2	3	Verdana	1	80	0	0	0	WM Stimuli\	0.7	1024.85714285714	0.6	1235.33333333333	0.7	842.571428571429	0.9	724	0.5	730.2	0.9	1079.66666666667	0.9	1020.11111111111	1	588.1	13	376847	2	376835	27	40	376874	-999999	376850	0	13	TrialsPROC	PL_006_92025.png	1	2	51	SessionSelectionList														nonlure	3	Place	0-Back	44	80	41	0	0	78	4	40	243501	1	13	85	241461	-1	243406	1	1945	3	3	2040	53	243514	-54	0												3				51												
WM080112	672756_fnca	1	1	1	119693121	1	75.030	75.030	2.0.10.147	2.0.10.242	2.0.10.242	1.0.0.439	7	234	2	3	Verdana	1	80	0	0	0	WM Stimuli\	0.7	1024.85714285714	0.6	1235.33333333333	0.7	842.571428571429	0.9	724	0.5	730.2	0.9	1079.66666666667	0.9	1020.11111111111	1	588.1	13	376847	2	376835	27	40	376874	-999999	376850	0	13	TrialsPROC	PL_001_92012.png	1	2	52	SessionSelectionList														target	2	Place	0-Back	45	80	42	0	0	79	1	39	246073	1	14	73	244034	-1	244944	1	910	2	2	2039	53	246087	-54	0												4				52												
WM080112	672756_fnca	1	1	1	119693121	1	75.030	75.030	2.0.10.147	2.0.10.242	2.0.10.242	1.0.0.439	7	234	2	3	Verdana	1	80	0	0	0	WM Stimuli\	0.7	1024.85714285714	0.6	1235.33333333333	0.7	842.571428571429	0.9	724	0.5	730.2	0.9	1079.66666666667	0.9	1020.11111111111	1	588.1	13	376847	2	376835	27	40	376874	-999999	376850	0	13	TrialsPROC	PL_004_92023.png	1	2	53	SessionSelectionList														nonlure	3	Place	0-Back	46	80	43	0	0	80	1	40	248659	1	13	85	246619	-1	247286	1	667	3	3	2040	53	248672	-54	0												5				53												
WM080112	672756_fnca	1	1	1	119693121	1	75.030	75.030	2.0.10.147	2.0.10.242	2.0.10.242	1.0.0.439	7	234	2	3	Verdana	1	80	0	0	0	WM Stimuli\	0.7	1024.85714285714	0.6	1235.33333333333	0.7	842.571428571429	0.9	724	0.5	730.2	0.9	1079.66666666667	0.9	1020.11111111111	1	588.1	13	376847	2	376835	27	40	376874	-999999	376850	0	13	TrialsPROC	PL_005_92024.png	1	2	54	SessionSelectionList														nonlure	3	Place	0-Back	47	80	44	0	0	77	1	39	251244	2	14	86	249205	-1	250341	0	1136	2	3	2039	53	251258	-54	0												6				54												
WM080112	672756_fnca	1	1	1	119693121	1	75.030	75.030	2.0.10.147	2.0.10.242	2.0.10.242	1.0.0.439	7	234	2	3	Verdana	1	80	0	0	0	WM Stimuli\	0.7	1024.85714285714	0.6	1235.33333333333	0.7	842.571428571429	0.9	724	0.5	730.2	0.9	1079.66666666667	0.9	1020.11111111111	1	588.1	13	376847	2	376835	27	40	376874	-999999	376850	0	13	TrialsPROC	PL_001_92012.png	1	2	55	SessionSelectionList														target	2	Place	0-Back	48	80	45	0	0	78	2	39	253816	2	14	72	251777	-1	253655	1	1878	2	2	2039	53	253830	-54	0												7				55												
WM080112	672756_fnca	1	1	1	119693121	1	75.030	75.030	2.0.10.147	2.0.10.242	2.0.10.242	1.0.0.439	7	234	2	3	Verdana	1	80	0	0	0	WM Stimuli\	0.7	1024.85714285714	0.6	1235.33333333333	0.7	842.571428571429	0.9	724	0.5	730.2	0.9	1079.66666666667	0.9	1020.11111111111	1	588.1	13	376847	2	376835	27	40	376874	-999999	376850	0	13	TrialsPROC	PL_002_92014.png	1	2	56	SessionSelectionList														nonlure	3	Place	0-Back	49	80	46	0	0	79	1	39	256389	1	13	73	254350	-1	254863	1	513	3	3	2039	52	256402	-53	0												8				56												
WM080112	672756_fnca	1	1	1	119693121	1	75.030	75.030	2.0.10.147	2.0.10.242	2.0.10.242	1.0.0.439	7	234	2	3	Verdana	1	80	0	0	0	WM Stimuli\	0.7	1024.85714285714	0.6	1235.33333333333	0.7	842.571428571429	0.9	724	0.5	730.2	0.9	1079.66666666667	0.9	1020.11111111111	1	588.1	13	376847	2	376835	27	40	376874	-999999	376850	0	13	TrialsPROC	PL_004_92023.png	1	2	57	SessionSelectionList														lure	3	Place	0-Back	50	80	47	0	0	79	2	39	258961	1	14	72	256922	-1	257421	1	499	3	3	2039	53	258975	-54	0												9				57												
WM080112	672756_fnca	1	1	1	119693121	1	75.030	75.030	2.0.10.147	2.0.10.242	2.0.10.242	1.0.0.439	7	234	2	3	Verdana	1	80	0	0	0	WM Stimuli\	0.7	1024.85714285714	0.6	1235.33333333333	0.7	842.571428571429	0.9	724	0.5	730.2	0.9	1079.66666666667	0.9	1020.11111111111	1	588.1	13	376847	2	376835	27	40	376874	-999999	376850	0	13	TrialsPROC	PL_006_92025.png	1	2	58	SessionSelectionList														lure	3	Place	0-Back	51	80	48	0	0	80	3	39	261533	2	14	72	259494	-1	260046	1	552	3	3	2039	53	261547	-54	0												10				58												
WM080112	672756_fnca	1	1	1	119693121	1	75.030	75.030	2.0.10.147	2.0.10.242	2.0.10.242	1.0.0.439	7	234	2	3	Verdana	1	80	0	0	0	WM Stimuli\	0.7	1024.85714285714	0.6	1235.33333333333	0.7	842.571428571429	0.9	724	0.5	730.2	0.9	1079.66666666667	0.9	1020.11111111111	1	588.1	13	376847	2	376835	27	40	376874	-999999	376850	0	14	Cue2BackPROC	""	1	2	59	SessionSelectionList									6	262000	-7	0																																													59												
WM080112	672756_fnca	1	1	1	119693121	1	75.030	75.030	2.0.10.147	2.0.10.242	2.0.10.242	1.0.0.439	7	234	2	3	Verdana	1	80	0	0	0	WM Stimuli\	0.7	1024.85714285714	0.6	1235.33333333333	0.7	842.571428571429	0.9	724	0.5	730.2	0.9	1079.66666666667	0.9	1020.11111111111	1	588.1	13	376847	2	376835	27	40	376874	-999999	376850	0	15	TrialsPROC	FC_010_F5.png	1	2	60	SessionSelectionList														nonlure	3	Face	2-Back	52	80	48	0	1	80	3	39	266611	2	14	78	264572	-1	0	0	0	""	3	2039	53	266625	-54	0													1			60												
WM080112	672756_fnca	1	1	1	119693121	1	75.030	75.030	2.0.10.147	2.0.10.242	2.0.10.242	1.0.0.439	7	234	2	3	Verdana	1	80	0	0	0	WM Stimuli\	0.7	1024.85714285714	0.6	1235.33333333333	0.7	842.571428571429	0.9	724	0.5	730.2	0.9	1079.66666666667	0.9	1020.11111111111	1	588.1	13	376847	2	376835	27	40	376874	-999999	376850	0	15	TrialsPROC	FC_012_F6.png	1	2	61	SessionSelectionList														nonlure	3	Face	2-Back	53	80	49	0	0	80	1	40	269184	1	13	72	267144	-1	268399	1	1255	3	3	2040	53	269197	-54	0													2			61												
WM080112	672756_fnca	1	1	1	119693121	1	75.030	75.030	2.0.10.147	2.0.10.242	2.0.10.242	1.0.0.439	7	234	2	3	Verdana	1	80	0	0	0	WM Stimuli\	0.7	1024.85714285714	0.6	1235.33333333333	0.7	842.571428571429	0.9	724	0.5	730.2	0.9	1079.66666666667	0.9	1020.11111111111	1	588.1	13	376847	2	376835	27	40	376874	-999999	376850	0	15	TrialsPROC	FC_010_F5.png	1	2	62	SessionSelectionList														target	2	Face	2-Back	54	80	50	0	0	80	2	39	271756	1	14	73	269717	-1	270562	0	845	3	2	2039	53	271770	-54	0													3			62												
WM080112	672756_fnca	1	1	1	119693121	1	75.030	75.030	2.0.10.147	2.0.10.242	2.0.10.242	1.0.0.439	7	234	2	3	Verdana	1	80	0	0	0	WM Stimuli\	0.7	1024.85714285714	0.6	1235.33333333333	0.7	842.571428571429	0.9	724	0.5	730.2	0.9	1079.66666666667	0.9	1020.11111111111	1	588.1	13	376847	2	376835	27	40	376874	-999999	376850	0	15	TrialsPROC	FC_008_F4.png	1	2	63	SessionSelectionList														nonlure	3	Face	2-Back	55	80	51	0	0	80	1	39	274355	1	14	99	272316	-1	272842	0	526	2	3	2039	53	274369	-54	0													4			63												
WM080112	672756_fnca	1	1	1	119693121	1	75.030	75.030	2.0.10.147	2.0.10.242	2.0.10.242	1.0.0.439	7	234	2	3	Verdana	1	80	0	0	0	WM Stimuli\	0.7	1024.85714285714	0.6	1235.33333333333	0.7	842.571428571429	0.9	724	0.5	730.2	0.9	1079.66666666667	0.9	1020.11111111111	1	588.1	13	376847	2	376835	27	40	376874	-999999	376850	0	15	TrialsPROC	FC_012_F6.png	1	2	64	SessionSelectionList														lure	3	Face	2-Back	56	80	52	0	0	80	1	39	276927	2	14	72	274888	-1	275968	1	1080	3	3	2039	53	276941	-54	0													5			64												
WM080112	672756_fnca	1	1	1	119693121	1	75.030	75.030	2.0.10.147	2.0.10.242	2.0.10.242	1.0.0.439	7	234	2	3	Verdana	1	80	0	0	0	WM Stimuli\	0.7	1024.85714285714	0.6	1235.33333333333	0.7	842.571428571429	0.9	724	0.5	730.2	0.9	1079.66666666667	0.9	1020.11111111111	1	588.1	13	376847	2	376835	27	40	376874	-999999	376850	0	15	TrialsPROC	FC_008_F4.png	1	2	65	SessionSelectionList														target	2	Face	2-Back	57	80	53	0	0	80	1	39	279499	2	14	72	277460	-1	278121	1	661	2	2	2039	53	279513	-54	0													6			65												
WM080112	672756_fnca	1	1	1	119693121	1	75.030	75.030	2.0.10.147	2.0.10.242	2.0.10.242	1.0.0.439	7	234	2	3	Verdana	1	80	0	0	0	WM Stimuli\	0.7	1024.85714285714	0.6	1235.33333333333	0.7	842.571428571429	0.9	724	0.5	730.2	0.9	1079.66666666667	0.9	1020.11111111111	1	588.1	13	376847	2	376835	27	40	376874	-999999	376850	0	15	TrialsPROC	FC_007_M4.png	1	2	66	SessionSelectionList														nonlure	3	Face	2-Back	58	80	54	0	0	80	1	39	282085	2	14	86	280046	-1	280641	1	595	3	3	2039	53	282099	-54	0													7			66												
WM080112	672756_fnca	1	1	1	119693121	1	75.030	75.030	2.0.10.147	2.0.10.242	2.0.10.242	1.0.0.439	7	234	2	3	Verdana	1	80	0	0	0	WM Stimuli\	0.7	1024.85714285714	0.6	1235.33333333333	0.7	842.571428571429	0.9	724	0.5	730.2	0.9	1079.66666666667	0.9	1020.11111111111	1	588.1	13	376847	2	376835	27	40	376874	-999999	376850	0	15	TrialsPROC	FC_007_M4.png	1	2	67	SessionSelectionList														lure	3	Face	2-Back	59	80	55	0	0	80	2	39	284657	2	14	72	282618	-1	283302	1	684	3	3	2039	53	284671	-54	0													8			67												
WM080112	672756_fnca	1	1	1	119693121	1	75.030	75.030	2.0.10.147	2.0.10.242	2.0.10.242	1.0.0.439	7	234	2	3	Verdana	1	80	0	0	0	WM Stimuli\	0.7	1024.85714285714	0.6	1235.33333333333	0.7	842.571428571429	0.9	724	0.5	730.2	0.9	1079.66666666667	0.9	1020.11111111111	1	588.1	13	376847	2	376835	27	40	376874	-999999	376850	0	15	TrialsPROC	FC_009_M5.png	1	2	68	SessionSelectionList														nonlure	3	Face	2-Back	60	80	56	0	0	80	3	39	287256	2	14	99	285217	-1	286037	1	820	3	3	2039	53	287270	-54	0													9			68												
WM080112	672756_fnca	1	1	1	119693121	1	75.030	75.030	2.0.10.147	2.0.10.242	2.0.10.242	1.0.0.439	7	234	2	3	Verdana	1	80	0	0	0	WM Stimuli\	0.7	1024.85714285714	0.6	1235.33333333333	0.7	842.571428571429	0.9	724	0.5	730.2	0.9	1079.66666666667	0.9	1020.11111111111	1	588.1	13	376847	2	376835	27	40	376874	-999999	376850	0	15	TrialsPROC	FC_011_M6.png	1	2	69	SessionSelectionList														nonlure	3	Face	2-Back	61	80	57	0	0	80	4	39	289842	1	14	86	287803	-1	288606	1	803	3	3	2039	53	289856	-54	0													10			69												
WM080112	672756_fnca	1	1	1	119693121	1	75.030	75.030	2.0.10.147	2.0.10.242	2.0.10.242	1.0.0.439	7	234	2	3	Verdana	1	80	0	0	0	WM Stimuli\	0.7	1024.85714285714	0.6	1235.33333333333	0.7	842.571428571429	0.9	724	0.5	730.2	0.9	1079.66666666667	0.9	1020.11111111111	1	588.1	13	376847	2	376835	27	40	376874	-999999	376850	0	16	Fix15secPROC	""	1	2	70	SessionSelectionList																																															6	290309	-7	0							70												
WM080112	672756_fnca	1	1	1	119693121	1	75.030	75.030	2.0.10.147	2.0.10.242	2.0.10.242	1.0.0.439	7	234	2	3	Verdana	1	80	0	0	0	WM Stimuli\	0.7	1024.85714285714	0.6	1235.33333333333	0.7	842.571428571429	0.9	724	0.5	730.2	0.9	1079.66666666667	0.9	1020.11111111111	1	588.1	13	376847	2	376835	27	40	376874	-999999	376850	0	17	Cue0BackPROC	TO_007_TOOL7_BA.png	1	2	71	SessionSelectionList																																										39	305342	-40	0												71												
WM080112	672756_fnca	1	1	1	119693121	1	75.030	75.030	2.0.10.147	2.0.10.242	2.0.10.242	1.0.0.439	7	234	2	3	Verdana	1	80	0	0	0	WM Stimuli\	0.7	1024.85714285714	0.6	1235.33333333333	0.7	842.571428571429	0.9	724	0.5	730.2	0.9	1079.66666666667	0.9	1020.11111111111	1	588.1	13	376847	2	376835	27	40	376874	-999999	376850	0	18	TrialsPROC	TO_010_TOOL10_BA.png	1	2	72	SessionSelectionList														nonlure	3	Tools	0-Back	62	80	58	0	0	81	5	39	309927	2	14	85	307888	-1	308577	1	689	3	3	2039	53	309941	-54	0														1		72												
WM080112	672756_fnca	1	1	1	119693121	1	75.030	75.030	2.0.10.147	2.0.10.242	2.0.10.242	1.0.0.439	7	234	2	3	Verdana	1	80	0	0	0	WM Stimuli\	0.7	1024.85714285714	0.6	1235.33333333333	0.7	842.571428571429	0.9	724	0.5	730.2	0.9	1079.66666666667	0.9	1020.11111111111	1	588.1	13	376847	2	376835	27	40	376874	-999999	376850	0	18	TrialsPROC	TO_009_TOOL9_BA.png	1	2	73	SessionSelectionList														nonlure	3	Tools	0-Back	63	80	59	0	0	81	6	39	312513	1	14	86	310474	-1	310957	1	483	3	3	2039	53	312527	-54	0														2		73												
WM080112	672756_fnca	1	1	1	119693121	1	75.030	75.030	2.0.10.147	2.0.10.242	2.0.10.242	1.0.0.439	7	234	2	3	Verdana	1	80	0	0	0	WM Stimuli\	0.7	1024.85714285714	0.6	1235.33333333333	0.7	842.571428571429	0.9	724	0.5	730.2	0.9	1079.66666666667	0.9	1020.11111111111	1	588.1	13	376847	2	376835	27	40	376874	-999999	376850	0	18	TrialsPROC	TO_009_TOOL9_BA.png	1	2	74	SessionSelectionList														lure	3	Tools	0-Back	64	80	60	0	0	82	7	39	315072	1	14	59	313033	-1	313542	1	509	3	3	2039	53	315086	-54	0														3		74												
WM080112	672756_fnca	1	1	1	119693121	1	75.030	75.030	2.0.10.147	2.0.10.242	2.0.10.242	1.0.0.439	7	234	2	3	Verdana	1	80	0	0	0	WM Stimuli\	0.7	1024.85714285714	0.6	1235.33333333333	0.7	842.571428571429	0.9	724	0.5	730.2	0.9	1079.66666666667	0.9	1020.11111111111	1	588.1	13	376847	2	376835	27	40	376874	-999999	376850	0	18	TrialsPROC	TO_008_TOOL8_BA.png	1	2	75	SessionSelectionList														nonlure	3	Tools	0-Back	65	80	61	0	0	82	8	39	317657	2	14	85	315618	-1	316553	1	935	3	3	2039	53	317671	-54	0														4		75												
WM080112	672756_fnca	1	1	1	119693121	1	75.030	75.030	2.0.10.147	2.0.10.242	2.0.10.242	1.0.0.439	7	234	2	3	Verdana	1	80	0	0	0	WM Stimuli\	0.7	1024.85714285714	0.6	1235.33333333333	0.7	842.571428571429	0.9	724	0.5	730.2	0.9	1079.66666666667	0.9	1020.11111111111	1	588.1	13	376847	2	376835	27	40	376874	-999999	376850	0	18	TrialsPROC	TO_011_TOOL11_BA.png	1	2	76	SessionSelectionList														nonlure	3	Tools	0-Back	66	80	62	0	0	83	9	39	320256	2	14	99	318217	-1	318696	1	479	3	3	2039	53	320270	-54	0														5		76												
WM080112	672756_fnca	1	1	1	119693121	1	75.030	75.030	2.0.10.147	2.0.10.242	2.0.10.242	1.0.0.439	7	234	2	3	Verdana	1	80	0	0	0	WM Stimuli\	0.7	1024.85714285714	0.6	1235.33333333333	0.7	842.571428571429	0.9	724	0.5	730.2	0.9	1079.66666666667	0.9	1020.11111111111	1	588.1	13	376847	2	376835	27	40	376874	-999999	376850	0	18	TrialsPROC	TO_012_TOOL12_BA.png	1	2	77	SessionSelectionList														nonlure	3	Tools	0-Back	67	80	63	0	0	83	10	39	322842	1	14	86	320803	-1	321349	1	546	3	3	2039	53	322856	-54	0														6		77												
WM080112	672756_fnca	1	1	1	119693121	1	75.030	75.030	2.0.10.147	2.0.10.242	2.0.10.242	1.0.0.439	7	234	2	3	Verdana	1	80	0	0	0	WM Stimuli\	0.7	1024.85714285714	0.6	1235.33333333333	0.7	842.571428571429	0.9	724	0.5	730.2	0.9	1079.66666666667	0.9	1020.11111111111	1	588.1	13	376847	2	376835	27	40	376874	-999999	376850	0	18	TrialsPROC	TO_010_TOOL10_BA.png	1	2	78	SessionSelectionList														lure	3	Tools	0-Back	68	80	64	0	0	84	11	39	325401	1	14	59	323362	-1	323976	1	614	3	3	2039	53	325415	-54	0														7		78												
WM080112	672756_fnca	1	1	1	119693121	1	75.030	75.030	2.0.10.147	2.0.10.242	2.0.10.242	1.0.0.439	7	234	2	3	Verdana	1	80	0	0	0	WM Stimuli\	0.7	1024.85714285714	0.6	1235.33333333333	0.7	842.571428571429	0.9	724	0.5	730.2	0.9	1079.66666666667	0.9	1020.11111111111	1	588.1	13	376847	2	376835	27	40	376874	-999999	376850	0	18	TrialsPROC	TO_007_TOOL7_BA.png	1	2	79	SessionSelectionList														target	2	Tools	0-Back	69	80	65	0	0	84	1	39	327960	1	14	59	325921	-1	326440	1	519	2	2	2039	53	327974	-54	0														8		79												
WM080112	672756_fnca	1	1	1	119693121	1	75.030	75.030	2.0.10.147	2.0.10.242	2.0.10.242	1.0.0.439	7	234	2	3	Verdana	1	80	0	0	0	WM Stimuli\	0.7	1024.85714285714	0.6	1235.33333333333	0.7	842.571428571429	0.9	724	0.5	730.2	0.9	1079.66666666667	0.9	1020.11111111111	1	588.1	13	376847	2	376835	27	40	376874	-999999	376850	0	18	TrialsPROC	TO_008_TOOL8_BA.png	1	2	80	SessionSelectionList														lure	3	Tools	0-Back	70	80	66	0	0	85	1	39	330519	1	14	59	328480	-1	329111	1	631	3	3	2039	53	330533	-54	0														9		80												
WM080112	672756_fnca	1	1	1	119693121	1	75.030	75.030	2.0.10.147	2.0.10.242	2.0.10.242	1.0.0.439	7	234	2	3	Verdana	1	80	0	0	0	WM Stimuli\	0.7	1024.85714285714	0.6	1235.33333333333	0.7	842.571428571429	0.9	724	0.5	730.2	0.9	1079.66666666667	0.9	1020.11111111111	1	588.1	13	376847	2	376835	27	40	376874	-999999	376850	0	18	TrialsPROC	TO_007_TOOL7_BA.png	1	2	81	SessionSelectionList														target	2	Tools	0-Back	71	80	67	0	0	85	1	39	333078	1	14	59	331039	-1	331515	1	476	2	2	2039	53	333092	-54	0														10		81												
WM080112	672756_fnca	1	1	1	119693121	1	75.030	75.030	2.0.10.147	2.0.10.242	2.0.10.242	1.0.0.439	7	234	2	3	Verdana	1	80	0	0	0	WM Stimuli\	0.7	1024.85714285714	0.6	1235.33333333333	0.7	842.571428571429	0.9	724	0.5	730.2	0.9	1079.66666666667	0.9	1020.11111111111	1	588.1	13	376847	2	376835	27	40	376874	-999999	376850	0	19	Cue2BackPROC	""	1	2	82	SessionSelectionList									5	333544	-6	0																																													82												
WM080112	672756_fnca	1	1	1	119693121	1	75.030	75.030	2.0.10.147	2.0.10.242	2.0.10.242	1.0.0.439	7	234	2	3	Verdana	1	80	0	0	0	WM Stimuli\	0.7	1024.85714285714	0.6	1235.33333333333	0.7	842.571428571429	0.9	724	0.5	730.2	0.9	1079.66666666667	0.9	1020.11111111111	1	588.1	13	376847	2	376835	27	40	376874	-999999	376850	0	20	TrialsPROC	PL_007_92026.png	1	2	83	SessionSelectionList														nonlure	3	Place	2-Back	72	80	67	0	1	85	1	39	338156	1	14	78	336117	-1	0	0	0	""	3	2039	53	338170	-54	0															1	83												
WM080112	672756_fnca	1	1	1	119693121	1	75.030	75.030	2.0.10.147	2.0.10.242	2.0.10.242	1.0.0.439	7	234	2	3	Verdana	1	80	0	0	0	WM Stimuli\	0.7	1024.85714285714	0.6	1235.33333333333	0.7	842.571428571429	0.9	724	0.5	730.2	0.9	1079.66666666667	0.9	1020.11111111111	1	588.1	13	376847	2	376835	27	40	376874	-999999	376850	0	20	TrialsPROC	PL_007_92026.png	1	2	84	SessionSelectionList														lure	3	Place	2-Back	73	80	67	0	2	85	1	39	340715	1	14	59	338676	-1	0	0	0	""	3	2039	53	340729	-54	0															2	84												
WM080112	672756_fnca	1	1	1	119693121	1	75.030	75.030	2.0.10.147	2.0.10.242	2.0.10.242	1.0.0.439	7	234	2	3	Verdana	1	80	0	0	0	WM Stimuli\	0.7	1024.85714285714	0.6	1235.33333333333	0.7	842.571428571429	0.9	724	0.5	730.2	0.9	1079.66666666667	0.9	1020.11111111111	1	588.1	13	376847	2	376835	27	40	376874	-999999	376850	0	20	TrialsPROC	PL_010_92038.png	1	2	85	SessionSelectionList														nonlure	3	Place	2-Back	74	80	68	0	0	85	1	40	343301	1	13	85	341261	-1	341895	0	634	2	3	2040	53	343314	-54	0															3	85												
WM080112	672756_fnca	1	1	1	119693121	1	75.030	75.030	2.0.10.147	2.0.10.242	2.0.10.242	1.0.0.439	7	234	2	3	Verdana	1	80	0	0	0	WM Stimuli\	0.7	1024.85714285714	0.6	1235.33333333333	0.7	842.571428571429	0.9	724	0.5	730.2	0.9	1079.66666666667	0.9	1020.11111111111	1	588.1	13	376847	2	376835	27	40	376874	-999999	376850	0	20	TrialsPROC	PL_009_92037.png	1	2	86	SessionSelectionList														nonlure	3	Place	2-Back	75	80	69	0	0	85	1	39	345886	2	14	86	343847	-1	344446	1	599	3	3	2039	53	345900	-54	0															4	86												
WM080112	672756_fnca	1	1	1	119693121	1	75.030	75.030	2.0.10.147	2.0.10.242	2.0.10.242	1.0.0.439	7	234	2	3	Verdana	1	80	0	0	0	WM Stimuli\	0.7	1024.85714285714	0.6	1235.33333333333	0.7	842.571428571429	0.9	724	0.5	730.2	0.9	1079.66666666667	0.9	1020.11111111111	1	588.1	13	376847	2	376835	27	40	376874	-999999	376850	0	20	TrialsPROC	PL_010_92038.png	1	2	87	SessionSelectionList														target	2	Place	2-Back	76	80	70	0	0	85	2	39	348458	2	14	72	346419	-1	348076	0	1657	3	2	2039	53	348472	-54	0															5	87												
WM080112	672756_fnca	1	1	1	119693121	1	75.030	75.030	2.0.10.147	2.0.10.242	2.0.10.242	1.0.0.439	7	234	2	3	Verdana	1	80	0	0	0	WM Stimuli\	0.7	1024.85714285714	0.6	1235.33333333333	0.7	842.571428571429	0.9	724	0.5	730.2	0.9	1079.66666666667	0.9	1020.11111111111	1	588.1	13	376847	2	376835	27	40	376874	-999999	376850	0	20	TrialsPROC	PL_009_92037.png	1	2	88	SessionSelectionList														target	2	Place	2-Back	77	80	71	0	0	85	3	39	351017	2	14	59	348978	-1	349840	0	862	3	2	2039	53	351031	-54	0															6	88												
WM080112	672756_fnca	1	1	1	119693121	1	75.030	75.030	2.0.10.147	2.0.10.242	2.0.10.242	1.0.0.439	7	234	2	3	Verdana	1	80	0	0	0	WM Stimuli\	0.7	1024.85714285714	0.6	1235.33333333333	0.7	842.571428571429	0.9	724	0.5	730.2	0.9	1079.66666666667	0.9	1020.11111111111	1	588.1	13	376847	2	376835	27	40	376874	-999999	376850	0	20	TrialsPROC	PL_008_92033.png	1	2	89	SessionSelectionList														nonlure	3	Place	2-Back	78	80	72	0	0	85	4	39	353603	2	14	86	351564	-1	352190	1	626	3	3	2039	53	353617	-54	0															7	89												
WM080112	672756_fnca	1	1	1	119693121	1	75.030	75.030	2.0.10.147	2.0.10.242	2.0.10.242	1.0.0.439	7	234	2	3	Verdana	1	80	0	0	0	WM Stimuli\	0.7	1024.85714285714	0.6	1235.33333333333	0.7	842.571428571429	0.9	724	0.5	730.2	0.9	1079.66666666667	0.9	1020.11111111111	1	588.1	13	376847	2	376835	27	40	376874	-999999	376850	0	20	TrialsPROC	PL_012_92047.png	1	2	90	SessionSelectionList														nonlure	3	Place	2-Back	79	80	73	0	0	85	5	39	356202	1	14	99	354163	-1	354732	1	569	3	3	2039	53	356216	-54	0															8	90												
WM080112	672756_fnca	1	1	1	119693121	1	75.030	75.030	2.0.10.147	2.0.10.242	2.0.10.242	1.0.0.439	7	234	2	3	Verdana	1	80	0	0	0	WM Stimuli\	0.7	1024.85714285714	0.6	1235.33333333333	0.7	842.571428571429	0.9	724	0.5	730.2	0.9	1079.66666666667	0.9	1020.11111111111	1	588.1	13	376847	2	376835	27	40	376874	-999999	376850	0	20	TrialsPROC	PL_012_92047.png	1	2	91	SessionSelectionList														lure	3	Place	2-Back	80	80	74	0	0	85	6	39	358774	2	14	72	356735	-1	357406	1	671	3	3	2039	53	358788	-54	0															9	91												
WM080112	672756_fnca	1	1	1	119693121	1	75.030	75.030	2.0.10.147	2.0.10.242	2.0.10.242	1.0.0.439	7	234	2	3	Verdana	1	80	0	0	0	WM Stimuli\	0.7	1024.85714285714	0.6	1235.33333333333	0.7	842.571428571429	0.9	724	0.5	730.2	0.9	1079.66666666667	0.9	1020.11111111111	1	588.1	13	376847	2	376835	27	40	376874	-999999	376850	0	20	TrialsPROC	PL_011_92044.png	1	2	92	SessionSelectionList														nonlure	3	Place	2-Back	80	80	75	0	0	85	7	39	361373	2	14	99	359334	-1	360520	1	1186	3	3	2039	53	361387	-54	0															10	92												
WM080112	672756_fnca	1	1	1	119693121	1	75.030	75.030	2.0.10.147	2.0.10.242	2.0.10.242	1.0.0.439	7	234	2	3	Verdana	1	80	0	0	0	WM Stimuli\	0.7	1024.85714285714	0.6	1235.33333333333	0.7	842.571428571429	0.9	724	0.5	730.2	0.9	1079.66666666667	0.9	1020.11111111111	1	588.1	13	376847	2	376835	27	40	376874	-999999	376850	0	21	Fix15secPROC	""	1	2	93	SessionSelectionList																																															6	361840	-7	0							93												
