ExperimentName	HCPID	RunNumber	Subject	Session	RandomSeed	Group	Laptop.RefreshRate	ScannerD2.RefreshRate	StudioVersion	RuntimeVersion	RuntimeVersionExpected	ExperimentVersion	triggercode	Allowed	Target	Nontarget	FontStyle	RunTrialNumber[Session]	TrialsPerRun[Session]	TotalRespGreater200[Session]	ConsecRTLess200[Session]	ConsecNonResp[Session]	StimuliDir	ACC_2_Back_Body	Avg_RT_For_Correct_Trials_2_Back_Body	ACC_0_Back_Body	Avg_RT_For_Correct_Trials_0_Back_Body	ACC_2_Back_Face	Avg_RT_For_Correct_Trials_2_Back_Face	ACC_0_Back_Face	Avg_RT_For_Correct_Trials_0_Back_Face	ACC_2_Back_Place	Avg_RT_For_Correct_Trials_2_Back_Place	ACC_0_Back_Place	Avg_RT_For_Correct_Trials_0_Back_Place	ACC_2_Back_Tools	Avg_RT_For_Correct_Trials_2_Back_Tools	ACC_0_Back_Tools	Avg_RT_For_Correct_Trials_0_Back_Tools	ExpInstrucFeelFreeToRest.OnsetDelay	ExpInstrucFeelFreeToRest.OnsetTime	ExpInstrucFeelFreeToRest.DurationError	ExpInstrucFeelFreeToRest.StartTime	ExpInstrucFeelFreeToRest.OnsetToOnsetTime	FeelFreeToRest.OnsetDelay	FeelFreeToRest.OnsetTime	FeelFreeToRest.DurationError	FeelFreeToRest.StartTime	FeelFreeToRest.OnsetToOnsetTime	SessionSelectionList	Procedure[Block]	Stimulus[Block]	RunNumberFilterValue	SessionSelectionList.Cycle	SessionSelectionList.Sample	Running[Block]	IntroButtonMap.OnsetDelay	IntroButtonMap.OnsetTime	IntroButtonMap.DurationError	IntroButtonMap.OnsetToOnsetTime	GetReady.OnsetDelay	GetReady.OnsetTime	GetReady.DurationError	GetReady.OnsetToOnsetTime	Cue2Back.OnsetDelay	Cue2Back.OnsetTime	Cue2Back.DurationError	Cue2Back.OnsetToOnsetTime	Run1Block1	TargetType	CorrectResponse	StimType	BlockType	RunTrialNumber[Block]	TrialsPerRun[Block]	TotalRespGreater200[Block]	ConsecRTLess200[Block]	ConsecNonResp[Block]	ControlAcc	ConsecSameResp	ExperimenterWindow.OnsetDelay	ExperimenterWindow.OnsetTime	ExperimenterWindow.DurationError	ExperimenterWindow.OnsetToOnsetTime	Stim.OnsetDelay	Stim.OnsetTime	Stim.DurationError	Stim.RTTime	Stim.ACC	Stim.RT	Stim.RESP	Stim.CRESP	Stim.OnsetToOnsetTime	Fix.OnsetDelay	Fix.OnsetTime	Fix.DurationError	Fix.OnsetToOnsetTime	CueTarget.OnsetDelay	CueTarget.OnsetTime	CueTarget.DurationError	CueTarget.OnsetToOnsetTime	Run1Block2	Fix15sec.OnsetDelay	Fix15sec.OnsetTime	Fix15sec.DurationError	Fix15sec.OnsetToOnsetTime	Run1Block3	Run1Block4	Run1Block5	Run1Block6	Run1Block7	Run1Block8	Block	Procedure[Trial]	Stimulus[Trial]	ReadyList	Running[Trial]	ReadyList.Cycle	ReadyList.Sample	SyncSlide.OnsetDelay	SyncSlide.OnsetTime	SyncSlide.DurationError	SyncSlide.FinishTime	SyncSlide.OnsetToOnsetTime	Trial
WM080112	654754_fnca	2	1	1	-614350294	1	75.031	75.031	2.0.10.147	2.0.10.242	2.0.10.242	1.0.0.439	7	234	2	3	Verdana	1	80	0	0	0	WM Stimuli\	0.9	1087.11111111111	1	867.8	0.9	1346.33333333333	1	859.6	1	1097.6	1	909.1	1	993.5	1	768	13	333753	2	333741	14	27	333767	-999999	333756	0	22	TRSyncPROC	""	2	2	1	SessionSelectionList	103	11364	-999999	0	29	25398	-999999	0																																																	1	InitialTR	4	1	ReadyList	1	1	11	40298	-12	42286	0	1
WM080112	654754_fnca	2	1	1	-614350294	1	75.031	75.031	2.0.10.147	2.0.10.242	2.0.10.242	1.0.0.439	7	234	2	3	Verdana	1	80	0	0	0	WM Stimuli\	0.9	1087.11111111111	1	867.8	0.9	1346.33333333333	1	859.6	1	1097.6	1	909.1	1	993.5	1	768	13	333753	2	333741	14	27	333767	-999999	333756	0	22	TRSyncPROC	""	2	2	1	SessionSelectionList	103	11364	-999999	0	29	25398	-999999	0																																																	1	InitialTR	3	2	ReadyList	1	2	10	42297	-11	44286	0	2
WM080112	654754_fnca	2	1	1	-614350294	1	75.031	75.031	2.0.10.147	2.0.10.242	2.0.10.242	1.0.0.439	7	234	2	3	Verdana	1	80	0	0	0	WM Stimuli\	0.9	1087.11111111111	1	867.8	0.9	1346.33333333333	1	859.6	1	1097.6	1	909.1	1	993.5	1	768	13	333753	2	333741	14	27	333767	-999999	333756	0	22	TRSyncPROC	""	2	2	1	SessionSelectionList	103	11364	-999999	0	29	25398	-999999	0																																																	1	InitialTR	2	3	ReadyList	1	3	10	44297	-11	46286	0	3
WM080112	654754_fnca	2	1	1	-614350294	1	75.031	75.031	2.0.10.147	2.0.10.242	2.0.10.242	1.0.0.439	7	234	2	3	Verdana	1	80	0	0	0	WM Stimuli\	0.9	1087.11111111111	1	867.8	0.9	1346.33333333333	1	859.6	1	1097.6	1	909.1	1	993.5	1	768	13	333753	2	333741	14	27	333767	-999999	333756	0	22	TRSyncPROC	""	2	2	1	SessionSelectionList	103	11364	-999999	0	29	25398	-999999	0																																																	1	InitialTR	1	4	ReadyList	1	4	9	46296	-10	48286	0	4
WM080112	654754_fnca	2	1	1	-614350294	1	75.031	75.031	2.0.10.147	2.0.10.242	2.0.10.242	1.0.0.439	7	234	2	3	Verdana	1	80	0	0	0	WM Stimuli\	0.9	1087.11111111111	1	867.8	0.9	1346.33333333333	1	859.6	1	1097.6	1	909.1	1	993.5	1	768	13	333753	2	333741	14	27	333767	-999999	333756	0	23	Cue2BackPROC	""	2	2	2	SessionSelectionList									8	48295	-9	0																																													2												
WM080112	654754_fnca	2	1	1	-614350294	1	75.031	75.031	2.0.10.147	2.0.10.242	2.0.10.242	1.0.0.439	7	234	2	3	Verdana	1	80	0	0	0	WM Stimuli\	0.9	1087.11111111111	1	867.8	0.9	1346.33333333333	1	859.6	1	1097.6	1	909.1	1	993.5	1	768	13	333753	2	333741	14	27	333767	-999999	333756	0	24	TrialsPROC	TO_014_TOOL14_BA.png	2	2	3	SessionSelectionList														nonlure	3	Tools	2-Back	2	80	1	0	0	0	1	53	52920	3	14	80	50867	-1	51660	1	793	3	3	2053	67	52934	-68	0																3												
WM080112	654754_fnca	2	1	1	-614350294	1	75.031	75.031	2.0.10.147	2.0.10.242	2.0.10.242	1.0.0.439	7	234	2	3	Verdana	1	80	0	0	0	WM Stimuli\	0.9	1087.11111111111	1	867.8	0.9	1346.33333333333	1	859.6	1	1097.6	1	909.1	1	993.5	1	768	13	333753	2	333741	14	27	333767	-999999	333756	0	24	TrialsPROC	TO_013_TOOL13_BA.png	2	2	4	SessionSelectionList														nonlure	3	Tools	2-Back	3	80	2	0	0	0	2	39	55465	3	14	59	53426	-1	54386	1	960	3	3	2039	53	55479	-54	0																4												
WM080112	654754_fnca	2	1	1	-614350294	1	75.031	75.031	2.0.10.147	2.0.10.242	2.0.10.242	1.0.0.439	7	234	2	3	Verdana	1	80	0	0	0	WM Stimuli\	0.9	1087.11111111111	1	867.8	0.9	1346.33333333333	1	859.6	1	1097.6	1	909.1	1	993.5	1	768	13	333753	2	333741	14	27	333767	-999999	333756	0	24	TrialsPROC	TO_016_TOOL16_BA.png	2	2	5	SessionSelectionList														nonlure	3	Tools	2-Back	4	80	3	0	0	0	3	38	58024	2	14	60	55986	-1	56904	1	918	3	3	2038	52	58038	-53	0																5												
WM080112	654754_fnca	2	1	1	-614350294	1	75.031	75.031	2.0.10.147	2.0.10.242	2.0.10.242	1.0.0.439	7	234	2	3	Verdana	1	80	0	0	0	WM Stimuli\	0.9	1087.11111111111	1	867.8	0.9	1346.33333333333	1	859.6	1	1097.6	1	909.1	1	993.5	1	768	13	333753	2	333741	14	27	333767	-999999	333756	0	24	TrialsPROC	TO_014_TOOL14_BA.png	2	2	6	SessionSelectionList														lure	3	Tools	2-Back	5	80	4	0	0	0	4	39	60597	1	13	72	58558	-1	60112	1	1554	3	3	2039	52	60610	-53	0																6												
WM080112	654754_fnca	2	1	1	-614350294	1	75.031	75.031	2.0.10.147	2.0.10.242	2.0.10.242	1.0.0.439	7	234	2	3	Verdana	1	80	0	0	0	WM Stimuli\	0.9	1087.11111111111	1	867.8	0.9	1346.33333333333	1	859.6	1	1097.6	1	909.1	1	993.5	1	768	13	333753	2	333741	14	27	333767	-999999	333756	0	24	TrialsPROC	TO_016_TOOL16_BA.png	2	2	7	SessionSelectionList														target	2	Tools	2-Back	6	80	5	0	0	0	1	39	63156	1	13	59	61117	-1	62184	1	1067	2	2	2039	52	63169	-53	0																7												
WM080112	654754_fnca	2	1	1	-614350294	1	75.031	75.031	2.0.10.147	2.0.10.242	2.0.10.242	1.0.0.439	7	234	2	3	Verdana	1	80	0	0	0	WM Stimuli\	0.9	1087.11111111111	1	867.8	0.9	1346.33333333333	1	859.6	1	1097.6	1	909.1	1	993.5	1	768	13	333753	2	333741	14	27	333767	-999999	333756	0	24	TrialsPROC	TO_018_TOOL18_BA.png	2	2	8	SessionSelectionList														nonlure	3	Tools	2-Back	7	80	6	0	0	0	1	39	65715	1	13	59	63676	-1	64865	1	1189	3	3	2039	52	65728	-53	0																8												
WM080112	654754_fnca	2	1	1	-614350294	1	75.031	75.031	2.0.10.147	2.0.10.242	2.0.10.242	1.0.0.439	7	234	2	3	Verdana	1	80	0	0	0	WM Stimuli\	0.9	1087.11111111111	1	867.8	0.9	1346.33333333333	1	859.6	1	1097.6	1	909.1	1	993.5	1	768	13	333753	2	333741	14	27	333767	-999999	333756	0	24	TrialsPROC	TO_017_TOOL17_BA.png	2	2	9	SessionSelectionList														nonlure	3	Tools	2-Back	8	80	7	0	0	0	2	39	68274	1	13	59	66235	-1	67170	1	935	3	3	2039	52	68287	-53	0																9												
WM080112	654754_fnca	2	1	1	-614350294	1	75.031	75.031	2.0.10.147	2.0.10.242	2.0.10.242	1.0.0.439	7	234	2	3	Verdana	1	80	0	0	0	WM Stimuli\	0.9	1087.11111111111	1	867.8	0.9	1346.33333333333	1	859.6	1	1097.6	1	909.1	1	993.5	1	768	13	333753	2	333741	14	27	333767	-999999	333756	0	24	TrialsPROC	TO_018_TOOL18_BA.png	2	2	10	SessionSelectionList														target	2	Tools	2-Back	9	80	8	0	0	0	1	40	70833	1	13	58	68793	-1	69645	1	852	2	2	2040	53	70846	-54	0																10												
WM080112	654754_fnca	2	1	1	-614350294	1	75.031	75.031	2.0.10.147	2.0.10.242	2.0.10.242	1.0.0.439	7	234	2	3	Verdana	1	80	0	0	0	WM Stimuli\	0.9	1087.11111111111	1	867.8	0.9	1346.33333333333	1	859.6	1	1097.6	1	909.1	1	993.5	1	768	13	333753	2	333741	14	27	333767	-999999	333756	0	24	TrialsPROC	TO_015_TOOL15_BA.png	2	2	11	SessionSelectionList														nonlure	3	Tools	2-Back	10	80	9	0	0	0	1	40	73392	1	13	59	71352	-1	72063	1	711	3	3	2040	53	73405	-54	0																11												
WM080112	654754_fnca	2	1	1	-614350294	1	75.031	75.031	2.0.10.147	2.0.10.242	2.0.10.242	1.0.0.439	7	234	2	3	Verdana	1	80	0	0	0	WM Stimuli\	0.9	1087.11111111111	1	867.8	0.9	1346.33333333333	1	859.6	1	1097.6	1	909.1	1	993.5	1	768	13	333753	2	333741	14	27	333767	-999999	333756	0	24	TrialsPROC	TO_017_TOOL17_BA.png	2	2	12	SessionSelectionList														lure	3	Tools	2-Back	11	80	10	0	0	0	2	40	75951	1	13	59	73911	-1	74867	1	956	3	3	2040	53	75964	-54	0																12												
WM080112	654754_fnca	2	1	1	-614350294	1	75.031	75.031	2.0.10.147	2.0.10.242	2.0.10.242	1.0.0.439	7	234	2	3	Verdana	1	80	0	0	0	WM Stimuli\	0.9	1087.11111111111	1	867.8	0.9	1346.33333333333	1	859.6	1	1097.6	1	909.1	1	993.5	1	768	13	333753	2	333741	14	27	333767	-999999	333756	0	25	Cue0BackPROC	BP_013_BP7_BA.png	2	2	13	SessionSelectionList																																										19	76430	-20	0												13												
WM080112	654754_fnca	2	1	1	-614350294	1	75.031	75.031	2.0.10.147	2.0.10.242	2.0.10.242	1.0.0.439	7	234	2	3	Verdana	1	80	0	0	0	WM Stimuli\	0.9	1087.11111111111	1	867.8	0.9	1346.33333333333	1	859.6	1	1097.6	1	909.1	1	993.5	1	768	13	333753	2	333741	14	27	333767	-999999	333756	0	26	TrialsPROC	BP_015_H10-T_BA.png	2	2	14	SessionSelectionList														nonlure	3	Body	0-Back	12	80	11	0	0	100	3	39	81015	3	14	65	78976	-1	79826	1	850	3	3	2039	53	81029	-54	0																14												
WM080112	654754_fnca	2	1	1	-614350294	1	75.031	75.031	2.0.10.147	2.0.10.242	2.0.10.242	1.0.0.439	7	234	2	3	Verdana	1	80	0	0	0	WM Stimuli\	0.9	1087.11111111111	1	867.8	0.9	1346.33333333333	1	859.6	1	1097.6	1	909.1	1	993.5	1	768	13	333753	2	333741	14	27	333767	-999999	333756	0	26	TrialsPROC	BP_018_H13-T_BA.png	2	2	15	SessionSelectionList														nonlure	3	Body	0-Back	13	80	12	0	0	100	4	39	83574	2	14	59	81535	-1	82686	1	1151	3	3	2039	53	83588	-54	0																15												
WM080112	654754_fnca	2	1	1	-614350294	1	75.031	75.031	2.0.10.147	2.0.10.242	2.0.10.242	1.0.0.439	7	234	2	3	Verdana	1	80	0	0	0	WM Stimuli\	0.9	1087.11111111111	1	867.8	0.9	1346.33333333333	1	859.6	1	1097.6	1	909.1	1	993.5	1	768	13	333753	2	333741	14	27	333767	-999999	333756	0	26	TrialsPROC	BP_014_BP9_BA.png	2	2	16	SessionSelectionList														nonlure	3	Body	0-Back	14	80	13	0	0	100	5	39	86133	2	14	59	84094	-1	85053	1	959	3	3	2039	53	86147	-54	0																16												
WM080112	654754_fnca	2	1	1	-614350294	1	75.031	75.031	2.0.10.147	2.0.10.242	2.0.10.242	1.0.0.439	7	234	2	3	Verdana	1	80	0	0	0	WM Stimuli\	0.9	1087.11111111111	1	867.8	0.9	1346.33333333333	1	859.6	1	1097.6	1	909.1	1	993.5	1	768	13	333753	2	333741	14	27	333767	-999999	333756	0	26	TrialsPROC	BP_018_H13-T_BA.png	2	2	17	SessionSelectionList														lure	3	Body	0-Back	15	80	14	0	0	100	6	39	88692	1	14	59	86653	-1	87700	1	1047	3	3	2039	53	88706	-54	0																17												
WM080112	654754_fnca	2	1	1	-614350294	1	75.031	75.031	2.0.10.147	2.0.10.242	2.0.10.242	1.0.0.439	7	234	2	3	Verdana	1	80	0	0	0	WM Stimuli\	0.9	1087.11111111111	1	867.8	0.9	1346.33333333333	1	859.6	1	1097.6	1	909.1	1	993.5	1	768	13	333753	2	333741	14	27	333767	-999999	333756	0	26	TrialsPROC	BP_013_BP7_BA.png	2	2	18	SessionSelectionList														target	2	Body	0-Back	16	80	15	0	0	100	1	39	91251	1	14	59	89212	-1	90377	1	1165	2	2	2039	53	91265	-54	0																18												
WM080112	654754_fnca	2	1	1	-614350294	1	75.031	75.031	2.0.10.147	2.0.10.242	2.0.10.242	1.0.0.439	7	234	2	3	Verdana	1	80	0	0	0	WM Stimuli\	0.9	1087.11111111111	1	867.8	0.9	1346.33333333333	1	859.6	1	1097.6	1	909.1	1	993.5	1	768	13	333753	2	333741	14	27	333767	-999999	333756	0	26	TrialsPROC	BP_015_H10-T_BA.png	2	2	19	SessionSelectionList														lure	3	Body	0-Back	17	80	16	0	0	100	1	39	93810	1	14	59	91771	-1	92529	1	758	3	3	2039	53	93824	-54	0																19												
WM080112	654754_fnca	2	1	1	-614350294	1	75.031	75.031	2.0.10.147	2.0.10.242	2.0.10.242	1.0.0.439	7	234	2	3	Verdana	1	80	0	0	0	WM Stimuli\	0.9	1087.11111111111	1	867.8	0.9	1346.33333333333	1	859.6	1	1097.6	1	909.1	1	993.5	1	768	13	333753	2	333741	14	27	333767	-999999	333756	0	26	TrialsPROC	BP_016_H11-T_BA.png	2	2	20	SessionSelectionList														nonlure	3	Body	0-Back	18	80	17	0	0	100	2	39	96382	2	14	72	94343	-1	95063	1	720	3	3	2039	53	96396	-54	0																20												
WM080112	654754_fnca	2	1	1	-614350294	1	75.031	75.031	2.0.10.147	2.0.10.242	2.0.10.242	1.0.0.439	7	234	2	3	Verdana	1	80	0	0	0	WM Stimuli\	0.9	1087.11111111111	1	867.8	0.9	1346.33333333333	1	859.6	1	1097.6	1	909.1	1	993.5	1	768	13	333753	2	333741	14	27	333767	-999999	333756	0	26	TrialsPROC	BP_013_BP7_BA.png	2	2	21	SessionSelectionList														target	2	Body	0-Back	19	80	18	0	0	100	1	38	98941	2	14	60	96903	-1	97528	1	625	2	2	2038	52	98955	-53	0																21												
WM080112	654754_fnca	2	1	1	-614350294	1	75.031	75.031	2.0.10.147	2.0.10.242	2.0.10.242	1.0.0.439	7	234	2	3	Verdana	1	80	0	0	0	WM Stimuli\	0.9	1087.11111111111	1	867.8	0.9	1346.33333333333	1	859.6	1	1097.6	1	909.1	1	993.5	1	768	13	333753	2	333741	14	27	333767	-999999	333756	0	26	TrialsPROC	BP_017_H12-T_BA.png	2	2	22	SessionSelectionList														nonlure	3	Body	0-Back	20	80	19	0	0	100	1	40	101514	1	13	71	99474	-1	100070	1	596	3	3	2040	53	101527	-54	0																22												
WM080112	654754_fnca	2	1	1	-614350294	1	75.031	75.031	2.0.10.147	2.0.10.242	2.0.10.242	1.0.0.439	7	234	2	3	Verdana	1	80	0	0	0	WM Stimuli\	0.9	1087.11111111111	1	867.8	0.9	1346.33333333333	1	859.6	1	1097.6	1	909.1	1	993.5	1	768	13	333753	2	333741	14	27	333767	-999999	333756	0	26	TrialsPROC	BP_014_BP9_BA.png	2	2	23	SessionSelectionList														lure	3	Body	0-Back	21	80	20	0	0	100	2	40	104073	1	13	59	102033	-1	102840	1	807	3	3	2040	53	104086	-54	0																23												
WM080112	654754_fnca	2	1	1	-614350294	1	75.031	75.031	2.0.10.147	2.0.10.242	2.0.10.242	1.0.0.439	7	234	2	3	Verdana	1	80	0	0	0	WM Stimuli\	0.9	1087.11111111111	1	867.8	0.9	1346.33333333333	1	859.6	1	1097.6	1	909.1	1	993.5	1	768	13	333753	2	333741	14	27	333767	-999999	333756	0	27	Fix15secPROC	""	2	2	24	SessionSelectionList																																															6	104539	-7	0							24												
WM080112	654754_fnca	2	1	1	-614350294	1	75.031	75.031	2.0.10.147	2.0.10.242	2.0.10.242	1.0.0.439	7	234	2	3	Verdana	1	80	0	0	0	WM Stimuli\	0.9	1087.11111111111	1	867.8	0.9	1346.33333333333	1	859.6	1	1097.6	1	909.1	1	993.5	1	768	13	333753	2	333741	14	27	333767	-999999	333756	0	28	Cue2BackPROC	""	2	2	25	SessionSelectionList									13	119546	-14	0																																													25												
WM080112	654754_fnca	2	1	1	-614350294	1	75.031	75.031	2.0.10.147	2.0.10.242	2.0.10.242	1.0.0.439	7	234	2	3	Verdana	1	80	0	0	0	WM Stimuli\	0.9	1087.11111111111	1	867.8	0.9	1346.33333333333	1	859.6	1	1097.6	1	909.1	1	993.5	1	768	13	333753	2	333741	14	27	333767	-999999	333756	0	29	TrialsPROC	FC_015_M8.png	2	2	26	SessionSelectionList														nonlure	3	Face	2-Back	22	80	21	0	0	100	3	39	124144	2	14	72	122105	-1	123731	1	1626	3	3	2039	53	124158	-54	0																26												
WM080112	654754_fnca	2	1	1	-614350294	1	75.031	75.031	2.0.10.147	2.0.10.242	2.0.10.242	1.0.0.439	7	234	2	3	Verdana	1	80	0	0	0	WM Stimuli\	0.9	1087.11111111111	1	867.8	0.9	1346.33333333333	1	859.6	1	1097.6	1	909.1	1	993.5	1	768	13	333753	2	333741	14	27	333767	-999999	333756	0	29	TrialsPROC	FC_018_F9.png	2	2	27	SessionSelectionList														nonlure	3	Face	2-Back	23	80	22	0	0	100	4	39	126717	1	13	73	124678	-1	126315	1	1637	3	3	2039	52	126730	-53	0																27												
WM080112	654754_fnca	2	1	1	-614350294	1	75.031	75.031	2.0.10.147	2.0.10.242	2.0.10.242	1.0.0.439	7	234	2	3	Verdana	1	80	0	0	0	WM Stimuli\	0.9	1087.11111111111	1	867.8	0.9	1346.33333333333	1	859.6	1	1097.6	1	909.1	1	993.5	1	768	13	333753	2	333741	14	27	333767	-999999	333756	0	29	TrialsPROC	FC_018_F9.png	2	2	28	SessionSelectionList														lure	3	Face	2-Back	24	80	23	0	0	100	5	39	129289	1	14	72	127250	-1	129234	1	1984	3	3	2039	53	129303	-54	0																28												
WM080112	654754_fnca	2	1	1	-614350294	1	75.031	75.031	2.0.10.147	2.0.10.242	2.0.10.242	1.0.0.439	7	234	2	3	Verdana	1	80	0	0	0	WM Stimuli\	0.9	1087.11111111111	1	867.8	0.9	1346.33333333333	1	859.6	1	1097.6	1	909.1	1	993.5	1	768	13	333753	2	333741	14	27	333767	-999999	333756	0	29	TrialsPROC	FC_017_M9.png	2	2	29	SessionSelectionList														nonlure	3	Face	2-Back	25	80	24	0	0	100	6	39	131861	2	14	72	129822	-1	131181	1	1359	3	3	2039	53	131875	-54	0																29												
WM080112	654754_fnca	2	1	1	-614350294	1	75.031	75.031	2.0.10.147	2.0.10.242	2.0.10.242	1.0.0.439	7	234	2	3	Verdana	1	80	0	0	0	WM Stimuli\	0.9	1087.11111111111	1	867.8	0.9	1346.33333333333	1	859.6	1	1097.6	1	909.1	1	993.5	1	768	13	333753	2	333741	14	27	333767	-999999	333756	0	29	TrialsPROC	FC_017_M9.png	2	2	30	SessionSelectionList														lure	3	Face	2-Back	26	80	25	0	0	100	1	40	134434	1	13	72	132394	-1	134001	0	1607	2	3	2040	53	134447	-54	0																30												
WM080112	654754_fnca	2	1	1	-614350294	1	75.031	75.031	2.0.10.147	2.0.10.242	2.0.10.242	1.0.0.439	7	234	2	3	Verdana	1	80	0	0	0	WM Stimuli\	0.9	1087.11111111111	1	867.8	0.9	1346.33333333333	1	859.6	1	1097.6	1	909.1	1	993.5	1	768	13	333753	2	333741	14	27	333767	-999999	333756	0	29	TrialsPROC	FC_016_F8.png	2	2	31	SessionSelectionList														nonlure	3	Face	2-Back	27	80	26	0	0	100	1	39	137006	1	14	73	134967	-1	135959	1	992	3	3	2039	53	137020	-54	0																31												
WM080112	654754_fnca	2	1	1	-614350294	1	75.031	75.031	2.0.10.147	2.0.10.242	2.0.10.242	1.0.0.439	7	234	2	3	Verdana	1	80	0	0	0	WM Stimuli\	0.9	1087.11111111111	1	867.8	0.9	1346.33333333333	1	859.6	1	1097.6	1	909.1	1	993.5	1	768	13	333753	2	333741	14	27	333767	-999999	333756	0	29	TrialsPROC	FC_013_M7.png	2	2	32	SessionSelectionList														nonlure	3	Face	2-Back	28	80	27	0	0	100	2	39	139578	2	14	72	137539	-1	138771	1	1232	3	3	2039	53	139592	-54	0																32												
WM080112	654754_fnca	2	1	1	-614350294	1	75.031	75.031	2.0.10.147	2.0.10.242	2.0.10.242	1.0.0.439	7	234	2	3	Verdana	1	80	0	0	0	WM Stimuli\	0.9	1087.11111111111	1	867.8	0.9	1346.33333333333	1	859.6	1	1097.6	1	909.1	1	993.5	1	768	13	333753	2	333741	14	27	333767	-999999	333756	0	29	TrialsPROC	FC_014_F7.png	2	2	33	SessionSelectionList														nonlure	3	Face	2-Back	29	80	28	0	0	100	3	39	142150	2	14	72	140111	-1	141082	1	971	3	3	2039	53	142164	-54	0																33												
WM080112	654754_fnca	2	1	1	-614350294	1	75.031	75.031	2.0.10.147	2.0.10.242	2.0.10.242	1.0.0.439	7	234	2	3	Verdana	1	80	0	0	0	WM Stimuli\	0.9	1087.11111111111	1	867.8	0.9	1346.33333333333	1	859.6	1	1097.6	1	909.1	1	993.5	1	768	13	333753	2	333741	14	27	333767	-999999	333756	0	29	TrialsPROC	FC_013_M7.png	2	2	34	SessionSelectionList														target	2	Face	2-Back	30	80	29	0	0	100	1	39	144723	1	13	73	142684	-1	143557	1	873	2	2	2039	52	144736	-53	0																34												
WM080112	654754_fnca	2	1	1	-614350294	1	75.031	75.031	2.0.10.147	2.0.10.242	2.0.10.242	1.0.0.439	7	234	2	3	Verdana	1	80	0	0	0	WM Stimuli\	0.9	1087.11111111111	1	867.8	0.9	1346.33333333333	1	859.6	1	1097.6	1	909.1	1	993.5	1	768	13	333753	2	333741	14	27	333767	-999999	333756	0	29	TrialsPROC	FC_014_F7.png	2	2	35	SessionSelectionList														target	2	Face	2-Back	31	80	30	0	0	100	2	39	147295	1	14	72	145256	-1	146699	1	1443	2	2	2039	53	147309	-54	0																35												
WM080112	654754_fnca	2	1	1	-614350294	1	75.031	75.031	2.0.10.147	2.0.10.242	2.0.10.242	1.0.0.439	7	234	2	3	Verdana	1	80	0	0	0	WM Stimuli\	0.9	1087.11111111111	1	867.8	0.9	1346.33333333333	1	859.6	1	1097.6	1	909.1	1	993.5	1	768	13	333753	2	333741	14	27	333767	-999999	333756	0	30	Cue0BackPROC	TO_019_TOOL19_BA.png	2	2	36	SessionSelectionList																																										19	147775	-20	0												36												
WM080112	654754_fnca	2	1	1	-614350294	1	75.031	75.031	2.0.10.147	2.0.10.242	2.0.10.242	1.0.0.439	7	234	2	3	Verdana	1	80	0	0	0	WM Stimuli\	0.9	1087.11111111111	1	867.8	0.9	1346.33333333333	1	859.6	1	1097.6	1	909.1	1	993.5	1	768	13	333753	2	333741	14	27	333767	-999999	333756	0	31	TrialsPROC	TO_019_TOOL19_BA.png	2	2	37	SessionSelectionList														target	2	Tools	0-Back	32	80	31	0	0	100	3	39	152346	2	14	51	150307	-1	151231	1	924	2	2	2039	53	152360	-54	0																37												
WM080112	654754_fnca	2	1	1	-614350294	1	75.031	75.031	2.0.10.147	2.0.10.242	2.0.10.242	1.0.0.439	7	234	2	3	Verdana	1	80	0	0	0	WM Stimuli\	0.9	1087.11111111111	1	867.8	0.9	1346.33333333333	1	859.6	1	1097.6	1	909.1	1	993.5	1	768	13	333753	2	333741	14	27	333767	-999999	333756	0	31	TrialsPROC	TO_024_TOOL24_BA.png	2	2	38	SessionSelectionList														nonlure	3	Tools	0-Back	33	80	32	0	0	100	1	39	154905	2	14	59	152866	-1	153676	1	810	3	3	2039	53	154919	-54	0																38												
WM080112	654754_fnca	2	1	1	-614350294	1	75.031	75.031	2.0.10.147	2.0.10.242	2.0.10.242	1.0.0.439	7	234	2	3	Verdana	1	80	0	0	0	WM Stimuli\	0.9	1087.11111111111	1	867.8	0.9	1346.33333333333	1	859.6	1	1097.6	1	909.1	1	993.5	1	768	13	333753	2	333741	14	27	333767	-999999	333756	0	31	TrialsPROC	TO_019_TOOL19_BA.png	2	2	39	SessionSelectionList														target	2	Tools	0-Back	34	80	33	0	0	100	1	39	157464	2	14	59	155425	-1	156106	1	681	2	2	2039	53	157478	-54	0																39												
WM080112	654754_fnca	2	1	1	-614350294	1	75.031	75.031	2.0.10.147	2.0.10.242	2.0.10.242	1.0.0.439	7	234	2	3	Verdana	1	80	0	0	0	WM Stimuli\	0.9	1087.11111111111	1	867.8	0.9	1346.33333333333	1	859.6	1	1097.6	1	909.1	1	993.5	1	768	13	333753	2	333741	14	27	333767	-999999	333756	0	31	TrialsPROC	TO_023_TOOL23_BA.png	2	2	40	SessionSelectionList														nonlure	3	Tools	0-Back	35	80	34	0	0	100	1	39	160023	2	14	59	157984	-1	158750	1	766	3	3	2039	53	160037	-54	0																40												
WM080112	654754_fnca	2	1	1	-614350294	1	75.031	75.031	2.0.10.147	2.0.10.242	2.0.10.242	1.0.0.439	7	234	2	3	Verdana	1	80	0	0	0	WM Stimuli\	0.9	1087.11111111111	1	867.8	0.9	1346.33333333333	1	859.6	1	1097.6	1	909.1	1	993.5	1	768	13	333753	2	333741	14	27	333767	-999999	333756	0	31	TrialsPROC	TO_020_TOOL20_BA.png	2	2	41	SessionSelectionList														nonlure	3	Tools	0-Back	36	80	35	0	0	100	2	39	162582	2	14	59	160543	-1	161221	1	678	3	3	2039	53	162596	-54	0																41												
WM080112	654754_fnca	2	1	1	-614350294	1	75.031	75.031	2.0.10.147	2.0.10.242	2.0.10.242	1.0.0.439	7	234	2	3	Verdana	1	80	0	0	0	WM Stimuli\	0.9	1087.11111111111	1	867.8	0.9	1346.33333333333	1	859.6	1	1097.6	1	909.1	1	993.5	1	768	13	333753	2	333741	14	27	333767	-999999	333756	0	31	TrialsPROC	TO_020_TOOL20_BA.png	2	2	42	SessionSelectionList														lure	3	Tools	0-Back	37	80	36	0	0	100	3	39	165141	2	14	59	163102	-1	163936	1	834	3	3	2039	53	165155	-54	0																42												
WM080112	654754_fnca	2	1	1	-614350294	1	75.031	75.031	2.0.10.147	2.0.10.242	2.0.10.242	1.0.0.439	7	234	2	3	Verdana	1	80	0	0	0	WM Stimuli\	0.9	1087.11111111111	1	867.8	0.9	1346.33333333333	1	859.6	1	1097.6	1	909.1	1	993.5	1	768	13	333753	2	333741	14	27	333767	-999999	333756	0	31	TrialsPROC	TO_022_TOOL22_BA.png	2	2	43	SessionSelectionList														nonlure	3	Tools	0-Back	38	80	37	0	0	100	4	39	167700	2	14	59	165661	-1	166428	1	767	3	3	2039	53	167714	-54	0																43												
WM080112	654754_fnca	2	1	1	-614350294	1	75.031	75.031	2.0.10.147	2.0.10.242	2.0.10.242	1.0.0.439	7	234	2	3	Verdana	1	80	0	0	0	WM Stimuli\	0.9	1087.11111111111	1	867.8	0.9	1346.33333333333	1	859.6	1	1097.6	1	909.1	1	993.5	1	768	13	333753	2	333741	14	27	333767	-999999	333756	0	31	TrialsPROC	TO_022_TOOL22_BA.png	2	2	44	SessionSelectionList														lure	3	Tools	0-Back	39	80	38	0	0	100	5	39	170259	2	14	59	168220	-1	168889	1	669	3	3	2039	53	170273	-54	0																44												
WM080112	654754_fnca	2	1	1	-614350294	1	75.031	75.031	2.0.10.147	2.0.10.242	2.0.10.242	1.0.0.439	7	234	2	3	Verdana	1	80	0	0	0	WM Stimuli\	0.9	1087.11111111111	1	867.8	0.9	1346.33333333333	1	859.6	1	1097.6	1	909.1	1	993.5	1	768	13	333753	2	333741	14	27	333767	-999999	333756	0	31	TrialsPROC	TO_021_TOOL21_BA.png	2	2	45	SessionSelectionList														nonlure	3	Tools	0-Back	40	80	39	0	0	100	6	39	172818	2	14	59	170779	-1	171625	1	846	3	3	2039	53	172832	-54	0																45												
WM080112	654754_fnca	2	1	1	-614350294	1	75.031	75.031	2.0.10.147	2.0.10.242	2.0.10.242	1.0.0.439	7	234	2	3	Verdana	1	80	0	0	0	WM Stimuli\	0.9	1087.11111111111	1	867.8	0.9	1346.33333333333	1	859.6	1	1097.6	1	909.1	1	993.5	1	768	13	333753	2	333741	14	27	333767	-999999	333756	0	31	TrialsPROC	TO_021_TOOL21_BA.png	2	2	46	SessionSelectionList														lure	3	Tools	0-Back	41	80	40	0	0	100	7	39	175377	1	14	59	173338	-1	174043	1	705	3	3	2039	53	175391	-54	0																46												
WM080112	654754_fnca	2	1	1	-614350294	1	75.031	75.031	2.0.10.147	2.0.10.242	2.0.10.242	1.0.0.439	7	234	2	3	Verdana	1	80	0	0	0	WM Stimuli\	0.9	1087.11111111111	1	867.8	0.9	1346.33333333333	1	859.6	1	1097.6	1	909.1	1	993.5	1	768	13	333753	2	333741	14	27	333767	-999999	333756	0	32	Fix15secPROC	""	2	2	47	SessionSelectionList																																															6	175844	-7	0							47												
WM080112	654754_fnca	2	1	1	-614350294	1	75.031	75.031	2.0.10.147	2.0.10.242	2.0.10.242	1.0.0.439	7	234	2	3	Verdana	1	80	0	0	0	WM Stimuli\	0.9	1087.11111111111	1	867.8	0.9	1346.33333333333	1	859.6	1	1097.6	1	909.1	1	993.5	1	768	13	333753	2	333741	14	27	333767	-999999	333756	0	33	Cue2BackPROC	""	2	2	48	SessionSelectionList									13	190851	-14	0																																													48												
WM080112	654754_fnca	2	1	1	-614350294	1	75.031	75.031	2.0.10.147	2.0.10.242	2.0.10.242	1.0.0.439	7	234	2	3	Verdana	1	80	0	0	0	WM Stimuli\	0.9	1087.11111111111	1	867.8	0.9	1346.33333333333	1	859.6	1	1097.6	1	909.1	1	993.5	1	768	13	333753	2	333741	14	27	333767	-999999	333756	0	34	TrialsPROC	BP_020_H17-T_BA.png	2	2	49	SessionSelectionList														nonlure	3	Body	2-Back	42	80	41	0	0	100	8	39	195449	1	14	72	193410	-1	194268	1	858	3	3	2039	53	195463	-54	0																49												
WM080112	654754_fnca	2	1	1	-614350294	1	75.031	75.031	2.0.10.147	2.0.10.242	2.0.10.242	1.0.0.439	7	234	2	3	Verdana	1	80	0	0	0	WM Stimuli\	0.9	1087.11111111111	1	867.8	0.9	1346.33333333333	1	859.6	1	1097.6	1	909.1	1	993.5	1	768	13	333753	2	333741	14	27	333767	-999999	333756	0	34	TrialsPROC	BP_019_H14-T_BA.png	2	2	50	SessionSelectionList														nonlure	3	Body	2-Back	43	80	42	0	0	100	9	39	198021	2	14	72	195982	-1	196717	1	735	3	3	2039	53	198035	-54	0																50												
WM080112	654754_fnca	2	1	1	-614350294	1	75.031	75.031	2.0.10.147	2.0.10.242	2.0.10.242	1.0.0.439	7	234	2	3	Verdana	1	80	0	0	0	WM Stimuli\	0.9	1087.11111111111	1	867.8	0.9	1346.33333333333	1	859.6	1	1097.6	1	909.1	1	993.5	1	768	13	333753	2	333741	14	27	333767	-999999	333756	0	34	TrialsPROC	BP_020_H17-T_BA.png	2	2	51	SessionSelectionList														target	2	Body	2-Back	44	80	43	0	0	100	1	39	200580	2	14	59	198541	-1	199458	1	917	2	2	2039	53	200594	-54	0																51												
WM080112	654754_fnca	2	1	1	-614350294	1	75.031	75.031	2.0.10.147	2.0.10.242	2.0.10.242	1.0.0.439	7	234	2	3	Verdana	1	80	0	0	0	WM Stimuli\	0.9	1087.11111111111	1	867.8	0.9	1346.33333333333	1	859.6	1	1097.6	1	909.1	1	993.5	1	768	13	333753	2	333741	14	27	333767	-999999	333756	0	34	TrialsPROC	BP_019_H14-T_BA.png	2	2	52	SessionSelectionList														target	2	Body	2-Back	45	80	44	0	0	100	2	39	203139	2	14	59	201100	-1	202918	1	1818	2	2	2039	53	203153	-54	0																52												
WM080112	654754_fnca	2	1	1	-614350294	1	75.031	75.031	2.0.10.147	2.0.10.242	2.0.10.242	1.0.0.439	7	234	2	3	Verdana	1	80	0	0	0	WM Stimuli\	0.9	1087.11111111111	1	867.8	0.9	1346.33333333333	1	859.6	1	1097.6	1	909.1	1	993.5	1	768	13	333753	2	333741	14	27	333767	-999999	333756	0	34	TrialsPROC	BP_024_H3-T_BA.png	2	2	53	SessionSelectionList														nonlure	3	Body	2-Back	46	80	45	0	0	100	1	39	205711	2	14	72	203672	-1	205006	1	1334	3	3	2039	53	205725	-54	0																53												
WM080112	654754_fnca	2	1	1	-614350294	1	75.031	75.031	2.0.10.147	2.0.10.242	2.0.10.242	1.0.0.439	7	234	2	3	Verdana	1	80	0	0	0	WM Stimuli\	0.9	1087.11111111111	1	867.8	0.9	1346.33333333333	1	859.6	1	1097.6	1	909.1	1	993.5	1	768	13	333753	2	333741	14	27	333767	-999999	333756	0	34	TrialsPROC	BP_024_H3-T_BA.png	2	2	54	SessionSelectionList														lure	3	Body	2-Back	47	80	46	0	0	100	2	38	208270	2	14	60	206232	-1	207195	1	963	3	3	2038	52	208284	-53	0																54												
WM080112	654754_fnca	2	1	1	-614350294	1	75.031	75.031	2.0.10.147	2.0.10.242	2.0.10.242	1.0.0.439	7	234	2	3	Verdana	1	80	0	0	0	WM Stimuli\	0.9	1087.11111111111	1	867.8	0.9	1346.33333333333	1	859.6	1	1097.6	1	909.1	1	993.5	1	768	13	333753	2	333741	14	27	333767	-999999	333756	0	34	TrialsPROC	BP_025_H5-T_BA.png	2	2	55	SessionSelectionList														nonlure	3	Body	2-Back	48	80	47	0	0	100	3	38	210829	2	14	59	208791	-1	209939	1	1148	3	3	2038	52	210843	-53	0																55												
WM080112	654754_fnca	2	1	1	-614350294	1	75.031	75.031	2.0.10.147	2.0.10.242	2.0.10.242	1.0.0.439	7	234	2	3	Verdana	1	80	0	0	0	WM Stimuli\	0.9	1087.11111111111	1	867.8	0.9	1346.33333333333	1	859.6	1	1097.6	1	909.1	1	993.5	1	768	13	333753	2	333741	14	27	333767	-999999	333756	0	34	TrialsPROC	BP_023_H25-T_BA.png	2	2	56	SessionSelectionList														nonlure	3	Body	2-Back	49	80	48	0	0	100	1	39	213402	1	13	72	211363	-1	212593	0	1230	2	3	2039	52	213415	-53	0																56												
WM080112	654754_fnca	2	1	1	-614350294	1	75.031	75.031	2.0.10.147	2.0.10.242	2.0.10.242	1.0.0.439	7	234	2	3	Verdana	1	80	0	0	0	WM Stimuli\	0.9	1087.11111111111	1	867.8	0.9	1346.33333333333	1	859.6	1	1097.6	1	909.1	1	993.5	1	768	13	333753	2	333741	14	27	333767	-999999	333756	0	34	TrialsPROC	BP_022_H24-T_BA.png	2	2	57	SessionSelectionList														nonlure	3	Body	2-Back	50	80	49	0	0	100	1	39	215961	1	13	59	213922	-1	214941	1	1019	3	3	2039	52	215974	-53	0																57												
WM080112	654754_fnca	2	1	1	-614350294	1	75.031	75.031	2.0.10.147	2.0.10.242	2.0.10.242	1.0.0.439	7	234	2	3	Verdana	1	80	0	0	0	WM Stimuli\	0.9	1087.11111111111	1	867.8	0.9	1346.33333333333	1	859.6	1	1097.6	1	909.1	1	993.5	1	768	13	333753	2	333741	14	27	333767	-999999	333756	0	34	TrialsPROC	BP_022_H24-T_BA.png	2	2	58	SessionSelectionList														lure	3	Body	2-Back	51	80	50	0	0	100	2	39	218520	1	13	59	216481	-1	217473	1	992	3	3	2039	52	218533	-53	0																58												
WM080112	654754_fnca	2	1	1	-614350294	1	75.031	75.031	2.0.10.147	2.0.10.242	2.0.10.242	1.0.0.439	7	234	2	3	Verdana	1	80	0	0	0	WM Stimuli\	0.9	1087.11111111111	1	867.8	0.9	1346.33333333333	1	859.6	1	1097.6	1	909.1	1	993.5	1	768	13	333753	2	333741	14	27	333767	-999999	333756	0	35	Cue2BackPROC	""	2	2	59	SessionSelectionList									5	218986	-6	0																																													59												
WM080112	654754_fnca	2	1	1	-614350294	1	75.031	75.031	2.0.10.147	2.0.10.242	2.0.10.242	1.0.0.439	7	234	2	3	Verdana	1	80	0	0	0	WM Stimuli\	0.9	1087.11111111111	1	867.8	0.9	1346.33333333333	1	859.6	1	1097.6	1	909.1	1	993.5	1	768	13	333753	2	333741	14	27	333767	-999999	333756	0	36	TrialsPROC	PL_019_SCENE_05.png	2	2	60	SessionSelectionList														nonlure	3	Place	2-Back	52	80	51	0	0	100	3	39	223584	2	14	64	221545	-1	222861	1	1316	3	3	2039	53	223598	-54	0																60												
WM080112	654754_fnca	2	1	1	-614350294	1	75.031	75.031	2.0.10.147	2.0.10.242	2.0.10.242	1.0.0.439	7	234	2	3	Verdana	1	80	0	0	0	WM Stimuli\	0.9	1087.11111111111	1	867.8	0.9	1346.33333333333	1	859.6	1	1097.6	1	909.1	1	993.5	1	768	13	333753	2	333741	14	27	333767	-999999	333756	0	36	TrialsPROC	PL_017_SCENE_03.png	2	2	61	SessionSelectionList														nonlure	3	Place	2-Back	53	80	52	0	0	100	4	40	226157	1	13	72	224117	-1	225122	1	1005	3	3	2040	53	226170	-54	0																61												
WM080112	654754_fnca	2	1	1	-614350294	1	75.031	75.031	2.0.10.147	2.0.10.242	2.0.10.242	1.0.0.439	7	234	2	3	Verdana	1	80	0	0	0	WM Stimuli\	0.9	1087.11111111111	1	867.8	0.9	1346.33333333333	1	859.6	1	1097.6	1	909.1	1	993.5	1	768	13	333753	2	333741	14	27	333767	-999999	333756	0	36	TrialsPROC	PL_017_SCENE_03.png	2	2	62	SessionSelectionList														lure	3	Place	2-Back	54	80	53	0	0	100	5	39	228729	1	14	73	226690	-1	227739	1	1049	3	3	2039	53	228743	-54	0																62												
WM080112	654754_fnca	2	1	1	-614350294	1	75.031	75.031	2.0.10.147	2.0.10.242	2.0.10.242	1.0.0.439	7	234	2	3	Verdana	1	80	0	0	0	WM Stimuli\	0.9	1087.11111111111	1	867.8	0.9	1346.33333333333	1	859.6	1	1097.6	1	909.1	1	993.5	1	768	13	333753	2	333741	14	27	333767	-999999	333756	0	36	TrialsPROC	PL_016_SCENE_02.png	2	2	63	SessionSelectionList														nonlure	3	Place	2-Back	55	80	54	0	0	100	6	39	231301	2	14	72	229262	-1	230140	1	878	3	3	2039	53	231315	-54	0																63												
WM080112	654754_fnca	2	1	1	-614350294	1	75.031	75.031	2.0.10.147	2.0.10.242	2.0.10.242	1.0.0.439	7	234	2	3	Verdana	1	80	0	0	0	WM Stimuli\	0.9	1087.11111111111	1	867.8	0.9	1346.33333333333	1	859.6	1	1097.6	1	909.1	1	993.5	1	768	13	333753	2	333741	14	27	333767	-999999	333756	0	36	TrialsPROC	PL_015_SCENE_01.png	2	2	64	SessionSelectionList														nonlure	3	Place	2-Back	56	80	55	0	0	100	7	39	233873	2	14	72	231834	-1	232719	1	885	3	3	2039	53	233887	-54	0																64												
WM080112	654754_fnca	2	1	1	-614350294	1	75.031	75.031	2.0.10.147	2.0.10.242	2.0.10.242	1.0.0.439	7	234	2	3	Verdana	1	80	0	0	0	WM Stimuli\	0.9	1087.11111111111	1	867.8	0.9	1346.33333333333	1	859.6	1	1097.6	1	909.1	1	993.5	1	768	13	333753	2	333741	14	27	333767	-999999	333756	0	36	TrialsPROC	PL_016_SCENE_02.png	2	2	65	SessionSelectionList														target	2	Place	2-Back	57	80	56	0	0	100	1	39	236446	1	13	73	234407	-1	235676	1	1269	2	2	2039	52	236459	-53	0																65												
WM080112	654754_fnca	2	1	1	-614350294	1	75.031	75.031	2.0.10.147	2.0.10.242	2.0.10.242	1.0.0.439	7	234	2	3	Verdana	1	80	0	0	0	WM Stimuli\	0.9	1087.11111111111	1	867.8	0.9	1346.33333333333	1	859.6	1	1097.6	1	909.1	1	993.5	1	768	13	333753	2	333741	14	27	333767	-999999	333756	0	36	TrialsPROC	PL_015_SCENE_01.png	2	2	66	SessionSelectionList														target	2	Place	2-Back	58	80	57	0	0	100	2	39	239018	1	14	72	236979	-1	238528	1	1549	2	2	2039	53	239032	-54	0																66												
WM080112	654754_fnca	2	1	1	-614350294	1	75.031	75.031	2.0.10.147	2.0.10.242	2.0.10.242	1.0.0.439	7	234	2	3	Verdana	1	80	0	0	0	WM Stimuli\	0.9	1087.11111111111	1	867.8	0.9	1346.33333333333	1	859.6	1	1097.6	1	909.1	1	993.5	1	768	13	333753	2	333741	14	27	333767	-999999	333756	0	36	TrialsPROC	PL_020_SCENE_06.png	2	2	67	SessionSelectionList														nonlure	3	Place	2-Back	59	80	58	0	0	100	1	39	241590	2	14	72	239551	-1	240602	1	1051	3	3	2039	53	241604	-54	0																67												
WM080112	654754_fnca	2	1	1	-614350294	1	75.031	75.031	2.0.10.147	2.0.10.242	2.0.10.242	1.0.0.439	7	234	2	3	Verdana	1	80	0	0	0	WM Stimuli\	0.9	1087.11111111111	1	867.8	0.9	1346.33333333333	1	859.6	1	1097.6	1	909.1	1	993.5	1	768	13	333753	2	333741	14	27	333767	-999999	333756	0	36	TrialsPROC	PL_020_SCENE_06.png	2	2	68	SessionSelectionList														lure	3	Place	2-Back	60	80	59	0	0	100	2	40	244163	1	13	72	242123	-1	243037	1	914	3	3	2040	53	244176	-54	0																68												
WM080112	654754_fnca	2	1	1	-614350294	1	75.031	75.031	2.0.10.147	2.0.10.242	2.0.10.242	1.0.0.439	7	234	2	3	Verdana	1	80	0	0	0	WM Stimuli\	0.9	1087.11111111111	1	867.8	0.9	1346.33333333333	1	859.6	1	1097.6	1	909.1	1	993.5	1	768	13	333753	2	333741	14	27	333767	-999999	333756	0	36	TrialsPROC	PL_018_SCENE_04.png	2	2	69	SessionSelectionList														nonlure	3	Place	2-Back	61	80	60	0	0	100	3	39	246735	1	14	73	244696	-1	245756	1	1060	3	3	2039	53	246749	-54	0																69												
WM080112	654754_fnca	2	1	1	-614350294	1	75.031	75.031	2.0.10.147	2.0.10.242	2.0.10.242	1.0.0.439	7	234	2	3	Verdana	1	80	0	0	0	WM Stimuli\	0.9	1087.11111111111	1	867.8	0.9	1346.33333333333	1	859.6	1	1097.6	1	909.1	1	993.5	1	768	13	333753	2	333741	14	27	333767	-999999	333756	0	37	Fix15secPROC	""	2	2	70	SessionSelectionList																																															6	247202	-7	0							70												
WM080112	654754_fnca	2	1	1	-614350294	1	75.031	75.031	2.0.10.147	2.0.10.242	2.0.10.242	1.0.0.439	7	234	2	3	Verdana	1	80	0	0	0	WM Stimuli\	0.9	1087.11111111111	1	867.8	0.9	1346.33333333333	1	859.6	1	1097.6	1	909.1	1	993.5	1	768	13	333753	2	333741	14	27	333767	-999999	333756	0	38	Cue0BackPROC	FC_020_F10.png	2	2	71	SessionSelectionList																																										39	262235	-40	0												71												
WM080112	654754_fnca	2	1	1	-614350294	1	75.031	75.031	2.0.10.147	2.0.10.242	2.0.10.242	1.0.0.439	7	234	2	3	Verdana	1	80	0	0	0	WM Stimuli\	0.9	1087.11111111111	1	867.8	0.9	1346.33333333333	1	859.6	1	1097.6	1	909.1	1	993.5	1	768	13	333753	2	333741	14	27	333767	-999999	333756	0	39	TrialsPROC	FC_024_F12.png	2	2	72	SessionSelectionList														nonlure	3	Face	0-Back	62	80	61	0	0	100	4	39	266820	1	14	85	264781	-1	265968	1	1187	3	3	2039	53	266834	-54	0																72												
WM080112	654754_fnca	2	1	1	-614350294	1	75.031	75.031	2.0.10.147	2.0.10.242	2.0.10.242	1.0.0.439	7	234	2	3	Verdana	1	80	0	0	0	WM Stimuli\	0.9	1087.11111111111	1	867.8	0.9	1346.33333333333	1	859.6	1	1097.6	1	909.1	1	993.5	1	768	13	333753	2	333741	14	27	333767	-999999	333756	0	39	TrialsPROC	FC_023_M12.png	2	2	73	SessionSelectionList														nonlure	3	Face	0-Back	63	80	62	0	0	100	5	39	269406	1	13	86	267367	-1	268351	1	984	3	3	2039	52	269419	-53	0																73												
WM080112	654754_fnca	2	1	1	-614350294	1	75.031	75.031	2.0.10.147	2.0.10.242	2.0.10.242	1.0.0.439	7	234	2	3	Verdana	1	80	0	0	0	WM Stimuli\	0.9	1087.11111111111	1	867.8	0.9	1346.33333333333	1	859.6	1	1097.6	1	909.1	1	993.5	1	768	13	333753	2	333741	14	27	333767	-999999	333756	0	39	TrialsPROC	FC_020_F10.png	2	2	74	SessionSelectionList														target	2	Face	0-Back	64	80	63	0	0	100	1	39	271978	1	14	72	269939	-1	270865	1	926	2	2	2039	53	271992	-54	0																74												
WM080112	654754_fnca	2	1	1	-614350294	1	75.031	75.031	2.0.10.147	2.0.10.242	2.0.10.242	1.0.0.439	7	234	2	3	Verdana	1	80	0	0	0	WM Stimuli\	0.9	1087.11111111111	1	867.8	0.9	1346.33333333333	1	859.6	1	1097.6	1	909.1	1	993.5	1	768	13	333753	2	333741	14	27	333767	-999999	333756	0	39	TrialsPROC	FC_024_F12.png	2	2	75	SessionSelectionList														lure	3	Face	0-Back	65	80	64	0	0	100	1	39	274550	2	14	72	272511	-1	273235	1	724	3	3	2039	53	274564	-54	0																75												
WM080112	654754_fnca	2	1	1	-614350294	1	75.031	75.031	2.0.10.147	2.0.10.242	2.0.10.242	1.0.0.439	7	234	2	3	Verdana	1	80	0	0	0	WM Stimuli\	0.9	1087.11111111111	1	867.8	0.9	1346.33333333333	1	859.6	1	1097.6	1	909.1	1	993.5	1	768	13	333753	2	333741	14	27	333767	-999999	333756	0	39	TrialsPROC	FC_020_F10.png	2	2	76	SessionSelectionList														target	2	Face	0-Back	66	80	65	0	0	100	1	40	277123	1	13	72	275083	-1	276001	1	918	2	2	2040	53	277136	-54	0																76												
WM080112	654754_fnca	2	1	1	-614350294	1	75.031	75.031	2.0.10.147	2.0.10.242	2.0.10.242	1.0.0.439	7	234	2	3	Verdana	1	80	0	0	0	WM Stimuli\	0.9	1087.11111111111	1	867.8	0.9	1346.33333333333	1	859.6	1	1097.6	1	909.1	1	993.5	1	768	13	333753	2	333741	14	27	333767	-999999	333756	0	39	TrialsPROC	FC_022_F11.png	2	2	77	SessionSelectionList														nonlure	3	Face	0-Back	67	80	66	0	0	100	1	39	279708	2	14	86	277669	-1	278433	1	764	3	3	2039	53	279722	-54	0																77												
WM080112	654754_fnca	2	1	1	-614350294	1	75.031	75.031	2.0.10.147	2.0.10.242	2.0.10.242	1.0.0.439	7	234	2	3	Verdana	1	80	0	0	0	WM Stimuli\	0.9	1087.11111111111	1	867.8	0.9	1346.33333333333	1	859.6	1	1097.6	1	909.1	1	993.5	1	768	13	333753	2	333741	14	27	333767	-999999	333756	0	39	TrialsPROC	FC_023_M12.png	2	2	78	SessionSelectionList														lure	3	Face	0-Back	68	80	67	0	0	100	2	40	282281	1	13	72	280241	-1	281027	1	786	3	3	2040	53	282294	-54	0																78												
WM080112	654754_fnca	2	1	1	-614350294	1	75.031	75.031	2.0.10.147	2.0.10.242	2.0.10.242	1.0.0.439	7	234	2	3	Verdana	1	80	0	0	0	WM Stimuli\	0.9	1087.11111111111	1	867.8	0.9	1346.33333333333	1	859.6	1	1097.6	1	909.1	1	993.5	1	768	13	333753	2	333741	14	27	333767	-999999	333756	0	39	TrialsPROC	FC_021_M11.png	2	2	79	SessionSelectionList														nonlure	3	Face	0-Back	69	80	68	0	0	100	3	39	284866	2	14	86	282827	-1	283622	1	795	3	3	2039	53	284880	-54	0																79												
WM080112	654754_fnca	2	1	1	-614350294	1	75.031	75.031	2.0.10.147	2.0.10.242	2.0.10.242	1.0.0.439	7	234	2	3	Verdana	1	80	0	0	0	WM Stimuli\	0.9	1087.11111111111	1	867.8	0.9	1346.33333333333	1	859.6	1	1097.6	1	909.1	1	993.5	1	768	13	333753	2	333741	14	27	333767	-999999	333756	0	39	TrialsPROC	FC_021_M11.png	2	2	80	SessionSelectionList														lure	3	Face	0-Back	70	80	69	0	0	100	4	39	287438	2	14	72	285399	-1	286153	1	754	3	3	2039	53	287452	-54	0																80												
WM080112	654754_fnca	2	1	1	-614350294	1	75.031	75.031	2.0.10.147	2.0.10.242	2.0.10.242	1.0.0.439	7	234	2	3	Verdana	1	80	0	0	0	WM Stimuli\	0.9	1087.11111111111	1	867.8	0.9	1346.33333333333	1	859.6	1	1097.6	1	909.1	1	993.5	1	768	13	333753	2	333741	14	27	333767	-999999	333756	0	39	TrialsPROC	FC_019_M10.png	2	2	81	SessionSelectionList														nonlure	3	Face	0-Back	71	80	70	0	0	100	5	39	290024	1	14	86	287985	-1	288743	1	758	3	3	2039	53	290038	-54	0																81												
WM080112	654754_fnca	2	1	1	-614350294	1	75.031	75.031	2.0.10.147	2.0.10.242	2.0.10.242	1.0.0.439	7	234	2	3	Verdana	1	80	0	0	0	WM Stimuli\	0.9	1087.11111111111	1	867.8	0.9	1346.33333333333	1	859.6	1	1097.6	1	909.1	1	993.5	1	768	13	333753	2	333741	14	27	333767	-999999	333756	0	40	Cue0BackPROC	PL_021_SCENE_07.png	2	2	82	SessionSelectionList																																										32	290517	-33	0												82												
WM080112	654754_fnca	2	1	1	-614350294	1	75.031	75.031	2.0.10.147	2.0.10.242	2.0.10.242	1.0.0.439	7	234	2	3	Verdana	1	80	0	0	0	WM Stimuli\	0.9	1087.11111111111	1	867.8	0.9	1346.33333333333	1	859.6	1	1097.6	1	909.1	1	993.5	1	768	13	333753	2	333741	14	27	333767	-999999	333756	0	41	TrialsPROC	PL_025_SCENE_18.png	2	2	83	SessionSelectionList														nonlure	3	Place	0-Back	72	80	71	0	0	100	6	39	295102	1	14	78	293063	-1	293889	1	826	3	3	2039	53	295116	-54	0																83												
WM080112	654754_fnca	2	1	1	-614350294	1	75.031	75.031	2.0.10.147	2.0.10.242	2.0.10.242	1.0.0.439	7	234	2	3	Verdana	1	80	0	0	0	WM Stimuli\	0.9	1087.11111111111	1	867.8	0.9	1346.33333333333	1	859.6	1	1097.6	1	909.1	1	993.5	1	768	13	333753	2	333741	14	27	333767	-999999	333756	0	41	TrialsPROC	PL_026_SCENE_24.png	2	2	84	SessionSelectionList														nonlure	3	Place	0-Back	73	80	72	0	0	100	7	40	297688	1	13	85	295648	-1	296813	1	1165	3	3	2040	53	297701	-54	0																84												
WM080112	654754_fnca	2	1	1	-614350294	1	75.031	75.031	2.0.10.147	2.0.10.242	2.0.10.242	1.0.0.439	7	234	2	3	Verdana	1	80	0	0	0	WM Stimuli\	0.9	1087.11111111111	1	867.8	0.9	1346.33333333333	1	859.6	1	1097.6	1	909.1	1	993.5	1	768	13	333753	2	333741	14	27	333767	-999999	333756	0	41	TrialsPROC	PL_025_SCENE_18.png	2	2	85	SessionSelectionList														lure	3	Place	0-Back	74	80	73	0	0	100	8	39	300260	1	14	73	298221	-1	299289	1	1068	3	3	2039	53	300274	-54	0																85												
WM080112	654754_fnca	2	1	1	-614350294	1	75.031	75.031	2.0.10.147	2.0.10.242	2.0.10.242	1.0.0.439	7	234	2	3	Verdana	1	80	0	0	0	WM Stimuli\	0.9	1087.11111111111	1	867.8	0.9	1346.33333333333	1	859.6	1	1097.6	1	909.1	1	993.5	1	768	13	333753	2	333741	14	27	333767	-999999	333756	0	41	TrialsPROC	PL_022_SCENE_08.png	2	2	86	SessionSelectionList														nonlure	3	Place	0-Back	75	80	74	0	0	100	9	39	302832	2	14	72	300793	-1	301769	1	976	3	3	2039	53	302846	-54	0																86												
WM080112	654754_fnca	2	1	1	-614350294	1	75.031	75.031	2.0.10.147	2.0.10.242	2.0.10.242	1.0.0.439	7	234	2	3	Verdana	1	80	0	0	0	WM Stimuli\	0.9	1087.11111111111	1	867.8	0.9	1346.33333333333	1	859.6	1	1097.6	1	909.1	1	993.5	1	768	13	333753	2	333741	14	27	333767	-999999	333756	0	41	TrialsPROC	PL_026_SCENE_24.png	2	2	87	SessionSelectionList														lure	3	Place	0-Back	76	80	75	0	0	100	10	39	305404	2	14	72	303365	-1	304421	1	1056	3	3	2039	53	305418	-54	0																87												
WM080112	654754_fnca	2	1	1	-614350294	1	75.031	75.031	2.0.10.147	2.0.10.242	2.0.10.242	1.0.0.439	7	234	2	3	Verdana	1	80	0	0	0	WM Stimuli\	0.9	1087.11111111111	1	867.8	0.9	1346.33333333333	1	859.6	1	1097.6	1	909.1	1	993.5	1	768	13	333753	2	333741	14	27	333767	-999999	333756	0	41	TrialsPROC	PL_021_SCENE_07.png	2	2	88	SessionSelectionList														target	2	Place	0-Back	77	80	76	0	0	100	1	39	307977	1	14	73	305938	-1	306825	1	887	2	2	2039	53	307991	-54	0																88												
WM080112	654754_fnca	2	1	1	-614350294	1	75.031	75.031	2.0.10.147	2.0.10.242	2.0.10.242	1.0.0.439	7	234	2	3	Verdana	1	80	0	0	0	WM Stimuli\	0.9	1087.11111111111	1	867.8	0.9	1346.33333333333	1	859.6	1	1097.6	1	909.1	1	993.5	1	768	13	333753	2	333741	14	27	333767	-999999	333756	0	41	TrialsPROC	PL_021_SCENE_07.png	2	2	89	SessionSelectionList														target	2	Place	0-Back	78	80	77	0	0	100	2	39	310549	1	14	72	308510	-1	309320	1	810	2	2	2039	53	310563	-54	0																89												
WM080112	654754_fnca	2	1	1	-614350294	1	75.031	75.031	2.0.10.147	2.0.10.242	2.0.10.242	1.0.0.439	7	234	2	3	Verdana	1	80	0	0	0	WM Stimuli\	0.9	1087.11111111111	1	867.8	0.9	1346.33333333333	1	859.6	1	1097.6	1	909.1	1	993.5	1	768	13	333753	2	333741	14	27	333767	-999999	333756	0	41	TrialsPROC	PL_023_SCENE_09.png	2	2	90	SessionSelectionList														nonlure	3	Place	0-Back	79	80	78	0	0	100	1	39	313135	1	13	86	311096	-1	311826	1	730	3	3	2039	52	313148	-53	0																90												
WM080112	654754_fnca	2	1	1	-614350294	1	75.031	75.031	2.0.10.147	2.0.10.242	2.0.10.242	1.0.0.439	7	234	2	3	Verdana	1	80	0	0	0	WM Stimuli\	0.9	1087.11111111111	1	867.8	0.9	1346.33333333333	1	859.6	1	1097.6	1	909.1	1	993.5	1	768	13	333753	2	333741	14	27	333767	-999999	333756	0	41	TrialsPROC	PL_024_SCENE_10.png	2	2	91	SessionSelectionList														nonlure	3	Place	0-Back	80	80	79	0	0	100	2	39	315707	1	14	72	313668	-1	314437	1	769	3	3	2039	53	315721	-54	0																91												
WM080112	654754_fnca	2	1	1	-614350294	1	75.031	75.031	2.0.10.147	2.0.10.242	2.0.10.242	1.0.0.439	7	234	2	3	Verdana	1	80	0	0	0	WM Stimuli\	0.9	1087.11111111111	1	867.8	0.9	1346.33333333333	1	859.6	1	1097.6	1	909.1	1	993.5	1	768	13	333753	2	333741	14	27	333767	-999999	333756	0	41	TrialsPROC	PL_022_SCENE_08.png	2	2	92	SessionSelectionList														lure	3	Place	0-Back	80	80	80	0	0	100	3	39	318279	2	14	72	316240	-1	317044	1	804	3	3	2039	53	318293	-54	0																92												
WM080112	654754_fnca	2	1	1	-614350294	1	75.031	75.031	2.0.10.147	2.0.10.242	2.0.10.242	1.0.0.439	7	234	2	3	Verdana	1	80	0	0	0	WM Stimuli\	0.9	1087.11111111111	1	867.8	0.9	1346.33333333333	1	859.6	1	1097.6	1	909.1	1	993.5	1	768	13	333753	2	333741	14	27	333767	-999999	333756	0	42	Fix15secPROC	""	2	2	93	SessionSelectionList																																															6	318746	-7	0							93												
