ExperimentName	HCPID	RunNumber	Subject	Session	RandomSeed	Group	Laptop.RefreshRate	ScannerD2.RefreshRate	StudioVersion	RuntimeVersion	RuntimeVersionExpected	ExperimentVersion	triggercode	Allowed	Target	Nontarget	FontStyle	RunTrialNumber[Session]	TrialsPerRun[Session]	TotalRespGreater200[Session]	ConsecRTLess200[Session]	ConsecNonResp[Session]	StimuliDir	ACC_2_Back_Body	Avg_RT_For_Correct_Trials_2_Back_Body	ACC_0_Back_Body	Avg_RT_For_Correct_Trials_0_Back_Body	ACC_2_Back_Face	Avg_RT_For_Correct_Trials_2_Back_Face	ACC_0_Back_Face	Avg_RT_For_Correct_Trials_0_Back_Face	ACC_2_Back_Place	Avg_RT_For_Correct_Trials_2_Back_Place	ACC_0_Back_Place	Avg_RT_For_Correct_Trials_0_Back_Place	ACC_2_Back_Tools	Avg_RT_For_Correct_Trials_2_Back_Tools	ACC_0_Back_Tools	Avg_RT_For_Correct_Trials_0_Back_Tools	ExpInstrucFeelFreeToRest.OnsetDelay	ExpInstrucFeelFreeToRest.OnsetTime	ExpInstrucFeelFreeToRest.DurationError	ExpInstrucFeelFreeToRest.StartTime	ExpInstrucFeelFreeToRest.OnsetToOnsetTime	FeelFreeToRest.OnsetDelay	FeelFreeToRest.OnsetTime	FeelFreeToRest.DurationError	FeelFreeToRest.StartTime	FeelFreeToRest.OnsetToOnsetTime	SessionSelectionList	Procedure[Block]	Stimulus[Block]	RunNumberFilterValue	SessionSelectionList.Cycle	SessionSelectionList.Sample	Running[Block]	IntroButtonMap.OnsetDelay	IntroButtonMap.OnsetTime	IntroButtonMap.DurationError	IntroButtonMap.OnsetToOnsetTime	GetReady.OnsetDelay	GetReady.OnsetTime	GetReady.DurationError	GetReady.OnsetToOnsetTime	Cue2Back.OnsetDelay	Cue2Back.OnsetTime	Cue2Back.DurationError	Cue2Back.OnsetToOnsetTime	Run1Block1	TargetType	CorrectResponse	StimType	BlockType	RunTrialNumber[Block]	TrialsPerRun[Block]	TotalRespGreater200[Block]	ConsecRTLess200[Block]	ConsecNonResp[Block]	ControlAcc	ConsecSameResp	ExperimenterWindow.OnsetDelay	ExperimenterWindow.OnsetTime	ExperimenterWindow.DurationError	ExperimenterWindow.OnsetToOnsetTime	Stim.OnsetDelay	Stim.OnsetTime	Stim.DurationError	Stim.RTTime	Stim.ACC	Stim.RT	Stim.RESP	Stim.CRESP	Stim.OnsetToOnsetTime	Fix.OnsetDelay	Fix.OnsetTime	Fix.DurationError	Fix.OnsetToOnsetTime	CueTarget.OnsetDelay	CueTarget.OnsetTime	CueTarget.DurationError	CueTarget.OnsetToOnsetTime	Run1Block2	Fix15sec.OnsetDelay	Fix15sec.OnsetTime	Fix15sec.DurationError	Fix15sec.OnsetToOnsetTime	Run1Block3	Run1Block4	Run1Block5	Run1Block6	Run1Block7	Run1Block8	Block	Procedure[Trial]	Stimulus[Trial]	ReadyList	Running[Trial]	ReadyList.Cycle	ReadyList.Sample	SyncSlide.OnsetDelay	SyncSlide.OnsetTime	SyncSlide.DurationError	SyncSlide.FinishTime	SyncSlide.OnsetToOnsetTime	Trial
WM080112	672756_fnca	2	1	1	1298578547	1	75.030	75.030	2.0.10.147	2.0.10.242	2.0.10.242	1.0.0.439	7	234	2	3	Verdana	1	80	0	0	0	WM Stimuli\	0.7	842.857142857143	1	655.2	0.9	774.777777777778	1	586.3	1	759.9	0.7	668.714285714286	0.7	773.428571428571	1	635.8	12	328747	3	328736	28	40	328775	-999999	328751	0	22	TRSyncPROC	""	2	2	1	SessionSelectionList	106	16433	-999999	0	34	19859	-999999	0																																																	1	InitialTR	4	1	ReadyList	1	1	16	34692	-17	36675	0	1
WM080112	672756_fnca	2	1	1	1298578547	1	75.030	75.030	2.0.10.147	2.0.10.242	2.0.10.242	1.0.0.439	7	234	2	3	Verdana	1	80	0	0	0	WM Stimuli\	0.7	842.857142857143	1	655.2	0.9	774.777777777778	1	586.3	1	759.9	0.7	668.714285714286	0.7	773.428571428571	1	635.8	12	328747	3	328736	28	40	328775	-999999	328751	0	22	TRSyncPROC	""	2	2	1	SessionSelectionList	106	16433	-999999	0	34	19859	-999999	0																																																	1	InitialTR	3	2	ReadyList	1	2	15	36691	-16	38675	0	2
WM080112	672756_fnca	2	1	1	1298578547	1	75.030	75.030	2.0.10.147	2.0.10.242	2.0.10.242	1.0.0.439	7	234	2	3	Verdana	1	80	0	0	0	WM Stimuli\	0.7	842.857142857143	1	655.2	0.9	774.777777777778	1	586.3	1	759.9	0.7	668.714285714286	0.7	773.428571428571	1	635.8	12	328747	3	328736	28	40	328775	-999999	328751	0	22	TRSyncPROC	""	2	2	1	SessionSelectionList	106	16433	-999999	0	34	19859	-999999	0																																																	1	InitialTR	2	3	ReadyList	1	3	15	38691	-16	40675	0	3
WM080112	672756_fnca	2	1	1	1298578547	1	75.030	75.030	2.0.10.147	2.0.10.242	2.0.10.242	1.0.0.439	7	234	2	3	Verdana	1	80	0	0	0	WM Stimuli\	0.7	842.857142857143	1	655.2	0.9	774.777777777778	1	586.3	1	759.9	0.7	668.714285714286	0.7	773.428571428571	1	635.8	12	328747	3	328736	28	40	328775	-999999	328751	0	22	TRSyncPROC	""	2	2	1	SessionSelectionList	106	16433	-999999	0	34	19859	-999999	0																																																	1	InitialTR	1	4	ReadyList	1	4	14	40690	-15	42675	0	4
WM080112	672756_fnca	2	1	1	1298578547	1	75.030	75.030	2.0.10.147	2.0.10.242	2.0.10.242	1.0.0.439	7	234	2	3	Verdana	1	80	0	0	0	WM Stimuli\	0.7	842.857142857143	1	655.2	0.9	774.777777777778	1	586.3	1	759.9	0.7	668.714285714286	0.7	773.428571428571	1	635.8	12	328747	3	328736	28	40	328775	-999999	328751	0	23	Cue2BackPROC	""	2	2	2	SessionSelectionList									13	42689	-14	0																																													2												
WM080112	672756_fnca	2	1	1	1298578547	1	75.030	75.030	2.0.10.147	2.0.10.242	2.0.10.242	1.0.0.439	7	234	2	3	Verdana	1	80	0	0	0	WM Stimuli\	0.7	842.857142857143	1	655.2	0.9	774.777777777778	1	586.3	1	759.9	0.7	668.714285714286	0.7	773.428571428571	1	635.8	12	328747	3	328736	28	40	328775	-999999	328751	0	24	TrialsPROC	TO_014_TOOL14_BA.png	2	2	3	SessionSelectionList														nonlure	3	Tools	2-Back	2	80	0	0	1	0	0	53	47301	2	13	72	45248	-1	0	0	0	""	3	2053	66	47314	-67	0																3												
WM080112	672756_fnca	2	1	1	1298578547	1	75.030	75.030	2.0.10.147	2.0.10.242	2.0.10.242	1.0.0.439	7	234	2	3	Verdana	1	80	0	0	0	WM Stimuli\	0.7	842.857142857143	1	655.2	0.9	774.777777777778	1	586.3	1	759.9	0.7	668.714285714286	0.7	773.428571428571	1	635.8	12	328747	3	328736	28	40	328775	-999999	328751	0	24	TrialsPROC	TO_013_TOOL13_BA.png	2	2	4	SessionSelectionList														nonlure	3	Tools	2-Back	3	80	1	0	0	0	1	39	49873	1	13	86	47834	-1	48634	1	800	3	3	2039	52	49886	-53	0																4												
WM080112	672756_fnca	2	1	1	1298578547	1	75.030	75.030	2.0.10.147	2.0.10.242	2.0.10.242	1.0.0.439	7	234	2	3	Verdana	1	80	0	0	0	WM Stimuli\	0.7	842.857142857143	1	655.2	0.9	774.777777777778	1	586.3	1	759.9	0.7	668.714285714286	0.7	773.428571428571	1	635.8	12	328747	3	328736	28	40	328775	-999999	328751	0	24	TrialsPROC	TO_016_TOOL16_BA.png	2	2	5	SessionSelectionList														nonlure	3	Tools	2-Back	4	80	2	0	0	0	2	39	52458	3	14	85	50419	-1	51208	1	789	3	3	2039	53	52472	-54	0																5												
WM080112	672756_fnca	2	1	1	1298578547	1	75.030	75.030	2.0.10.147	2.0.10.242	2.0.10.242	1.0.0.439	7	234	2	3	Verdana	1	80	0	0	0	WM Stimuli\	0.7	842.857142857143	1	655.2	0.9	774.777777777778	1	586.3	1	759.9	0.7	668.714285714286	0.7	773.428571428571	1	635.8	12	328747	3	328736	28	40	328775	-999999	328751	0	24	TrialsPROC	TO_014_TOOL14_BA.png	2	2	6	SessionSelectionList														lure	3	Tools	2-Back	5	80	3	0	0	0	1	39	55031	1	13	73	52992	-1	53713	0	721	2	3	2039	52	55044	-53	0																6												
WM080112	672756_fnca	2	1	1	1298578547	1	75.030	75.030	2.0.10.147	2.0.10.242	2.0.10.242	1.0.0.439	7	234	2	3	Verdana	1	80	0	0	0	WM Stimuli\	0.7	842.857142857143	1	655.2	0.9	774.777777777778	1	586.3	1	759.9	0.7	668.714285714286	0.7	773.428571428571	1	635.8	12	328747	3	328736	28	40	328775	-999999	328751	0	24	TrialsPROC	TO_016_TOOL16_BA.png	2	2	7	SessionSelectionList														target	2	Tools	2-Back	6	80	4	0	0	0	1	39	57590	2	13	59	55551	-1	56491	0	940	3	2	2039	52	57603	-53	0																7												
WM080112	672756_fnca	2	1	1	1298578547	1	75.030	75.030	2.0.10.147	2.0.10.242	2.0.10.242	1.0.0.439	7	234	2	3	Verdana	1	80	0	0	0	WM Stimuli\	0.7	842.857142857143	1	655.2	0.9	774.777777777778	1	586.3	1	759.9	0.7	668.714285714286	0.7	773.428571428571	1	635.8	12	328747	3	328736	28	40	328775	-999999	328751	0	24	TrialsPROC	TO_018_TOOL18_BA.png	2	2	8	SessionSelectionList														nonlure	3	Tools	2-Back	7	80	5	0	0	0	2	39	60175	2	14	85	58136	-1	58918	1	782	3	3	2039	53	60189	-54	0																8												
WM080112	672756_fnca	2	1	1	1298578547	1	75.030	75.030	2.0.10.147	2.0.10.242	2.0.10.242	1.0.0.439	7	234	2	3	Verdana	1	80	0	0	0	WM Stimuli\	0.7	842.857142857143	1	655.2	0.9	774.777777777778	1	586.3	1	759.9	0.7	668.714285714286	0.7	773.428571428571	1	635.8	12	328747	3	328736	28	40	328775	-999999	328751	0	24	TrialsPROC	TO_017_TOOL17_BA.png	2	2	9	SessionSelectionList														nonlure	3	Tools	2-Back	8	80	6	0	0	0	3	39	62761	2	14	86	60722	-1	61327	1	605	3	3	2039	53	62775	-54	0																9												
WM080112	672756_fnca	2	1	1	1298578547	1	75.030	75.030	2.0.10.147	2.0.10.242	2.0.10.242	1.0.0.439	7	234	2	3	Verdana	1	80	0	0	0	WM Stimuli\	0.7	842.857142857143	1	655.2	0.9	774.777777777778	1	586.3	1	759.9	0.7	668.714285714286	0.7	773.428571428571	1	635.8	12	328747	3	328736	28	40	328775	-999999	328751	0	24	TrialsPROC	TO_018_TOOL18_BA.png	2	2	10	SessionSelectionList														target	2	Tools	2-Back	9	80	7	0	0	0	1	39	65320	1	14	59	63281	-1	64052	1	771	2	2	2039	53	65334	-54	0																10												
WM080112	672756_fnca	2	1	1	1298578547	1	75.030	75.030	2.0.10.147	2.0.10.242	2.0.10.242	1.0.0.439	7	234	2	3	Verdana	1	80	0	0	0	WM Stimuli\	0.7	842.857142857143	1	655.2	0.9	774.777777777778	1	586.3	1	759.9	0.7	668.714285714286	0.7	773.428571428571	1	635.8	12	328747	3	328736	28	40	328775	-999999	328751	0	24	TrialsPROC	TO_015_TOOL15_BA.png	2	2	11	SessionSelectionList														nonlure	3	Tools	2-Back	10	80	8	0	0	0	1	40	67906	1	13	85	65866	-1	66770	1	904	3	3	2040	53	67919	-54	0																11												
WM080112	672756_fnca	2	1	1	1298578547	1	75.030	75.030	2.0.10.147	2.0.10.242	2.0.10.242	1.0.0.439	7	234	2	3	Verdana	1	80	0	0	0	WM Stimuli\	0.7	842.857142857143	1	655.2	0.9	774.777777777778	1	586.3	1	759.9	0.7	668.714285714286	0.7	773.428571428571	1	635.8	12	328747	3	328736	28	40	328775	-999999	328751	0	24	TrialsPROC	TO_017_TOOL17_BA.png	2	2	12	SessionSelectionList														lure	3	Tools	2-Back	11	80	9	0	0	0	2	40	70465	2	13	59	68425	-1	69188	1	763	3	3	2040	53	70478	-54	0																12												
WM080112	672756_fnca	2	1	1	1298578547	1	75.030	75.030	2.0.10.147	2.0.10.242	2.0.10.242	1.0.0.439	7	234	2	3	Verdana	1	80	0	0	0	WM Stimuli\	0.7	842.857142857143	1	655.2	0.9	774.777777777778	1	586.3	1	759.9	0.7	668.714285714286	0.7	773.428571428571	1	635.8	12	328747	3	328736	28	40	328775	-999999	328751	0	25	Cue0BackPROC	BP_013_BP7_BA.png	2	2	13	SessionSelectionList																																										46	70971	-47	0												13												
WM080112	672756_fnca	2	1	1	1298578547	1	75.030	75.030	2.0.10.147	2.0.10.242	2.0.10.242	1.0.0.439	7	234	2	3	Verdana	1	80	0	0	0	WM Stimuli\	0.7	842.857142857143	1	655.2	0.9	774.777777777778	1	586.3	1	759.9	0.7	668.714285714286	0.7	773.428571428571	1	635.8	12	328747	3	328736	28	40	328775	-999999	328751	0	26	TrialsPROC	BP_015_H10-T_BA.png	2	2	14	SessionSelectionList														nonlure	3	Body	0-Back	12	80	10	0	0	100	3	39	75542	2	14	78	73503	-1	74308	1	805	3	3	2039	53	75556	-54	0																14												
WM080112	672756_fnca	2	1	1	1298578547	1	75.030	75.030	2.0.10.147	2.0.10.242	2.0.10.242	1.0.0.439	7	234	2	3	Verdana	1	80	0	0	0	WM Stimuli\	0.7	842.857142857143	1	655.2	0.9	774.777777777778	1	586.3	1	759.9	0.7	668.714285714286	0.7	773.428571428571	1	635.8	12	328747	3	328736	28	40	328775	-999999	328751	0	26	TrialsPROC	BP_018_H13-T_BA.png	2	2	15	SessionSelectionList														nonlure	3	Body	0-Back	13	80	11	0	0	100	4	39	78128	3	14	86	76089	-1	76868	1	779	3	3	2039	53	78142	-54	0																15												
WM080112	672756_fnca	2	1	1	1298578547	1	75.030	75.030	2.0.10.147	2.0.10.242	2.0.10.242	1.0.0.439	7	234	2	3	Verdana	1	80	0	0	0	WM Stimuli\	0.7	842.857142857143	1	655.2	0.9	774.777777777778	1	586.3	1	759.9	0.7	668.714285714286	0.7	773.428571428571	1	635.8	12	328747	3	328736	28	40	328775	-999999	328751	0	26	TrialsPROC	BP_014_BP9_BA.png	2	2	16	SessionSelectionList														nonlure	3	Body	0-Back	14	80	12	0	0	100	5	39	80700	2	14	72	78661	-1	79498	1	837	3	3	2039	53	80714	-54	0																16												
WM080112	672756_fnca	2	1	1	1298578547	1	75.030	75.030	2.0.10.147	2.0.10.242	2.0.10.242	1.0.0.439	7	234	2	3	Verdana	1	80	0	0	0	WM Stimuli\	0.7	842.857142857143	1	655.2	0.9	774.777777777778	1	586.3	1	759.9	0.7	668.714285714286	0.7	773.428571428571	1	635.8	12	328747	3	328736	28	40	328775	-999999	328751	0	26	TrialsPROC	BP_018_H13-T_BA.png	2	2	17	SessionSelectionList														lure	3	Body	0-Back	15	80	13	0	0	100	6	39	83259	3	14	59	81220	-1	81901	1	681	3	3	2039	53	83273	-54	0																17												
WM080112	672756_fnca	2	1	1	1298578547	1	75.030	75.030	2.0.10.147	2.0.10.242	2.0.10.242	1.0.0.439	7	234	2	3	Verdana	1	80	0	0	0	WM Stimuli\	0.7	842.857142857143	1	655.2	0.9	774.777777777778	1	586.3	1	759.9	0.7	668.714285714286	0.7	773.428571428571	1	635.8	12	328747	3	328736	28	40	328775	-999999	328751	0	26	TrialsPROC	BP_013_BP7_BA.png	2	2	18	SessionSelectionList														target	2	Body	0-Back	16	80	14	0	0	100	1	39	85818	3	14	59	83779	-1	84294	1	515	2	2	2039	53	85832	-54	0																18												
WM080112	672756_fnca	2	1	1	1298578547	1	75.030	75.030	2.0.10.147	2.0.10.242	2.0.10.242	1.0.0.439	7	234	2	3	Verdana	1	80	0	0	0	WM Stimuli\	0.7	842.857142857143	1	655.2	0.9	774.777777777778	1	586.3	1	759.9	0.7	668.714285714286	0.7	773.428571428571	1	635.8	12	328747	3	328736	28	40	328775	-999999	328751	0	26	TrialsPROC	BP_015_H10-T_BA.png	2	2	19	SessionSelectionList														lure	3	Body	0-Back	17	80	15	0	0	100	1	39	88377	2	14	59	86338	-1	86925	1	587	3	3	2039	53	88391	-54	0																19												
WM080112	672756_fnca	2	1	1	1298578547	1	75.030	75.030	2.0.10.147	2.0.10.242	2.0.10.242	1.0.0.439	7	234	2	3	Verdana	1	80	0	0	0	WM Stimuli\	0.7	842.857142857143	1	655.2	0.9	774.777777777778	1	586.3	1	759.9	0.7	668.714285714286	0.7	773.428571428571	1	635.8	12	328747	3	328736	28	40	328775	-999999	328751	0	26	TrialsPROC	BP_016_H11-T_BA.png	2	2	20	SessionSelectionList														nonlure	3	Body	0-Back	18	80	16	0	0	100	2	40	90950	2	13	72	88910	-1	89407	1	497	3	3	2040	53	90963	-54	0																20												
WM080112	672756_fnca	2	1	1	1298578547	1	75.030	75.030	2.0.10.147	2.0.10.242	2.0.10.242	1.0.0.439	7	234	2	3	Verdana	1	80	0	0	0	WM Stimuli\	0.7	842.857142857143	1	655.2	0.9	774.777777777778	1	586.3	1	759.9	0.7	668.714285714286	0.7	773.428571428571	1	635.8	12	328747	3	328736	28	40	328775	-999999	328751	0	26	TrialsPROC	BP_013_BP7_BA.png	2	2	21	SessionSelectionList														target	2	Body	0-Back	19	80	17	0	0	100	1	40	93509	2	13	59	91469	-1	92004	1	535	2	2	2040	53	93522	-54	0																21												
WM080112	672756_fnca	2	1	1	1298578547	1	75.030	75.030	2.0.10.147	2.0.10.242	2.0.10.242	1.0.0.439	7	234	2	3	Verdana	1	80	0	0	0	WM Stimuli\	0.7	842.857142857143	1	655.2	0.9	774.777777777778	1	586.3	1	759.9	0.7	668.714285714286	0.7	773.428571428571	1	635.8	12	328747	3	328736	28	40	328775	-999999	328751	0	26	TrialsPROC	BP_017_H12-T_BA.png	2	2	22	SessionSelectionList														nonlure	3	Body	0-Back	20	80	18	0	0	100	1	39	96081	2	14	73	94042	-1	94671	1	629	3	3	2039	53	96095	-54	0																22												
WM080112	672756_fnca	2	1	1	1298578547	1	75.030	75.030	2.0.10.147	2.0.10.242	2.0.10.242	1.0.0.439	7	234	2	3	Verdana	1	80	0	0	0	WM Stimuli\	0.7	842.857142857143	1	655.2	0.9	774.777777777778	1	586.3	1	759.9	0.7	668.714285714286	0.7	773.428571428571	1	635.8	12	328747	3	328736	28	40	328775	-999999	328751	0	26	TrialsPROC	BP_014_BP9_BA.png	2	2	23	SessionSelectionList														lure	3	Body	0-Back	21	80	19	0	0	100	2	39	98640	2	14	59	96601	-1	97288	1	687	3	3	2039	53	98654	-54	0																23												
WM080112	672756_fnca	2	1	1	1298578547	1	75.030	75.030	2.0.10.147	2.0.10.242	2.0.10.242	1.0.0.439	7	234	2	3	Verdana	1	80	0	0	0	WM Stimuli\	0.7	842.857142857143	1	655.2	0.9	774.777777777778	1	586.3	1	759.9	0.7	668.714285714286	0.7	773.428571428571	1	635.8	12	328747	3	328736	28	40	328775	-999999	328751	0	27	Fix15secPROC	""	2	2	24	SessionSelectionList																																															6	99107	-7	0							24												
WM080112	672756_fnca	2	1	1	1298578547	1	75.030	75.030	2.0.10.147	2.0.10.242	2.0.10.242	1.0.0.439	7	234	2	3	Verdana	1	80	0	0	0	WM Stimuli\	0.7	842.857142857143	1	655.2	0.9	774.777777777778	1	586.3	1	759.9	0.7	668.714285714286	0.7	773.428571428571	1	635.8	12	328747	3	328736	28	40	328775	-999999	328751	0	28	Cue2BackPROC	""	2	2	25	SessionSelectionList									13	114114	-14	0																																													25												
WM080112	672756_fnca	2	1	1	1298578547	1	75.030	75.030	2.0.10.147	2.0.10.242	2.0.10.242	1.0.0.439	7	234	2	3	Verdana	1	80	0	0	0	WM Stimuli\	0.7	842.857142857143	1	655.2	0.9	774.777777777778	1	586.3	1	759.9	0.7	668.714285714286	0.7	773.428571428571	1	635.8	12	328747	3	328736	28	40	328775	-999999	328751	0	29	TrialsPROC	FC_015_M8.png	2	2	26	SessionSelectionList														nonlure	3	Face	2-Back	22	80	20	0	0	100	3	39	118725	2	14	85	116686	-1	118020	1	1334	3	3	2039	53	118739	-54	0																26												
WM080112	672756_fnca	2	1	1	1298578547	1	75.030	75.030	2.0.10.147	2.0.10.242	2.0.10.242	1.0.0.439	7	234	2	3	Verdana	1	80	0	0	0	WM Stimuli\	0.7	842.857142857143	1	655.2	0.9	774.777777777778	1	586.3	1	759.9	0.7	668.714285714286	0.7	773.428571428571	1	635.8	12	328747	3	328736	28	40	328775	-999999	328751	0	29	TrialsPROC	FC_018_F9.png	2	2	27	SessionSelectionList														nonlure	3	Face	2-Back	23	80	21	0	0	100	4	39	121324	2	14	99	119285	-1	119806	1	521	3	3	2039	53	121338	-54	0																27												
WM080112	672756_fnca	2	1	1	1298578547	1	75.030	75.030	2.0.10.147	2.0.10.242	2.0.10.242	1.0.0.439	7	234	2	3	Verdana	1	80	0	0	0	WM Stimuli\	0.7	842.857142857143	1	655.2	0.9	774.777777777778	1	586.3	1	759.9	0.7	668.714285714286	0.7	773.428571428571	1	635.8	12	328747	3	328736	28	40	328775	-999999	328751	0	29	TrialsPROC	FC_018_F9.png	2	2	28	SessionSelectionList														lure	3	Face	2-Back	24	80	22	0	0	100	5	39	123896	2	14	72	121857	-1	122590	1	733	3	3	2039	53	123910	-54	0																28												
WM080112	672756_fnca	2	1	1	1298578547	1	75.030	75.030	2.0.10.147	2.0.10.242	2.0.10.242	1.0.0.439	7	234	2	3	Verdana	1	80	0	0	0	WM Stimuli\	0.7	842.857142857143	1	655.2	0.9	774.777777777778	1	586.3	1	759.9	0.7	668.714285714286	0.7	773.428571428571	1	635.8	12	328747	3	328736	28	40	328775	-999999	328751	0	29	TrialsPROC	FC_017_M9.png	2	2	29	SessionSelectionList														nonlure	3	Face	2-Back	25	80	23	0	0	100	6	39	126482	3	14	86	124443	-1	125175	1	732	3	3	2039	53	126496	-54	0																29												
WM080112	672756_fnca	2	1	1	1298578547	1	75.030	75.030	2.0.10.147	2.0.10.242	2.0.10.242	1.0.0.439	7	234	2	3	Verdana	1	80	0	0	0	WM Stimuli\	0.7	842.857142857143	1	655.2	0.9	774.777777777778	1	586.3	1	759.9	0.7	668.714285714286	0.7	773.428571428571	1	635.8	12	328747	3	328736	28	40	328775	-999999	328751	0	29	TrialsPROC	FC_017_M9.png	2	2	30	SessionSelectionList														lure	3	Face	2-Back	26	80	24	0	0	100	7	39	129054	3	14	72	127015	-1	128003	1	988	3	3	2039	53	129068	-54	0																30												
WM080112	672756_fnca	2	1	1	1298578547	1	75.030	75.030	2.0.10.147	2.0.10.242	2.0.10.242	1.0.0.439	7	234	2	3	Verdana	1	80	0	0	0	WM Stimuli\	0.7	842.857142857143	1	655.2	0.9	774.777777777778	1	586.3	1	759.9	0.7	668.714285714286	0.7	773.428571428571	1	635.8	12	328747	3	328736	28	40	328775	-999999	328751	0	29	TrialsPROC	FC_016_F8.png	2	2	31	SessionSelectionList														nonlure	3	Face	2-Back	27	80	25	0	0	100	8	40	131627	2	13	72	129587	-1	130345	1	758	3	3	2040	53	131640	-54	0																31												
WM080112	672756_fnca	2	1	1	1298578547	1	75.030	75.030	2.0.10.147	2.0.10.242	2.0.10.242	1.0.0.439	7	234	2	3	Verdana	1	80	0	0	0	WM Stimuli\	0.7	842.857142857143	1	655.2	0.9	774.777777777778	1	586.3	1	759.9	0.7	668.714285714286	0.7	773.428571428571	1	635.8	12	328747	3	328736	28	40	328775	-999999	328751	0	29	TrialsPROC	FC_013_M7.png	2	2	32	SessionSelectionList														nonlure	3	Face	2-Back	28	80	26	0	0	100	9	40	134226	1	13	99	132186	-1	132806	1	620	3	3	2040	53	134239	-54	0																32												
WM080112	672756_fnca	2	1	1	1298578547	1	75.030	75.030	2.0.10.147	2.0.10.242	2.0.10.242	1.0.0.439	7	234	2	3	Verdana	1	80	0	0	0	WM Stimuli\	0.7	842.857142857143	1	655.2	0.9	774.777777777778	1	586.3	1	759.9	0.7	668.714285714286	0.7	773.428571428571	1	635.8	12	328747	3	328736	28	40	328775	-999999	328751	0	29	TrialsPROC	FC_014_F7.png	2	2	33	SessionSelectionList														nonlure	3	Face	2-Back	29	80	27	0	0	100	10	39	136798	1	14	73	134759	-1	135445	1	686	3	3	2039	53	136812	-54	0																33												
WM080112	672756_fnca	2	1	1	1298578547	1	75.030	75.030	2.0.10.147	2.0.10.242	2.0.10.242	1.0.0.439	7	234	2	3	Verdana	1	80	0	0	0	WM Stimuli\	0.7	842.857142857143	1	655.2	0.9	774.777777777778	1	586.3	1	759.9	0.7	668.714285714286	0.7	773.428571428571	1	635.8	12	328747	3	328736	28	40	328775	-999999	328751	0	29	TrialsPROC	FC_013_M7.png	2	2	34	SessionSelectionList														target	2	Face	2-Back	30	80	28	0	0	100	1	39	139370	3	14	72	137331	-1	137932	1	601	2	2	2039	53	139384	-54	0																34												
WM080112	672756_fnca	2	1	1	1298578547	1	75.030	75.030	2.0.10.147	2.0.10.242	2.0.10.242	1.0.0.439	7	234	2	3	Verdana	1	80	0	0	0	WM Stimuli\	0.7	842.857142857143	1	655.2	0.9	774.777777777778	1	586.3	1	759.9	0.7	668.714285714286	0.7	773.428571428571	1	635.8	12	328747	3	328736	28	40	328775	-999999	328751	0	29	TrialsPROC	FC_014_F7.png	2	2	35	SessionSelectionList														target	2	Face	2-Back	31	80	29	0	0	100	1	40	141943	1	13	72	139903	-1	140348	0	445	3	2	2040	53	141956	-54	0																35												
WM080112	672756_fnca	2	1	1	1298578547	1	75.030	75.030	2.0.10.147	2.0.10.242	2.0.10.242	1.0.0.439	7	234	2	3	Verdana	1	80	0	0	0	WM Stimuli\	0.7	842.857142857143	1	655.2	0.9	774.777777777778	1	586.3	1	759.9	0.7	668.714285714286	0.7	773.428571428571	1	635.8	12	328747	3	328736	28	40	328775	-999999	328751	0	30	Cue0BackPROC	TO_019_TOOL19_BA.png	2	2	36	SessionSelectionList																																										33	142436	-34	0												36												
WM080112	672756_fnca	2	1	1	1298578547	1	75.030	75.030	2.0.10.147	2.0.10.242	2.0.10.242	1.0.0.439	7	234	2	3	Verdana	1	80	0	0	0	WM Stimuli\	0.7	842.857142857143	1	655.2	0.9	774.777777777778	1	586.3	1	759.9	0.7	668.714285714286	0.7	773.428571428571	1	635.8	12	328747	3	328736	28	40	328775	-999999	328751	0	31	TrialsPROC	TO_019_TOOL19_BA.png	2	2	37	SessionSelectionList														target	2	Tools	0-Back	32	80	30	0	0	100	1	39	146994	2	13	52	144955	-1	146236	1	1281	2	2	2039	52	147007	-53	0																37												
WM080112	672756_fnca	2	1	1	1298578547	1	75.030	75.030	2.0.10.147	2.0.10.242	2.0.10.242	1.0.0.439	7	234	2	3	Verdana	1	80	0	0	0	WM Stimuli\	0.7	842.857142857143	1	655.2	0.9	774.777777777778	1	586.3	1	759.9	0.7	668.714285714286	0.7	773.428571428571	1	635.8	12	328747	3	328736	28	40	328775	-999999	328751	0	31	TrialsPROC	TO_024_TOOL24_BA.png	2	2	38	SessionSelectionList														nonlure	3	Tools	0-Back	33	80	31	0	0	100	1	39	149579	2	14	85	147540	-1	148005	1	465	3	3	2039	53	149593	-54	0																38												
WM080112	672756_fnca	2	1	1	1298578547	1	75.030	75.030	2.0.10.147	2.0.10.242	2.0.10.242	1.0.0.439	7	234	2	3	Verdana	1	80	0	0	0	WM Stimuli\	0.7	842.857142857143	1	655.2	0.9	774.777777777778	1	586.3	1	759.9	0.7	668.714285714286	0.7	773.428571428571	1	635.8	12	328747	3	328736	28	40	328775	-999999	328751	0	31	TrialsPROC	TO_019_TOOL19_BA.png	2	2	39	SessionSelectionList														target	2	Tools	0-Back	34	80	32	0	0	100	1	39	152138	2	14	59	150099	-1	150605	1	506	2	2	2039	53	152152	-54	0																39												
WM080112	672756_fnca	2	1	1	1298578547	1	75.030	75.030	2.0.10.147	2.0.10.242	2.0.10.242	1.0.0.439	7	234	2	3	Verdana	1	80	0	0	0	WM Stimuli\	0.7	842.857142857143	1	655.2	0.9	774.777777777778	1	586.3	1	759.9	0.7	668.714285714286	0.7	773.428571428571	1	635.8	12	328747	3	328736	28	40	328775	-999999	328751	0	31	TrialsPROC	TO_023_TOOL23_BA.png	2	2	40	SessionSelectionList														nonlure	3	Tools	0-Back	35	80	33	0	0	100	1	39	154724	1	14	86	152685	-1	153163	1	478	3	3	2039	53	154738	-54	0																40												
WM080112	672756_fnca	2	1	1	1298578547	1	75.030	75.030	2.0.10.147	2.0.10.242	2.0.10.242	1.0.0.439	7	234	2	3	Verdana	1	80	0	0	0	WM Stimuli\	0.7	842.857142857143	1	655.2	0.9	774.777777777778	1	586.3	1	759.9	0.7	668.714285714286	0.7	773.428571428571	1	635.8	12	328747	3	328736	28	40	328775	-999999	328751	0	31	TrialsPROC	TO_020_TOOL20_BA.png	2	2	41	SessionSelectionList														nonlure	3	Tools	0-Back	36	80	34	0	0	100	2	40	157310	2	13	85	155270	-1	155746	1	476	3	3	2040	53	157323	-54	0																41												
WM080112	672756_fnca	2	1	1	1298578547	1	75.030	75.030	2.0.10.147	2.0.10.242	2.0.10.242	1.0.0.439	7	234	2	3	Verdana	1	80	0	0	0	WM Stimuli\	0.7	842.857142857143	1	655.2	0.9	774.777777777778	1	586.3	1	759.9	0.7	668.714285714286	0.7	773.428571428571	1	635.8	12	328747	3	328736	28	40	328775	-999999	328751	0	31	TrialsPROC	TO_020_TOOL20_BA.png	2	2	42	SessionSelectionList														lure	3	Tools	0-Back	37	80	35	0	0	100	3	53	159882	1	14	59	157829	-1	158716	1	887	3	3	2053	67	159896	-68	0																42												
WM080112	672756_fnca	2	1	1	1298578547	1	75.030	75.030	2.0.10.147	2.0.10.242	2.0.10.242	1.0.0.439	7	234	2	3	Verdana	1	80	0	0	0	WM Stimuli\	0.7	842.857142857143	1	655.2	0.9	774.777777777778	1	586.3	1	759.9	0.7	668.714285714286	0.7	773.428571428571	1	635.8	12	328747	3	328736	28	40	328775	-999999	328751	0	31	TrialsPROC	TO_022_TOOL22_BA.png	2	2	43	SessionSelectionList														nonlure	3	Tools	0-Back	38	80	36	0	0	100	4	40	162468	1	13	99	160428	-1	161118	1	690	3	3	2040	53	162481	-54	0																43												
WM080112	672756_fnca	2	1	1	1298578547	1	75.030	75.030	2.0.10.147	2.0.10.242	2.0.10.242	1.0.0.439	7	234	2	3	Verdana	1	80	0	0	0	WM Stimuli\	0.7	842.857142857143	1	655.2	0.9	774.777777777778	1	586.3	1	759.9	0.7	668.714285714286	0.7	773.428571428571	1	635.8	12	328747	3	328736	28	40	328775	-999999	328751	0	31	TrialsPROC	TO_022_TOOL22_BA.png	2	2	44	SessionSelectionList														lure	3	Tools	0-Back	39	80	37	0	0	100	5	40	165027	1	13	59	162987	-1	163578	1	591	3	3	2040	53	165040	-54	0																44												
WM080112	672756_fnca	2	1	1	1298578547	1	75.030	75.030	2.0.10.147	2.0.10.242	2.0.10.242	1.0.0.439	7	234	2	3	Verdana	1	80	0	0	0	WM Stimuli\	0.7	842.857142857143	1	655.2	0.9	774.777777777778	1	586.3	1	759.9	0.7	668.714285714286	0.7	773.428571428571	1	635.8	12	328747	3	328736	28	40	328775	-999999	328751	0	31	TrialsPROC	TO_021_TOOL21_BA.png	2	2	45	SessionSelectionList														nonlure	3	Tools	0-Back	40	80	38	0	0	100	6	39	167612	3	14	86	165573	-1	166100	1	527	3	3	2039	53	167626	-54	0																45												
WM080112	672756_fnca	2	1	1	1298578547	1	75.030	75.030	2.0.10.147	2.0.10.242	2.0.10.242	1.0.0.439	7	234	2	3	Verdana	1	80	0	0	0	WM Stimuli\	0.7	842.857142857143	1	655.2	0.9	774.777777777778	1	586.3	1	759.9	0.7	668.714285714286	0.7	773.428571428571	1	635.8	12	328747	3	328736	28	40	328775	-999999	328751	0	31	TrialsPROC	TO_021_TOOL21_BA.png	2	2	46	SessionSelectionList														lure	3	Tools	0-Back	41	80	39	0	0	100	7	39	170171	2	14	59	168132	-1	168589	1	457	3	3	2039	53	170185	-54	0																46												
WM080112	672756_fnca	2	1	1	1298578547	1	75.030	75.030	2.0.10.147	2.0.10.242	2.0.10.242	1.0.0.439	7	234	2	3	Verdana	1	80	0	0	0	WM Stimuli\	0.7	842.857142857143	1	655.2	0.9	774.777777777778	1	586.3	1	759.9	0.7	668.714285714286	0.7	773.428571428571	1	635.8	12	328747	3	328736	28	40	328775	-999999	328751	0	32	Fix15secPROC	""	2	2	47	SessionSelectionList																																															6	170638	-7	0							47												
WM080112	672756_fnca	2	1	1	1298578547	1	75.030	75.030	2.0.10.147	2.0.10.242	2.0.10.242	1.0.0.439	7	234	2	3	Verdana	1	80	0	0	0	WM Stimuli\	0.7	842.857142857143	1	655.2	0.9	774.777777777778	1	586.3	1	759.9	0.7	668.714285714286	0.7	773.428571428571	1	635.8	12	328747	3	328736	28	40	328775	-999999	328751	0	33	Cue2BackPROC	""	2	2	48	SessionSelectionList									13	185645	-14	0																																													48												
WM080112	672756_fnca	2	1	1	1298578547	1	75.030	75.030	2.0.10.147	2.0.10.242	2.0.10.242	1.0.0.439	7	234	2	3	Verdana	1	80	0	0	0	WM Stimuli\	0.7	842.857142857143	1	655.2	0.9	774.777777777778	1	586.3	1	759.9	0.7	668.714285714286	0.7	773.428571428571	1	635.8	12	328747	3	328736	28	40	328775	-999999	328751	0	34	TrialsPROC	BP_020_H17-T_BA.png	2	2	49	SessionSelectionList														nonlure	3	Body	2-Back	42	80	40	0	0	100	8	39	190256	3	14	85	188217	-1	188884	1	667	3	3	2039	53	190270	-54	0																49												
WM080112	672756_fnca	2	1	1	1298578547	1	75.030	75.030	2.0.10.147	2.0.10.242	2.0.10.242	1.0.0.439	7	234	2	3	Verdana	1	80	0	0	0	WM Stimuli\	0.7	842.857142857143	1	655.2	0.9	774.777777777778	1	586.3	1	759.9	0.7	668.714285714286	0.7	773.428571428571	1	635.8	12	328747	3	328736	28	40	328775	-999999	328751	0	34	TrialsPROC	BP_019_H14-T_BA.png	2	2	50	SessionSelectionList														nonlure	3	Body	2-Back	43	80	41	0	0	100	9	39	192842	2	14	86	190803	-1	191611	1	808	3	3	2039	53	192856	-54	0																50												
WM080112	672756_fnca	2	1	1	1298578547	1	75.030	75.030	2.0.10.147	2.0.10.242	2.0.10.242	1.0.0.439	7	234	2	3	Verdana	1	80	0	0	0	WM Stimuli\	0.7	842.857142857143	1	655.2	0.9	774.777777777778	1	586.3	1	759.9	0.7	668.714285714286	0.7	773.428571428571	1	635.8	12	328747	3	328736	28	40	328775	-999999	328751	0	34	TrialsPROC	BP_020_H17-T_BA.png	2	2	51	SessionSelectionList														target	2	Body	2-Back	44	80	42	0	0	100	1	39	195401	1	14	59	193362	-1	193998	1	636	2	2	2039	53	195415	-54	0																51												
WM080112	672756_fnca	2	1	1	1298578547	1	75.030	75.030	2.0.10.147	2.0.10.242	2.0.10.242	1.0.0.439	7	234	2	3	Verdana	1	80	0	0	0	WM Stimuli\	0.7	842.857142857143	1	655.2	0.9	774.777777777778	1	586.3	1	759.9	0.7	668.714285714286	0.7	773.428571428571	1	635.8	12	328747	3	328736	28	40	328775	-999999	328751	0	34	TrialsPROC	BP_019_H14-T_BA.png	2	2	52	SessionSelectionList														target	2	Body	2-Back	45	80	43	0	0	100	1	39	197960	1	14	59	195921	-1	196547	0	626	3	2	2039	53	197974	-54	0																52												
WM080112	672756_fnca	2	1	1	1298578547	1	75.030	75.030	2.0.10.147	2.0.10.242	2.0.10.242	1.0.0.439	7	234	2	3	Verdana	1	80	0	0	0	WM Stimuli\	0.7	842.857142857143	1	655.2	0.9	774.777777777778	1	586.3	1	759.9	0.7	668.714285714286	0.7	773.428571428571	1	635.8	12	328747	3	328736	28	40	328775	-999999	328751	0	34	TrialsPROC	BP_024_H3-T_BA.png	2	2	53	SessionSelectionList														nonlure	3	Body	2-Back	46	80	44	0	0	100	1	39	200532	3	14	72	198493	-1	199499	0	1006	2	3	2039	53	200546	-54	0																53												
WM080112	672756_fnca	2	1	1	1298578547	1	75.030	75.030	2.0.10.147	2.0.10.242	2.0.10.242	1.0.0.439	7	234	2	3	Verdana	1	80	0	0	0	WM Stimuli\	0.7	842.857142857143	1	655.2	0.9	774.777777777778	1	586.3	1	759.9	0.7	668.714285714286	0.7	773.428571428571	1	635.8	12	328747	3	328736	28	40	328775	-999999	328751	0	34	TrialsPROC	BP_024_H3-T_BA.png	2	2	54	SessionSelectionList														lure	3	Body	2-Back	47	80	45	0	0	100	1	39	203091	2	14	59	201052	-1	201955	1	903	3	3	2039	53	203105	-54	0																54												
WM080112	672756_fnca	2	1	1	1298578547	1	75.030	75.030	2.0.10.147	2.0.10.242	2.0.10.242	1.0.0.439	7	234	2	3	Verdana	1	80	0	0	0	WM Stimuli\	0.7	842.857142857143	1	655.2	0.9	774.777777777778	1	586.3	1	759.9	0.7	668.714285714286	0.7	773.428571428571	1	635.8	12	328747	3	328736	28	40	328775	-999999	328751	0	34	TrialsPROC	BP_025_H5-T_BA.png	2	2	55	SessionSelectionList														nonlure	3	Body	2-Back	48	80	46	0	0	100	2	40	205664	2	13	72	203624	-1	204721	1	1097	3	3	2040	53	205677	-54	0																55												
WM080112	672756_fnca	2	1	1	1298578547	1	75.030	75.030	2.0.10.147	2.0.10.242	2.0.10.242	1.0.0.439	7	234	2	3	Verdana	1	80	0	0	0	WM Stimuli\	0.7	842.857142857143	1	655.2	0.9	774.777777777778	1	586.3	1	759.9	0.7	668.714285714286	0.7	773.428571428571	1	635.8	12	328747	3	328736	28	40	328775	-999999	328751	0	34	TrialsPROC	BP_023_H25-T_BA.png	2	2	56	SessionSelectionList														nonlure	3	Body	2-Back	49	80	47	0	0	100	1	39	208236	2	14	73	206197	-1	207103	0	906	2	3	2039	53	208250	-54	0																56												
WM080112	672756_fnca	2	1	1	1298578547	1	75.030	75.030	2.0.10.147	2.0.10.242	2.0.10.242	1.0.0.439	7	234	2	3	Verdana	1	80	0	0	0	WM Stimuli\	0.7	842.857142857143	1	655.2	0.9	774.777777777778	1	586.3	1	759.9	0.7	668.714285714286	0.7	773.428571428571	1	635.8	12	328747	3	328736	28	40	328775	-999999	328751	0	34	TrialsPROC	BP_022_H24-T_BA.png	2	2	57	SessionSelectionList														nonlure	3	Body	2-Back	50	80	48	0	0	100	1	39	210808	2	14	72	208769	-1	209791	1	1022	3	3	2039	53	210822	-54	0																57												
WM080112	672756_fnca	2	1	1	1298578547	1	75.030	75.030	2.0.10.147	2.0.10.242	2.0.10.242	1.0.0.439	7	234	2	3	Verdana	1	80	0	0	0	WM Stimuli\	0.7	842.857142857143	1	655.2	0.9	774.777777777778	1	586.3	1	759.9	0.7	668.714285714286	0.7	773.428571428571	1	635.8	12	328747	3	328736	28	40	328775	-999999	328751	0	34	TrialsPROC	BP_022_H24-T_BA.png	2	2	58	SessionSelectionList														lure	3	Body	2-Back	51	80	49	0	0	100	2	39	213367	3	14	59	211328	-1	212095	1	767	3	3	2039	53	213381	-54	0																58												
WM080112	672756_fnca	2	1	1	1298578547	1	75.030	75.030	2.0.10.147	2.0.10.242	2.0.10.242	1.0.0.439	7	234	2	3	Verdana	1	80	0	0	0	WM Stimuli\	0.7	842.857142857143	1	655.2	0.9	774.777777777778	1	586.3	1	759.9	0.7	668.714285714286	0.7	773.428571428571	1	635.8	12	328747	3	328736	28	40	328775	-999999	328751	0	35	Cue2BackPROC	""	2	2	59	SessionSelectionList									6	213834	-7	0																																													59												
WM080112	672756_fnca	2	1	1	1298578547	1	75.030	75.030	2.0.10.147	2.0.10.242	2.0.10.242	1.0.0.439	7	234	2	3	Verdana	1	80	0	0	0	WM Stimuli\	0.7	842.857142857143	1	655.2	0.9	774.777777777778	1	586.3	1	759.9	0.7	668.714285714286	0.7	773.428571428571	1	635.8	12	328747	3	328736	28	40	328775	-999999	328751	0	36	TrialsPROC	PL_019_SCENE_05.png	2	2	60	SessionSelectionList														nonlure	3	Place	2-Back	52	80	50	0	0	100	3	39	218445	2	14	78	216406	-1	217869	1	1463	3	3	2039	53	218459	-54	0																60												
WM080112	672756_fnca	2	1	1	1298578547	1	75.030	75.030	2.0.10.147	2.0.10.242	2.0.10.242	1.0.0.439	7	234	2	3	Verdana	1	80	0	0	0	WM Stimuli\	0.7	842.857142857143	1	655.2	0.9	774.777777777778	1	586.3	1	759.9	0.7	668.714285714286	0.7	773.428571428571	1	635.8	12	328747	3	328736	28	40	328775	-999999	328751	0	36	TrialsPROC	PL_017_SCENE_03.png	2	2	61	SessionSelectionList														nonlure	3	Place	2-Back	53	80	51	0	0	100	4	39	221017	2	14	72	218978	-1	219768	1	790	3	3	2039	53	221031	-54	0																61												
WM080112	672756_fnca	2	1	1	1298578547	1	75.030	75.030	2.0.10.147	2.0.10.242	2.0.10.242	1.0.0.439	7	234	2	3	Verdana	1	80	0	0	0	WM Stimuli\	0.7	842.857142857143	1	655.2	0.9	774.777777777778	1	586.3	1	759.9	0.7	668.714285714286	0.7	773.428571428571	1	635.8	12	328747	3	328736	28	40	328775	-999999	328751	0	36	TrialsPROC	PL_017_SCENE_03.png	2	2	62	SessionSelectionList														lure	3	Place	2-Back	54	80	52	0	0	100	5	39	223590	2	13	73	221551	-1	222157	1	606	3	3	2039	52	223603	-53	0																62												
WM080112	672756_fnca	2	1	1	1298578547	1	75.030	75.030	2.0.10.147	2.0.10.242	2.0.10.242	1.0.0.439	7	234	2	3	Verdana	1	80	0	0	0	WM Stimuli\	0.7	842.857142857143	1	655.2	0.9	774.777777777778	1	586.3	1	759.9	0.7	668.714285714286	0.7	773.428571428571	1	635.8	12	328747	3	328736	28	40	328775	-999999	328751	0	36	TrialsPROC	PL_016_SCENE_02.png	2	2	63	SessionSelectionList														nonlure	3	Place	2-Back	55	80	53	0	0	100	6	39	226175	3	14	85	224136	-1	225032	1	896	3	3	2039	53	226189	-54	0																63												
WM080112	672756_fnca	2	1	1	1298578547	1	75.030	75.030	2.0.10.147	2.0.10.242	2.0.10.242	1.0.0.439	7	234	2	3	Verdana	1	80	0	0	0	WM Stimuli\	0.7	842.857142857143	1	655.2	0.9	774.777777777778	1	586.3	1	759.9	0.7	668.714285714286	0.7	773.428571428571	1	635.8	12	328747	3	328736	28	40	328775	-999999	328751	0	36	TrialsPROC	PL_015_SCENE_01.png	2	2	64	SessionSelectionList														nonlure	3	Place	2-Back	56	80	54	0	0	100	7	39	228761	1	14	86	226722	-1	227265	1	543	3	3	2039	53	228775	-54	0																64												
WM080112	672756_fnca	2	1	1	1298578547	1	75.030	75.030	2.0.10.147	2.0.10.242	2.0.10.242	1.0.0.439	7	234	2	3	Verdana	1	80	0	0	0	WM Stimuli\	0.7	842.857142857143	1	655.2	0.9	774.777777777778	1	586.3	1	759.9	0.7	668.714285714286	0.7	773.428571428571	1	635.8	12	328747	3	328736	28	40	328775	-999999	328751	0	36	TrialsPROC	PL_016_SCENE_02.png	2	2	65	SessionSelectionList														target	2	Place	2-Back	57	80	55	0	0	100	1	39	231333	3	14	72	229294	-1	229866	1	572	2	2	2039	53	231347	-54	0																65												
WM080112	672756_fnca	2	1	1	1298578547	1	75.030	75.030	2.0.10.147	2.0.10.242	2.0.10.242	1.0.0.439	7	234	2	3	Verdana	1	80	0	0	0	WM Stimuli\	0.7	842.857142857143	1	655.2	0.9	774.777777777778	1	586.3	1	759.9	0.7	668.714285714286	0.7	773.428571428571	1	635.8	12	328747	3	328736	28	40	328775	-999999	328751	0	36	TrialsPROC	PL_015_SCENE_01.png	2	2	66	SessionSelectionList														target	2	Place	2-Back	58	80	56	0	0	100	2	40	233906	2	13	72	231866	-1	232290	1	424	2	2	2040	53	233919	-54	0																66												
WM080112	672756_fnca	2	1	1	1298578547	1	75.030	75.030	2.0.10.147	2.0.10.242	2.0.10.242	1.0.0.439	7	234	2	3	Verdana	1	80	0	0	0	WM Stimuli\	0.7	842.857142857143	1	655.2	0.9	774.777777777778	1	586.3	1	759.9	0.7	668.714285714286	0.7	773.428571428571	1	635.8	12	328747	3	328736	28	40	328775	-999999	328751	0	36	TrialsPROC	PL_020_SCENE_06.png	2	2	67	SessionSelectionList														nonlure	3	Place	2-Back	59	80	57	0	0	100	1	39	236491	3	14	86	234452	-1	235244	1	792	3	3	2039	53	236505	-54	0																67												
WM080112	672756_fnca	2	1	1	1298578547	1	75.030	75.030	2.0.10.147	2.0.10.242	2.0.10.242	1.0.0.439	7	234	2	3	Verdana	1	80	0	0	0	WM Stimuli\	0.7	842.857142857143	1	655.2	0.9	774.777777777778	1	586.3	1	759.9	0.7	668.714285714286	0.7	773.428571428571	1	635.8	12	328747	3	328736	28	40	328775	-999999	328751	0	36	TrialsPROC	PL_020_SCENE_06.png	2	2	68	SessionSelectionList														lure	3	Place	2-Back	60	80	58	0	0	100	2	40	239064	1	13	72	237024	-1	237844	1	820	3	3	2040	53	239077	-54	0																68												
WM080112	672756_fnca	2	1	1	1298578547	1	75.030	75.030	2.0.10.147	2.0.10.242	2.0.10.242	1.0.0.439	7	234	2	3	Verdana	1	80	0	0	0	WM Stimuli\	0.7	842.857142857143	1	655.2	0.9	774.777777777778	1	586.3	1	759.9	0.7	668.714285714286	0.7	773.428571428571	1	635.8	12	328747	3	328736	28	40	328775	-999999	328751	0	36	TrialsPROC	PL_018_SCENE_04.png	2	2	69	SessionSelectionList														nonlure	3	Place	2-Back	61	80	59	0	0	100	3	39	241649	2	14	86	239610	-1	240303	1	693	3	3	2039	53	241663	-54	0																69												
WM080112	672756_fnca	2	1	1	1298578547	1	75.030	75.030	2.0.10.147	2.0.10.242	2.0.10.242	1.0.0.439	7	234	2	3	Verdana	1	80	0	0	0	WM Stimuli\	0.7	842.857142857143	1	655.2	0.9	774.777777777778	1	586.3	1	759.9	0.7	668.714285714286	0.7	773.428571428571	1	635.8	12	328747	3	328736	28	40	328775	-999999	328751	0	37	Fix15secPROC	""	2	2	70	SessionSelectionList																																															6	242116	-7	0							70												
WM080112	672756_fnca	2	1	1	1298578547	1	75.030	75.030	2.0.10.147	2.0.10.242	2.0.10.242	1.0.0.439	7	234	2	3	Verdana	1	80	0	0	0	WM Stimuli\	0.7	842.857142857143	1	655.2	0.9	774.777777777778	1	586.3	1	759.9	0.7	668.714285714286	0.7	773.428571428571	1	635.8	12	328747	3	328736	28	40	328775	-999999	328751	0	38	Cue0BackPROC	FC_020_F10.png	2	2	71	SessionSelectionList																																										40	257150	-41	0												71												
WM080112	672756_fnca	2	1	1	1298578547	1	75.030	75.030	2.0.10.147	2.0.10.242	2.0.10.242	1.0.0.439	7	234	2	3	Verdana	1	80	0	0	0	WM Stimuli\	0.7	842.857142857143	1	655.2	0.9	774.777777777778	1	586.3	1	759.9	0.7	668.714285714286	0.7	773.428571428571	1	635.8	12	328747	3	328736	28	40	328775	-999999	328751	0	39	TrialsPROC	FC_024_F12.png	2	2	72	SessionSelectionList														nonlure	3	Face	0-Back	62	80	60	0	0	100	4	39	261734	3	14	85	259695	-1	261014	1	1319	3	3	2039	53	261748	-54	0																72												
WM080112	672756_fnca	2	1	1	1298578547	1	75.030	75.030	2.0.10.147	2.0.10.242	2.0.10.242	1.0.0.439	7	234	2	3	Verdana	1	80	0	0	0	WM Stimuli\	0.7	842.857142857143	1	655.2	0.9	774.777777777778	1	586.3	1	759.9	0.7	668.714285714286	0.7	773.428571428571	1	635.8	12	328747	3	328736	28	40	328775	-999999	328751	0	39	TrialsPROC	FC_023_M12.png	2	2	73	SessionSelectionList														nonlure	3	Face	0-Back	63	80	61	0	0	100	5	39	264320	3	14	86	262281	-1	262904	1	623	3	3	2039	53	264334	-54	0																73												
WM080112	672756_fnca	2	1	1	1298578547	1	75.030	75.030	2.0.10.147	2.0.10.242	2.0.10.242	1.0.0.439	7	234	2	3	Verdana	1	80	0	0	0	WM Stimuli\	0.7	842.857142857143	1	655.2	0.9	774.777777777778	1	586.3	1	759.9	0.7	668.714285714286	0.7	773.428571428571	1	635.8	12	328747	3	328736	28	40	328775	-999999	328751	0	39	TrialsPROC	FC_020_F10.png	2	2	74	SessionSelectionList														target	2	Face	0-Back	64	80	62	0	0	100	1	39	266892	2	14	72	264853	-1	265391	1	538	2	2	2039	53	266906	-54	0																74												
WM080112	672756_fnca	2	1	1	1298578547	1	75.030	75.030	2.0.10.147	2.0.10.242	2.0.10.242	1.0.0.439	7	234	2	3	Verdana	1	80	0	0	0	WM Stimuli\	0.7	842.857142857143	1	655.2	0.9	774.777777777778	1	586.3	1	759.9	0.7	668.714285714286	0.7	773.428571428571	1	635.8	12	328747	3	328736	28	40	328775	-999999	328751	0	39	TrialsPROC	FC_024_F12.png	2	2	75	SessionSelectionList														lure	3	Face	0-Back	65	80	63	0	0	100	1	40	269465	2	13	72	267425	-1	267867	1	442	3	3	2040	53	269478	-54	0																75												
WM080112	672756_fnca	2	1	1	1298578547	1	75.030	75.030	2.0.10.147	2.0.10.242	2.0.10.242	1.0.0.439	7	234	2	3	Verdana	1	80	0	0	0	WM Stimuli\	0.7	842.857142857143	1	655.2	0.9	774.777777777778	1	586.3	1	759.9	0.7	668.714285714286	0.7	773.428571428571	1	635.8	12	328747	3	328736	28	40	328775	-999999	328751	0	39	TrialsPROC	FC_020_F10.png	2	2	76	SessionSelectionList														target	2	Face	0-Back	66	80	64	0	0	100	1	39	272037	1	14	73	269998	-1	270519	1	521	2	2	2039	53	272051	-54	0																76												
WM080112	672756_fnca	2	1	1	1298578547	1	75.030	75.030	2.0.10.147	2.0.10.242	2.0.10.242	1.0.0.439	7	234	2	3	Verdana	1	80	0	0	0	WM Stimuli\	0.7	842.857142857143	1	655.2	0.9	774.777777777778	1	586.3	1	759.9	0.7	668.714285714286	0.7	773.428571428571	1	635.8	12	328747	3	328736	28	40	328775	-999999	328751	0	39	TrialsPROC	FC_022_F11.png	2	2	77	SessionSelectionList														nonlure	3	Face	0-Back	67	80	65	0	0	100	1	40	274623	2	13	85	272583	-1	273038	1	455	3	3	2040	53	274636	-54	0																77												
WM080112	672756_fnca	2	1	1	1298578547	1	75.030	75.030	2.0.10.147	2.0.10.242	2.0.10.242	1.0.0.439	7	234	2	3	Verdana	1	80	0	0	0	WM Stimuli\	0.7	842.857142857143	1	655.2	0.9	774.777777777778	1	586.3	1	759.9	0.7	668.714285714286	0.7	773.428571428571	1	635.8	12	328747	3	328736	28	40	328775	-999999	328751	0	39	TrialsPROC	FC_023_M12.png	2	2	78	SessionSelectionList														lure	3	Face	0-Back	68	80	66	0	0	100	2	39	277195	1	14	73	275156	-1	275609	1	453	3	3	2039	53	277209	-54	0																78												
WM080112	672756_fnca	2	1	1	1298578547	1	75.030	75.030	2.0.10.147	2.0.10.242	2.0.10.242	1.0.0.439	7	234	2	3	Verdana	1	80	0	0	0	WM Stimuli\	0.7	842.857142857143	1	655.2	0.9	774.777777777778	1	586.3	1	759.9	0.7	668.714285714286	0.7	773.428571428571	1	635.8	12	328747	3	328736	28	40	328775	-999999	328751	0	39	TrialsPROC	FC_021_M11.png	2	2	79	SessionSelectionList														nonlure	3	Face	0-Back	69	80	67	0	0	100	3	39	279794	2	13	99	277755	-1	278157	1	402	3	3	2039	52	279807	-53	0																79												
WM080112	672756_fnca	2	1	1	1298578547	1	75.030	75.030	2.0.10.147	2.0.10.242	2.0.10.242	1.0.0.439	7	234	2	3	Verdana	1	80	0	0	0	WM Stimuli\	0.7	842.857142857143	1	655.2	0.9	774.777777777778	1	586.3	1	759.9	0.7	668.714285714286	0.7	773.428571428571	1	635.8	12	328747	3	328736	28	40	328775	-999999	328751	0	39	TrialsPROC	FC_021_M11.png	2	2	80	SessionSelectionList														lure	3	Face	0-Back	70	80	68	0	0	100	4	39	282366	3	14	72	280327	-1	280764	1	437	3	3	2039	53	282380	-54	0																80												
WM080112	672756_fnca	2	1	1	1298578547	1	75.030	75.030	2.0.10.147	2.0.10.242	2.0.10.242	1.0.0.439	7	234	2	3	Verdana	1	80	0	0	0	WM Stimuli\	0.7	842.857142857143	1	655.2	0.9	774.777777777778	1	586.3	1	759.9	0.7	668.714285714286	0.7	773.428571428571	1	635.8	12	328747	3	328736	28	40	328775	-999999	328751	0	39	TrialsPROC	FC_019_M10.png	2	2	81	SessionSelectionList														nonlure	3	Face	0-Back	71	80	69	0	0	100	5	39	284965	1	14	99	282926	-1	283599	1	673	3	3	2039	53	284979	-54	0																81												
WM080112	672756_fnca	2	1	1	1298578547	1	75.030	75.030	2.0.10.147	2.0.10.242	2.0.10.242	1.0.0.439	7	234	2	3	Verdana	1	80	0	0	0	WM Stimuli\	0.7	842.857142857143	1	655.2	0.9	774.777777777778	1	586.3	1	759.9	0.7	668.714285714286	0.7	773.428571428571	1	635.8	12	328747	3	328736	28	40	328775	-999999	328751	0	40	Cue0BackPROC	PL_021_SCENE_07.png	2	2	82	SessionSelectionList																																										32	285458	-33	0												82												
WM080112	672756_fnca	2	1	1	1298578547	1	75.030	75.030	2.0.10.147	2.0.10.242	2.0.10.242	1.0.0.439	7	234	2	3	Verdana	1	80	0	0	0	WM Stimuli\	0.7	842.857142857143	1	655.2	0.9	774.777777777778	1	586.3	1	759.9	0.7	668.714285714286	0.7	773.428571428571	1	635.8	12	328747	3	328736	28	40	328775	-999999	328751	0	41	TrialsPROC	PL_025_SCENE_18.png	2	2	83	SessionSelectionList														nonlure	3	Place	0-Back	72	80	70	0	0	100	6	39	290056	3	14	91	288017	-1	288698	1	681	3	3	2039	53	290070	-54	0																83												
WM080112	672756_fnca	2	1	1	1298578547	1	75.030	75.030	2.0.10.147	2.0.10.242	2.0.10.242	1.0.0.439	7	234	2	3	Verdana	1	80	0	0	0	WM Stimuli\	0.7	842.857142857143	1	655.2	0.9	774.777777777778	1	586.3	1	759.9	0.7	668.714285714286	0.7	773.428571428571	1	635.8	12	328747	3	328736	28	40	328775	-999999	328751	0	41	TrialsPROC	PL_026_SCENE_24.png	2	2	84	SessionSelectionList														nonlure	3	Place	0-Back	73	80	71	0	0	100	7	39	292642	1	14	86	290603	-1	291062	1	459	3	3	2039	53	292656	-54	0																84												
WM080112	672756_fnca	2	1	1	1298578547	1	75.030	75.030	2.0.10.147	2.0.10.242	2.0.10.242	1.0.0.439	7	234	2	3	Verdana	1	80	0	0	0	WM Stimuli\	0.7	842.857142857143	1	655.2	0.9	774.777777777778	1	586.3	1	759.9	0.7	668.714285714286	0.7	773.428571428571	1	635.8	12	328747	3	328736	28	40	328775	-999999	328751	0	41	TrialsPROC	PL_025_SCENE_18.png	2	2	85	SessionSelectionList														lure	3	Place	0-Back	74	80	72	0	0	97	1	39	295214	3	14	72	293175	-1	294316	0	1141	2	3	2039	53	295228	-54	0																85												
WM080112	672756_fnca	2	1	1	1298578547	1	75.030	75.030	2.0.10.147	2.0.10.242	2.0.10.242	1.0.0.439	7	234	2	3	Verdana	1	80	0	0	0	WM Stimuli\	0.7	842.857142857143	1	655.2	0.9	774.777777777778	1	586.3	1	759.9	0.7	668.714285714286	0.7	773.428571428571	1	635.8	12	328747	3	328736	28	40	328775	-999999	328751	0	41	TrialsPROC	PL_022_SCENE_08.png	2	2	86	SessionSelectionList														nonlure	3	Place	0-Back	75	80	73	0	0	97	1	39	297800	1	14	86	295761	-1	296311	1	550	3	3	2039	53	297814	-54	0																86												
WM080112	672756_fnca	2	1	1	1298578547	1	75.030	75.030	2.0.10.147	2.0.10.242	2.0.10.242	1.0.0.439	7	234	2	3	Verdana	1	80	0	0	0	WM Stimuli\	0.7	842.857142857143	1	655.2	0.9	774.777777777778	1	586.3	1	759.9	0.7	668.714285714286	0.7	773.428571428571	1	635.8	12	328747	3	328736	28	40	328775	-999999	328751	0	41	TrialsPROC	PL_026_SCENE_24.png	2	2	87	SessionSelectionList														lure	3	Place	0-Back	76	80	74	0	0	97	2	39	300372	3	14	72	298333	-1	298776	1	443	3	3	2039	53	300386	-54	0																87												
WM080112	672756_fnca	2	1	1	1298578547	1	75.030	75.030	2.0.10.147	2.0.10.242	2.0.10.242	1.0.0.439	7	234	2	3	Verdana	1	80	0	0	0	WM Stimuli\	0.7	842.857142857143	1	655.2	0.9	774.777777777778	1	586.3	1	759.9	0.7	668.714285714286	0.7	773.428571428571	1	635.8	12	328747	3	328736	28	40	328775	-999999	328751	0	41	TrialsPROC	PL_021_SCENE_07.png	2	2	88	SessionSelectionList														target	2	Place	0-Back	77	80	75	0	0	94	3	40	302945	1	13	72	300905	-1	301897	0	992	3	2	2040	53	302958	-54	0																88												
WM080112	672756_fnca	2	1	1	1298578547	1	75.030	75.030	2.0.10.147	2.0.10.242	2.0.10.242	1.0.0.439	7	234	2	3	Verdana	1	80	0	0	0	WM Stimuli\	0.7	842.857142857143	1	655.2	0.9	774.777777777778	1	586.3	1	759.9	0.7	668.714285714286	0.7	773.428571428571	1	635.8	12	328747	3	328736	28	40	328775	-999999	328751	0	41	TrialsPROC	PL_021_SCENE_07.png	2	2	89	SessionSelectionList														target	2	Place	0-Back	78	80	76	0	0	92	4	39	305517	1	13	73	303478	-1	304271	0	793	3	2	2039	52	305530	-53	0																89												
WM080112	672756_fnca	2	1	1	1298578547	1	75.030	75.030	2.0.10.147	2.0.10.242	2.0.10.242	1.0.0.439	7	234	2	3	Verdana	1	80	0	0	0	WM Stimuli\	0.7	842.857142857143	1	655.2	0.9	774.777777777778	1	586.3	1	759.9	0.7	668.714285714286	0.7	773.428571428571	1	635.8	12	328747	3	328736	28	40	328775	-999999	328751	0	41	TrialsPROC	PL_023_SCENE_09.png	2	2	90	SessionSelectionList														nonlure	3	Place	0-Back	79	80	77	0	0	92	5	39	308116	1	13	99	306077	-1	306732	1	655	3	3	2039	52	308129	-53	0																90												
WM080112	672756_fnca	2	1	1	1298578547	1	75.030	75.030	2.0.10.147	2.0.10.242	2.0.10.242	1.0.0.439	7	234	2	3	Verdana	1	80	0	0	0	WM Stimuli\	0.7	842.857142857143	1	655.2	0.9	774.777777777778	1	586.3	1	759.9	0.7	668.714285714286	0.7	773.428571428571	1	635.8	12	328747	3	328736	28	40	328775	-999999	328751	0	41	TrialsPROC	PL_024_SCENE_10.png	2	2	91	SessionSelectionList														nonlure	3	Place	0-Back	80	80	78	0	0	92	6	39	310701	3	14	85	308662	-1	309258	1	596	3	3	2039	53	310715	-54	0																91												
WM080112	672756_fnca	2	1	1	1298578547	1	75.030	75.030	2.0.10.147	2.0.10.242	2.0.10.242	1.0.0.439	7	234	2	3	Verdana	1	80	0	0	0	WM Stimuli\	0.7	842.857142857143	1	655.2	0.9	774.777777777778	1	586.3	1	759.9	0.7	668.714285714286	0.7	773.428571428571	1	635.8	12	328747	3	328736	28	40	328775	-999999	328751	0	41	TrialsPROC	PL_022_SCENE_08.png	2	2	92	SessionSelectionList														lure	3	Place	0-Back	80	80	79	0	0	92	7	39	313274	2	13	73	311235	-1	312532	1	1297	3	3	2039	52	313287	-53	0																92												
WM080112	672756_fnca	2	1	1	1298578547	1	75.030	75.030	2.0.10.147	2.0.10.242	2.0.10.242	1.0.0.439	7	234	2	3	Verdana	1	80	0	0	0	WM Stimuli\	0.7	842.857142857143	1	655.2	0.9	774.777777777778	1	586.3	1	759.9	0.7	668.714285714286	0.7	773.428571428571	1	635.8	12	328747	3	328736	28	40	328775	-999999	328751	0	42	Fix15secPROC	""	2	2	93	SessionSelectionList																																															6	313741	-7	0							93												
