ExperimentName	HCPID	RunNumber	Subject	Session	RandomSeed	Group	Laptop.RefreshRate	ScannerD2.RefreshRate	StudioVersion	RuntimeVersion	RuntimeVersionExpected	ExperimentVersion	triggercode	Allowed	Target	Nontarget	FontStyle	RunTrialNumber[Session]	TrialsPerRun[Session]	TotalRespGreater200[Session]	ConsecRTLess200[Session]	ConsecNonResp[Session]	StimuliDir	ACC_2_Back_Body	Avg_RT_For_Correct_Trials_2_Back_Body	ACC_0_Back_Body	Avg_RT_For_Correct_Trials_0_Back_Body	ACC_2_Back_Face	Avg_RT_For_Correct_Trials_2_Back_Face	ACC_0_Back_Face	Avg_RT_For_Correct_Trials_0_Back_Face	ACC_2_Back_Place	Avg_RT_For_Correct_Trials_2_Back_Place	ACC_0_Back_Place	Avg_RT_For_Correct_Trials_0_Back_Place	ACC_2_Back_Tools	Avg_RT_For_Correct_Trials_2_Back_Tools	ACC_0_Back_Tools	Avg_RT_For_Correct_Trials_0_Back_Tools	ExpInstrucFeelFreeToRest.OnsetDelay	ExpInstrucFeelFreeToRest.OnsetTime	ExpInstrucFeelFreeToRest.DurationError	ExpInstrucFeelFreeToRest.StartTime	ExpInstrucFeelFreeToRest.OnsetToOnsetTime	FeelFreeToRest.OnsetDelay	FeelFreeToRest.OnsetTime	FeelFreeToRest.DurationError	FeelFreeToRest.StartTime	FeelFreeToRest.OnsetToOnsetTime	SessionSelectionList	Procedure[Block]	Stimulus[Block]	RunNumberFilterValue	SessionSelectionList.Cycle	SessionSelectionList.Sample	Running[Block]	IntroButtonMap.OnsetDelay	IntroButtonMap.OnsetTime	IntroButtonMap.DurationError	IntroButtonMap.OnsetToOnsetTime	GetReady.OnsetDelay	GetReady.OnsetTime	GetReady.DurationError	GetReady.OnsetToOnsetTime	Cue2Back.OnsetDelay	Cue2Back.OnsetTime	Cue2Back.DurationError	Cue2Back.OnsetToOnsetTime	Run1Block1	TargetType	CorrectResponse	StimType	BlockType	RunTrialNumber[Block]	TrialsPerRun[Block]	TotalRespGreater200[Block]	ConsecRTLess200[Block]	ConsecNonResp[Block]	ControlAcc	ConsecSameResp	ExperimenterWindow.OnsetDelay	ExperimenterWindow.OnsetTime	ExperimenterWindow.DurationError	ExperimenterWindow.OnsetToOnsetTime	Stim.OnsetDelay	Stim.OnsetTime	Stim.DurationError	Stim.RTTime	Stim.ACC	Stim.RT	Stim.RESP	Stim.CRESP	Stim.OnsetToOnsetTime	Fix.OnsetDelay	Fix.OnsetTime	Fix.DurationError	Fix.OnsetToOnsetTime	CueTarget.OnsetDelay	CueTarget.OnsetTime	CueTarget.DurationError	CueTarget.OnsetToOnsetTime	Run1Block2	Fix15sec.OnsetDelay	Fix15sec.OnsetTime	Fix15sec.DurationError	Fix15sec.OnsetToOnsetTime	Run1Block3	Run1Block4	Run1Block5	Run1Block6	Run1Block7	Run1Block8	Block	Procedure[Trial]	Stimulus[Trial]	ReadyList	Running[Trial]	ReadyList.Cycle	ReadyList.Sample	SyncSlide.OnsetDelay	SyncSlide.OnsetTime	SyncSlide.DurationError	SyncSlide.FinishTime	SyncSlide.OnsetToOnsetTime	Trial
WM080112	756055_fnca	3	1	1	1117566290	1	75.031	75.031	2.0.10.147	2.0.10.242	2.0.10.242	1.0.0.439	7	234	2	3	Verdana	1	80	0	0	0	WM Stimuli\	0.9	1024.11111111111	0.9	1058.44444444444	0.8	1020.5	1	756.8	0.7	769.142857142857	1	1144	0.7	1034.14285714286	0.8	1034.625	13	566670	2	566658	26	39	566696	-999999	566673	0	43	TRSyncPROC	""	3	2	1	SessionSelectionList	102	9338	-999999	0	40	260169	-999999	0																																																	1	InitialTR	4	1	ReadyList	1	1	21	272923	-22	274901	0	1
WM080112	756055_fnca	3	1	1	1117566290	1	75.031	75.031	2.0.10.147	2.0.10.242	2.0.10.242	1.0.0.439	7	234	2	3	Verdana	1	80	0	0	0	WM Stimuli\	0.9	1024.11111111111	0.9	1058.44444444444	0.8	1020.5	1	756.8	0.7	769.142857142857	1	1144	0.7	1034.14285714286	0.8	1034.625	13	566670	2	566658	26	39	566696	-999999	566673	0	43	TRSyncPROC	""	3	2	1	SessionSelectionList	102	9338	-999999	0	40	260169	-999999	0																																																	1	InitialTR	3	2	ReadyList	1	2	20	274922	-21	276901	0	2
WM080112	756055_fnca	3	1	1	1117566290	1	75.031	75.031	2.0.10.147	2.0.10.242	2.0.10.242	1.0.0.439	7	234	2	3	Verdana	1	80	0	0	0	WM Stimuli\	0.9	1024.11111111111	0.9	1058.44444444444	0.8	1020.5	1	756.8	0.7	769.142857142857	1	1144	0.7	1034.14285714286	0.8	1034.625	13	566670	2	566658	26	39	566696	-999999	566673	0	43	TRSyncPROC	""	3	2	1	SessionSelectionList	102	9338	-999999	0	40	260169	-999999	0																																																	1	InitialTR	2	3	ReadyList	1	3	6	276908	-7	278901	0	3
WM080112	756055_fnca	3	1	1	1117566290	1	75.031	75.031	2.0.10.147	2.0.10.242	2.0.10.242	1.0.0.439	7	234	2	3	Verdana	1	80	0	0	0	WM Stimuli\	0.9	1024.11111111111	0.9	1058.44444444444	0.8	1020.5	1	756.8	0.7	769.142857142857	1	1144	0.7	1034.14285714286	0.8	1034.625	13	566670	2	566658	26	39	566696	-999999	566673	0	43	TRSyncPROC	""	3	2	1	SessionSelectionList	102	9338	-999999	0	40	260169	-999999	0																																																	1	InitialTR	1	4	ReadyList	1	4	5	278907	-6	280901	0	4
WM080112	756055_fnca	3	1	1	1117566290	1	75.031	75.031	2.0.10.147	2.0.10.242	2.0.10.242	1.0.0.439	7	234	2	3	Verdana	1	80	0	0	0	WM Stimuli\	0.9	1024.11111111111	0.9	1058.44444444444	0.8	1020.5	1	756.8	0.7	769.142857142857	1	1144	0.7	1034.14285714286	0.8	1034.625	13	566670	2	566658	26	39	566696	-999999	566673	0	44	Cue0BackPROC	TO_025_TOOL25_BA.png	3	2	2	SessionSelectionList																																										31	280933	-32	0												2												
WM080112	756055_fnca	3	1	1	1117566290	1	75.031	75.031	2.0.10.147	2.0.10.242	2.0.10.242	1.0.0.439	7	234	2	3	Verdana	1	80	0	0	0	WM Stimuli\	0.9	1024.11111111111	0.9	1058.44444444444	0.8	1020.5	1	756.8	0.7	769.142857142857	1	1144	0.7	1034.14285714286	0.8	1034.625	13	566670	2	566658	26	39	566696	-999999	566673	0	45	TrialsPROC	TO_028_TOOL28_BA.png	3	2	3	SessionSelectionList														nonlure	3	Tools	0-Back	2	80	1	0	0	0	1	53	285545	3	13	90	283492	-1	284852	0	1360	2	3	2053	66	285558	-67	0																3												
WM080112	756055_fnca	3	1	1	1117566290	1	75.031	75.031	2.0.10.147	2.0.10.242	2.0.10.242	1.0.0.439	7	234	2	3	Verdana	1	80	0	0	0	WM Stimuli\	0.9	1024.11111111111	0.9	1058.44444444444	0.8	1020.5	1	756.8	0.7	769.142857142857	1	1144	0.7	1034.14285714286	0.8	1034.625	13	566670	2	566658	26	39	566696	-999999	566673	0	45	TrialsPROC	TO_026_TOOL26_BA.png	3	2	4	SessionSelectionList														nonlure	3	Tools	0-Back	3	80	2	0	0	50	1	39	288104	2	13	73	286065	-1	286890	1	825	3	3	2039	52	288117	-53	0																4												
WM080112	756055_fnca	3	1	1	1117566290	1	75.031	75.031	2.0.10.147	2.0.10.242	2.0.10.242	1.0.0.439	7	234	2	3	Verdana	1	80	0	0	0	WM Stimuli\	0.9	1024.11111111111	0.9	1058.44444444444	0.8	1020.5	1	756.8	0.7	769.142857142857	1	1144	0.7	1034.14285714286	0.8	1034.625	13	566670	2	566658	26	39	566696	-999999	566673	0	45	TrialsPROC	TO_025_TOOL25_BA.png	3	2	5	SessionSelectionList														target	2	Tools	0-Back	4	80	3	0	0	67	1	40	290663	2	13	58	288623	-1	289454	1	831	2	2	2040	53	290676	-54	0																5												
WM080112	756055_fnca	3	1	1	1117566290	1	75.031	75.031	2.0.10.147	2.0.10.242	2.0.10.242	1.0.0.439	7	234	2	3	Verdana	1	80	0	0	0	WM Stimuli\	0.9	1024.11111111111	0.9	1058.44444444444	0.8	1020.5	1	756.8	0.7	769.142857142857	1	1144	0.7	1034.14285714286	0.8	1034.625	13	566670	2	566658	26	39	566696	-999999	566673	0	45	TrialsPROC	TO_026_TOOL26_BA.png	3	2	6	SessionSelectionList														lure	3	Tools	0-Back	5	80	4	0	0	75	1	39	293235	1	13	73	291196	-1	292453	1	1257	3	3	2039	52	293248	-53	0																6												
WM080112	756055_fnca	3	1	1	1117566290	1	75.031	75.031	2.0.10.147	2.0.10.242	2.0.10.242	1.0.0.439	7	234	2	3	Verdana	1	80	0	0	0	WM Stimuli\	0.9	1024.11111111111	0.9	1058.44444444444	0.8	1020.5	1	756.8	0.7	769.142857142857	1	1144	0.7	1034.14285714286	0.8	1034.625	13	566670	2	566658	26	39	566696	-999999	566673	0	45	TrialsPROC	TO_030_TOOL30_BA.png	3	2	7	SessionSelectionList														nonlure	3	Tools	0-Back	6	80	5	0	0	80	2	39	295820	2	14	85	293781	-1	294770	1	989	3	3	2039	53	295834	-54	0																7												
WM080112	756055_fnca	3	1	1	1117566290	1	75.031	75.031	2.0.10.147	2.0.10.242	2.0.10.242	1.0.0.439	7	234	2	3	Verdana	1	80	0	0	0	WM Stimuli\	0.9	1024.11111111111	0.9	1058.44444444444	0.8	1020.5	1	756.8	0.7	769.142857142857	1	1144	0.7	1034.14285714286	0.8	1034.625	13	566670	2	566658	26	39	566696	-999999	566673	0	45	TrialsPROC	TO_025_TOOL25_BA.png	3	2	8	SessionSelectionList														target	2	Tools	0-Back	7	80	6	0	0	83	1	39	298379	2	14	59	296340	-1	297522	1	1182	2	2	2039	53	298393	-54	0																8												
WM080112	756055_fnca	3	1	1	1117566290	1	75.031	75.031	2.0.10.147	2.0.10.242	2.0.10.242	1.0.0.439	7	234	2	3	Verdana	1	80	0	0	0	WM Stimuli\	0.9	1024.11111111111	0.9	1058.44444444444	0.8	1020.5	1	756.8	0.7	769.142857142857	1	1144	0.7	1034.14285714286	0.8	1034.625	13	566670	2	566658	26	39	566696	-999999	566673	0	45	TrialsPROC	TO_027_TOOL27_BA.png	3	2	9	SessionSelectionList														nonlure	3	Tools	0-Back	8	80	7	0	0	86	1	39	300952	1	13	73	298913	-1	300242	1	1329	3	3	2039	52	300965	-53	0																9												
WM080112	756055_fnca	3	1	1	1117566290	1	75.031	75.031	2.0.10.147	2.0.10.242	2.0.10.242	1.0.0.439	7	234	2	3	Verdana	1	80	0	0	0	WM Stimuli\	0.9	1024.11111111111	0.9	1058.44444444444	0.8	1020.5	1	756.8	0.7	769.142857142857	1	1144	0.7	1034.14285714286	0.8	1034.625	13	566670	2	566658	26	39	566696	-999999	566673	0	45	TrialsPROC	TO_030_TOOL30_BA.png	3	2	10	SessionSelectionList														lure	3	Tools	0-Back	9	80	8	0	0	75	1	39	303511	1	13	59	301472	-1	302558	0	1086	2	3	2039	52	303524	-53	0																10												
WM080112	756055_fnca	3	1	1	1117566290	1	75.031	75.031	2.0.10.147	2.0.10.242	2.0.10.242	1.0.0.439	7	234	2	3	Verdana	1	80	0	0	0	WM Stimuli\	0.9	1024.11111111111	0.9	1058.44444444444	0.8	1020.5	1	756.8	0.7	769.142857142857	1	1144	0.7	1034.14285714286	0.8	1034.625	13	566670	2	566658	26	39	566696	-999999	566673	0	45	TrialsPROC	TO_028_TOOL28_BA.png	3	2	11	SessionSelectionList														lure	3	Tools	0-Back	10	80	9	0	0	78	1	39	306070	1	13	59	304031	-1	305196	1	1165	3	3	2039	52	306083	-53	0																11												
WM080112	756055_fnca	3	1	1	1117566290	1	75.031	75.031	2.0.10.147	2.0.10.242	2.0.10.242	1.0.0.439	7	234	2	3	Verdana	1	80	0	0	0	WM Stimuli\	0.9	1024.11111111111	0.9	1058.44444444444	0.8	1020.5	1	756.8	0.7	769.142857142857	1	1144	0.7	1034.14285714286	0.8	1034.625	13	566670	2	566658	26	39	566696	-999999	566673	0	45	TrialsPROC	TO_029_TOOL29_BA.png	3	2	12	SessionSelectionList														nonlure	3	Tools	0-Back	11	80	10	0	0	80	2	39	308642	1	13	72	306603	-1	307302	1	699	3	3	2039	52	308655	-53	0																12												
WM080112	756055_fnca	3	1	1	1117566290	1	75.031	75.031	2.0.10.147	2.0.10.242	2.0.10.242	1.0.0.439	7	234	2	3	Verdana	1	80	0	0	0	WM Stimuli\	0.9	1024.11111111111	0.9	1058.44444444444	0.8	1020.5	1	756.8	0.7	769.142857142857	1	1144	0.7	1034.14285714286	0.8	1034.625	13	566670	2	566658	26	39	566696	-999999	566673	0	46	Cue2BackPROC	""	3	2	13	SessionSelectionList									5	309108	-6	0																																													13												
WM080112	756055_fnca	3	1	1	1117566290	1	75.031	75.031	2.0.10.147	2.0.10.242	2.0.10.242	1.0.0.439	7	234	2	3	Verdana	1	80	0	0	0	WM Stimuli\	0.9	1024.11111111111	0.9	1058.44444444444	0.8	1020.5	1	756.8	0.7	769.142857142857	1	1144	0.7	1034.14285714286	0.8	1034.625	13	566670	2	566658	26	39	566696	-999999	566673	0	47	TrialsPROC	FC_029_M15.png	3	2	14	SessionSelectionList														nonlure	3	Face	2-Back	12	80	11	0	0	80	3	39	313720	1	13	78	311681	-1	313579	1	1898	3	3	2039	52	313733	-53	0																14												
WM080112	756055_fnca	3	1	1	1117566290	1	75.031	75.031	2.0.10.147	2.0.10.242	2.0.10.242	1.0.0.439	7	234	2	3	Verdana	1	80	0	0	0	WM Stimuli\	0.9	1024.11111111111	0.9	1058.44444444444	0.8	1020.5	1	756.8	0.7	769.142857142857	1	1144	0.7	1034.14285714286	0.8	1034.625	13	566670	2	566658	26	39	566696	-999999	566673	0	47	TrialsPROC	FC_026_F13.png	3	2	15	SessionSelectionList														nonlure	3	Face	2-Back	13	80	12	0	0	80	4	39	316305	2	14	85	314266	-1	314848	1	582	3	3	2039	53	316319	-54	0																15												
WM080112	756055_fnca	3	1	1	1117566290	1	75.031	75.031	2.0.10.147	2.0.10.242	2.0.10.242	1.0.0.439	7	234	2	3	Verdana	1	80	0	0	0	WM Stimuli\	0.9	1024.11111111111	0.9	1058.44444444444	0.8	1020.5	1	756.8	0.7	769.142857142857	1	1144	0.7	1034.14285714286	0.8	1034.625	13	566670	2	566658	26	39	566696	-999999	566673	0	47	TrialsPROC	FC_029_M15.png	3	2	16	SessionSelectionList														target	2	Face	2-Back	14	80	13	0	0	80	1	39	318878	1	13	73	316839	-1	317628	1	789	2	2	2039	52	318891	-53	0																16												
WM080112	756055_fnca	3	1	1	1117566290	1	75.031	75.031	2.0.10.147	2.0.10.242	2.0.10.242	1.0.0.439	7	234	2	3	Verdana	1	80	0	0	0	WM Stimuli\	0.9	1024.11111111111	0.9	1058.44444444444	0.8	1020.5	1	756.8	0.7	769.142857142857	1	1144	0.7	1034.14285714286	0.8	1034.625	13	566670	2	566658	26	39	566696	-999999	566673	0	47	TrialsPROC	FC_028_F14.png	3	2	17	SessionSelectionList														nonlure	3	Face	2-Back	15	80	14	0	0	80	1	39	321463	2	14	85	319424	-1	320351	1	927	3	3	2039	53	321477	-54	0																17												
WM080112	756055_fnca	3	1	1	1117566290	1	75.031	75.031	2.0.10.147	2.0.10.242	2.0.10.242	1.0.0.439	7	234	2	3	Verdana	1	80	0	0	0	WM Stimuli\	0.9	1024.11111111111	0.9	1058.44444444444	0.8	1020.5	1	756.8	0.7	769.142857142857	1	1144	0.7	1034.14285714286	0.8	1034.625	13	566670	2	566658	26	39	566696	-999999	566673	0	47	TrialsPROC	FC_025_M13.png	3	2	18	SessionSelectionList														nonlure	3	Face	2-Back	16	80	15	0	0	80	2	39	324049	1	13	86	322010	-1	322855	1	845	3	3	2039	52	324062	-53	0																18												
WM080112	756055_fnca	3	1	1	1117566290	1	75.031	75.031	2.0.10.147	2.0.10.242	2.0.10.242	1.0.0.439	7	234	2	3	Verdana	1	80	0	0	0	WM Stimuli\	0.9	1024.11111111111	0.9	1058.44444444444	0.8	1020.5	1	756.8	0.7	769.142857142857	1	1144	0.7	1034.14285714286	0.8	1034.625	13	566670	2	566658	26	39	566696	-999999	566673	0	47	TrialsPROC	FC_026_F13.png	3	2	19	SessionSelectionList														lure	3	Face	2-Back	17	80	16	0	0	80	1	39	326621	2	14	72	324582	-1	325481	0	899	2	3	2039	53	326635	-54	0																19												
WM080112	756055_fnca	3	1	1	1117566290	1	75.031	75.031	2.0.10.147	2.0.10.242	2.0.10.242	1.0.0.439	7	234	2	3	Verdana	1	80	0	0	0	WM Stimuli\	0.9	1024.11111111111	0.9	1058.44444444444	0.8	1020.5	1	756.8	0.7	769.142857142857	1	1144	0.7	1034.14285714286	0.8	1034.625	13	566670	2	566658	26	39	566696	-999999	566673	0	47	TrialsPROC	FC_027_M14.png	3	2	20	SessionSelectionList														nonlure	3	Face	2-Back	18	80	17	0	0	80	1	39	329207	1	13	86	327168	-1	328478	1	1310	3	3	2039	52	329220	-53	0																20												
WM080112	756055_fnca	3	1	1	1117566290	1	75.031	75.031	2.0.10.147	2.0.10.242	2.0.10.242	1.0.0.439	7	234	2	3	Verdana	1	80	0	0	0	WM Stimuli\	0.9	1024.11111111111	0.9	1058.44444444444	0.8	1020.5	1	756.8	0.7	769.142857142857	1	1144	0.7	1034.14285714286	0.8	1034.625	13	566670	2	566658	26	39	566696	-999999	566673	0	47	TrialsPROC	FC_028_F14.png	3	2	21	SessionSelectionList														lure	3	Face	2-Back	19	80	18	0	0	80	1	39	331779	2	14	72	329740	-1	331032	0	1292	2	3	2039	53	331793	-54	0																21												
WM080112	756055_fnca	3	1	1	1117566290	1	75.031	75.031	2.0.10.147	2.0.10.242	2.0.10.242	1.0.0.439	7	234	2	3	Verdana	1	80	0	0	0	WM Stimuli\	0.9	1024.11111111111	0.9	1058.44444444444	0.8	1020.5	1	756.8	0.7	769.142857142857	1	1144	0.7	1034.14285714286	0.8	1034.625	13	566670	2	566658	26	39	566696	-999999	566673	0	47	TrialsPROC	FC_027_M14.png	3	2	22	SessionSelectionList														target	2	Face	2-Back	20	80	19	0	0	80	2	39	334351	2	14	72	332312	-1	333409	1	1097	2	2	2039	53	334365	-54	0																22												
WM080112	756055_fnca	3	1	1	1117566290	1	75.031	75.031	2.0.10.147	2.0.10.242	2.0.10.242	1.0.0.439	7	234	2	3	Verdana	1	80	0	0	0	WM Stimuli\	0.9	1024.11111111111	0.9	1058.44444444444	0.8	1020.5	1	756.8	0.7	769.142857142857	1	1144	0.7	1034.14285714286	0.8	1034.625	13	566670	2	566658	26	39	566696	-999999	566673	0	47	TrialsPROC	FC_030_F15.png	3	2	23	SessionSelectionList														nonlure	3	Face	2-Back	21	80	20	0	0	80	1	39	336937	1	13	86	334898	-1	335614	1	716	3	3	2039	52	336950	-53	0																23												
WM080112	756055_fnca	3	1	1	1117566290	1	75.031	75.031	2.0.10.147	2.0.10.242	2.0.10.242	1.0.0.439	7	234	2	3	Verdana	1	80	0	0	0	WM Stimuli\	0.9	1024.11111111111	0.9	1058.44444444444	0.8	1020.5	1	756.8	0.7	769.142857142857	1	1144	0.7	1034.14285714286	0.8	1034.625	13	566670	2	566658	26	39	566696	-999999	566673	0	48	Fix15secPROC	""	3	2	24	SessionSelectionList																																															6	337404	-7	0							24												
WM080112	756055_fnca	3	1	1	1117566290	1	75.031	75.031	2.0.10.147	2.0.10.242	2.0.10.242	1.0.0.439	7	234	2	3	Verdana	1	80	0	0	0	WM Stimuli\	0.9	1024.11111111111	0.9	1058.44444444444	0.8	1020.5	1	756.8	0.7	769.142857142857	1	1144	0.7	1034.14285714286	0.8	1034.625	13	566670	2	566658	26	39	566696	-999999	566673	0	49	Cue0BackPROC	BP_026_H8-T_BA.png	3	2	25	SessionSelectionList																																										26	352424	-27	0												25												
WM080112	756055_fnca	3	1	1	1117566290	1	75.031	75.031	2.0.10.147	2.0.10.242	2.0.10.242	1.0.0.439	7	234	2	3	Verdana	1	80	0	0	0	WM Stimuli\	0.9	1024.11111111111	0.9	1058.44444444444	0.8	1020.5	1	756.8	0.7	769.142857142857	1	1144	0.7	1034.14285714286	0.8	1034.625	13	566670	2	566658	26	39	566696	-999999	566673	0	50	TrialsPROC	BP_026_H8-T_BA.png	3	2	26	SessionSelectionList														target	2	Body	0-Back	22	80	21	0	0	82	1	39	356995	2	14	58	354956	-1	355669	1	713	2	2	2039	53	357009	-54	0																26												
WM080112	756055_fnca	3	1	1	1117566290	1	75.031	75.031	2.0.10.147	2.0.10.242	2.0.10.242	1.0.0.439	7	234	2	3	Verdana	1	80	0	0	0	WM Stimuli\	0.9	1024.11111111111	0.9	1058.44444444444	0.8	1020.5	1	756.8	0.7	769.142857142857	1	1144	0.7	1034.14285714286	0.8	1034.625	13	566670	2	566658	26	39	566696	-999999	566673	0	50	TrialsPROC	BP_031_FLBHS_BA.png	3	2	27	SessionSelectionList														nonlure	3	Body	0-Back	23	80	22	0	0	83	1	39	359581	2	14	86	357542	-1	358361	1	819	3	3	2039	53	359595	-54	0																27												
WM080112	756055_fnca	3	1	1	1117566290	1	75.031	75.031	2.0.10.147	2.0.10.242	2.0.10.242	1.0.0.439	7	234	2	3	Verdana	1	80	0	0	0	WM Stimuli\	0.9	1024.11111111111	0.9	1058.44444444444	0.8	1020.5	1	756.8	0.7	769.142857142857	1	1144	0.7	1034.14285714286	0.8	1034.625	13	566670	2	566658	26	39	566696	-999999	566673	0	50	TrialsPROC	BP_027_FBBHI_BA.png	3	2	28	SessionSelectionList														nonlure	3	Body	0-Back	24	80	23	0	0	85	2	39	362153	2	14	72	360114	-1	361582	1	1468	3	3	2039	53	362167	-54	0																28												
WM080112	756055_fnca	3	1	1	1117566290	1	75.031	75.031	2.0.10.147	2.0.10.242	2.0.10.242	1.0.0.439	7	234	2	3	Verdana	1	80	0	0	0	WM Stimuli\	0.9	1024.11111111111	0.9	1058.44444444444	0.8	1020.5	1	756.8	0.7	769.142857142857	1	1144	0.7	1034.14285714286	0.8	1034.625	13	566670	2	566658	26	39	566696	-999999	566673	0	50	TrialsPROC	BP_026_H8-T_BA.png	3	2	29	SessionSelectionList														target	2	Body	0-Back	25	80	24	0	0	86	1	39	364712	2	14	59	362673	-1	363503	1	830	2	2	2039	53	364726	-54	0																29												
WM080112	756055_fnca	3	1	1	1117566290	1	75.031	75.031	2.0.10.147	2.0.10.242	2.0.10.242	1.0.0.439	7	234	2	3	Verdana	1	80	0	0	0	WM Stimuli\	0.9	1024.11111111111	0.9	1058.44444444444	0.8	1020.5	1	756.8	0.7	769.142857142857	1	1144	0.7	1034.14285714286	0.8	1034.625	13	566670	2	566658	26	39	566696	-999999	566673	0	50	TrialsPROC	BP_027_FBBHI_BA.png	3	2	30	SessionSelectionList														lure	3	Body	0-Back	26	80	25	0	0	80	2	39	367271	2	14	59	365232	-1	366579	0	1347	2	3	2039	53	367285	-54	0																30												
WM080112	756055_fnca	3	1	1	1117566290	1	75.031	75.031	2.0.10.147	2.0.10.242	2.0.10.242	1.0.0.439	7	234	2	3	Verdana	1	80	0	0	0	WM Stimuli\	0.9	1024.11111111111	0.9	1058.44444444444	0.8	1020.5	1	756.8	0.7	769.142857142857	1	1144	0.7	1034.14285714286	0.8	1034.625	13	566670	2	566658	26	39	566696	-999999	566673	0	50	TrialsPROC	BP_030_FLBFS_BA.png	3	2	31	SessionSelectionList														nonlure	3	Body	0-Back	27	80	26	0	0	81	1	39	369857	1	13	86	367818	-1	368623	1	805	3	3	2039	52	369870	-53	0																31												
WM080112	756055_fnca	3	1	1	1117566290	1	75.031	75.031	2.0.10.147	2.0.10.242	2.0.10.242	1.0.0.439	7	234	2	3	Verdana	1	80	0	0	0	WM Stimuli\	0.9	1024.11111111111	0.9	1058.44444444444	0.8	1020.5	1	756.8	0.7	769.142857142857	1	1144	0.7	1034.14285714286	0.8	1034.625	13	566670	2	566658	26	39	566696	-999999	566673	0	50	TrialsPROC	BP_029_FLBAS_BA.png	3	2	32	SessionSelectionList														nonlure	3	Body	0-Back	28	80	27	0	0	82	2	39	372429	2	14	72	370390	-1	371236	1	846	3	3	2039	53	372443	-54	0																32												
WM080112	756055_fnca	3	1	1	1117566290	1	75.031	75.031	2.0.10.147	2.0.10.242	2.0.10.242	1.0.0.439	7	234	2	3	Verdana	1	80	0	0	0	WM Stimuli\	0.9	1024.11111111111	0.9	1058.44444444444	0.8	1020.5	1	756.8	0.7	769.142857142857	1	1144	0.7	1034.14285714286	0.8	1034.625	13	566670	2	566658	26	39	566696	-999999	566673	0	50	TrialsPROC	BP_028_FBBHS_BA.png	3	2	33	SessionSelectionList														nonlure	3	Body	0-Back	29	80	28	0	0	83	3	39	375001	2	14	72	372962	-1	374079	1	1117	3	3	2039	53	375015	-54	0																33												
WM080112	756055_fnca	3	1	1	1117566290	1	75.031	75.031	2.0.10.147	2.0.10.242	2.0.10.242	1.0.0.439	7	234	2	3	Verdana	1	80	0	0	0	WM Stimuli\	0.9	1024.11111111111	0.9	1058.44444444444	0.8	1020.5	1	756.8	0.7	769.142857142857	1	1144	0.7	1034.14285714286	0.8	1034.625	13	566670	2	566658	26	39	566696	-999999	566673	0	50	TrialsPROC	BP_031_FLBHS_BA.png	3	2	34	SessionSelectionList														lure	3	Body	0-Back	30	80	29	0	0	84	4	38	377560	2	14	60	375522	-1	376608	1	1086	3	3	2038	52	377574	-53	0																34												
WM080112	756055_fnca	3	1	1	1117566290	1	75.031	75.031	2.0.10.147	2.0.10.242	2.0.10.242	1.0.0.439	7	234	2	3	Verdana	1	80	0	0	0	WM Stimuli\	0.9	1024.11111111111	0.9	1058.44444444444	0.8	1020.5	1	756.8	0.7	769.142857142857	1	1144	0.7	1034.14285714286	0.8	1034.625	13	566670	2	566658	26	39	566696	-999999	566673	0	50	TrialsPROC	BP_030_FLBFS_BA.png	3	2	35	SessionSelectionList														lure	3	Body	0-Back	31	80	30	0	0	85	5	39	380119	2	14	58	378080	-1	379922	1	1842	3	3	2039	53	380133	-54	0																35												
WM080112	756055_fnca	3	1	1	1117566290	1	75.031	75.031	2.0.10.147	2.0.10.242	2.0.10.242	1.0.0.439	7	234	2	3	Verdana	1	80	0	0	0	WM Stimuli\	0.9	1024.11111111111	0.9	1058.44444444444	0.8	1020.5	1	756.8	0.7	769.142857142857	1	1144	0.7	1034.14285714286	0.8	1034.625	13	566670	2	566658	26	39	566696	-999999	566673	0	51	Cue2BackPROC	""	3	2	36	SessionSelectionList									6	380586	-7	0																																													36												
WM080112	756055_fnca	3	1	1	1117566290	1	75.031	75.031	2.0.10.147	2.0.10.242	2.0.10.242	1.0.0.439	7	234	2	3	Verdana	1	80	0	0	0	WM Stimuli\	0.9	1024.11111111111	0.9	1058.44444444444	0.8	1020.5	1	756.8	0.7	769.142857142857	1	1144	0.7	1034.14285714286	0.8	1034.625	13	566670	2	566658	26	39	566696	-999999	566673	0	52	TrialsPROC	TO_033_TOOL33_BA.png	3	2	37	SessionSelectionList														nonlure	3	Tools	2-Back	32	80	30	0	1	85	5	39	385184	1	13	65	383145	-1	0	0	0	""	3	2039	52	385197	-53	0																37												
WM080112	756055_fnca	3	1	1	1117566290	1	75.031	75.031	2.0.10.147	2.0.10.242	2.0.10.242	1.0.0.439	7	234	2	3	Verdana	1	80	0	0	0	WM Stimuli\	0.9	1024.11111111111	0.9	1058.44444444444	0.8	1020.5	1	756.8	0.7	769.142857142857	1	1144	0.7	1034.14285714286	0.8	1034.625	13	566670	2	566658	26	39	566696	-999999	566673	0	52	TrialsPROC	TO_031_TOOL31_BA.png	3	2	38	SessionSelectionList														nonlure	3	Tools	2-Back	33	80	31	0	0	85	1	39	387756	2	14	72	385717	-1	386961	1	1244	3	3	2039	53	387770	-54	0																38												
WM080112	756055_fnca	3	1	1	1117566290	1	75.031	75.031	2.0.10.147	2.0.10.242	2.0.10.242	1.0.0.439	7	234	2	3	Verdana	1	80	0	0	0	WM Stimuli\	0.9	1024.11111111111	0.9	1058.44444444444	0.8	1020.5	1	756.8	0.7	769.142857142857	1	1144	0.7	1034.14285714286	0.8	1034.625	13	566670	2	566658	26	39	566696	-999999	566673	0	52	TrialsPROC	TO_031_TOOL31_BA.png	3	2	39	SessionSelectionList														lure	3	Tools	2-Back	34	80	32	0	0	85	2	39	390315	2	14	59	388276	-1	389583	1	1307	3	3	2039	53	390329	-54	0																39												
WM080112	756055_fnca	3	1	1	1117566290	1	75.031	75.031	2.0.10.147	2.0.10.242	2.0.10.242	1.0.0.439	7	234	2	3	Verdana	1	80	0	0	0	WM Stimuli\	0.9	1024.11111111111	0.9	1058.44444444444	0.8	1020.5	1	756.8	0.7	769.142857142857	1	1144	0.7	1034.14285714286	0.8	1034.625	13	566670	2	566658	26	39	566696	-999999	566673	0	52	TrialsPROC	TO_033_TOOL33_BA.png	3	2	40	SessionSelectionList														lure	3	Tools	2-Back	35	80	33	0	0	85	1	39	392874	2	14	59	390835	-1	391671	0	836	2	3	2039	53	392888	-54	0																40												
WM080112	756055_fnca	3	1	1	1117566290	1	75.031	75.031	2.0.10.147	2.0.10.242	2.0.10.242	1.0.0.439	7	234	2	3	Verdana	1	80	0	0	0	WM Stimuli\	0.9	1024.11111111111	0.9	1058.44444444444	0.8	1020.5	1	756.8	0.7	769.142857142857	1	1144	0.7	1034.14285714286	0.8	1034.625	13	566670	2	566658	26	39	566696	-999999	566673	0	52	TrialsPROC	TO_036_TOOL36_BA.png	3	2	41	SessionSelectionList														nonlure	3	Tools	2-Back	36	80	34	0	0	85	1	39	395460	1	13	86	393421	-1	394508	1	1087	3	3	2039	52	395473	-53	0																41												
WM080112	756055_fnca	3	1	1	1117566290	1	75.031	75.031	2.0.10.147	2.0.10.242	2.0.10.242	1.0.0.439	7	234	2	3	Verdana	1	80	0	0	0	WM Stimuli\	0.9	1024.11111111111	0.9	1058.44444444444	0.8	1020.5	1	756.8	0.7	769.142857142857	1	1144	0.7	1034.14285714286	0.8	1034.625	13	566670	2	566658	26	39	566696	-999999	566673	0	52	TrialsPROC	TO_034_TOOL34_BA.png	3	2	42	SessionSelectionList														nonlure	3	Tools	2-Back	37	80	35	0	0	85	2	39	398019	1	13	59	395980	-1	397363	1	1383	3	3	2039	52	398032	-53	0																42												
WM080112	756055_fnca	3	1	1	1117566290	1	75.031	75.031	2.0.10.147	2.0.10.242	2.0.10.242	1.0.0.439	7	234	2	3	Verdana	1	80	0	0	0	WM Stimuli\	0.9	1024.11111111111	0.9	1058.44444444444	0.8	1020.5	1	756.8	0.7	769.142857142857	1	1144	0.7	1034.14285714286	0.8	1034.625	13	566670	2	566658	26	39	566696	-999999	566673	0	52	TrialsPROC	TO_032_TOOL32_BA.png	3	2	43	SessionSelectionList														nonlure	3	Tools	2-Back	38	80	36	0	0	85	3	39	400591	1	13	72	398552	-1	399471	1	919	3	3	2039	52	400604	-53	0																43												
WM080112	756055_fnca	3	1	1	1117566290	1	75.031	75.031	2.0.10.147	2.0.10.242	2.0.10.242	1.0.0.439	7	234	2	3	Verdana	1	80	0	0	0	WM Stimuli\	0.9	1024.11111111111	0.9	1058.44444444444	0.8	1020.5	1	756.8	0.7	769.142857142857	1	1144	0.7	1034.14285714286	0.8	1034.625	13	566670	2	566658	26	39	566696	-999999	566673	0	52	TrialsPROC	TO_034_TOOL34_BA.png	3	2	44	SessionSelectionList														target	2	Tools	2-Back	39	80	37	0	0	85	1	39	403150	1	13	59	401111	-1	401614	1	503	2	2	2039	52	403163	-53	0																44												
WM080112	756055_fnca	3	1	1	1117566290	1	75.031	75.031	2.0.10.147	2.0.10.242	2.0.10.242	1.0.0.439	7	234	2	3	Verdana	1	80	0	0	0	WM Stimuli\	0.9	1024.11111111111	0.9	1058.44444444444	0.8	1020.5	1	756.8	0.7	769.142857142857	1	1144	0.7	1034.14285714286	0.8	1034.625	13	566670	2	566658	26	39	566696	-999999	566673	0	52	TrialsPROC	TO_032_TOOL32_BA.png	3	2	45	SessionSelectionList														target	2	Tools	2-Back	40	80	38	0	0	85	1	39	405709	1	13	59	403670	-1	404920	0	1250	3	2	2039	52	405722	-53	0																45												
WM080112	756055_fnca	3	1	1	1117566290	1	75.031	75.031	2.0.10.147	2.0.10.242	2.0.10.242	1.0.0.439	7	234	2	3	Verdana	1	80	0	0	0	WM Stimuli\	0.9	1024.11111111111	0.9	1058.44444444444	0.8	1020.5	1	756.8	0.7	769.142857142857	1	1144	0.7	1034.14285714286	0.8	1034.625	13	566670	2	566658	26	39	566696	-999999	566673	0	52	TrialsPROC	TO_035_TOOL35_BA.png	3	2	46	SessionSelectionList														nonlure	3	Tools	2-Back	41	80	39	0	0	85	2	39	408281	2	14	72	406242	-1	407038	1	796	3	3	2039	53	408295	-54	0																46												
WM080112	756055_fnca	3	1	1	1117566290	1	75.031	75.031	2.0.10.147	2.0.10.242	2.0.10.242	1.0.0.439	7	234	2	3	Verdana	1	80	0	0	0	WM Stimuli\	0.9	1024.11111111111	0.9	1058.44444444444	0.8	1020.5	1	756.8	0.7	769.142857142857	1	1144	0.7	1034.14285714286	0.8	1034.625	13	566670	2	566658	26	39	566696	-999999	566673	0	53	Fix15secPROC	""	3	2	47	SessionSelectionList																																															6	408748	-7	0							47												
WM080112	756055_fnca	3	1	1	1117566290	1	75.031	75.031	2.0.10.147	2.0.10.242	2.0.10.242	1.0.0.439	7	234	2	3	Verdana	1	80	0	0	0	WM Stimuli\	0.9	1024.11111111111	0.9	1058.44444444444	0.8	1020.5	1	756.8	0.7	769.142857142857	1	1144	0.7	1034.14285714286	0.8	1034.625	13	566670	2	566658	26	39	566696	-999999	566673	0	54	Cue2BackPROC	""	3	2	48	SessionSelectionList									13	423755	-14	0																																													48												
WM080112	756055_fnca	3	1	1	1117566290	1	75.031	75.031	2.0.10.147	2.0.10.242	2.0.10.242	1.0.0.439	7	234	2	3	Verdana	1	80	0	0	0	WM Stimuli\	0.9	1024.11111111111	0.9	1058.44444444444	0.8	1020.5	1	756.8	0.7	769.142857142857	1	1144	0.7	1034.14285714286	0.8	1034.625	13	566670	2	566658	26	39	566696	-999999	566673	0	55	TrialsPROC	PL_032_COLORADO.png	3	2	49	SessionSelectionList														nonlure	3	Place	2-Back	42	80	39	0	1	85	2	39	428366	2	14	85	426327	-1	0	0	0	""	3	2039	53	428380	-54	0																49												
WM080112	756055_fnca	3	1	1	1117566290	1	75.031	75.031	2.0.10.147	2.0.10.242	2.0.10.242	1.0.0.439	7	234	2	3	Verdana	1	80	0	0	0	WM Stimuli\	0.9	1024.11111111111	0.9	1058.44444444444	0.8	1020.5	1	756.8	0.7	769.142857142857	1	1144	0.7	1034.14285714286	0.8	1034.625	13	566670	2	566658	26	39	566696	-999999	566673	0	55	TrialsPROC	PL_029_SCENE_39.png	3	2	50	SessionSelectionList														nonlure	3	Place	2-Back	43	80	40	0	0	85	1	39	430952	1	13	86	428913	-1	429407	1	494	3	3	2039	52	430965	-53	0																50												
WM080112	756055_fnca	3	1	1	1117566290	1	75.031	75.031	2.0.10.147	2.0.10.242	2.0.10.242	1.0.0.439	7	234	2	3	Verdana	1	80	0	0	0	WM Stimuli\	0.9	1024.11111111111	0.9	1058.44444444444	0.8	1020.5	1	756.8	0.7	769.142857142857	1	1144	0.7	1034.14285714286	0.8	1034.625	13	566670	2	566658	26	39	566696	-999999	566673	0	55	TrialsPROC	PL_032_COLORADO.png	3	2	51	SessionSelectionList														target	2	Place	2-Back	44	80	41	0	0	85	1	39	433511	1	13	59	431472	-1	432123	1	651	2	2	2039	52	433524	-53	0																51												
WM080112	756055_fnca	3	1	1	1117566290	1	75.031	75.031	2.0.10.147	2.0.10.242	2.0.10.242	1.0.0.439	7	234	2	3	Verdana	1	80	0	0	0	WM Stimuli\	0.9	1024.11111111111	0.9	1058.44444444444	0.8	1020.5	1	756.8	0.7	769.142857142857	1	1144	0.7	1034.14285714286	0.8	1034.625	13	566670	2	566658	26	39	566696	-999999	566673	0	55	TrialsPROC	PL_028_SCENE_35.png	3	2	52	SessionSelectionList														nonlure	3	Place	2-Back	45	80	41	0	1	85	1	39	436096	2	14	85	434057	-1	0	0	0	""	3	2039	53	436110	-54	0																52												
WM080112	756055_fnca	3	1	1	1117566290	1	75.031	75.031	2.0.10.147	2.0.10.242	2.0.10.242	1.0.0.439	7	234	2	3	Verdana	1	80	0	0	0	WM Stimuli\	0.9	1024.11111111111	0.9	1058.44444444444	0.8	1020.5	1	756.8	0.7	769.142857142857	1	1144	0.7	1034.14285714286	0.8	1034.625	13	566670	2	566658	26	39	566696	-999999	566673	0	55	TrialsPROC	PL_031_CANAL.png	3	2	53	SessionSelectionList														nonlure	3	Place	2-Back	46	80	42	0	0	85	1	39	438669	1	13	73	436630	-1	437459	1	829	3	3	2039	52	438682	-53	0																53												
WM080112	756055_fnca	3	1	1	1117566290	1	75.031	75.031	2.0.10.147	2.0.10.242	2.0.10.242	1.0.0.439	7	234	2	3	Verdana	1	80	0	0	0	WM Stimuli\	0.9	1024.11111111111	0.9	1058.44444444444	0.8	1020.5	1	756.8	0.7	769.142857142857	1	1144	0.7	1034.14285714286	0.8	1034.625	13	566670	2	566658	26	39	566696	-999999	566673	0	55	TrialsPROC	PL_030_SCENE_40.png	3	2	54	SessionSelectionList														nonlure	3	Place	2-Back	47	80	43	0	0	85	2	39	441254	2	14	85	439215	-1	440144	1	929	3	3	2039	53	441268	-54	0																54												
WM080112	756055_fnca	3	1	1	1117566290	1	75.031	75.031	2.0.10.147	2.0.10.242	2.0.10.242	1.0.0.439	7	234	2	3	Verdana	1	80	0	0	0	WM Stimuli\	0.9	1024.11111111111	0.9	1058.44444444444	0.8	1020.5	1	756.8	0.7	769.142857142857	1	1144	0.7	1034.14285714286	0.8	1034.625	13	566670	2	566658	26	39	566696	-999999	566673	0	55	TrialsPROC	PL_031_CANAL.png	3	2	55	SessionSelectionList														target	2	Place	2-Back	48	80	44	0	0	85	1	39	443813	2	14	59	441774	-1	442591	1	817	2	2	2039	53	443827	-54	0																55												
WM080112	756055_fnca	3	1	1	1117566290	1	75.031	75.031	2.0.10.147	2.0.10.242	2.0.10.242	1.0.0.439	7	234	2	3	Verdana	1	80	0	0	0	WM Stimuli\	0.9	1024.11111111111	0.9	1058.44444444444	0.8	1020.5	1	756.8	0.7	769.142857142857	1	1144	0.7	1034.14285714286	0.8	1034.625	13	566670	2	566658	26	39	566696	-999999	566673	0	55	TrialsPROC	PL_028_SCENE_35.png	3	2	56	SessionSelectionList														lure	3	Place	2-Back	49	80	45	0	0	85	2	39	446385	2	14	72	444346	-1	445483	0	1137	2	3	2039	53	446399	-54	0																56												
WM080112	756055_fnca	3	1	1	1117566290	1	75.031	75.031	2.0.10.147	2.0.10.242	2.0.10.242	1.0.0.439	7	234	2	3	Verdana	1	80	0	0	0	WM Stimuli\	0.9	1024.11111111111	0.9	1058.44444444444	0.8	1020.5	1	756.8	0.7	769.142857142857	1	1144	0.7	1034.14285714286	0.8	1034.625	13	566670	2	566658	26	39	566696	-999999	566673	0	55	TrialsPROC	PL_027_SCENE_27.png	3	2	57	SessionSelectionList														nonlure	3	Place	2-Back	50	80	46	0	0	85	1	39	448971	2	14	86	446932	-1	447530	1	598	3	3	2039	53	448985	-54	0																57												
WM080112	756055_fnca	3	1	1	1117566290	1	75.031	75.031	2.0.10.147	2.0.10.242	2.0.10.242	1.0.0.439	7	234	2	3	Verdana	1	80	0	0	0	WM Stimuli\	0.9	1024.11111111111	0.9	1058.44444444444	0.8	1020.5	1	756.8	0.7	769.142857142857	1	1144	0.7	1034.14285714286	0.8	1034.625	13	566670	2	566658	26	39	566696	-999999	566673	0	55	TrialsPROC	PL_027_SCENE_27.png	3	2	58	SessionSelectionList														lure	3	Place	2-Back	51	80	47	0	0	85	2	39	451543	2	14	72	449504	-1	450570	1	1066	3	3	2039	53	451557	-54	0																58												
WM080112	756055_fnca	3	1	1	1117566290	1	75.031	75.031	2.0.10.147	2.0.10.242	2.0.10.242	1.0.0.439	7	234	2	3	Verdana	1	80	0	0	0	WM Stimuli\	0.9	1024.11111111111	0.9	1058.44444444444	0.8	1020.5	1	756.8	0.7	769.142857142857	1	1144	0.7	1034.14285714286	0.8	1034.625	13	566670	2	566658	26	39	566696	-999999	566673	0	56	Cue0BackPROC	FC_032_F16.png	3	2	59	SessionSelectionList																																										33	452037	-34	0												59												
WM080112	756055_fnca	3	1	1	1117566290	1	75.031	75.031	2.0.10.147	2.0.10.242	2.0.10.242	1.0.0.439	7	234	2	3	Verdana	1	80	0	0	0	WM Stimuli\	0.9	1024.11111111111	0.9	1058.44444444444	0.8	1020.5	1	756.8	0.7	769.142857142857	1	1144	0.7	1034.14285714286	0.8	1034.625	13	566670	2	566658	26	39	566696	-999999	566673	0	57	TrialsPROC	FC_033_M17.png	3	2	60	SessionSelectionList														nonlure	3	Face	0-Back	52	80	48	0	0	86	3	39	456621	2	14	78	454582	-1	455389	1	807	3	3	2039	53	456635	-54	0																60												
WM080112	756055_fnca	3	1	1	1117566290	1	75.031	75.031	2.0.10.147	2.0.10.242	2.0.10.242	1.0.0.439	7	234	2	3	Verdana	1	80	0	0	0	WM Stimuli\	0.9	1024.11111111111	0.9	1058.44444444444	0.8	1020.5	1	756.8	0.7	769.142857142857	1	1144	0.7	1034.14285714286	0.8	1034.625	13	566670	2	566658	26	39	566696	-999999	566673	0	57	TrialsPROC	FC_032_F16.png	3	2	61	SessionSelectionList														target	2	Face	0-Back	53	80	49	0	0	86	1	40	459194	1	13	72	457154	-1	457768	1	614	2	2	2040	53	459207	-54	0																61												
WM080112	756055_fnca	3	1	1	1117566290	1	75.031	75.031	2.0.10.147	2.0.10.242	2.0.10.242	1.0.0.439	7	234	2	3	Verdana	1	80	0	0	0	WM Stimuli\	0.9	1024.11111111111	0.9	1058.44444444444	0.8	1020.5	1	756.8	0.7	769.142857142857	1	1144	0.7	1034.14285714286	0.8	1034.625	13	566670	2	566658	26	39	566696	-999999	566673	0	57	TrialsPROC	FC_035_M18.png	3	2	62	SessionSelectionList														nonlure	3	Face	0-Back	54	80	50	0	0	87	1	39	461779	3	14	86	459740	-1	460503	1	763	3	3	2039	53	461793	-54	0																62												
WM080112	756055_fnca	3	1	1	1117566290	1	75.031	75.031	2.0.10.147	2.0.10.242	2.0.10.242	1.0.0.439	7	234	2	3	Verdana	1	80	0	0	0	WM Stimuli\	0.9	1024.11111111111	0.9	1058.44444444444	0.8	1020.5	1	756.8	0.7	769.142857142857	1	1144	0.7	1034.14285714286	0.8	1034.625	13	566670	2	566658	26	39	566696	-999999	566673	0	57	TrialsPROC	FC_036_F18.png	3	2	63	SessionSelectionList														nonlure	3	Face	0-Back	55	80	51	0	0	88	2	39	464365	1	13	86	462326	-1	463269	1	943	3	3	2039	52	464378	-53	0																63												
WM080112	756055_fnca	3	1	1	1117566290	1	75.031	75.031	2.0.10.147	2.0.10.242	2.0.10.242	1.0.0.439	7	234	2	3	Verdana	1	80	0	0	0	WM Stimuli\	0.9	1024.11111111111	0.9	1058.44444444444	0.8	1020.5	1	756.8	0.7	769.142857142857	1	1144	0.7	1034.14285714286	0.8	1034.625	13	566670	2	566658	26	39	566696	-999999	566673	0	57	TrialsPROC	FC_032_F16.png	3	2	64	SessionSelectionList														target	2	Face	0-Back	56	80	52	0	0	88	1	39	466937	2	14	72	464898	-1	465634	1	736	2	2	2039	53	466951	-54	0																64												
WM080112	756055_fnca	3	1	1	1117566290	1	75.031	75.031	2.0.10.147	2.0.10.242	2.0.10.242	1.0.0.439	7	234	2	3	Verdana	1	80	0	0	0	WM Stimuli\	0.9	1024.11111111111	0.9	1058.44444444444	0.8	1020.5	1	756.8	0.7	769.142857142857	1	1144	0.7	1034.14285714286	0.8	1034.625	13	566670	2	566658	26	39	566696	-999999	566673	0	57	TrialsPROC	FC_031_M16.png	3	2	65	SessionSelectionList														nonlure	3	Face	0-Back	57	80	53	0	0	88	1	39	469523	1	13	86	467484	-1	468208	1	724	3	3	2039	52	469536	-53	0																65												
WM080112	756055_fnca	3	1	1	1117566290	1	75.031	75.031	2.0.10.147	2.0.10.242	2.0.10.242	1.0.0.439	7	234	2	3	Verdana	1	80	0	0	0	WM Stimuli\	0.9	1024.11111111111	0.9	1058.44444444444	0.8	1020.5	1	756.8	0.7	769.142857142857	1	1144	0.7	1034.14285714286	0.8	1034.625	13	566670	2	566658	26	39	566696	-999999	566673	0	57	TrialsPROC	FC_036_F18.png	3	2	66	SessionSelectionList														lure	3	Face	0-Back	58	80	54	0	0	89	2	39	472095	1	13	72	470056	-1	470920	1	864	3	3	2039	52	472108	-53	0																66												
WM080112	756055_fnca	3	1	1	1117566290	1	75.031	75.031	2.0.10.147	2.0.10.242	2.0.10.242	1.0.0.439	7	234	2	3	Verdana	1	80	0	0	0	WM Stimuli\	0.9	1024.11111111111	0.9	1058.44444444444	0.8	1020.5	1	756.8	0.7	769.142857142857	1	1144	0.7	1034.14285714286	0.8	1034.625	13	566670	2	566658	26	39	566696	-999999	566673	0	57	TrialsPROC	FC_035_M18.png	3	2	67	SessionSelectionList														lure	3	Face	0-Back	59	80	55	0	0	89	3	39	474667	2	14	72	472628	-1	473483	1	855	3	3	2039	53	474681	-54	0																67												
WM080112	756055_fnca	3	1	1	1117566290	1	75.031	75.031	2.0.10.147	2.0.10.242	2.0.10.242	1.0.0.439	7	234	2	3	Verdana	1	80	0	0	0	WM Stimuli\	0.9	1024.11111111111	0.9	1058.44444444444	0.8	1020.5	1	756.8	0.7	769.142857142857	1	1144	0.7	1034.14285714286	0.8	1034.625	13	566670	2	566658	26	39	566696	-999999	566673	0	57	TrialsPROC	FC_034_F17.png	3	2	68	SessionSelectionList														nonlure	3	Face	0-Back	60	80	56	0	0	90	4	39	477253	1	13	86	475214	-1	475850	1	636	3	3	2039	52	477266	-53	0																68												
WM080112	756055_fnca	3	1	1	1117566290	1	75.031	75.031	2.0.10.147	2.0.10.242	2.0.10.242	1.0.0.439	7	234	2	3	Verdana	1	80	0	0	0	WM Stimuli\	0.9	1024.11111111111	0.9	1058.44444444444	0.8	1020.5	1	756.8	0.7	769.142857142857	1	1144	0.7	1034.14285714286	0.8	1034.625	13	566670	2	566658	26	39	566696	-999999	566673	0	57	TrialsPROC	FC_033_M17.png	3	2	69	SessionSelectionList														lure	3	Face	0-Back	61	80	57	0	0	90	5	39	479825	2	14	72	477786	-1	478412	1	626	3	3	2039	53	479839	-54	0																69												
WM080112	756055_fnca	3	1	1	1117566290	1	75.031	75.031	2.0.10.147	2.0.10.242	2.0.10.242	1.0.0.439	7	234	2	3	Verdana	1	80	0	0	0	WM Stimuli\	0.9	1024.11111111111	0.9	1058.44444444444	0.8	1020.5	1	756.8	0.7	769.142857142857	1	1144	0.7	1034.14285714286	0.8	1034.625	13	566670	2	566658	26	39	566696	-999999	566673	0	58	Fix15secPROC	""	3	2	70	SessionSelectionList																																															6	480292	-7	0							70												
WM080112	756055_fnca	3	1	1	1117566290	1	75.031	75.031	2.0.10.147	2.0.10.242	2.0.10.242	1.0.0.439	7	234	2	3	Verdana	1	80	0	0	0	WM Stimuli\	0.9	1024.11111111111	0.9	1058.44444444444	0.8	1020.5	1	756.8	0.7	769.142857142857	1	1144	0.7	1034.14285714286	0.8	1034.625	13	566670	2	566658	26	39	566696	-999999	566673	0	59	Cue0BackPROC	PL_033_DESERT.png	3	2	71	SessionSelectionList																																										26	495312	-27	0												71												
WM080112	756055_fnca	3	1	1	1117566290	1	75.031	75.031	2.0.10.147	2.0.10.242	2.0.10.242	1.0.0.439	7	234	2	3	Verdana	1	80	0	0	0	WM Stimuli\	0.9	1024.11111111111	0.9	1058.44444444444	0.8	1020.5	1	756.8	0.7	769.142857142857	1	1144	0.7	1034.14285714286	0.8	1034.625	13	566670	2	566658	26	39	566696	-999999	566673	0	60	TrialsPROC	PL_035_LEXINGTON02.png	3	2	72	SessionSelectionList														nonlure	3	Place	0-Back	62	80	58	0	0	90	6	39	499897	1	13	72	497858	-1	499723	1	1865	3	3	2039	52	499910	-53	0																72												
WM080112	756055_fnca	3	1	1	1117566290	1	75.031	75.031	2.0.10.147	2.0.10.242	2.0.10.242	1.0.0.439	7	234	2	3	Verdana	1	80	0	0	0	WM Stimuli\	0.9	1024.11111111111	0.9	1058.44444444444	0.8	1020.5	1	756.8	0.7	769.142857142857	1	1144	0.7	1034.14285714286	0.8	1034.625	13	566670	2	566658	26	39	566696	-999999	566673	0	60	TrialsPROC	PL_038_LEXINGTON05.png	3	2	73	SessionSelectionList														nonlure	3	Place	0-Back	63	80	59	0	0	91	7	39	502469	2	14	72	500430	-1	501995	1	1565	3	3	2039	53	502483	-54	0																73												
WM080112	756055_fnca	3	1	1	1117566290	1	75.031	75.031	2.0.10.147	2.0.10.242	2.0.10.242	1.0.0.439	7	234	2	3	Verdana	1	80	0	0	0	WM Stimuli\	0.9	1024.11111111111	0.9	1058.44444444444	0.8	1020.5	1	756.8	0.7	769.142857142857	1	1144	0.7	1034.14285714286	0.8	1034.625	13	566670	2	566658	26	39	566696	-999999	566673	0	60	TrialsPROC	PL_033_DESERT.png	3	2	74	SessionSelectionList														target	2	Place	0-Back	64	80	60	0	0	91	1	39	505028	2	14	59	502989	-1	503822	1	833	2	2	2039	53	505042	-54	0																74												
WM080112	756055_fnca	3	1	1	1117566290	1	75.031	75.031	2.0.10.147	2.0.10.242	2.0.10.242	1.0.0.439	7	234	2	3	Verdana	1	80	0	0	0	WM Stimuli\	0.9	1024.11111111111	0.9	1058.44444444444	0.8	1020.5	1	756.8	0.7	769.142857142857	1	1144	0.7	1034.14285714286	0.8	1034.625	13	566670	2	566658	26	39	566696	-999999	566673	0	60	TrialsPROC	PL_037_LEXINGTON04.png	3	2	75	SessionSelectionList														nonlure	3	Place	0-Back	65	80	61	0	0	91	1	39	507600	2	14	72	505561	-1	506372	1	811	3	3	2039	53	507614	-54	0																75												
WM080112	756055_fnca	3	1	1	1117566290	1	75.031	75.031	2.0.10.147	2.0.10.242	2.0.10.242	1.0.0.439	7	234	2	3	Verdana	1	80	0	0	0	WM Stimuli\	0.9	1024.11111111111	0.9	1058.44444444444	0.8	1020.5	1	756.8	0.7	769.142857142857	1	1144	0.7	1034.14285714286	0.8	1034.625	13	566670	2	566658	26	39	566696	-999999	566673	0	60	TrialsPROC	PL_037_LEXINGTON04.png	3	2	76	SessionSelectionList														lure	3	Place	0-Back	66	80	62	0	0	91	2	39	510159	2	14	59	508120	-1	509447	1	1327	3	3	2039	53	510173	-54	0																76												
WM080112	756055_fnca	3	1	1	1117566290	1	75.031	75.031	2.0.10.147	2.0.10.242	2.0.10.242	1.0.0.439	7	234	2	3	Verdana	1	80	0	0	0	WM Stimuli\	0.9	1024.11111111111	0.9	1058.44444444444	0.8	1020.5	1	756.8	0.7	769.142857142857	1	1144	0.7	1034.14285714286	0.8	1034.625	13	566670	2	566658	26	39	566696	-999999	566673	0	60	TrialsPROC	PL_038_LEXINGTON05.png	3	2	77	SessionSelectionList														lure	3	Place	0-Back	67	80	63	0	0	92	3	39	512718	2	14	59	510679	-1	511498	1	819	3	3	2039	53	512732	-54	0																77												
WM080112	756055_fnca	3	1	1	1117566290	1	75.031	75.031	2.0.10.147	2.0.10.242	2.0.10.242	1.0.0.439	7	234	2	3	Verdana	1	80	0	0	0	WM Stimuli\	0.9	1024.11111111111	0.9	1058.44444444444	0.8	1020.5	1	756.8	0.7	769.142857142857	1	1144	0.7	1034.14285714286	0.8	1034.625	13	566670	2	566658	26	39	566696	-999999	566673	0	60	TrialsPROC	PL_034_FOXISLAND.png	3	2	78	SessionSelectionList														nonlure	3	Place	0-Back	68	80	64	0	0	92	4	40	515291	1	13	72	513251	-1	513969	1	718	3	3	2040	53	515304	-54	0																78												
WM080112	756055_fnca	3	1	1	1117566290	1	75.031	75.031	2.0.10.147	2.0.10.242	2.0.10.242	1.0.0.439	7	234	2	3	Verdana	1	80	0	0	0	WM Stimuli\	0.9	1024.11111111111	0.9	1058.44444444444	0.8	1020.5	1	756.8	0.7	769.142857142857	1	1144	0.7	1034.14285714286	0.8	1034.625	13	566670	2	566658	26	39	566696	-999999	566673	0	60	TrialsPROC	PL_036_LEXINGTON03.png	3	2	79	SessionSelectionList														nonlure	3	Place	0-Back	69	80	65	0	0	92	5	39	517876	2	14	86	515837	-1	517064	1	1227	3	3	2039	53	517890	-54	0																79												
WM080112	756055_fnca	3	1	1	1117566290	1	75.031	75.031	2.0.10.147	2.0.10.242	2.0.10.242	1.0.0.439	7	234	2	3	Verdana	1	80	0	0	0	WM Stimuli\	0.9	1024.11111111111	0.9	1058.44444444444	0.8	1020.5	1	756.8	0.7	769.142857142857	1	1144	0.7	1034.14285714286	0.8	1034.625	13	566670	2	566658	26	39	566696	-999999	566673	0	60	TrialsPROC	PL_033_DESERT.png	3	2	80	SessionSelectionList														target	2	Place	0-Back	70	80	66	0	0	92	1	39	520435	2	14	59	518396	-1	519023	1	627	2	2	2039	53	520449	-54	0																80												
WM080112	756055_fnca	3	1	1	1117566290	1	75.031	75.031	2.0.10.147	2.0.10.242	2.0.10.242	1.0.0.439	7	234	2	3	Verdana	1	80	0	0	0	WM Stimuli\	0.9	1024.11111111111	0.9	1058.44444444444	0.8	1020.5	1	756.8	0.7	769.142857142857	1	1144	0.7	1034.14285714286	0.8	1034.625	13	566670	2	566658	26	39	566696	-999999	566673	0	60	TrialsPROC	PL_036_LEXINGTON03.png	3	2	81	SessionSelectionList														lure	3	Place	0-Back	71	80	67	0	0	92	1	39	522994	2	14	59	520955	-1	522603	1	1648	3	3	2039	53	523008	-54	0																81												
WM080112	756055_fnca	3	1	1	1117566290	1	75.031	75.031	2.0.10.147	2.0.10.242	2.0.10.242	1.0.0.439	7	234	2	3	Verdana	1	80	0	0	0	WM Stimuli\	0.9	1024.11111111111	0.9	1058.44444444444	0.8	1020.5	1	756.8	0.7	769.142857142857	1	1144	0.7	1034.14285714286	0.8	1034.625	13	566670	2	566658	26	39	566696	-999999	566673	0	61	Cue2BackPROC	""	3	2	82	SessionSelectionList									6	523461	-7	0																																													82												
WM080112	756055_fnca	3	1	1	1117566290	1	75.031	75.031	2.0.10.147	2.0.10.242	2.0.10.242	1.0.0.439	7	234	2	3	Verdana	1	80	0	0	0	WM Stimuli\	0.9	1024.11111111111	0.9	1058.44444444444	0.8	1020.5	1	756.8	0.7	769.142857142857	1	1144	0.7	1034.14285714286	0.8	1034.625	13	566670	2	566658	26	39	566696	-999999	566673	0	62	TrialsPROC	BP_035_FLPUS_BA.png	3	2	83	SessionSelectionList														nonlure	3	Body	2-Back	72	80	68	0	0	92	2	39	528059	1	13	65	526020	-1	527208	1	1188	3	3	2039	52	528072	-53	0																83												
WM080112	756055_fnca	3	1	1	1117566290	1	75.031	75.031	2.0.10.147	2.0.10.242	2.0.10.242	1.0.0.439	7	234	2	3	Verdana	1	80	0	0	0	WM Stimuli\	0.9	1024.11111111111	0.9	1058.44444444444	0.8	1020.5	1	756.8	0.7	769.142857142857	1	1144	0.7	1034.14285714286	0.8	1034.625	13	566670	2	566658	26	39	566696	-999999	566673	0	62	TrialsPROC	BP_037_FRBFS_BA.png	3	2	84	SessionSelectionList														nonlure	3	Body	2-Back	73	80	69	0	0	92	3	39	530631	1	13	72	528592	-1	529158	1	566	3	3	2039	52	530644	-53	0																84												
WM080112	756055_fnca	3	1	1	1117566290	1	75.031	75.031	2.0.10.147	2.0.10.242	2.0.10.242	1.0.0.439	7	234	2	3	Verdana	1	80	0	0	0	WM Stimuli\	0.9	1024.11111111111	0.9	1058.44444444444	0.8	1020.5	1	756.8	0.7	769.142857142857	1	1144	0.7	1034.14285714286	0.8	1034.625	13	566670	2	566658	26	39	566696	-999999	566673	0	62	TrialsPROC	BP_036_FRBAI_BA.png	3	2	85	SessionSelectionList														nonlure	3	Body	2-Back	74	80	70	0	0	92	4	39	533203	2	14	72	531164	-1	531861	1	697	3	3	2039	53	533217	-54	0																85												
WM080112	756055_fnca	3	1	1	1117566290	1	75.031	75.031	2.0.10.147	2.0.10.242	2.0.10.242	1.0.0.439	7	234	2	3	Verdana	1	80	0	0	0	WM Stimuli\	0.9	1024.11111111111	0.9	1058.44444444444	0.8	1020.5	1	756.8	0.7	769.142857142857	1	1144	0.7	1034.14285714286	0.8	1034.625	13	566670	2	566658	26	39	566696	-999999	566673	0	62	TrialsPROC	BP_037_FRBFS_BA.png	3	2	86	SessionSelectionList														target	2	Body	2-Back	75	80	71	0	0	92	1	38	535762	2	14	60	533724	-1	535004	1	1280	2	2	2038	52	535776	-53	0																86												
WM080112	756055_fnca	3	1	1	1117566290	1	75.031	75.031	2.0.10.147	2.0.10.242	2.0.10.242	1.0.0.439	7	234	2	3	Verdana	1	80	0	0	0	WM Stimuli\	0.9	1024.11111111111	0.9	1058.44444444444	0.8	1020.5	1	756.8	0.7	769.142857142857	1	1144	0.7	1034.14285714286	0.8	1034.625	13	566670	2	566658	26	39	566696	-999999	566673	0	62	TrialsPROC	BP_036_FRBAI_BA.png	3	2	87	SessionSelectionList														target	2	Body	2-Back	76	80	72	0	0	92	2	39	538334	2	14	71	536295	-1	537738	1	1443	2	2	2039	53	538348	-54	0																87												
WM080112	756055_fnca	3	1	1	1117566290	1	75.031	75.031	2.0.10.147	2.0.10.242	2.0.10.242	1.0.0.439	7	234	2	3	Verdana	1	80	0	0	0	WM Stimuli\	0.9	1024.11111111111	0.9	1058.44444444444	0.8	1020.5	1	756.8	0.7	769.142857142857	1	1144	0.7	1034.14285714286	0.8	1034.625	13	566670	2	566658	26	39	566696	-999999	566673	0	62	TrialsPROC	BP_033_FLCHS_BA.png	3	2	88	SessionSelectionList														nonlure	3	Body	2-Back	77	80	73	0	0	92	1	39	540920	3	14	86	538881	-1	539698	1	817	3	3	2039	53	540934	-54	0																88												
WM080112	756055_fnca	3	1	1	1117566290	1	75.031	75.031	2.0.10.147	2.0.10.242	2.0.10.242	1.0.0.439	7	234	2	3	Verdana	1	80	0	0	0	WM Stimuli\	0.9	1024.11111111111	0.9	1058.44444444444	0.8	1020.5	1	756.8	0.7	769.142857142857	1	1144	0.7	1034.14285714286	0.8	1034.625	13	566670	2	566658	26	39	566696	-999999	566673	0	62	TrialsPROC	BP_032_FLCHI_BA.png	3	2	89	SessionSelectionList														nonlure	3	Body	2-Back	78	80	74	0	0	92	2	39	543492	2	14	72	541453	-1	542458	1	1005	3	3	2039	53	543506	-54	0																89												
WM080112	756055_fnca	3	1	1	1117566290	1	75.031	75.031	2.0.10.147	2.0.10.242	2.0.10.242	1.0.0.439	7	234	2	3	Verdana	1	80	0	0	0	WM Stimuli\	0.9	1024.11111111111	0.9	1058.44444444444	0.8	1020.5	1	756.8	0.7	769.142857142857	1	1144	0.7	1034.14285714286	0.8	1034.625	13	566670	2	566658	26	39	566696	-999999	566673	0	62	TrialsPROC	BP_034_FLPUI_BA.png	3	2	90	SessionSelectionList														nonlure	3	Body	2-Back	79	80	75	0	0	92	3	39	546078	1	13	86	544039	-1	545152	1	1113	3	3	2039	52	546091	-53	0																90												
WM080112	756055_fnca	3	1	1	1117566290	1	75.031	75.031	2.0.10.147	2.0.10.242	2.0.10.242	1.0.0.439	7	234	2	3	Verdana	1	80	0	0	0	WM Stimuli\	0.9	1024.11111111111	0.9	1058.44444444444	0.8	1020.5	1	756.8	0.7	769.142857142857	1	1144	0.7	1034.14285714286	0.8	1034.625	13	566670	2	566658	26	39	566696	-999999	566673	0	62	TrialsPROC	BP_034_FLPUI_BA.png	3	2	91	SessionSelectionList														lure	3	Body	2-Back	80	80	76	0	0	92	4	39	548637	1	13	59	546598	-1	547706	1	1108	3	3	2039	52	548650	-53	0																91												
WM080112	756055_fnca	3	1	1	1117566290	1	75.031	75.031	2.0.10.147	2.0.10.242	2.0.10.242	1.0.0.439	7	234	2	3	Verdana	1	80	0	0	0	WM Stimuli\	0.9	1024.11111111111	0.9	1058.44444444444	0.8	1020.5	1	756.8	0.7	769.142857142857	1	1144	0.7	1034.14285714286	0.8	1034.625	13	566670	2	566658	26	39	566696	-999999	566673	0	62	TrialsPROC	BP_033_FLCHS_BA.png	3	2	92	SessionSelectionList														lure	3	Body	2-Back	80	80	77	0	0	92	1	39	551196	1	13	59	549157	-1	550271	0	1114	2	3	2039	52	551209	-53	0																92												
WM080112	756055_fnca	3	1	1	1117566290	1	75.031	75.031	2.0.10.147	2.0.10.242	2.0.10.242	1.0.0.439	7	234	2	3	Verdana	1	80	0	0	0	WM Stimuli\	0.9	1024.11111111111	0.9	1058.44444444444	0.8	1020.5	1	756.8	0.7	769.142857142857	1	1144	0.7	1034.14285714286	0.8	1034.625	13	566670	2	566658	26	39	566696	-999999	566673	0	63	Fix15secPROC	""	3	2	93	SessionSelectionList																																															6	551663	-7	0							93												
