ExperimentName	HCPID	RunNumber	Subject	Session	RandomSeed	Group	Laptop.RefreshRate	ScannerD2.RefreshRate	StudioVersion	RuntimeVersion	RuntimeVersionExpected	ExperimentVersion	triggercode	Allowed	Target	Nontarget	FontStyle	RunTrialNumber[Session]	TrialsPerRun[Session]	TotalRespGreater200[Session]	ConsecRTLess200[Session]	ConsecNonResp[Session]	StimuliDir	ACC_2_Back_Body	Avg_RT_For_Correct_Trials_2_Back_Body	ACC_0_Back_Body	Avg_RT_For_Correct_Trials_0_Back_Body	ACC_2_Back_Face	Avg_RT_For_Correct_Trials_2_Back_Face	ACC_0_Back_Face	Avg_RT_For_Correct_Trials_0_Back_Face	ACC_2_Back_Place	Avg_RT_For_Correct_Trials_2_Back_Place	ACC_0_Back_Place	Avg_RT_For_Correct_Trials_0_Back_Place	ACC_2_Back_Tools	Avg_RT_For_Correct_Trials_2_Back_Tools	ACC_0_Back_Tools	Avg_RT_For_Correct_Trials_0_Back_Tools	ExpInstrucFeelFreeToRest.OnsetDelay	ExpInstrucFeelFreeToRest.OnsetTime	ExpInstrucFeelFreeToRest.DurationError	ExpInstrucFeelFreeToRest.StartTime	ExpInstrucFeelFreeToRest.OnsetToOnsetTime	FeelFreeToRest.OnsetDelay	FeelFreeToRest.OnsetTime	FeelFreeToRest.DurationError	FeelFreeToRest.StartTime	FeelFreeToRest.OnsetToOnsetTime	SessionSelectionList	Procedure[Block]	Stimulus[Block]	RunNumberFilterValue	SessionSelectionList.Cycle	SessionSelectionList.Sample	Running[Block]	IntroButtonMap.OnsetDelay	IntroButtonMap.OnsetTime	IntroButtonMap.DurationError	IntroButtonMap.OnsetToOnsetTime	GetReady.OnsetDelay	GetReady.OnsetTime	GetReady.DurationError	GetReady.OnsetToOnsetTime	Cue2Back.OnsetDelay	Cue2Back.OnsetTime	Cue2Back.DurationError	Cue2Back.OnsetToOnsetTime	Run1Block1	TargetType	CorrectResponse	StimType	BlockType	RunTrialNumber[Block]	TrialsPerRun[Block]	TotalRespGreater200[Block]	ConsecRTLess200[Block]	ConsecNonResp[Block]	ControlAcc	ConsecSameResp	ExperimenterWindow.OnsetDelay	ExperimenterWindow.OnsetTime	ExperimenterWindow.DurationError	ExperimenterWindow.OnsetToOnsetTime	Stim.OnsetDelay	Stim.OnsetTime	Stim.DurationError	Stim.RTTime	Stim.ACC	Stim.RT	Stim.RESP	Stim.CRESP	Stim.OnsetToOnsetTime	Fix.OnsetDelay	Fix.OnsetTime	Fix.DurationError	Fix.OnsetToOnsetTime	CueTarget.OnsetDelay	CueTarget.OnsetTime	CueTarget.DurationError	CueTarget.OnsetToOnsetTime	Run1Block2	Fix15sec.OnsetDelay	Fix15sec.OnsetTime	Fix15sec.DurationError	Fix15sec.OnsetToOnsetTime	Run1Block3	Run1Block4	Run1Block5	Run1Block6	Run1Block7	Run1Block8	Block	Procedure[Trial]	Stimulus[Trial]	ReadyList	Running[Trial]	ReadyList.Cycle	ReadyList.Sample	SyncSlide.OnsetDelay	SyncSlide.OnsetTime	SyncSlide.DurationError	SyncSlide.FinishTime	SyncSlide.OnsetToOnsetTime	Trial
WM080112	751348_fnca	1	1	1	1990625459	1	75.035	75.031	2.0.10.147	2.0.10.242	2.0.10.242	1.0.0.439	7	234	2	3	Verdana	1	80	0	0	0	WM Stimuli\	0.9	1263.33333333333	0.7	1188.71428571429	1	1052.6	1	783.6	0.9	1014.77777777778	1	802.8	0.9	1111.44444444444	0.7	1314.57142857143	13	387226	2	387214	27	40	387253	-999999	387229	0	1	TRSyncPROC	""	1	2	1	SessionSelectionList	106	16697	-999999	0	40	80645	-999999	0																																																	1	InitialTR	4	1	ReadyList	1	1	19	94039	-20	96019	0	1
WM080112	751348_fnca	1	1	1	1990625459	1	75.035	75.031	2.0.10.147	2.0.10.242	2.0.10.242	1.0.0.439	7	234	2	3	Verdana	1	80	0	0	0	WM Stimuli\	0.9	1263.33333333333	0.7	1188.71428571429	1	1052.6	1	783.6	0.9	1014.77777777778	1	802.8	0.9	1111.44444444444	0.7	1314.57142857143	13	387226	2	387214	27	40	387253	-999999	387229	0	1	TRSyncPROC	""	1	2	1	SessionSelectionList	106	16697	-999999	0	40	80645	-999999	0																																																	1	InitialTR	3	2	ReadyList	1	2	18	96038	-19	98019	0	2
WM080112	751348_fnca	1	1	1	1990625459	1	75.035	75.031	2.0.10.147	2.0.10.242	2.0.10.242	1.0.0.439	7	234	2	3	Verdana	1	80	0	0	0	WM Stimuli\	0.9	1263.33333333333	0.7	1188.71428571429	1	1052.6	1	783.6	0.9	1014.77777777778	1	802.8	0.9	1111.44444444444	0.7	1314.57142857143	13	387226	2	387214	27	40	387253	-999999	387229	0	1	TRSyncPROC	""	1	2	1	SessionSelectionList	106	16697	-999999	0	40	80645	-999999	0																																																	1	InitialTR	2	3	ReadyList	1	3	4	98024	-5	100019	0	3
WM080112	751348_fnca	1	1	1	1990625459	1	75.035	75.031	2.0.10.147	2.0.10.242	2.0.10.242	1.0.0.439	7	234	2	3	Verdana	1	80	0	0	0	WM Stimuli\	0.9	1263.33333333333	0.7	1188.71428571429	1	1052.6	1	783.6	0.9	1014.77777777778	1	802.8	0.9	1111.44444444444	0.7	1314.57142857143	13	387226	2	387214	27	40	387253	-999999	387229	0	1	TRSyncPROC	""	1	2	1	SessionSelectionList	106	16697	-999999	0	40	80645	-999999	0																																																	1	InitialTR	1	4	ReadyList	1	4	4	100024	-5	102019	0	4
WM080112	751348_fnca	1	1	1	1990625459	1	75.035	75.031	2.0.10.147	2.0.10.242	2.0.10.242	1.0.0.439	7	234	2	3	Verdana	1	80	0	0	0	WM Stimuli\	0.9	1263.33333333333	0.7	1188.71428571429	1	1052.6	1	783.6	0.9	1014.77777777778	1	802.8	0.9	1111.44444444444	0.7	1314.57142857143	13	387226	2	387214	27	40	387253	-999999	387229	0	2	Cue2BackPROC	""	1	2	2	SessionSelectionList									16	102036	-17	0																																													2												
WM080112	751348_fnca	1	1	1	1990625459	1	75.035	75.031	2.0.10.147	2.0.10.242	2.0.10.242	1.0.0.439	7	234	2	3	Verdana	1	80	0	0	0	WM Stimuli\	0.9	1263.33333333333	0.7	1188.71428571429	1	1052.6	1	783.6	0.9	1014.77777777778	1	802.8	0.9	1111.44444444444	0.7	1314.57142857143	13	387226	2	387214	27	40	387253	-999999	387229	0	3	TrialsPROC	BP_002_BP10_BA.png	1	2	3	SessionSelectionList													1	nonlure	3	Body	2-Back	2	80	1	0	0	0	1	52	106647	3	14	75	104595	-1	105608	1	1013	3	3	2052	66	106661	-67	0																3												
WM080112	751348_fnca	1	1	1	1990625459	1	75.035	75.031	2.0.10.147	2.0.10.242	2.0.10.242	1.0.0.439	7	234	2	3	Verdana	1	80	0	0	0	WM Stimuli\	0.9	1263.33333333333	0.7	1188.71428571429	1	1052.6	1	783.6	0.9	1014.77777777778	1	802.8	0.9	1111.44444444444	0.7	1314.57142857143	13	387226	2	387214	27	40	387253	-999999	387229	0	3	TrialsPROC	BP_001_BP1_BA.png	1	2	4	SessionSelectionList													2	nonlure	3	Body	2-Back	3	80	2	0	0	0	2	39	109206	2	14	72	107167	-1	108218	1	1051	3	3	2039	53	109220	-54	0																4												
WM080112	751348_fnca	1	1	1	1990625459	1	75.035	75.031	2.0.10.147	2.0.10.242	2.0.10.242	1.0.0.439	7	234	2	3	Verdana	1	80	0	0	0	WM Stimuli\	0.9	1263.33333333333	0.7	1188.71428571429	1	1052.6	1	783.6	0.9	1014.77777777778	1	802.8	0.9	1111.44444444444	0.7	1314.57142857143	13	387226	2	387214	27	40	387253	-999999	387229	0	3	TrialsPROC	BP_006_BP2_BA.png	1	2	5	SessionSelectionList													3	nonlure	3	Body	2-Back	4	80	3	0	0	0	3	39	111765	1	14	59	109726	-1	110850	1	1124	3	3	2039	53	111779	-54	0																5												
WM080112	751348_fnca	1	1	1	1990625459	1	75.035	75.031	2.0.10.147	2.0.10.242	2.0.10.242	1.0.0.439	7	234	2	3	Verdana	1	80	0	0	0	WM Stimuli\	0.9	1263.33333333333	0.7	1188.71428571429	1	1052.6	1	783.6	0.9	1014.77777777778	1	802.8	0.9	1111.44444444444	0.7	1314.57142857143	13	387226	2	387214	27	40	387253	-999999	387229	0	3	TrialsPROC	BP_001_BP1_BA.png	1	2	6	SessionSelectionList													4	target	2	Body	2-Back	5	80	4	0	0	0	1	39	114337	2	14	72	112298	-1	113580	1	1282	2	2	2039	53	114351	-54	0																6												
WM080112	751348_fnca	1	1	1	1990625459	1	75.035	75.031	2.0.10.147	2.0.10.242	2.0.10.242	1.0.0.439	7	234	2	3	Verdana	1	80	0	0	0	WM Stimuli\	0.9	1263.33333333333	0.7	1188.71428571429	1	1052.6	1	783.6	0.9	1014.77777777778	1	802.8	0.9	1111.44444444444	0.7	1314.57142857143	13	387226	2	387214	27	40	387253	-999999	387229	0	3	TrialsPROC	BP_005_BP19_BA.png	1	2	7	SessionSelectionList													5	nonlure	3	Body	2-Back	6	80	5	0	0	0	1	39	116896	2	14	59	114857	-1	116113	1	1256	3	3	2039	53	116910	-54	0																7												
WM080112	751348_fnca	1	1	1	1990625459	1	75.035	75.031	2.0.10.147	2.0.10.242	2.0.10.242	1.0.0.439	7	234	2	3	Verdana	1	80	0	0	0	WM Stimuli\	0.9	1263.33333333333	0.7	1188.71428571429	1	1052.6	1	783.6	0.9	1014.77777777778	1	802.8	0.9	1111.44444444444	0.7	1314.57142857143	13	387226	2	387214	27	40	387253	-999999	387229	0	3	TrialsPROC	BP_003_BP16_BA.png	1	2	8	SessionSelectionList													6	nonlure	3	Body	2-Back	7	80	6	0	0	0	2	39	119455	2	14	59	117416	-1	119286	1	1870	3	3	2039	53	119469	-54	0																8												
WM080112	751348_fnca	1	1	1	1990625459	1	75.035	75.031	2.0.10.147	2.0.10.242	2.0.10.242	1.0.0.439	7	234	2	3	Verdana	1	80	0	0	0	WM Stimuli\	0.9	1263.33333333333	0.7	1188.71428571429	1	1052.6	1	783.6	0.9	1014.77777777778	1	802.8	0.9	1111.44444444444	0.7	1314.57142857143	13	387226	2	387214	27	40	387253	-999999	387229	0	3	TrialsPROC	BP_006_BP2_BA.png	1	2	9	SessionSelectionList													7	lure	3	Body	2-Back	8	80	7	0	0	0	1	39	122014	2	14	59	119975	-1	121913	0	1938	2	3	2039	53	122028	-54	0																9												
WM080112	751348_fnca	1	1	1	1990625459	1	75.035	75.031	2.0.10.147	2.0.10.242	2.0.10.242	1.0.0.439	7	234	2	3	Verdana	1	80	0	0	0	WM Stimuli\	0.9	1263.33333333333	0.7	1188.71428571429	1	1052.6	1	783.6	0.9	1014.77777777778	1	802.8	0.9	1111.44444444444	0.7	1314.57142857143	13	387226	2	387214	27	40	387253	-999999	387229	0	3	TrialsPROC	BP_004_BP18_BA.png	1	2	10	SessionSelectionList													8	nonlure	3	Body	2-Back	9	80	8	0	0	0	1	39	124573	2	14	59	122534	-1	123644	1	1110	3	3	2039	53	124587	-54	0																10												
WM080112	751348_fnca	1	1	1	1990625459	1	75.035	75.031	2.0.10.147	2.0.10.242	2.0.10.242	1.0.0.439	7	234	2	3	Verdana	1	80	0	0	0	WM Stimuli\	0.9	1263.33333333333	0.7	1188.71428571429	1	1052.6	1	783.6	0.9	1014.77777777778	1	802.8	0.9	1111.44444444444	0.7	1314.57142857143	13	387226	2	387214	27	40	387253	-999999	387229	0	3	TrialsPROC	BP_005_BP19_BA.png	1	2	11	SessionSelectionList													9	lure	3	Body	2-Back	10	80	9	0	0	0	2	39	127132	1	14	59	125093	-1	126681	1	1588	3	3	2039	53	127146	-54	0																11												
WM080112	751348_fnca	1	1	1	1990625459	1	75.035	75.031	2.0.10.147	2.0.10.242	2.0.10.242	1.0.0.439	7	234	2	3	Verdana	1	80	0	0	0	WM Stimuli\	0.9	1263.33333333333	0.7	1188.71428571429	1	1052.6	1	783.6	0.9	1014.77777777778	1	802.8	0.9	1111.44444444444	0.7	1314.57142857143	13	387226	2	387214	27	40	387253	-999999	387229	0	3	TrialsPROC	BP_004_BP18_BA.png	1	2	12	SessionSelectionList													10	target	2	Body	2-Back	11	80	10	0	0	0	1	39	129691	1	14	59	127652	-1	128728	1	1076	2	2	2039	53	129705	-54	0																12												
WM080112	751348_fnca	1	1	1	1990625459	1	75.035	75.031	2.0.10.147	2.0.10.242	2.0.10.242	1.0.0.439	7	234	2	3	Verdana	1	80	0	0	0	WM Stimuli\	0.9	1263.33333333333	0.7	1188.71428571429	1	1052.6	1	783.6	0.9	1014.77777777778	1	802.8	0.9	1111.44444444444	0.7	1314.57142857143	13	387226	2	387214	27	40	387253	-999999	387229	0	4	Cue0BackPROC	FC_001_M1.png	1	2	13	SessionSelectionList																																										19	130171	-20	0												13												
WM080112	751348_fnca	1	1	1	1990625459	1	75.035	75.031	2.0.10.147	2.0.10.242	2.0.10.242	1.0.0.439	7	234	2	3	Verdana	1	80	0	0	0	WM Stimuli\	0.9	1263.33333333333	0.7	1188.71428571429	1	1052.6	1	783.6	0.9	1014.77777777778	1	802.8	0.9	1111.44444444444	0.7	1314.57142857143	13	387226	2	387214	27	40	387253	-999999	387229	0	5	TrialsPROC	FC_005_M3.png	1	2	14	SessionSelectionList														nonlure	3	Face	0-Back	12	80	11	0	0	100	1	40	134756	1	13	64	132716	-1	134247	1	1531	3	3	2040	53	134769	-54	0					1											14												
WM080112	751348_fnca	1	1	1	1990625459	1	75.035	75.031	2.0.10.147	2.0.10.242	2.0.10.242	1.0.0.439	7	234	2	3	Verdana	1	80	0	0	0	WM Stimuli\	0.9	1263.33333333333	0.7	1188.71428571429	1	1052.6	1	783.6	0.9	1014.77777777778	1	802.8	0.9	1111.44444444444	0.7	1314.57142857143	13	387226	2	387214	27	40	387253	-999999	387229	0	5	TrialsPROC	FC_001_M1.png	1	2	15	SessionSelectionList														target	2	Face	0-Back	13	80	12	0	0	100	1	39	137328	1	14	73	135289	-1	136173	1	884	2	2	2039	53	137342	-54	0					2											15												
WM080112	751348_fnca	1	1	1	1990625459	1	75.035	75.031	2.0.10.147	2.0.10.242	2.0.10.242	1.0.0.439	7	234	2	3	Verdana	1	80	0	0	0	WM Stimuli\	0.9	1263.33333333333	0.7	1188.71428571429	1	1052.6	1	783.6	0.9	1014.77777777778	1	802.8	0.9	1111.44444444444	0.7	1314.57142857143	13	387226	2	387214	27	40	387253	-999999	387229	0	5	TrialsPROC	FC_003_M2.png	1	2	16	SessionSelectionList														nonlure	3	Face	0-Back	14	80	13	0	0	100	1	39	139900	2	14	72	137861	-1	138535	1	674	3	3	2039	53	139914	-54	0					3											16												
WM080112	751348_fnca	1	1	1	1990625459	1	75.035	75.031	2.0.10.147	2.0.10.242	2.0.10.242	1.0.0.439	7	234	2	3	Verdana	1	80	0	0	0	WM Stimuli\	0.9	1263.33333333333	0.7	1188.71428571429	1	1052.6	1	783.6	0.9	1014.77777777778	1	802.8	0.9	1111.44444444444	0.7	1314.57142857143	13	387226	2	387214	27	40	387253	-999999	387229	0	5	TrialsPROC	FC_004_F2.png	1	2	17	SessionSelectionList														nonlure	3	Face	0-Back	15	80	14	0	0	100	2	39	142472	2	14	72	140433	-1	141043	1	610	3	3	2039	53	142486	-54	0					4											17												
WM080112	751348_fnca	1	1	1	1990625459	1	75.035	75.031	2.0.10.147	2.0.10.242	2.0.10.242	1.0.0.439	7	234	2	3	Verdana	1	80	0	0	0	WM Stimuli\	0.9	1263.33333333333	0.7	1188.71428571429	1	1052.6	1	783.6	0.9	1014.77777777778	1	802.8	0.9	1111.44444444444	0.7	1314.57142857143	13	387226	2	387214	27	40	387253	-999999	387229	0	5	TrialsPROC	FC_004_F2.png	1	2	18	SessionSelectionList														lure	3	Face	0-Back	16	80	15	0	0	100	3	39	145045	1	13	73	143006	-1	143606	1	600	3	3	2039	52	145058	-53	0					5											18												
WM080112	751348_fnca	1	1	1	1990625459	1	75.035	75.031	2.0.10.147	2.0.10.242	2.0.10.242	1.0.0.439	7	234	2	3	Verdana	1	80	0	0	0	WM Stimuli\	0.9	1263.33333333333	0.7	1188.71428571429	1	1052.6	1	783.6	0.9	1014.77777777778	1	802.8	0.9	1111.44444444444	0.7	1314.57142857143	13	387226	2	387214	27	40	387253	-999999	387229	0	5	TrialsPROC	FC_001_M1.png	1	2	19	SessionSelectionList														target	2	Face	0-Back	17	80	16	0	0	100	1	39	147617	1	14	72	145578	-1	146195	1	617	2	2	2039	53	147631	-54	0					6											19												
WM080112	751348_fnca	1	1	1	1990625459	1	75.035	75.031	2.0.10.147	2.0.10.242	2.0.10.242	1.0.0.439	7	234	2	3	Verdana	1	80	0	0	0	WM Stimuli\	0.9	1263.33333333333	0.7	1188.71428571429	1	1052.6	1	783.6	0.9	1014.77777777778	1	802.8	0.9	1111.44444444444	0.7	1314.57142857143	13	387226	2	387214	27	40	387253	-999999	387229	0	5	TrialsPROC	FC_006_F3.png	1	2	20	SessionSelectionList														nonlure	3	Face	0-Back	18	80	17	0	0	100	1	39	150189	2	14	72	148150	-1	148830	1	680	3	3	2039	53	150203	-54	0					7											20												
WM080112	751348_fnca	1	1	1	1990625459	1	75.035	75.031	2.0.10.147	2.0.10.242	2.0.10.242	1.0.0.439	7	234	2	3	Verdana	1	80	0	0	0	WM Stimuli\	0.9	1263.33333333333	0.7	1188.71428571429	1	1052.6	1	783.6	0.9	1014.77777777778	1	802.8	0.9	1111.44444444444	0.7	1314.57142857143	13	387226	2	387214	27	40	387253	-999999	387229	0	5	TrialsPROC	FC_006_F3.png	1	2	21	SessionSelectionList														lure	3	Face	0-Back	19	80	18	0	0	100	2	40	152762	1	13	72	150722	-1	151388	1	666	3	3	2040	53	152775	-54	0					8											21												
WM080112	751348_fnca	1	1	1	1990625459	1	75.035	75.031	2.0.10.147	2.0.10.242	2.0.10.242	1.0.0.439	7	234	2	3	Verdana	1	80	0	0	0	WM Stimuli\	0.9	1263.33333333333	0.7	1188.71428571429	1	1052.6	1	783.6	0.9	1014.77777777778	1	802.8	0.9	1111.44444444444	0.7	1314.57142857143	13	387226	2	387214	27	40	387253	-999999	387229	0	5	TrialsPROC	FC_003_M2.png	1	2	22	SessionSelectionList														lure	3	Face	0-Back	20	80	19	0	0	100	3	39	155334	2	14	73	153295	-1	154251	1	956	3	3	2039	53	155348	-54	0					9											22												
WM080112	751348_fnca	1	1	1	1990625459	1	75.035	75.031	2.0.10.147	2.0.10.242	2.0.10.242	1.0.0.439	7	234	2	3	Verdana	1	80	0	0	0	WM Stimuli\	0.9	1263.33333333333	0.7	1188.71428571429	1	1052.6	1	783.6	0.9	1014.77777777778	1	802.8	0.9	1111.44444444444	0.7	1314.57142857143	13	387226	2	387214	27	40	387253	-999999	387229	0	5	TrialsPROC	FC_002_F1.png	1	2	23	SessionSelectionList														nonlure	3	Face	0-Back	21	80	20	0	0	100	4	39	157906	2	14	72	155867	-1	156485	1	618	3	3	2039	53	157920	-54	0					10											23												
WM080112	751348_fnca	1	1	1	1990625459	1	75.035	75.031	2.0.10.147	2.0.10.242	2.0.10.242	1.0.0.439	7	234	2	3	Verdana	1	80	0	0	0	WM Stimuli\	0.9	1263.33333333333	0.7	1188.71428571429	1	1052.6	1	783.6	0.9	1014.77777777778	1	802.8	0.9	1111.44444444444	0.7	1314.57142857143	13	387226	2	387214	27	40	387253	-999999	387229	0	6	Fix15secPROC	""	1	2	24	SessionSelectionList																																															6	158373	-7	0							24												
WM080112	751348_fnca	1	1	1	1990625459	1	75.035	75.031	2.0.10.147	2.0.10.242	2.0.10.242	1.0.0.439	7	234	2	3	Verdana	1	80	0	0	0	WM Stimuli\	0.9	1263.33333333333	0.7	1188.71428571429	1	1052.6	1	783.6	0.9	1014.77777777778	1	802.8	0.9	1111.44444444444	0.7	1314.57142857143	13	387226	2	387214	27	40	387253	-999999	387229	0	7	Cue2BackPROC	""	1	2	25	SessionSelectionList									13	173380	-14	0																																													25												
WM080112	751348_fnca	1	1	1	1990625459	1	75.035	75.031	2.0.10.147	2.0.10.242	2.0.10.242	1.0.0.439	7	234	2	3	Verdana	1	80	0	0	0	WM Stimuli\	0.9	1263.33333333333	0.7	1188.71428571429	1	1052.6	1	783.6	0.9	1014.77777777778	1	802.8	0.9	1111.44444444444	0.7	1314.57142857143	13	387226	2	387214	27	40	387253	-999999	387229	0	8	TrialsPROC	TO_001_TOOL1_BA.png	1	2	26	SessionSelectionList														nonlure	3	Tools	2-Back	22	80	21	0	0	100	5	40	177965	1	13	58	175925	-1	176569	1	644	3	3	2040	53	177978	-54	0										1						26												
WM080112	751348_fnca	1	1	1	1990625459	1	75.035	75.031	2.0.10.147	2.0.10.242	2.0.10.242	1.0.0.439	7	234	2	3	Verdana	1	80	0	0	0	WM Stimuli\	0.9	1263.33333333333	0.7	1188.71428571429	1	1052.6	1	783.6	0.9	1014.77777777778	1	802.8	0.9	1111.44444444444	0.7	1314.57142857143	13	387226	2	387214	27	40	387253	-999999	387229	0	8	TrialsPROC	TO_002_TOOL2_BA.png	1	2	27	SessionSelectionList														nonlure	3	Tools	2-Back	23	80	22	0	0	100	6	40	180524	1	13	59	178484	-1	180066	1	1582	3	3	2040	53	180537	-54	0										2						27												
WM080112	751348_fnca	1	1	1	1990625459	1	75.035	75.031	2.0.10.147	2.0.10.242	2.0.10.242	1.0.0.439	7	234	2	3	Verdana	1	80	0	0	0	WM Stimuli\	0.9	1263.33333333333	0.7	1188.71428571429	1	1052.6	1	783.6	0.9	1014.77777777778	1	802.8	0.9	1111.44444444444	0.7	1314.57142857143	13	387226	2	387214	27	40	387253	-999999	387229	0	8	TrialsPROC	TO_004_TOOL4_BA.png	1	2	28	SessionSelectionList														nonlure	3	Tools	2-Back	24	80	23	0	0	100	7	40	183083	1	13	59	181043	-1	182573	1	1530	3	3	2040	53	183096	-54	0										3						28												
WM080112	751348_fnca	1	1	1	1990625459	1	75.035	75.031	2.0.10.147	2.0.10.242	2.0.10.242	1.0.0.439	7	234	2	3	Verdana	1	80	0	0	0	WM Stimuli\	0.9	1263.33333333333	0.7	1188.71428571429	1	1052.6	1	783.6	0.9	1014.77777777778	1	802.8	0.9	1111.44444444444	0.7	1314.57142857143	13	387226	2	387214	27	40	387253	-999999	387229	0	8	TrialsPROC	TO_002_TOOL2_BA.png	1	2	29	SessionSelectionList														target	2	Tools	2-Back	25	80	24	0	0	100	1	39	185641	2	14	59	183602	-1	184538	1	936	2	2	2039	53	185655	-54	0										4						29												
WM080112	751348_fnca	1	1	1	1990625459	1	75.035	75.031	2.0.10.147	2.0.10.242	2.0.10.242	1.0.0.439	7	234	2	3	Verdana	1	80	0	0	0	WM Stimuli\	0.9	1263.33333333333	0.7	1188.71428571429	1	1052.6	1	783.6	0.9	1014.77777777778	1	802.8	0.9	1111.44444444444	0.7	1314.57142857143	13	387226	2	387214	27	40	387253	-999999	387229	0	8	TrialsPROC	TO_001_TOOL1_BA.png	1	2	30	SessionSelectionList														lure	3	Tools	2-Back	26	80	25	0	0	100	1	39	188200	2	14	59	186161	-1	187418	1	1257	3	3	2039	53	188214	-54	0										5						30												
WM080112	751348_fnca	1	1	1	1990625459	1	75.035	75.031	2.0.10.147	2.0.10.242	2.0.10.242	1.0.0.439	7	234	2	3	Verdana	1	80	0	0	0	WM Stimuli\	0.9	1263.33333333333	0.7	1188.71428571429	1	1052.6	1	783.6	0.9	1014.77777777778	1	802.8	0.9	1111.44444444444	0.7	1314.57142857143	13	387226	2	387214	27	40	387253	-999999	387229	0	8	TrialsPROC	TO_004_TOOL4_BA.png	1	2	31	SessionSelectionList														lure	3	Tools	2-Back	27	80	25	0	1	100	1	39	190759	2	14	59	188720	-1	0	0	0	""	3	2039	53	190773	-54	0										6						31												
WM080112	751348_fnca	1	1	1	1990625459	1	75.035	75.031	2.0.10.147	2.0.10.242	2.0.10.242	1.0.0.439	7	234	2	3	Verdana	1	80	0	0	0	WM Stimuli\	0.9	1263.33333333333	0.7	1188.71428571429	1	1052.6	1	783.6	0.9	1014.77777777778	1	802.8	0.9	1111.44444444444	0.7	1314.57142857143	13	387226	2	387214	27	40	387253	-999999	387229	0	8	TrialsPROC	TO_006_TOOL6_BA.png	1	2	32	SessionSelectionList														nonlure	3	Tools	2-Back	28	80	26	0	0	100	1	39	193318	2	14	59	191279	-1	192480	1	1201	3	3	2039	53	193332	-54	0										7						32												
WM080112	751348_fnca	1	1	1	1990625459	1	75.035	75.031	2.0.10.147	2.0.10.242	2.0.10.242	1.0.0.439	7	234	2	3	Verdana	1	80	0	0	0	WM Stimuli\	0.9	1263.33333333333	0.7	1188.71428571429	1	1052.6	1	783.6	0.9	1014.77777777778	1	802.8	0.9	1111.44444444444	0.7	1314.57142857143	13	387226	2	387214	27	40	387253	-999999	387229	0	8	TrialsPROC	TO_005_TOOL5_BA.png	1	2	33	SessionSelectionList														nonlure	3	Tools	2-Back	29	80	27	0	0	100	2	39	195877	2	14	59	193838	-1	195103	1	1265	3	3	2039	53	195891	-54	0										8						33												
WM080112	751348_fnca	1	1	1	1990625459	1	75.035	75.031	2.0.10.147	2.0.10.242	2.0.10.242	1.0.0.439	7	234	2	3	Verdana	1	80	0	0	0	WM Stimuli\	0.9	1263.33333333333	0.7	1188.71428571429	1	1052.6	1	783.6	0.9	1014.77777777778	1	802.8	0.9	1111.44444444444	0.7	1314.57142857143	13	387226	2	387214	27	40	387253	-999999	387229	0	8	TrialsPROC	TO_006_TOOL6_BA.png	1	2	34	SessionSelectionList														target	2	Tools	2-Back	30	80	28	0	0	100	1	39	198436	2	14	59	196397	-1	197010	1	613	2	2	2039	53	198450	-54	0										9						34												
WM080112	751348_fnca	1	1	1	1990625459	1	75.035	75.031	2.0.10.147	2.0.10.242	2.0.10.242	1.0.0.439	7	234	2	3	Verdana	1	80	0	0	0	WM Stimuli\	0.9	1263.33333333333	0.7	1188.71428571429	1	1052.6	1	783.6	0.9	1014.77777777778	1	802.8	0.9	1111.44444444444	0.7	1314.57142857143	13	387226	2	387214	27	40	387253	-999999	387229	0	8	TrialsPROC	TO_003_TOOL3_BA.png	1	2	35	SessionSelectionList														nonlure	3	Tools	2-Back	31	80	29	0	0	100	1	39	200995	2	14	59	198956	-1	199931	1	975	3	3	2039	53	201009	-54	0										10						35												
WM080112	751348_fnca	1	1	1	1990625459	1	75.035	75.031	2.0.10.147	2.0.10.242	2.0.10.242	1.0.0.439	7	234	2	3	Verdana	1	80	0	0	0	WM Stimuli\	0.9	1263.33333333333	0.7	1188.71428571429	1	1052.6	1	783.6	0.9	1014.77777777778	1	802.8	0.9	1111.44444444444	0.7	1314.57142857143	13	387226	2	387214	27	40	387253	-999999	387229	0	9	Cue0BackPROC	BP_007_BP20_BA.png	1	2	36	SessionSelectionList																																										19	201475	-20	0												36												
WM080112	751348_fnca	1	1	1	1990625459	1	75.035	75.031	2.0.10.147	2.0.10.242	2.0.10.242	1.0.0.439	7	234	2	3	Verdana	1	80	0	0	0	WM Stimuli\	0.9	1263.33333333333	0.7	1188.71428571429	1	1052.6	1	783.6	0.9	1014.77777777778	1	802.8	0.9	1111.44444444444	0.7	1314.57142857143	13	387226	2	387214	27	40	387253	-999999	387229	0	10	TrialsPROC	BP_007_BP20_BA.png	1	2	37	SessionSelectionList														target	2	Body	0-Back	32	80	30	0	0	91	2	39	206046	2	14	51	204007	-1	205680	0	1673	3	2	2039	53	206060	-54	0											1					37												
WM080112	751348_fnca	1	1	1	1990625459	1	75.035	75.031	2.0.10.147	2.0.10.242	2.0.10.242	1.0.0.439	7	234	2	3	Verdana	1	80	0	0	0	WM Stimuli\	0.9	1263.33333333333	0.7	1188.71428571429	1	1052.6	1	783.6	0.9	1014.77777777778	1	802.8	0.9	1111.44444444444	0.7	1314.57142857143	13	387226	2	387214	27	40	387253	-999999	387229	0	10	TrialsPROC	BP_011_BP4_BA.png	1	2	38	SessionSelectionList														nonlure	3	Body	0-Back	33	80	31	0	0	92	3	38	208605	2	14	60	206567	-1	207645	1	1078	3	3	2038	52	208619	-53	0											2					38												
WM080112	751348_fnca	1	1	1	1990625459	1	75.035	75.031	2.0.10.147	2.0.10.242	2.0.10.242	1.0.0.439	7	234	2	3	Verdana	1	80	0	0	0	WM Stimuli\	0.9	1263.33333333333	0.7	1188.71428571429	1	1052.6	1	783.6	0.9	1014.77777777778	1	802.8	0.9	1111.44444444444	0.7	1314.57142857143	13	387226	2	387214	27	40	387253	-999999	387229	0	10	TrialsPROC	BP_010_BP3_BA.png	1	2	39	SessionSelectionList														nonlure	3	Body	0-Back	34	80	32	0	0	92	4	39	211164	2	14	58	209125	-1	210204	1	1079	3	3	2039	53	211178	-54	0											3					39												
WM080112	751348_fnca	1	1	1	1990625459	1	75.035	75.031	2.0.10.147	2.0.10.242	2.0.10.242	1.0.0.439	7	234	2	3	Verdana	1	80	0	0	0	WM Stimuli\	0.9	1263.33333333333	0.7	1188.71428571429	1	1052.6	1	783.6	0.9	1014.77777777778	1	802.8	0.9	1111.44444444444	0.7	1314.57142857143	13	387226	2	387214	27	40	387253	-999999	387229	0	10	TrialsPROC	BP_008_BP21_BA.png	1	2	40	SessionSelectionList														nonlure	3	Body	0-Back	35	80	33	0	0	93	5	39	213723	2	14	59	211684	-1	212807	1	1123	3	3	2039	53	213737	-54	0											4					40												
WM080112	751348_fnca	1	1	1	1990625459	1	75.035	75.031	2.0.10.147	2.0.10.242	2.0.10.242	1.0.0.439	7	234	2	3	Verdana	1	80	0	0	0	WM Stimuli\	0.9	1263.33333333333	0.7	1188.71428571429	1	1052.6	1	783.6	0.9	1014.77777777778	1	802.8	0.9	1111.44444444444	0.7	1314.57142857143	13	387226	2	387214	27	40	387253	-999999	387229	0	10	TrialsPROC	BP_011_BP4_BA.png	1	2	41	SessionSelectionList														lure	3	Body	0-Back	36	80	34	0	0	87	1	40	216296	1	13	72	214256	-1	215005	0	749	2	3	2040	53	216309	-54	0											5					41												
WM080112	751348_fnca	1	1	1	1990625459	1	75.035	75.031	2.0.10.147	2.0.10.242	2.0.10.242	1.0.0.439	7	234	2	3	Verdana	1	80	0	0	0	WM Stimuli\	0.9	1263.33333333333	0.7	1188.71428571429	1	1052.6	1	783.6	0.9	1014.77777777778	1	802.8	0.9	1111.44444444444	0.7	1314.57142857143	13	387226	2	387214	27	40	387253	-999999	387229	0	10	TrialsPROC	BP_009_BP22_BA.png	1	2	42	SessionSelectionList														nonlure	3	Body	0-Back	37	80	35	0	0	88	1	40	218855	1	13	59	216815	-1	217932	1	1117	3	3	2040	53	218868	-54	0											6					42												
WM080112	751348_fnca	1	1	1	1990625459	1	75.035	75.031	2.0.10.147	2.0.10.242	2.0.10.242	1.0.0.439	7	234	2	3	Verdana	1	80	0	0	0	WM Stimuli\	0.9	1263.33333333333	0.7	1188.71428571429	1	1052.6	1	783.6	0.9	1014.77777777778	1	802.8	0.9	1111.44444444444	0.7	1314.57142857143	13	387226	2	387214	27	40	387253	-999999	387229	0	10	TrialsPROC	BP_009_BP22_BA.png	1	2	43	SessionSelectionList														lure	3	Body	0-Back	38	80	36	0	0	88	2	40	221414	1	13	59	219374	-1	220496	1	1122	3	3	2040	53	221427	-54	0											7					43												
WM080112	751348_fnca	1	1	1	1990625459	1	75.035	75.031	2.0.10.147	2.0.10.242	2.0.10.242	1.0.0.439	7	234	2	3	Verdana	1	80	0	0	0	WM Stimuli\	0.9	1263.33333333333	0.7	1188.71428571429	1	1052.6	1	783.6	0.9	1014.77777777778	1	802.8	0.9	1111.44444444444	0.7	1314.57142857143	13	387226	2	387214	27	40	387253	-999999	387229	0	10	TrialsPROC	BP_008_BP21_BA.png	1	2	44	SessionSelectionList														lure	3	Body	0-Back	39	80	37	0	0	89	3	39	223972	2	14	59	221933	-1	223424	1	1491	3	3	2039	53	223986	-54	0											8					44												
WM080112	751348_fnca	1	1	1	1990625459	1	75.035	75.031	2.0.10.147	2.0.10.242	2.0.10.242	1.0.0.439	7	234	2	3	Verdana	1	80	0	0	0	WM Stimuli\	0.9	1263.33333333333	0.7	1188.71428571429	1	1052.6	1	783.6	0.9	1014.77777777778	1	802.8	0.9	1111.44444444444	0.7	1314.57142857143	13	387226	2	387214	27	40	387253	-999999	387229	0	10	TrialsPROC	BP_007_BP20_BA.png	1	2	45	SessionSelectionList														target	2	Body	0-Back	40	80	38	0	0	84	4	39	226531	2	14	59	224492	-1	225859	0	1367	3	2	2039	53	226545	-54	0											9					45												
WM080112	751348_fnca	1	1	1	1990625459	1	75.035	75.031	2.0.10.147	2.0.10.242	2.0.10.242	1.0.0.439	7	234	2	3	Verdana	1	80	0	0	0	WM Stimuli\	0.9	1263.33333333333	0.7	1188.71428571429	1	1052.6	1	783.6	0.9	1014.77777777778	1	802.8	0.9	1111.44444444444	0.7	1314.57142857143	13	387226	2	387214	27	40	387253	-999999	387229	0	10	TrialsPROC	BP_012_BP5_BA.png	1	2	46	SessionSelectionList														nonlure	3	Body	0-Back	41	80	39	0	0	85	5	39	229090	3	14	59	227051	-1	228362	1	1311	3	3	2039	53	229104	-54	0											10					46												
WM080112	751348_fnca	1	1	1	1990625459	1	75.035	75.031	2.0.10.147	2.0.10.242	2.0.10.242	1.0.0.439	7	234	2	3	Verdana	1	80	0	0	0	WM Stimuli\	0.9	1263.33333333333	0.7	1188.71428571429	1	1052.6	1	783.6	0.9	1014.77777777778	1	802.8	0.9	1111.44444444444	0.7	1314.57142857143	13	387226	2	387214	27	40	387253	-999999	387229	0	11	Fix15secPROC	""	1	2	47	SessionSelectionList																																															6	229557	-7	0							47												
WM080112	751348_fnca	1	1	1	1990625459	1	75.035	75.031	2.0.10.147	2.0.10.242	2.0.10.242	1.0.0.439	7	234	2	3	Verdana	1	80	0	0	0	WM Stimuli\	0.9	1263.33333333333	0.7	1188.71428571429	1	1052.6	1	783.6	0.9	1014.77777777778	1	802.8	0.9	1111.44444444444	0.7	1314.57142857143	13	387226	2	387214	27	40	387253	-999999	387229	0	12	Cue0BackPROC	PL_001_92012.png	1	2	48	SessionSelectionList																																										13	244564	-14	0												48												
WM080112	751348_fnca	1	1	1	1990625459	1	75.035	75.031	2.0.10.147	2.0.10.242	2.0.10.242	1.0.0.439	7	234	2	3	Verdana	1	80	0	0	0	WM Stimuli\	0.9	1263.33333333333	0.7	1188.71428571429	1	1052.6	1	783.6	0.9	1014.77777777778	1	802.8	0.9	1111.44444444444	0.7	1314.57142857143	13	387226	2	387214	27	40	387253	-999999	387229	0	13	TrialsPROC	PL_003_92016.png	1	2	49	SessionSelectionList														nonlure	3	Place	0-Back	42	80	40	0	0	86	6	39	249162	2	14	72	247123	-1	248291	1	1168	3	3	2039	53	249176	-54	0												1				49												
WM080112	751348_fnca	1	1	1	1990625459	1	75.035	75.031	2.0.10.147	2.0.10.242	2.0.10.242	1.0.0.439	7	234	2	3	Verdana	1	80	0	0	0	WM Stimuli\	0.9	1263.33333333333	0.7	1188.71428571429	1	1052.6	1	783.6	0.9	1014.77777777778	1	802.8	0.9	1111.44444444444	0.7	1314.57142857143	13	387226	2	387214	27	40	387253	-999999	387229	0	13	TrialsPROC	PL_003_92016.png	1	2	50	SessionSelectionList														lure	3	Place	0-Back	43	80	41	0	0	86	7	39	251734	2	14	72	249695	-1	250718	1	1023	3	3	2039	53	251748	-54	0												2				50												
WM080112	751348_fnca	1	1	1	1990625459	1	75.035	75.031	2.0.10.147	2.0.10.242	2.0.10.242	1.0.0.439	7	234	2	3	Verdana	1	80	0	0	0	WM Stimuli\	0.9	1263.33333333333	0.7	1188.71428571429	1	1052.6	1	783.6	0.9	1014.77777777778	1	802.8	0.9	1111.44444444444	0.7	1314.57142857143	13	387226	2	387214	27	40	387253	-999999	387229	0	13	TrialsPROC	PL_006_92025.png	1	2	51	SessionSelectionList														nonlure	3	Place	0-Back	44	80	42	0	0	87	8	39	254307	1	13	73	252268	-1	252991	1	723	3	3	2039	52	254320	-53	0												3				51												
WM080112	751348_fnca	1	1	1	1990625459	1	75.035	75.031	2.0.10.147	2.0.10.242	2.0.10.242	1.0.0.439	7	234	2	3	Verdana	1	80	0	0	0	WM Stimuli\	0.9	1263.33333333333	0.7	1188.71428571429	1	1052.6	1	783.6	0.9	1014.77777777778	1	802.8	0.9	1111.44444444444	0.7	1314.57142857143	13	387226	2	387214	27	40	387253	-999999	387229	0	13	TrialsPROC	PL_001_92012.png	1	2	52	SessionSelectionList														target	2	Place	0-Back	45	80	43	0	0	88	1	39	256879	1	14	72	254840	-1	255762	1	922	2	2	2039	53	256893	-54	0												4				52												
WM080112	751348_fnca	1	1	1	1990625459	1	75.035	75.031	2.0.10.147	2.0.10.242	2.0.10.242	1.0.0.439	7	234	2	3	Verdana	1	80	0	0	0	WM Stimuli\	0.9	1263.33333333333	0.7	1188.71428571429	1	1052.6	1	783.6	0.9	1014.77777777778	1	802.8	0.9	1111.44444444444	0.7	1314.57142857143	13	387226	2	387214	27	40	387253	-999999	387229	0	13	TrialsPROC	PL_004_92023.png	1	2	53	SessionSelectionList														nonlure	3	Place	0-Back	46	80	44	0	0	88	1	39	259451	2	14	72	257412	-1	258109	1	697	3	3	2039	53	259465	-54	0												5				53												
WM080112	751348_fnca	1	1	1	1990625459	1	75.035	75.031	2.0.10.147	2.0.10.242	2.0.10.242	1.0.0.439	7	234	2	3	Verdana	1	80	0	0	0	WM Stimuli\	0.9	1263.33333333333	0.7	1188.71428571429	1	1052.6	1	783.6	0.9	1014.77777777778	1	802.8	0.9	1111.44444444444	0.7	1314.57142857143	13	387226	2	387214	27	40	387253	-999999	387229	0	13	TrialsPROC	PL_005_92024.png	1	2	54	SessionSelectionList														nonlure	3	Place	0-Back	47	80	45	0	0	88	2	39	262010	3	14	59	259971	-1	260607	1	636	3	3	2039	53	262024	-54	0												6				54												
WM080112	751348_fnca	1	1	1	1990625459	1	75.035	75.031	2.0.10.147	2.0.10.242	2.0.10.242	1.0.0.439	7	234	2	3	Verdana	1	80	0	0	0	WM Stimuli\	0.9	1263.33333333333	0.7	1188.71428571429	1	1052.6	1	783.6	0.9	1014.77777777778	1	802.8	0.9	1111.44444444444	0.7	1314.57142857143	13	387226	2	387214	27	40	387253	-999999	387229	0	13	TrialsPROC	PL_001_92012.png	1	2	55	SessionSelectionList														target	2	Place	0-Back	48	80	46	0	0	89	1	39	264569	2	14	59	262530	-1	263353	1	823	2	2	2039	53	264583	-54	0												7				55												
WM080112	751348_fnca	1	1	1	1990625459	1	75.035	75.031	2.0.10.147	2.0.10.242	2.0.10.242	1.0.0.439	7	234	2	3	Verdana	1	80	0	0	0	WM Stimuli\	0.9	1263.33333333333	0.7	1188.71428571429	1	1052.6	1	783.6	0.9	1014.77777777778	1	802.8	0.9	1111.44444444444	0.7	1314.57142857143	13	387226	2	387214	27	40	387253	-999999	387229	0	13	TrialsPROC	PL_002_92014.png	1	2	56	SessionSelectionList														nonlure	3	Place	0-Back	49	80	47	0	0	89	1	39	267141	3	14	72	265102	-1	265708	1	606	3	3	2039	53	267155	-54	0												8				56												
WM080112	751348_fnca	1	1	1	1990625459	1	75.035	75.031	2.0.10.147	2.0.10.242	2.0.10.242	1.0.0.439	7	234	2	3	Verdana	1	80	0	0	0	WM Stimuli\	0.9	1263.33333333333	0.7	1188.71428571429	1	1052.6	1	783.6	0.9	1014.77777777778	1	802.8	0.9	1111.44444444444	0.7	1314.57142857143	13	387226	2	387214	27	40	387253	-999999	387229	0	13	TrialsPROC	PL_004_92023.png	1	2	57	SessionSelectionList														lure	3	Place	0-Back	50	80	48	0	0	90	2	39	269700	2	14	59	267661	-1	268417	1	756	3	3	2039	53	269714	-54	0												9				57												
WM080112	751348_fnca	1	1	1	1990625459	1	75.035	75.031	2.0.10.147	2.0.10.242	2.0.10.242	1.0.0.439	7	234	2	3	Verdana	1	80	0	0	0	WM Stimuli\	0.9	1263.33333333333	0.7	1188.71428571429	1	1052.6	1	783.6	0.9	1014.77777777778	1	802.8	0.9	1111.44444444444	0.7	1314.57142857143	13	387226	2	387214	27	40	387253	-999999	387229	0	13	TrialsPROC	PL_006_92025.png	1	2	58	SessionSelectionList														lure	3	Place	0-Back	51	80	49	0	0	90	3	39	272273	1	13	73	270234	-1	270908	1	674	3	3	2039	52	272286	-53	0												10				58												
WM080112	751348_fnca	1	1	1	1990625459	1	75.035	75.031	2.0.10.147	2.0.10.242	2.0.10.242	1.0.0.439	7	234	2	3	Verdana	1	80	0	0	0	WM Stimuli\	0.9	1263.33333333333	0.7	1188.71428571429	1	1052.6	1	783.6	0.9	1014.77777777778	1	802.8	0.9	1111.44444444444	0.7	1314.57142857143	13	387226	2	387214	27	40	387253	-999999	387229	0	14	Cue2BackPROC	""	1	2	59	SessionSelectionList									5	272739	-6	0																																													59												
WM080112	751348_fnca	1	1	1	1990625459	1	75.035	75.031	2.0.10.147	2.0.10.242	2.0.10.242	1.0.0.439	7	234	2	3	Verdana	1	80	0	0	0	WM Stimuli\	0.9	1263.33333333333	0.7	1188.71428571429	1	1052.6	1	783.6	0.9	1014.77777777778	1	802.8	0.9	1111.44444444444	0.7	1314.57142857143	13	387226	2	387214	27	40	387253	-999999	387229	0	15	TrialsPROC	FC_010_F5.png	1	2	60	SessionSelectionList														nonlure	3	Face	2-Back	52	80	50	0	0	90	4	39	277337	2	14	64	275298	-1	277148	1	1850	3	3	2039	53	277351	-54	0													1			60												
WM080112	751348_fnca	1	1	1	1990625459	1	75.035	75.031	2.0.10.147	2.0.10.242	2.0.10.242	1.0.0.439	7	234	2	3	Verdana	1	80	0	0	0	WM Stimuli\	0.9	1263.33333333333	0.7	1188.71428571429	1	1052.6	1	783.6	0.9	1014.77777777778	1	802.8	0.9	1111.44444444444	0.7	1314.57142857143	13	387226	2	387214	27	40	387253	-999999	387229	0	15	TrialsPROC	FC_012_F6.png	1	2	61	SessionSelectionList														nonlure	3	Face	2-Back	53	80	51	0	0	90	5	40	279910	1	13	72	277870	-1	278667	1	797	3	3	2040	53	279923	-54	0													2			61												
WM080112	751348_fnca	1	1	1	1990625459	1	75.035	75.031	2.0.10.147	2.0.10.242	2.0.10.242	1.0.0.439	7	234	2	3	Verdana	1	80	0	0	0	WM Stimuli\	0.9	1263.33333333333	0.7	1188.71428571429	1	1052.6	1	783.6	0.9	1014.77777777778	1	802.8	0.9	1111.44444444444	0.7	1314.57142857143	13	387226	2	387214	27	40	387253	-999999	387229	0	15	TrialsPROC	FC_010_F5.png	1	2	62	SessionSelectionList														target	2	Face	2-Back	54	80	52	0	0	90	1	39	282482	1	14	73	280443	-1	281288	1	845	2	2	2039	53	282496	-54	0													3			62												
WM080112	751348_fnca	1	1	1	1990625459	1	75.035	75.031	2.0.10.147	2.0.10.242	2.0.10.242	1.0.0.439	7	234	2	3	Verdana	1	80	0	0	0	WM Stimuli\	0.9	1263.33333333333	0.7	1188.71428571429	1	1052.6	1	783.6	0.9	1014.77777777778	1	802.8	0.9	1111.44444444444	0.7	1314.57142857143	13	387226	2	387214	27	40	387253	-999999	387229	0	15	TrialsPROC	FC_008_F4.png	1	2	63	SessionSelectionList														nonlure	3	Face	2-Back	55	80	53	0	0	90	1	39	285054	2	14	72	283015	-1	283764	1	749	3	3	2039	53	285068	-54	0													4			63												
WM080112	751348_fnca	1	1	1	1990625459	1	75.035	75.031	2.0.10.147	2.0.10.242	2.0.10.242	1.0.0.439	7	234	2	3	Verdana	1	80	0	0	0	WM Stimuli\	0.9	1263.33333333333	0.7	1188.71428571429	1	1052.6	1	783.6	0.9	1014.77777777778	1	802.8	0.9	1111.44444444444	0.7	1314.57142857143	13	387226	2	387214	27	40	387253	-999999	387229	0	15	TrialsPROC	FC_012_F6.png	1	2	64	SessionSelectionList														lure	3	Face	2-Back	56	80	54	0	0	90	2	39	287626	2	14	72	285587	-1	286625	1	1038	3	3	2039	53	287640	-54	0													5			64												
WM080112	751348_fnca	1	1	1	1990625459	1	75.035	75.031	2.0.10.147	2.0.10.242	2.0.10.242	1.0.0.439	7	234	2	3	Verdana	1	80	0	0	0	WM Stimuli\	0.9	1263.33333333333	0.7	1188.71428571429	1	1052.6	1	783.6	0.9	1014.77777777778	1	802.8	0.9	1111.44444444444	0.7	1314.57142857143	13	387226	2	387214	27	40	387253	-999999	387229	0	15	TrialsPROC	FC_008_F4.png	1	2	65	SessionSelectionList														target	2	Face	2-Back	57	80	55	0	0	90	1	39	290199	1	13	73	288160	-1	289256	1	1096	2	2	2039	52	290212	-53	0													6			65												
WM080112	751348_fnca	1	1	1	1990625459	1	75.035	75.031	2.0.10.147	2.0.10.242	2.0.10.242	1.0.0.439	7	234	2	3	Verdana	1	80	0	0	0	WM Stimuli\	0.9	1263.33333333333	0.7	1188.71428571429	1	1052.6	1	783.6	0.9	1014.77777777778	1	802.8	0.9	1111.44444444444	0.7	1314.57142857143	13	387226	2	387214	27	40	387253	-999999	387229	0	15	TrialsPROC	FC_007_M4.png	1	2	66	SessionSelectionList														nonlure	3	Face	2-Back	58	80	56	0	0	90	1	39	292771	1	14	72	290732	-1	291491	1	759	3	3	2039	53	292785	-54	0													7			66												
WM080112	751348_fnca	1	1	1	1990625459	1	75.035	75.031	2.0.10.147	2.0.10.242	2.0.10.242	1.0.0.439	7	234	2	3	Verdana	1	80	0	0	0	WM Stimuli\	0.9	1263.33333333333	0.7	1188.71428571429	1	1052.6	1	783.6	0.9	1014.77777777778	1	802.8	0.9	1111.44444444444	0.7	1314.57142857143	13	387226	2	387214	27	40	387253	-999999	387229	0	15	TrialsPROC	FC_007_M4.png	1	2	67	SessionSelectionList														lure	3	Face	2-Back	59	80	57	0	0	90	2	39	295343	2	14	72	293304	-1	294181	1	877	3	3	2039	53	295357	-54	0													8			67												
WM080112	751348_fnca	1	1	1	1990625459	1	75.035	75.031	2.0.10.147	2.0.10.242	2.0.10.242	1.0.0.439	7	234	2	3	Verdana	1	80	0	0	0	WM Stimuli\	0.9	1263.33333333333	0.7	1188.71428571429	1	1052.6	1	783.6	0.9	1014.77777777778	1	802.8	0.9	1111.44444444444	0.7	1314.57142857143	13	387226	2	387214	27	40	387253	-999999	387229	0	15	TrialsPROC	FC_009_M5.png	1	2	68	SessionSelectionList														nonlure	3	Face	2-Back	60	80	58	0	0	90	3	40	297916	1	13	72	295876	-1	297304	1	1428	3	3	2040	53	297929	-54	0													9			68												
WM080112	751348_fnca	1	1	1	1990625459	1	75.035	75.031	2.0.10.147	2.0.10.242	2.0.10.242	1.0.0.439	7	234	2	3	Verdana	1	80	0	0	0	WM Stimuli\	0.9	1263.33333333333	0.7	1188.71428571429	1	1052.6	1	783.6	0.9	1014.77777777778	1	802.8	0.9	1111.44444444444	0.7	1314.57142857143	13	387226	2	387214	27	40	387253	-999999	387229	0	15	TrialsPROC	FC_011_M6.png	1	2	69	SessionSelectionList														nonlure	3	Face	2-Back	61	80	59	0	0	90	4	39	300488	1	14	73	298449	-1	299536	1	1087	3	3	2039	53	300502	-54	0													10			69												
WM080112	751348_fnca	1	1	1	1990625459	1	75.035	75.031	2.0.10.147	2.0.10.242	2.0.10.242	1.0.0.439	7	234	2	3	Verdana	1	80	0	0	0	WM Stimuli\	0.9	1263.33333333333	0.7	1188.71428571429	1	1052.6	1	783.6	0.9	1014.77777777778	1	802.8	0.9	1111.44444444444	0.7	1314.57142857143	13	387226	2	387214	27	40	387253	-999999	387229	0	16	Fix15secPROC	""	1	2	70	SessionSelectionList																																															6	300955	-7	0							70												
WM080112	751348_fnca	1	1	1	1990625459	1	75.035	75.031	2.0.10.147	2.0.10.242	2.0.10.242	1.0.0.439	7	234	2	3	Verdana	1	80	0	0	0	WM Stimuli\	0.9	1263.33333333333	0.7	1188.71428571429	1	1052.6	1	783.6	0.9	1014.77777777778	1	802.8	0.9	1111.44444444444	0.7	1314.57142857143	13	387226	2	387214	27	40	387253	-999999	387229	0	17	Cue0BackPROC	TO_007_TOOL7_BA.png	1	2	71	SessionSelectionList																																										12	315961	-13	0												71												
WM080112	751348_fnca	1	1	1	1990625459	1	75.035	75.031	2.0.10.147	2.0.10.242	2.0.10.242	1.0.0.439	7	234	2	3	Verdana	1	80	0	0	0	WM Stimuli\	0.9	1263.33333333333	0.7	1188.71428571429	1	1052.6	1	783.6	0.9	1014.77777777778	1	802.8	0.9	1111.44444444444	0.7	1314.57142857143	13	387226	2	387214	27	40	387253	-999999	387229	0	18	TrialsPROC	TO_010_TOOL10_BA.png	1	2	72	SessionSelectionList														nonlure	3	Tools	0-Back	62	80	60	0	0	90	5	39	320546	2	14	58	318507	-1	319727	1	1220	3	3	2039	53	320560	-54	0														1		72												
WM080112	751348_fnca	1	1	1	1990625459	1	75.035	75.031	2.0.10.147	2.0.10.242	2.0.10.242	1.0.0.439	7	234	2	3	Verdana	1	80	0	0	0	WM Stimuli\	0.9	1263.33333333333	0.7	1188.71428571429	1	1052.6	1	783.6	0.9	1014.77777777778	1	802.8	0.9	1111.44444444444	0.7	1314.57142857143	13	387226	2	387214	27	40	387253	-999999	387229	0	18	TrialsPROC	TO_009_TOOL9_BA.png	1	2	73	SessionSelectionList														nonlure	3	Tools	0-Back	63	80	61	0	0	91	6	39	323105	2	14	59	321066	-1	321953	1	887	3	3	2039	53	323119	-54	0														2		73												
WM080112	751348_fnca	1	1	1	1990625459	1	75.035	75.031	2.0.10.147	2.0.10.242	2.0.10.242	1.0.0.439	7	234	2	3	Verdana	1	80	0	0	0	WM Stimuli\	0.9	1263.33333333333	0.7	1188.71428571429	1	1052.6	1	783.6	0.9	1014.77777777778	1	802.8	0.9	1111.44444444444	0.7	1314.57142857143	13	387226	2	387214	27	40	387253	-999999	387229	0	18	TrialsPROC	TO_009_TOOL9_BA.png	1	2	74	SessionSelectionList														lure	3	Tools	0-Back	64	80	62	0	0	91	7	39	325664	2	14	59	323625	-1	324415	1	790	3	3	2039	53	325678	-54	0														3		74												
WM080112	751348_fnca	1	1	1	1990625459	1	75.035	75.031	2.0.10.147	2.0.10.242	2.0.10.242	1.0.0.439	7	234	2	3	Verdana	1	80	0	0	0	WM Stimuli\	0.9	1263.33333333333	0.7	1188.71428571429	1	1052.6	1	783.6	0.9	1014.77777777778	1	802.8	0.9	1111.44444444444	0.7	1314.57142857143	13	387226	2	387214	27	40	387253	-999999	387229	0	18	TrialsPROC	TO_008_TOOL8_BA.png	1	2	75	SessionSelectionList														nonlure	3	Tools	0-Back	65	80	63	0	0	88	1	39	328223	2	14	59	326184	-1	326860	0	676	2	3	2039	53	328237	-54	0														4		75												
WM080112	751348_fnca	1	1	1	1990625459	1	75.035	75.031	2.0.10.147	2.0.10.242	2.0.10.242	1.0.0.439	7	234	2	3	Verdana	1	80	0	0	0	WM Stimuli\	0.9	1263.33333333333	0.7	1188.71428571429	1	1052.6	1	783.6	0.9	1014.77777777778	1	802.8	0.9	1111.44444444444	0.7	1314.57142857143	13	387226	2	387214	27	40	387253	-999999	387229	0	18	TrialsPROC	TO_011_TOOL11_BA.png	1	2	76	SessionSelectionList														nonlure	3	Tools	0-Back	66	80	64	0	0	89	1	39	330782	2	14	59	328743	-1	330003	1	1260	3	3	2039	53	330796	-54	0														5		76												
WM080112	751348_fnca	1	1	1	1990625459	1	75.035	75.031	2.0.10.147	2.0.10.242	2.0.10.242	1.0.0.439	7	234	2	3	Verdana	1	80	0	0	0	WM Stimuli\	0.9	1263.33333333333	0.7	1188.71428571429	1	1052.6	1	783.6	0.9	1014.77777777778	1	802.8	0.9	1111.44444444444	0.7	1314.57142857143	13	387226	2	387214	27	40	387253	-999999	387229	0	18	TrialsPROC	TO_012_TOOL12_BA.png	1	2	77	SessionSelectionList														nonlure	3	Tools	0-Back	67	80	65	0	0	89	2	39	333341	1	14	59	331302	-1	333023	1	1721	3	3	2039	53	333355	-54	0														6		77												
WM080112	751348_fnca	1	1	1	1990625459	1	75.035	75.031	2.0.10.147	2.0.10.242	2.0.10.242	1.0.0.439	7	234	2	3	Verdana	1	80	0	0	0	WM Stimuli\	0.9	1263.33333333333	0.7	1188.71428571429	1	1052.6	1	783.6	0.9	1014.77777777778	1	802.8	0.9	1111.44444444444	0.7	1314.57142857143	13	387226	2	387214	27	40	387253	-999999	387229	0	18	TrialsPROC	TO_010_TOOL10_BA.png	1	2	78	SessionSelectionList														lure	3	Tools	0-Back	68	80	66	0	0	89	3	39	335900	1	14	59	333861	-1	335767	1	1906	3	3	2039	53	335914	-54	0														7		78												
WM080112	751348_fnca	1	1	1	1990625459	1	75.035	75.031	2.0.10.147	2.0.10.242	2.0.10.242	1.0.0.439	7	234	2	3	Verdana	1	80	0	0	0	WM Stimuli\	0.9	1263.33333333333	0.7	1188.71428571429	1	1052.6	1	783.6	0.9	1014.77777777778	1	802.8	0.9	1111.44444444444	0.7	1314.57142857143	13	387226	2	387214	27	40	387253	-999999	387229	0	18	TrialsPROC	TO_007_TOOL7_BA.png	1	2	79	SessionSelectionList														target	2	Tools	0-Back	69	80	67	0	0	87	4	39	338459	1	14	59	336420	-1	338253	0	1833	3	2	2039	53	338473	-54	0														8		79												
WM080112	751348_fnca	1	1	1	1990625459	1	75.035	75.031	2.0.10.147	2.0.10.242	2.0.10.242	1.0.0.439	7	234	2	3	Verdana	1	80	0	0	0	WM Stimuli\	0.9	1263.33333333333	0.7	1188.71428571429	1	1052.6	1	783.6	0.9	1014.77777777778	1	802.8	0.9	1111.44444444444	0.7	1314.57142857143	13	387226	2	387214	27	40	387253	-999999	387229	0	18	TrialsPROC	TO_008_TOOL8_BA.png	1	2	80	SessionSelectionList														lure	3	Tools	0-Back	70	80	68	0	0	85	1	39	341018	1	14	59	338979	-1	340281	0	1302	2	3	2039	53	341032	-54	0														9		80												
WM080112	751348_fnca	1	1	1	1990625459	1	75.035	75.031	2.0.10.147	2.0.10.242	2.0.10.242	1.0.0.439	7	234	2	3	Verdana	1	80	0	0	0	WM Stimuli\	0.9	1263.33333333333	0.7	1188.71428571429	1	1052.6	1	783.6	0.9	1014.77777777778	1	802.8	0.9	1111.44444444444	0.7	1314.57142857143	13	387226	2	387214	27	40	387253	-999999	387229	0	18	TrialsPROC	TO_007_TOOL7_BA.png	1	2	81	SessionSelectionList														target	2	Tools	0-Back	71	80	69	0	0	85	2	39	343577	1	14	59	341538	-1	342956	1	1418	2	2	2039	53	343591	-54	0														10		81												
WM080112	751348_fnca	1	1	1	1990625459	1	75.035	75.031	2.0.10.147	2.0.10.242	2.0.10.242	1.0.0.439	7	234	2	3	Verdana	1	80	0	0	0	WM Stimuli\	0.9	1263.33333333333	0.7	1188.71428571429	1	1052.6	1	783.6	0.9	1014.77777777778	1	802.8	0.9	1111.44444444444	0.7	1314.57142857143	13	387226	2	387214	27	40	387253	-999999	387229	0	19	Cue2BackPROC	""	1	2	82	SessionSelectionList									5	344043	-6	0																																													82												
WM080112	751348_fnca	1	1	1	1990625459	1	75.035	75.031	2.0.10.147	2.0.10.242	2.0.10.242	1.0.0.439	7	234	2	3	Verdana	1	80	0	0	0	WM Stimuli\	0.9	1263.33333333333	0.7	1188.71428571429	1	1052.6	1	783.6	0.9	1014.77777777778	1	802.8	0.9	1111.44444444444	0.7	1314.57142857143	13	387226	2	387214	27	40	387253	-999999	387229	0	20	TrialsPROC	PL_007_92026.png	1	2	83	SessionSelectionList														nonlure	3	Place	2-Back	72	80	69	0	1	85	2	39	348641	2	14	64	346602	-1	0	0	0	""	3	2039	53	348655	-54	0															1	83												
WM080112	751348_fnca	1	1	1	1990625459	1	75.035	75.031	2.0.10.147	2.0.10.242	2.0.10.242	1.0.0.439	7	234	2	3	Verdana	1	80	0	0	0	WM Stimuli\	0.9	1263.33333333333	0.7	1188.71428571429	1	1052.6	1	783.6	0.9	1014.77777777778	1	802.8	0.9	1111.44444444444	0.7	1314.57142857143	13	387226	2	387214	27	40	387253	-999999	387229	0	20	TrialsPROC	PL_007_92026.png	1	2	84	SessionSelectionList														lure	3	Place	2-Back	73	80	70	0	0	85	1	39	351214	1	13	73	349175	-1	349756	1	581	3	3	2039	52	351227	-53	0															2	84												
WM080112	751348_fnca	1	1	1	1990625459	1	75.035	75.031	2.0.10.147	2.0.10.242	2.0.10.242	1.0.0.439	7	234	2	3	Verdana	1	80	0	0	0	WM Stimuli\	0.9	1263.33333333333	0.7	1188.71428571429	1	1052.6	1	783.6	0.9	1014.77777777778	1	802.8	0.9	1111.44444444444	0.7	1314.57142857143	13	387226	2	387214	27	40	387253	-999999	387229	0	20	TrialsPROC	PL_010_92038.png	1	2	85	SessionSelectionList														nonlure	3	Place	2-Back	74	80	71	0	0	85	2	39	353786	1	14	72	351747	-1	352976	1	1229	3	3	2039	53	353800	-54	0															3	85												
WM080112	751348_fnca	1	1	1	1990625459	1	75.035	75.031	2.0.10.147	2.0.10.242	2.0.10.242	1.0.0.439	7	234	2	3	Verdana	1	80	0	0	0	WM Stimuli\	0.9	1263.33333333333	0.7	1188.71428571429	1	1052.6	1	783.6	0.9	1014.77777777778	1	802.8	0.9	1111.44444444444	0.7	1314.57142857143	13	387226	2	387214	27	40	387253	-999999	387229	0	20	TrialsPROC	PL_009_92037.png	1	2	86	SessionSelectionList														nonlure	3	Place	2-Back	75	80	72	0	0	85	3	39	356345	1	14	59	354306	-1	355443	1	1137	3	3	2039	53	356359	-54	0															4	86												
WM080112	751348_fnca	1	1	1	1990625459	1	75.035	75.031	2.0.10.147	2.0.10.242	2.0.10.242	1.0.0.439	7	234	2	3	Verdana	1	80	0	0	0	WM Stimuli\	0.9	1263.33333333333	0.7	1188.71428571429	1	1052.6	1	783.6	0.9	1014.77777777778	1	802.8	0.9	1111.44444444444	0.7	1314.57142857143	13	387226	2	387214	27	40	387253	-999999	387229	0	20	TrialsPROC	PL_010_92038.png	1	2	87	SessionSelectionList														target	2	Place	2-Back	76	80	73	0	0	85	1	39	358917	2	14	72	356878	-1	357877	1	999	2	2	2039	53	358931	-54	0															5	87												
WM080112	751348_fnca	1	1	1	1990625459	1	75.035	75.031	2.0.10.147	2.0.10.242	2.0.10.242	1.0.0.439	7	234	2	3	Verdana	1	80	0	0	0	WM Stimuli\	0.9	1263.33333333333	0.7	1188.71428571429	1	1052.6	1	783.6	0.9	1014.77777777778	1	802.8	0.9	1111.44444444444	0.7	1314.57142857143	13	387226	2	387214	27	40	387253	-999999	387229	0	20	TrialsPROC	PL_009_92037.png	1	2	88	SessionSelectionList														target	2	Place	2-Back	77	80	74	0	0	85	2	39	361476	2	14	59	359437	-1	360737	1	1300	2	2	2039	53	361490	-54	0															6	88												
WM080112	751348_fnca	1	1	1	1990625459	1	75.035	75.031	2.0.10.147	2.0.10.242	2.0.10.242	1.0.0.439	7	234	2	3	Verdana	1	80	0	0	0	WM Stimuli\	0.9	1263.33333333333	0.7	1188.71428571429	1	1052.6	1	783.6	0.9	1014.77777777778	1	802.8	0.9	1111.44444444444	0.7	1314.57142857143	13	387226	2	387214	27	40	387253	-999999	387229	0	20	TrialsPROC	PL_008_92033.png	1	2	89	SessionSelectionList														nonlure	3	Place	2-Back	78	80	75	0	0	85	1	39	364035	2	14	59	361996	-1	363046	1	1050	3	3	2039	53	364049	-54	0															7	89												
WM080112	751348_fnca	1	1	1	1990625459	1	75.035	75.031	2.0.10.147	2.0.10.242	2.0.10.242	1.0.0.439	7	234	2	3	Verdana	1	80	0	0	0	WM Stimuli\	0.9	1263.33333333333	0.7	1188.71428571429	1	1052.6	1	783.6	0.9	1014.77777777778	1	802.8	0.9	1111.44444444444	0.7	1314.57142857143	13	387226	2	387214	27	40	387253	-999999	387229	0	20	TrialsPROC	PL_012_92047.png	1	2	90	SessionSelectionList														nonlure	3	Place	2-Back	79	80	76	0	0	85	2	39	366607	2	14	72	364568	-1	365318	1	750	3	3	2039	53	366621	-54	0															8	90												
WM080112	751348_fnca	1	1	1	1990625459	1	75.035	75.031	2.0.10.147	2.0.10.242	2.0.10.242	1.0.0.439	7	234	2	3	Verdana	1	80	0	0	0	WM Stimuli\	0.9	1263.33333333333	0.7	1188.71428571429	1	1052.6	1	783.6	0.9	1014.77777777778	1	802.8	0.9	1111.44444444444	0.7	1314.57142857143	13	387226	2	387214	27	40	387253	-999999	387229	0	20	TrialsPROC	PL_012_92047.png	1	2	91	SessionSelectionList														lure	3	Place	2-Back	80	80	77	0	0	85	3	39	369180	1	13	73	367141	-1	368016	1	875	3	3	2039	52	369193	-53	0															9	91												
WM080112	751348_fnca	1	1	1	1990625459	1	75.035	75.031	2.0.10.147	2.0.10.242	2.0.10.242	1.0.0.439	7	234	2	3	Verdana	1	80	0	0	0	WM Stimuli\	0.9	1263.33333333333	0.7	1188.71428571429	1	1052.6	1	783.6	0.9	1014.77777777778	1	802.8	0.9	1111.44444444444	0.7	1314.57142857143	13	387226	2	387214	27	40	387253	-999999	387229	0	20	TrialsPROC	PL_011_92044.png	1	2	92	SessionSelectionList														nonlure	3	Place	2-Back	80	80	78	0	0	85	4	39	371752	1	14	72	369713	-1	370925	1	1212	3	3	2039	53	371766	-54	0															10	92												
WM080112	751348_fnca	1	1	1	1990625459	1	75.035	75.031	2.0.10.147	2.0.10.242	2.0.10.242	1.0.0.439	7	234	2	3	Verdana	1	80	0	0	0	WM Stimuli\	0.9	1263.33333333333	0.7	1188.71428571429	1	1052.6	1	783.6	0.9	1014.77777777778	1	802.8	0.9	1111.44444444444	0.7	1314.57142857143	13	387226	2	387214	27	40	387253	-999999	387229	0	21	Fix15secPROC	""	1	2	93	SessionSelectionList																																															6	372219	-7	0							93												
