ExperimentName	HCPID	RunNumber	Subject	Session	RandomSeed	Group	Laptop.RefreshRate	ScannerD2.RefreshRate	StudioVersion	RuntimeVersion	RuntimeVersionExpected	ExperimentVersion	triggercode	Allowed	Target	Nontarget	FontStyle	RunTrialNumber[Session]	TrialsPerRun[Session]	TotalRespGreater200[Session]	ConsecRTLess200[Session]	ConsecNonResp[Session]	StimuliDir	ACC_2_Back_Body	Avg_RT_For_Correct_Trials_2_Back_Body	ACC_0_Back_Body	Avg_RT_For_Correct_Trials_0_Back_Body	ACC_2_Back_Face	Avg_RT_For_Correct_Trials_2_Back_Face	ACC_0_Back_Face	Avg_RT_For_Correct_Trials_0_Back_Face	ACC_2_Back_Place	Avg_RT_For_Correct_Trials_2_Back_Place	ACC_0_Back_Place	Avg_RT_For_Correct_Trials_0_Back_Place	ACC_2_Back_Tools	Avg_RT_For_Correct_Trials_2_Back_Tools	ACC_0_Back_Tools	Avg_RT_For_Correct_Trials_0_Back_Tools	ExpInstrucFeelFreeToRest.OnsetDelay	ExpInstrucFeelFreeToRest.OnsetTime	ExpInstrucFeelFreeToRest.DurationError	ExpInstrucFeelFreeToRest.StartTime	ExpInstrucFeelFreeToRest.OnsetToOnsetTime	FeelFreeToRest.OnsetDelay	FeelFreeToRest.OnsetTime	FeelFreeToRest.DurationError	FeelFreeToRest.StartTime	FeelFreeToRest.OnsetToOnsetTime	SessionSelectionList	Procedure[Block]	Stimulus[Block]	RunNumberFilterValue	SessionSelectionList.Cycle	SessionSelectionList.Sample	Running[Block]	IntroButtonMap.OnsetDelay	IntroButtonMap.OnsetTime	IntroButtonMap.DurationError	IntroButtonMap.OnsetToOnsetTime	GetReady.OnsetDelay	GetReady.OnsetTime	GetReady.DurationError	GetReady.OnsetToOnsetTime	Cue2Back.OnsetDelay	Cue2Back.OnsetTime	Cue2Back.DurationError	Cue2Back.OnsetToOnsetTime	Run1Block1	TargetType	CorrectResponse	StimType	BlockType	RunTrialNumber[Block]	TrialsPerRun[Block]	TotalRespGreater200[Block]	ConsecRTLess200[Block]	ConsecNonResp[Block]	ControlAcc	ConsecSameResp	ExperimenterWindow.OnsetDelay	ExperimenterWindow.OnsetTime	ExperimenterWindow.DurationError	ExperimenterWindow.OnsetToOnsetTime	Stim.OnsetDelay	Stim.OnsetTime	Stim.DurationError	Stim.RTTime	Stim.ACC	Stim.RT	Stim.RESP	Stim.CRESP	Stim.OnsetToOnsetTime	Fix.OnsetDelay	Fix.OnsetTime	Fix.DurationError	Fix.OnsetToOnsetTime	CueTarget.OnsetDelay	CueTarget.OnsetTime	CueTarget.DurationError	CueTarget.OnsetToOnsetTime	Run1Block2	Fix15sec.OnsetDelay	Fix15sec.OnsetTime	Fix15sec.DurationError	Fix15sec.OnsetToOnsetTime	Run1Block3	Run1Block4	Run1Block5	Run1Block6	Run1Block7	Run1Block8	Block	Procedure[Trial]	Stimulus[Trial]	ReadyList	Running[Trial]	ReadyList.Cycle	ReadyList.Sample	SyncSlide.OnsetDelay	SyncSlide.OnsetTime	SyncSlide.DurationError	SyncSlide.FinishTime	SyncSlide.OnsetToOnsetTime	Trial
WM080112	792564_fnca	2	1	1	-1665039208	1	75.031	75.031	2.0.10.147	2.0.10.242	2.0.10.242	1.0.0.439	7	234	2	3	Verdana	1	80	0	0	0	WM Stimuli\	1	1035.2	1	671.3	1	847.5	1	604	1	917	1	753.8	0.9	769.888888888889	1	816.5	13	337265	1	337253	27	40	337292	-999999	337267	0	22	TRSyncPROC	""	2	2	1	SessionSelectionList	102	18396	-999999	0	33	29698	-999999	0																																																	1	InitialTR	4	1	ReadyList	1	1	9	43386	-10	45376	0	1
WM080112	792564_fnca	2	1	1	-1665039208	1	75.031	75.031	2.0.10.147	2.0.10.242	2.0.10.242	1.0.0.439	7	234	2	3	Verdana	1	80	0	0	0	WM Stimuli\	1	1035.2	1	671.3	1	847.5	1	604	1	917	1	753.8	0.9	769.888888888889	1	816.5	13	337265	1	337253	27	40	337292	-999999	337267	0	22	TRSyncPROC	""	2	2	1	SessionSelectionList	102	18396	-999999	0	33	29698	-999999	0																																																	1	InitialTR	3	2	ReadyList	1	2	8	45385	-9	47376	0	2
WM080112	792564_fnca	2	1	1	-1665039208	1	75.031	75.031	2.0.10.147	2.0.10.242	2.0.10.242	1.0.0.439	7	234	2	3	Verdana	1	80	0	0	0	WM Stimuli\	1	1035.2	1	671.3	1	847.5	1	604	1	917	1	753.8	0.9	769.888888888889	1	816.5	13	337265	1	337253	27	40	337292	-999999	337267	0	22	TRSyncPROC	""	2	2	1	SessionSelectionList	102	18396	-999999	0	33	29698	-999999	0																																																	1	InitialTR	2	3	ReadyList	1	3	7	47384	-8	49376	0	3
WM080112	792564_fnca	2	1	1	-1665039208	1	75.031	75.031	2.0.10.147	2.0.10.242	2.0.10.242	1.0.0.439	7	234	2	3	Verdana	1	80	0	0	0	WM Stimuli\	1	1035.2	1	671.3	1	847.5	1	604	1	917	1	753.8	0.9	769.888888888889	1	816.5	13	337265	1	337253	27	40	337292	-999999	337267	0	22	TRSyncPROC	""	2	2	1	SessionSelectionList	102	18396	-999999	0	33	29698	-999999	0																																																	1	InitialTR	1	4	ReadyList	1	4	6	49383	-7	51376	0	4
WM080112	792564_fnca	2	1	1	-1665039208	1	75.031	75.031	2.0.10.147	2.0.10.242	2.0.10.242	1.0.0.439	7	234	2	3	Verdana	1	80	0	0	0	WM Stimuli\	1	1035.2	1	671.3	1	847.5	1	604	1	917	1	753.8	0.9	769.888888888889	1	816.5	13	337265	1	337253	27	40	337292	-999999	337267	0	23	Cue2BackPROC	""	2	2	2	SessionSelectionList									6	51383	-7	0																																													2												
WM080112	792564_fnca	2	1	1	-1665039208	1	75.031	75.031	2.0.10.147	2.0.10.242	2.0.10.242	1.0.0.439	7	234	2	3	Verdana	1	80	0	0	0	WM Stimuli\	1	1035.2	1	671.3	1	847.5	1	604	1	917	1	753.8	0.9	769.888888888889	1	816.5	13	337265	1	337253	27	40	337292	-999999	337267	0	24	TrialsPROC	TO_014_TOOL14_BA.png	2	2	3	SessionSelectionList														nonlure	3	Tools	2-Back	2	80	1	0	0	0	1	53	56021	3	13	91	53968	-1	54628	1	660	3	3	2053	66	56034	-67	0																3												
WM080112	792564_fnca	2	1	1	-1665039208	1	75.031	75.031	2.0.10.147	2.0.10.242	2.0.10.242	1.0.0.439	7	234	2	3	Verdana	1	80	0	0	0	WM Stimuli\	1	1035.2	1	671.3	1	847.5	1	604	1	917	1	753.8	0.9	769.888888888889	1	816.5	13	337265	1	337253	27	40	337292	-999999	337267	0	24	TrialsPROC	TO_013_TOOL13_BA.png	2	2	4	SessionSelectionList														nonlure	3	Tools	2-Back	3	80	2	0	0	0	2	40	58580	2	13	72	56540	-1	57291	1	751	3	3	2040	53	58593	-54	0																4												
WM080112	792564_fnca	2	1	1	-1665039208	1	75.031	75.031	2.0.10.147	2.0.10.242	2.0.10.242	1.0.0.439	7	234	2	3	Verdana	1	80	0	0	0	WM Stimuli\	1	1035.2	1	671.3	1	847.5	1	604	1	917	1	753.8	0.9	769.888888888889	1	816.5	13	337265	1	337253	27	40	337292	-999999	337267	0	24	TrialsPROC	TO_016_TOOL16_BA.png	2	2	5	SessionSelectionList														nonlure	3	Tools	2-Back	4	80	3	0	0	0	3	39	61152	1	14	73	59113	-1	59809	1	696	3	3	2039	53	61166	-54	0																5												
WM080112	792564_fnca	2	1	1	-1665039208	1	75.031	75.031	2.0.10.147	2.0.10.242	2.0.10.242	1.0.0.439	7	234	2	3	Verdana	1	80	0	0	0	WM Stimuli\	1	1035.2	1	671.3	1	847.5	1	604	1	917	1	753.8	0.9	769.888888888889	1	816.5	13	337265	1	337253	27	40	337292	-999999	337267	0	24	TrialsPROC	TO_014_TOOL14_BA.png	2	2	6	SessionSelectionList														lure	3	Tools	2-Back	5	80	4	0	0	0	1	39	63724	2	14	72	61685	-1	62448	0	763	2	3	2039	53	63738	-54	0																6												
WM080112	792564_fnca	2	1	1	-1665039208	1	75.031	75.031	2.0.10.147	2.0.10.242	2.0.10.242	1.0.0.439	7	234	2	3	Verdana	1	80	0	0	0	WM Stimuli\	1	1035.2	1	671.3	1	847.5	1	604	1	917	1	753.8	0.9	769.888888888889	1	816.5	13	337265	1	337253	27	40	337292	-999999	337267	0	24	TrialsPROC	TO_016_TOOL16_BA.png	2	2	7	SessionSelectionList														target	2	Tools	2-Back	6	80	5	0	0	0	2	39	66283	2	14	59	64244	-1	65120	1	876	2	2	2039	53	66297	-54	0																7												
WM080112	792564_fnca	2	1	1	-1665039208	1	75.031	75.031	2.0.10.147	2.0.10.242	2.0.10.242	1.0.0.439	7	234	2	3	Verdana	1	80	0	0	0	WM Stimuli\	1	1035.2	1	671.3	1	847.5	1	604	1	917	1	753.8	0.9	769.888888888889	1	816.5	13	337265	1	337253	27	40	337292	-999999	337267	0	24	TrialsPROC	TO_018_TOOL18_BA.png	2	2	8	SessionSelectionList														nonlure	3	Tools	2-Back	7	80	6	0	0	0	1	39	68869	1	13	86	66830	-1	67580	1	750	3	3	2039	52	68882	-53	0																8												
WM080112	792564_fnca	2	1	1	-1665039208	1	75.031	75.031	2.0.10.147	2.0.10.242	2.0.10.242	1.0.0.439	7	234	2	3	Verdana	1	80	0	0	0	WM Stimuli\	1	1035.2	1	671.3	1	847.5	1	604	1	917	1	753.8	0.9	769.888888888889	1	816.5	13	337265	1	337253	27	40	337292	-999999	337267	0	24	TrialsPROC	TO_017_TOOL17_BA.png	2	2	9	SessionSelectionList														nonlure	3	Tools	2-Back	8	80	7	0	0	0	2	39	71454	2	14	85	69415	-1	70102	1	687	3	3	2039	53	71468	-54	0																9												
WM080112	792564_fnca	2	1	1	-1665039208	1	75.031	75.031	2.0.10.147	2.0.10.242	2.0.10.242	1.0.0.439	7	234	2	3	Verdana	1	80	0	0	0	WM Stimuli\	1	1035.2	1	671.3	1	847.5	1	604	1	917	1	753.8	0.9	769.888888888889	1	816.5	13	337265	1	337253	27	40	337292	-999999	337267	0	24	TrialsPROC	TO_018_TOOL18_BA.png	2	2	10	SessionSelectionList														target	2	Tools	2-Back	9	80	8	0	0	0	1	39	74013	2	14	59	71974	-1	72790	1	816	2	2	2039	53	74027	-54	0																10												
WM080112	792564_fnca	2	1	1	-1665039208	1	75.031	75.031	2.0.10.147	2.0.10.242	2.0.10.242	1.0.0.439	7	234	2	3	Verdana	1	80	0	0	0	WM Stimuli\	1	1035.2	1	671.3	1	847.5	1	604	1	917	1	753.8	0.9	769.888888888889	1	816.5	13	337265	1	337253	27	40	337292	-999999	337267	0	24	TrialsPROC	TO_015_TOOL15_BA.png	2	2	11	SessionSelectionList														nonlure	3	Tools	2-Back	10	80	9	0	0	0	1	39	76572	3	14	59	74533	-1	75302	1	769	3	3	2039	53	76586	-54	0																11												
WM080112	792564_fnca	2	1	1	-1665039208	1	75.031	75.031	2.0.10.147	2.0.10.242	2.0.10.242	1.0.0.439	7	234	2	3	Verdana	1	80	0	0	0	WM Stimuli\	1	1035.2	1	671.3	1	847.5	1	604	1	917	1	753.8	0.9	769.888888888889	1	816.5	13	337265	1	337253	27	40	337292	-999999	337267	0	24	TrialsPROC	TO_017_TOOL17_BA.png	2	2	12	SessionSelectionList														lure	3	Tools	2-Back	11	80	10	0	0	0	2	39	79131	1	14	59	77092	-1	78016	1	924	3	3	2039	53	79145	-54	0																12												
WM080112	792564_fnca	2	1	1	-1665039208	1	75.031	75.031	2.0.10.147	2.0.10.242	2.0.10.242	1.0.0.439	7	234	2	3	Verdana	1	80	0	0	0	WM Stimuli\	1	1035.2	1	671.3	1	847.5	1	604	1	917	1	753.8	0.9	769.888888888889	1	816.5	13	337265	1	337253	27	40	337292	-999999	337267	0	25	Cue0BackPROC	BP_013_BP7_BA.png	2	2	13	SessionSelectionList																																										32	79624	-33	0												13												
WM080112	792564_fnca	2	1	1	-1665039208	1	75.031	75.031	2.0.10.147	2.0.10.242	2.0.10.242	1.0.0.439	7	234	2	3	Verdana	1	80	0	0	0	WM Stimuli\	1	1035.2	1	671.3	1	847.5	1	604	1	917	1	753.8	0.9	769.888888888889	1	816.5	13	337265	1	337253	27	40	337292	-999999	337267	0	26	TrialsPROC	BP_015_H10-T_BA.png	2	2	14	SessionSelectionList														nonlure	3	Body	0-Back	12	80	11	0	0	100	3	39	84182	2	14	51	82143	-1	82926	1	783	3	3	2039	53	84196	-54	0																14												
WM080112	792564_fnca	2	1	1	-1665039208	1	75.031	75.031	2.0.10.147	2.0.10.242	2.0.10.242	1.0.0.439	7	234	2	3	Verdana	1	80	0	0	0	WM Stimuli\	1	1035.2	1	671.3	1	847.5	1	604	1	917	1	753.8	0.9	769.888888888889	1	816.5	13	337265	1	337253	27	40	337292	-999999	337267	0	26	TrialsPROC	BP_018_H13-T_BA.png	2	2	15	SessionSelectionList														nonlure	3	Body	0-Back	13	80	12	0	0	100	4	39	86781	2	14	99	84742	-1	85449	1	707	3	3	2039	53	86795	-54	0																15												
WM080112	792564_fnca	2	1	1	-1665039208	1	75.031	75.031	2.0.10.147	2.0.10.242	2.0.10.242	1.0.0.439	7	234	2	3	Verdana	1	80	0	0	0	WM Stimuli\	1	1035.2	1	671.3	1	847.5	1	604	1	917	1	753.8	0.9	769.888888888889	1	816.5	13	337265	1	337253	27	40	337292	-999999	337267	0	26	TrialsPROC	BP_014_BP9_BA.png	2	2	16	SessionSelectionList														nonlure	3	Body	0-Back	14	80	13	0	0	100	5	39	89367	1	14	86	87328	-1	88049	1	721	3	3	2039	53	89381	-54	0																16												
WM080112	792564_fnca	2	1	1	-1665039208	1	75.031	75.031	2.0.10.147	2.0.10.242	2.0.10.242	1.0.0.439	7	234	2	3	Verdana	1	80	0	0	0	WM Stimuli\	1	1035.2	1	671.3	1	847.5	1	604	1	917	1	753.8	0.9	769.888888888889	1	816.5	13	337265	1	337253	27	40	337292	-999999	337267	0	26	TrialsPROC	BP_018_H13-T_BA.png	2	2	17	SessionSelectionList														lure	3	Body	0-Back	15	80	14	0	0	100	6	39	91926	1	14	59	89887	-1	90529	1	642	3	3	2039	53	91940	-54	0																17												
WM080112	792564_fnca	2	1	1	-1665039208	1	75.031	75.031	2.0.10.147	2.0.10.242	2.0.10.242	1.0.0.439	7	234	2	3	Verdana	1	80	0	0	0	WM Stimuli\	1	1035.2	1	671.3	1	847.5	1	604	1	917	1	753.8	0.9	769.888888888889	1	816.5	13	337265	1	337253	27	40	337292	-999999	337267	0	26	TrialsPROC	BP_013_BP7_BA.png	2	2	18	SessionSelectionList														target	2	Body	0-Back	16	80	15	0	0	100	1	39	94485	1	13	59	92446	-1	93085	1	639	2	2	2039	52	94498	-53	0																18												
WM080112	792564_fnca	2	1	1	-1665039208	1	75.031	75.031	2.0.10.147	2.0.10.242	2.0.10.242	1.0.0.439	7	234	2	3	Verdana	1	80	0	0	0	WM Stimuli\	1	1035.2	1	671.3	1	847.5	1	604	1	917	1	753.8	0.9	769.888888888889	1	816.5	13	337265	1	337253	27	40	337292	-999999	337267	0	26	TrialsPROC	BP_015_H10-T_BA.png	2	2	19	SessionSelectionList														lure	3	Body	0-Back	17	80	16	0	0	100	1	39	97044	1	13	59	95005	-1	95621	1	616	3	3	2039	52	97057	-53	0																19												
WM080112	792564_fnca	2	1	1	-1665039208	1	75.031	75.031	2.0.10.147	2.0.10.242	2.0.10.242	1.0.0.439	7	234	2	3	Verdana	1	80	0	0	0	WM Stimuli\	1	1035.2	1	671.3	1	847.5	1	604	1	917	1	753.8	0.9	769.888888888889	1	816.5	13	337265	1	337253	27	40	337292	-999999	337267	0	26	TrialsPROC	BP_016_H11-T_BA.png	2	2	20	SessionSelectionList														nonlure	3	Body	0-Back	18	80	17	0	0	100	2	39	99616	1	14	72	97577	-1	98151	1	574	3	3	2039	53	99630	-54	0																20												
WM080112	792564_fnca	2	1	1	-1665039208	1	75.031	75.031	2.0.10.147	2.0.10.242	2.0.10.242	1.0.0.439	7	234	2	3	Verdana	1	80	0	0	0	WM Stimuli\	1	1035.2	1	671.3	1	847.5	1	604	1	917	1	753.8	0.9	769.888888888889	1	816.5	13	337265	1	337253	27	40	337292	-999999	337267	0	26	TrialsPROC	BP_013_BP7_BA.png	2	2	21	SessionSelectionList														target	2	Body	0-Back	19	80	18	0	0	100	1	39	102175	1	14	59	100136	-1	100794	1	658	2	2	2039	53	102189	-54	0																21												
WM080112	792564_fnca	2	1	1	-1665039208	1	75.031	75.031	2.0.10.147	2.0.10.242	2.0.10.242	1.0.0.439	7	234	2	3	Verdana	1	80	0	0	0	WM Stimuli\	1	1035.2	1	671.3	1	847.5	1	604	1	917	1	753.8	0.9	769.888888888889	1	816.5	13	337265	1	337253	27	40	337292	-999999	337267	0	26	TrialsPROC	BP_017_H12-T_BA.png	2	2	22	SessionSelectionList														nonlure	3	Body	0-Back	20	80	19	0	0	100	1	39	104734	1	14	59	102695	-1	103314	1	619	3	3	2039	53	104748	-54	0																22												
WM080112	792564_fnca	2	1	1	-1665039208	1	75.031	75.031	2.0.10.147	2.0.10.242	2.0.10.242	1.0.0.439	7	234	2	3	Verdana	1	80	0	0	0	WM Stimuli\	1	1035.2	1	671.3	1	847.5	1	604	1	917	1	753.8	0.9	769.888888888889	1	816.5	13	337265	1	337253	27	40	337292	-999999	337267	0	26	TrialsPROC	BP_014_BP9_BA.png	2	2	23	SessionSelectionList														lure	3	Body	0-Back	21	80	20	0	0	100	2	39	107293	1	14	59	105254	-1	106008	1	754	3	3	2039	53	107307	-54	0																23												
WM080112	792564_fnca	2	1	1	-1665039208	1	75.031	75.031	2.0.10.147	2.0.10.242	2.0.10.242	1.0.0.439	7	234	2	3	Verdana	1	80	0	0	0	WM Stimuli\	1	1035.2	1	671.3	1	847.5	1	604	1	917	1	753.8	0.9	769.888888888889	1	816.5	13	337265	1	337253	27	40	337292	-999999	337267	0	27	Fix15secPROC	""	2	2	24	SessionSelectionList																																															6	107760	-7	0							24												
WM080112	792564_fnca	2	1	1	-1665039208	1	75.031	75.031	2.0.10.147	2.0.10.242	2.0.10.242	1.0.0.439	7	234	2	3	Verdana	1	80	0	0	0	WM Stimuli\	1	1035.2	1	671.3	1	847.5	1	604	1	917	1	753.8	0.9	769.888888888889	1	816.5	13	337265	1	337253	27	40	337292	-999999	337267	0	28	Cue2BackPROC	""	2	2	25	SessionSelectionList									12	122766	-13	0																																													25												
WM080112	792564_fnca	2	1	1	-1665039208	1	75.031	75.031	2.0.10.147	2.0.10.242	2.0.10.242	1.0.0.439	7	234	2	3	Verdana	1	80	0	0	0	WM Stimuli\	1	1035.2	1	671.3	1	847.5	1	604	1	917	1	753.8	0.9	769.888888888889	1	816.5	13	337265	1	337253	27	40	337292	-999999	337267	0	29	TrialsPROC	FC_015_M8.png	2	2	26	SessionSelectionList														nonlure	3	Face	2-Back	22	80	21	0	0	100	3	39	127378	1	14	85	125339	-1	126631	1	1292	3	3	2039	53	127392	-54	0																26												
WM080112	792564_fnca	2	1	1	-1665039208	1	75.031	75.031	2.0.10.147	2.0.10.242	2.0.10.242	1.0.0.439	7	234	2	3	Verdana	1	80	0	0	0	WM Stimuli\	1	1035.2	1	671.3	1	847.5	1	604	1	917	1	753.8	0.9	769.888888888889	1	816.5	13	337265	1	337253	27	40	337292	-999999	337267	0	29	TrialsPROC	FC_018_F9.png	2	2	27	SessionSelectionList														nonlure	3	Face	2-Back	23	80	22	0	0	100	4	40	129964	2	13	85	127924	-1	128627	1	703	3	3	2040	53	129977	-54	0																27												
WM080112	792564_fnca	2	1	1	-1665039208	1	75.031	75.031	2.0.10.147	2.0.10.242	2.0.10.242	1.0.0.439	7	234	2	3	Verdana	1	80	0	0	0	WM Stimuli\	1	1035.2	1	671.3	1	847.5	1	604	1	917	1	753.8	0.9	769.888888888889	1	816.5	13	337265	1	337253	27	40	337292	-999999	337267	0	29	TrialsPROC	FC_018_F9.png	2	2	28	SessionSelectionList														lure	3	Face	2-Back	24	80	23	0	0	100	5	39	132536	1	13	73	130497	-1	131426	1	929	3	3	2039	52	132549	-53	0																28												
WM080112	792564_fnca	2	1	1	-1665039208	1	75.031	75.031	2.0.10.147	2.0.10.242	2.0.10.242	1.0.0.439	7	234	2	3	Verdana	1	80	0	0	0	WM Stimuli\	1	1035.2	1	671.3	1	847.5	1	604	1	917	1	753.8	0.9	769.888888888889	1	816.5	13	337265	1	337253	27	40	337292	-999999	337267	0	29	TrialsPROC	FC_017_M9.png	2	2	29	SessionSelectionList														nonlure	3	Face	2-Back	25	80	24	0	0	100	6	39	135108	1	14	72	133069	-1	133952	1	883	3	3	2039	53	135122	-54	0																29												
WM080112	792564_fnca	2	1	1	-1665039208	1	75.031	75.031	2.0.10.147	2.0.10.242	2.0.10.242	1.0.0.439	7	234	2	3	Verdana	1	80	0	0	0	WM Stimuli\	1	1035.2	1	671.3	1	847.5	1	604	1	917	1	753.8	0.9	769.888888888889	1	816.5	13	337265	1	337253	27	40	337292	-999999	337267	0	29	TrialsPROC	FC_017_M9.png	2	2	30	SessionSelectionList														lure	3	Face	2-Back	26	80	25	0	0	100	7	39	137680	2	14	72	135641	-1	136714	1	1073	3	3	2039	53	137694	-54	0																30												
WM080112	792564_fnca	2	1	1	-1665039208	1	75.031	75.031	2.0.10.147	2.0.10.242	2.0.10.242	1.0.0.439	7	234	2	3	Verdana	1	80	0	0	0	WM Stimuli\	1	1035.2	1	671.3	1	847.5	1	604	1	917	1	753.8	0.9	769.888888888889	1	816.5	13	337265	1	337253	27	40	337292	-999999	337267	0	29	TrialsPROC	FC_016_F8.png	2	2	31	SessionSelectionList														nonlure	3	Face	2-Back	27	80	26	0	0	100	8	39	140266	1	14	86	138227	-1	139030	1	803	3	3	2039	53	140280	-54	0																31												
WM080112	792564_fnca	2	1	1	-1665039208	1	75.031	75.031	2.0.10.147	2.0.10.242	2.0.10.242	1.0.0.439	7	234	2	3	Verdana	1	80	0	0	0	WM Stimuli\	1	1035.2	1	671.3	1	847.5	1	604	1	917	1	753.8	0.9	769.888888888889	1	816.5	13	337265	1	337253	27	40	337292	-999999	337267	0	29	TrialsPROC	FC_013_M7.png	2	2	32	SessionSelectionList														nonlure	3	Face	2-Back	28	80	27	0	0	100	9	40	142852	1	13	85	140812	-1	141564	1	752	3	3	2040	53	142865	-54	0																32												
WM080112	792564_fnca	2	1	1	-1665039208	1	75.031	75.031	2.0.10.147	2.0.10.242	2.0.10.242	1.0.0.439	7	234	2	3	Verdana	1	80	0	0	0	WM Stimuli\	1	1035.2	1	671.3	1	847.5	1	604	1	917	1	753.8	0.9	769.888888888889	1	816.5	13	337265	1	337253	27	40	337292	-999999	337267	0	29	TrialsPROC	FC_014_F7.png	2	2	33	SessionSelectionList														nonlure	3	Face	2-Back	29	80	28	0	0	100	10	39	145424	1	13	73	143385	-1	144102	1	717	3	3	2039	52	145437	-53	0																33												
WM080112	792564_fnca	2	1	1	-1665039208	1	75.031	75.031	2.0.10.147	2.0.10.242	2.0.10.242	1.0.0.439	7	234	2	3	Verdana	1	80	0	0	0	WM Stimuli\	1	1035.2	1	671.3	1	847.5	1	604	1	917	1	753.8	0.9	769.888888888889	1	816.5	13	337265	1	337253	27	40	337292	-999999	337267	0	29	TrialsPROC	FC_013_M7.png	2	2	34	SessionSelectionList														target	2	Face	2-Back	30	80	29	0	0	100	1	39	147996	1	14	72	145957	-1	146444	1	487	2	2	2039	53	148010	-54	0																34												
WM080112	792564_fnca	2	1	1	-1665039208	1	75.031	75.031	2.0.10.147	2.0.10.242	2.0.10.242	1.0.0.439	7	234	2	3	Verdana	1	80	0	0	0	WM Stimuli\	1	1035.2	1	671.3	1	847.5	1	604	1	917	1	753.8	0.9	769.888888888889	1	816.5	13	337265	1	337253	27	40	337292	-999999	337267	0	29	TrialsPROC	FC_014_F7.png	2	2	35	SessionSelectionList														target	2	Face	2-Back	31	80	30	0	0	100	2	39	150568	2	14	72	148529	-1	149365	1	836	2	2	2039	53	150582	-54	0																35												
WM080112	792564_fnca	2	1	1	-1665039208	1	75.031	75.031	2.0.10.147	2.0.10.242	2.0.10.242	1.0.0.439	7	234	2	3	Verdana	1	80	0	0	0	WM Stimuli\	1	1035.2	1	671.3	1	847.5	1	604	1	917	1	753.8	0.9	769.888888888889	1	816.5	13	337265	1	337253	27	40	337292	-999999	337267	0	30	Cue0BackPROC	TO_019_TOOL19_BA.png	2	2	36	SessionSelectionList																																										46	151075	-47	0												36												
WM080112	792564_fnca	2	1	1	-1665039208	1	75.031	75.031	2.0.10.147	2.0.10.242	2.0.10.242	1.0.0.439	7	234	2	3	Verdana	1	80	0	0	0	WM Stimuli\	1	1035.2	1	671.3	1	847.5	1	604	1	917	1	753.8	0.9	769.888888888889	1	816.5	13	337265	1	337253	27	40	337292	-999999	337267	0	31	TrialsPROC	TO_019_TOOL19_BA.png	2	2	37	SessionSelectionList														target	2	Tools	0-Back	32	80	31	0	0	100	3	40	155620	1	13	51	153580	-1	154812	1	1232	2	2	2040	53	155633	-54	0																37												
WM080112	792564_fnca	2	1	1	-1665039208	1	75.031	75.031	2.0.10.147	2.0.10.242	2.0.10.242	1.0.0.439	7	234	2	3	Verdana	1	80	0	0	0	WM Stimuli\	1	1035.2	1	671.3	1	847.5	1	604	1	917	1	753.8	0.9	769.888888888889	1	816.5	13	337265	1	337253	27	40	337292	-999999	337267	0	31	TrialsPROC	TO_024_TOOL24_BA.png	2	2	38	SessionSelectionList														nonlure	3	Tools	0-Back	33	80	32	0	0	100	1	40	158179	1	13	59	156139	-1	156821	1	682	3	3	2040	53	158192	-54	0																38												
WM080112	792564_fnca	2	1	1	-1665039208	1	75.031	75.031	2.0.10.147	2.0.10.242	2.0.10.242	1.0.0.439	7	234	2	3	Verdana	1	80	0	0	0	WM Stimuli\	1	1035.2	1	671.3	1	847.5	1	604	1	917	1	753.8	0.9	769.888888888889	1	816.5	13	337265	1	337253	27	40	337292	-999999	337267	0	31	TrialsPROC	TO_019_TOOL19_BA.png	2	2	39	SessionSelectionList														target	2	Tools	0-Back	34	80	33	0	0	100	1	40	160738	1	13	59	158698	-1	159311	1	613	2	2	2040	53	160751	-54	0																39												
WM080112	792564_fnca	2	1	1	-1665039208	1	75.031	75.031	2.0.10.147	2.0.10.242	2.0.10.242	1.0.0.439	7	234	2	3	Verdana	1	80	0	0	0	WM Stimuli\	1	1035.2	1	671.3	1	847.5	1	604	1	917	1	753.8	0.9	769.888888888889	1	816.5	13	337265	1	337253	27	40	337292	-999999	337267	0	31	TrialsPROC	TO_023_TOOL23_BA.png	2	2	40	SessionSelectionList														nonlure	3	Tools	0-Back	35	80	34	0	0	100	1	39	163310	1	13	73	161271	-1	161976	1	705	3	3	2039	52	163323	-53	0																40												
WM080112	792564_fnca	2	1	1	-1665039208	1	75.031	75.031	2.0.10.147	2.0.10.242	2.0.10.242	1.0.0.439	7	234	2	3	Verdana	1	80	0	0	0	WM Stimuli\	1	1035.2	1	671.3	1	847.5	1	604	1	917	1	753.8	0.9	769.888888888889	1	816.5	13	337265	1	337253	27	40	337292	-999999	337267	0	31	TrialsPROC	TO_020_TOOL20_BA.png	2	2	41	SessionSelectionList														nonlure	3	Tools	0-Back	36	80	35	0	0	100	2	39	165869	1	13	59	163830	-1	164455	1	625	3	3	2039	52	165882	-53	0																41												
WM080112	792564_fnca	2	1	1	-1665039208	1	75.031	75.031	2.0.10.147	2.0.10.242	2.0.10.242	1.0.0.439	7	234	2	3	Verdana	1	80	0	0	0	WM Stimuli\	1	1035.2	1	671.3	1	847.5	1	604	1	917	1	753.8	0.9	769.888888888889	1	816.5	13	337265	1	337253	27	40	337292	-999999	337267	0	31	TrialsPROC	TO_020_TOOL20_BA.png	2	2	42	SessionSelectionList														lure	3	Tools	0-Back	37	80	36	0	0	100	3	39	168428	1	13	59	166389	-1	167281	1	892	3	3	2039	52	168441	-53	0																42												
WM080112	792564_fnca	2	1	1	-1665039208	1	75.031	75.031	2.0.10.147	2.0.10.242	2.0.10.242	1.0.0.439	7	234	2	3	Verdana	1	80	0	0	0	WM Stimuli\	1	1035.2	1	671.3	1	847.5	1	604	1	917	1	753.8	0.9	769.888888888889	1	816.5	13	337265	1	337253	27	40	337292	-999999	337267	0	31	TrialsPROC	TO_022_TOOL22_BA.png	2	2	43	SessionSelectionList														nonlure	3	Tools	0-Back	38	80	37	0	0	100	4	39	170987	1	13	59	168948	-1	170169	1	1221	3	3	2039	52	171000	-53	0																43												
WM080112	792564_fnca	2	1	1	-1665039208	1	75.031	75.031	2.0.10.147	2.0.10.242	2.0.10.242	1.0.0.439	7	234	2	3	Verdana	1	80	0	0	0	WM Stimuli\	1	1035.2	1	671.3	1	847.5	1	604	1	917	1	753.8	0.9	769.888888888889	1	816.5	13	337265	1	337253	27	40	337292	-999999	337267	0	31	TrialsPROC	TO_022_TOOL22_BA.png	2	2	44	SessionSelectionList														lure	3	Tools	0-Back	39	80	38	0	0	100	5	40	173546	1	13	58	171506	-1	172220	1	714	3	3	2040	53	173559	-54	0																44												
WM080112	792564_fnca	2	1	1	-1665039208	1	75.031	75.031	2.0.10.147	2.0.10.242	2.0.10.242	1.0.0.439	7	234	2	3	Verdana	1	80	0	0	0	WM Stimuli\	1	1035.2	1	671.3	1	847.5	1	604	1	917	1	753.8	0.9	769.888888888889	1	816.5	13	337265	1	337253	27	40	337292	-999999	337267	0	31	TrialsPROC	TO_021_TOOL21_BA.png	2	2	45	SessionSelectionList														nonlure	3	Tools	0-Back	40	80	39	0	0	100	6	39	176105	1	13	60	174066	-1	174866	1	800	3	3	2039	52	176118	-53	0																45												
WM080112	792564_fnca	2	1	1	-1665039208	1	75.031	75.031	2.0.10.147	2.0.10.242	2.0.10.242	1.0.0.439	7	234	2	3	Verdana	1	80	0	0	0	WM Stimuli\	1	1035.2	1	671.3	1	847.5	1	604	1	917	1	753.8	0.9	769.888888888889	1	816.5	13	337265	1	337253	27	40	337292	-999999	337267	0	31	TrialsPROC	TO_021_TOOL21_BA.png	2	2	46	SessionSelectionList														lure	3	Tools	0-Back	41	80	40	0	0	100	7	39	178663	3	14	58	176624	-1	177305	1	681	3	3	2039	53	178677	-54	0																46												
WM080112	792564_fnca	2	1	1	-1665039208	1	75.031	75.031	2.0.10.147	2.0.10.242	2.0.10.242	1.0.0.439	7	234	2	3	Verdana	1	80	0	0	0	WM Stimuli\	1	1035.2	1	671.3	1	847.5	1	604	1	917	1	753.8	0.9	769.888888888889	1	816.5	13	337265	1	337253	27	40	337292	-999999	337267	0	32	Fix15secPROC	""	2	2	47	SessionSelectionList																																															6	179130	-7	0							47												
WM080112	792564_fnca	2	1	1	-1665039208	1	75.031	75.031	2.0.10.147	2.0.10.242	2.0.10.242	1.0.0.439	7	234	2	3	Verdana	1	80	0	0	0	WM Stimuli\	1	1035.2	1	671.3	1	847.5	1	604	1	917	1	753.8	0.9	769.888888888889	1	816.5	13	337265	1	337253	27	40	337292	-999999	337267	0	33	Cue2BackPROC	""	2	2	48	SessionSelectionList									13	194137	-14	0																																													48												
WM080112	792564_fnca	2	1	1	-1665039208	1	75.031	75.031	2.0.10.147	2.0.10.242	2.0.10.242	1.0.0.439	7	234	2	3	Verdana	1	80	0	0	0	WM Stimuli\	1	1035.2	1	671.3	1	847.5	1	604	1	917	1	753.8	0.9	769.888888888889	1	816.5	13	337265	1	337253	27	40	337292	-999999	337267	0	34	TrialsPROC	BP_020_H17-T_BA.png	2	2	49	SessionSelectionList														nonlure	3	Body	2-Back	42	80	41	0	0	100	8	39	198762	1	14	99	196723	-1	197636	1	913	3	3	2039	53	198776	-54	0																49												
WM080112	792564_fnca	2	1	1	-1665039208	1	75.031	75.031	2.0.10.147	2.0.10.242	2.0.10.242	1.0.0.439	7	234	2	3	Verdana	1	80	0	0	0	WM Stimuli\	1	1035.2	1	671.3	1	847.5	1	604	1	917	1	753.8	0.9	769.888888888889	1	816.5	13	337265	1	337253	27	40	337292	-999999	337267	0	34	TrialsPROC	BP_019_H14-T_BA.png	2	2	50	SessionSelectionList														nonlure	3	Body	2-Back	43	80	42	0	0	100	9	39	201347	2	14	85	199308	-1	200385	1	1077	3	3	2039	53	201361	-54	0																50												
WM080112	792564_fnca	2	1	1	-1665039208	1	75.031	75.031	2.0.10.147	2.0.10.242	2.0.10.242	1.0.0.439	7	234	2	3	Verdana	1	80	0	0	0	WM Stimuli\	1	1035.2	1	671.3	1	847.5	1	604	1	917	1	753.8	0.9	769.888888888889	1	816.5	13	337265	1	337253	27	40	337292	-999999	337267	0	34	TrialsPROC	BP_020_H17-T_BA.png	2	2	51	SessionSelectionList														target	2	Body	2-Back	44	80	43	0	0	100	1	38	203906	2	14	60	201868	-1	202492	1	624	2	2	2038	52	203920	-53	0																51												
WM080112	792564_fnca	2	1	1	-1665039208	1	75.031	75.031	2.0.10.147	2.0.10.242	2.0.10.242	1.0.0.439	7	234	2	3	Verdana	1	80	0	0	0	WM Stimuli\	1	1035.2	1	671.3	1	847.5	1	604	1	917	1	753.8	0.9	769.888888888889	1	816.5	13	337265	1	337253	27	40	337292	-999999	337267	0	34	TrialsPROC	BP_019_H14-T_BA.png	2	2	52	SessionSelectionList														target	2	Body	2-Back	45	80	44	0	0	100	2	38	206465	2	14	59	204427	-1	204956	1	529	2	2	2038	52	206479	-53	0																52												
WM080112	792564_fnca	2	1	1	-1665039208	1	75.031	75.031	2.0.10.147	2.0.10.242	2.0.10.242	1.0.0.439	7	234	2	3	Verdana	1	80	0	0	0	WM Stimuli\	1	1035.2	1	671.3	1	847.5	1	604	1	917	1	753.8	0.9	769.888888888889	1	816.5	13	337265	1	337253	27	40	337292	-999999	337267	0	34	TrialsPROC	BP_024_H3-T_BA.png	2	2	53	SessionSelectionList														nonlure	3	Body	2-Back	46	80	45	0	0	100	1	39	209024	2	14	58	206985	-1	208041	1	1056	3	3	2039	53	209038	-54	0																53												
WM080112	792564_fnca	2	1	1	-1665039208	1	75.031	75.031	2.0.10.147	2.0.10.242	2.0.10.242	1.0.0.439	7	234	2	3	Verdana	1	80	0	0	0	WM Stimuli\	1	1035.2	1	671.3	1	847.5	1	604	1	917	1	753.8	0.9	769.888888888889	1	816.5	13	337265	1	337253	27	40	337292	-999999	337267	0	34	TrialsPROC	BP_024_H3-T_BA.png	2	2	54	SessionSelectionList														lure	3	Body	2-Back	47	80	46	0	0	100	2	39	211583	2	14	59	209544	-1	210783	1	1239	3	3	2039	53	211597	-54	0																54												
WM080112	792564_fnca	2	1	1	-1665039208	1	75.031	75.031	2.0.10.147	2.0.10.242	2.0.10.242	1.0.0.439	7	234	2	3	Verdana	1	80	0	0	0	WM Stimuli\	1	1035.2	1	671.3	1	847.5	1	604	1	917	1	753.8	0.9	769.888888888889	1	816.5	13	337265	1	337253	27	40	337292	-999999	337267	0	34	TrialsPROC	BP_025_H5-T_BA.png	2	2	55	SessionSelectionList														nonlure	3	Body	2-Back	48	80	47	0	0	100	3	40	214156	1	13	72	212116	-1	213534	1	1418	3	3	2040	53	214169	-54	0																55												
WM080112	792564_fnca	2	1	1	-1665039208	1	75.031	75.031	2.0.10.147	2.0.10.242	2.0.10.242	1.0.0.439	7	234	2	3	Verdana	1	80	0	0	0	WM Stimuli\	1	1035.2	1	671.3	1	847.5	1	604	1	917	1	753.8	0.9	769.888888888889	1	816.5	13	337265	1	337253	27	40	337292	-999999	337267	0	34	TrialsPROC	BP_023_H25-T_BA.png	2	2	56	SessionSelectionList														nonlure	3	Body	2-Back	49	80	48	0	0	100	4	39	216728	1	13	73	214689	-1	216216	1	1527	3	3	2039	52	216741	-53	0																56												
WM080112	792564_fnca	2	1	1	-1665039208	1	75.031	75.031	2.0.10.147	2.0.10.242	2.0.10.242	1.0.0.439	7	234	2	3	Verdana	1	80	0	0	0	WM Stimuli\	1	1035.2	1	671.3	1	847.5	1	604	1	917	1	753.8	0.9	769.888888888889	1	816.5	13	337265	1	337253	27	40	337292	-999999	337267	0	34	TrialsPROC	BP_022_H24-T_BA.png	2	2	57	SessionSelectionList														nonlure	3	Body	2-Back	50	80	49	0	0	100	5	39	219287	1	13	59	217248	-1	218211	1	963	3	3	2039	52	219300	-53	0																57												
WM080112	792564_fnca	2	1	1	-1665039208	1	75.031	75.031	2.0.10.147	2.0.10.242	2.0.10.242	1.0.0.439	7	234	2	3	Verdana	1	80	0	0	0	WM Stimuli\	1	1035.2	1	671.3	1	847.5	1	604	1	917	1	753.8	0.9	769.888888888889	1	816.5	13	337265	1	337253	27	40	337292	-999999	337267	0	34	TrialsPROC	BP_022_H24-T_BA.png	2	2	58	SessionSelectionList														lure	3	Body	2-Back	51	80	50	0	0	100	6	39	221846	1	13	59	219807	-1	220813	1	1006	3	3	2039	52	221859	-53	0																58												
WM080112	792564_fnca	2	1	1	-1665039208	1	75.031	75.031	2.0.10.147	2.0.10.242	2.0.10.242	1.0.0.439	7	234	2	3	Verdana	1	80	0	0	0	WM Stimuli\	1	1035.2	1	671.3	1	847.5	1	604	1	917	1	753.8	0.9	769.888888888889	1	816.5	13	337265	1	337253	27	40	337292	-999999	337267	0	35	Cue2BackPROC	""	2	2	59	SessionSelectionList									5	222312	-6	0																																													59												
WM080112	792564_fnca	2	1	1	-1665039208	1	75.031	75.031	2.0.10.147	2.0.10.242	2.0.10.242	1.0.0.439	7	234	2	3	Verdana	1	80	0	0	0	WM Stimuli\	1	1035.2	1	671.3	1	847.5	1	604	1	917	1	753.8	0.9	769.888888888889	1	816.5	13	337265	1	337253	27	40	337292	-999999	337267	0	36	TrialsPROC	PL_019_SCENE_05.png	2	2	60	SessionSelectionList														nonlure	3	Place	2-Back	52	80	51	0	0	100	7	40	226924	1	13	77	224884	-1	226102	1	1218	3	3	2040	53	226937	-54	0																60												
WM080112	792564_fnca	2	1	1	-1665039208	1	75.031	75.031	2.0.10.147	2.0.10.242	2.0.10.242	1.0.0.439	7	234	2	3	Verdana	1	80	0	0	0	WM Stimuli\	1	1035.2	1	671.3	1	847.5	1	604	1	917	1	753.8	0.9	769.888888888889	1	816.5	13	337265	1	337253	27	40	337292	-999999	337267	0	36	TrialsPROC	PL_017_SCENE_03.png	2	2	61	SessionSelectionList														nonlure	3	Place	2-Back	53	80	52	0	0	100	8	39	229509	3	14	86	227470	-1	229147	1	1677	3	3	2039	53	229523	-54	0																61												
WM080112	792564_fnca	2	1	1	-1665039208	1	75.031	75.031	2.0.10.147	2.0.10.242	2.0.10.242	1.0.0.439	7	234	2	3	Verdana	1	80	0	0	0	WM Stimuli\	1	1035.2	1	671.3	1	847.5	1	604	1	917	1	753.8	0.9	769.888888888889	1	816.5	13	337265	1	337253	27	40	337292	-999999	337267	0	36	TrialsPROC	PL_017_SCENE_03.png	2	2	62	SessionSelectionList														lure	3	Place	2-Back	54	80	53	0	0	100	9	40	232082	1	13	72	230042	-1	230951	1	909	3	3	2040	53	232095	-54	0																62												
WM080112	792564_fnca	2	1	1	-1665039208	1	75.031	75.031	2.0.10.147	2.0.10.242	2.0.10.242	1.0.0.439	7	234	2	3	Verdana	1	80	0	0	0	WM Stimuli\	1	1035.2	1	671.3	1	847.5	1	604	1	917	1	753.8	0.9	769.888888888889	1	816.5	13	337265	1	337253	27	40	337292	-999999	337267	0	36	TrialsPROC	PL_016_SCENE_02.png	2	2	63	SessionSelectionList														nonlure	3	Place	2-Back	55	80	54	0	0	100	10	39	234680	2	14	99	232641	-1	233372	1	731	3	3	2039	53	234694	-54	0																63												
WM080112	792564_fnca	2	1	1	-1665039208	1	75.031	75.031	2.0.10.147	2.0.10.242	2.0.10.242	1.0.0.439	7	234	2	3	Verdana	1	80	0	0	0	WM Stimuli\	1	1035.2	1	671.3	1	847.5	1	604	1	917	1	753.8	0.9	769.888888888889	1	816.5	13	337265	1	337253	27	40	337292	-999999	337267	0	36	TrialsPROC	PL_015_SCENE_01.png	2	2	64	SessionSelectionList														nonlure	3	Place	2-Back	56	80	55	0	0	100	11	39	237266	1	14	86	235227	-1	236083	1	856	3	3	2039	53	237280	-54	0																64												
WM080112	792564_fnca	2	1	1	-1665039208	1	75.031	75.031	2.0.10.147	2.0.10.242	2.0.10.242	1.0.0.439	7	234	2	3	Verdana	1	80	0	0	0	WM Stimuli\	1	1035.2	1	671.3	1	847.5	1	604	1	917	1	753.8	0.9	769.888888888889	1	816.5	13	337265	1	337253	27	40	337292	-999999	337267	0	36	TrialsPROC	PL_016_SCENE_02.png	2	2	65	SessionSelectionList														target	2	Place	2-Back	57	80	56	0	0	100	1	39	239838	2	14	72	237799	-1	238487	1	688	2	2	2039	53	239852	-54	0																65												
WM080112	792564_fnca	2	1	1	-1665039208	1	75.031	75.031	2.0.10.147	2.0.10.242	2.0.10.242	1.0.0.439	7	234	2	3	Verdana	1	80	0	0	0	WM Stimuli\	1	1035.2	1	671.3	1	847.5	1	604	1	917	1	753.8	0.9	769.888888888889	1	816.5	13	337265	1	337253	27	40	337292	-999999	337267	0	36	TrialsPROC	PL_015_SCENE_01.png	2	2	66	SessionSelectionList														target	2	Place	2-Back	58	80	57	0	0	100	2	40	242411	1	13	72	240371	-1	240886	1	515	2	2	2040	53	242424	-54	0																66												
WM080112	792564_fnca	2	1	1	-1665039208	1	75.031	75.031	2.0.10.147	2.0.10.242	2.0.10.242	1.0.0.439	7	234	2	3	Verdana	1	80	0	0	0	WM Stimuli\	1	1035.2	1	671.3	1	847.5	1	604	1	917	1	753.8	0.9	769.888888888889	1	816.5	13	337265	1	337253	27	40	337292	-999999	337267	0	36	TrialsPROC	PL_020_SCENE_06.png	2	2	67	SessionSelectionList														nonlure	3	Place	2-Back	59	80	58	0	0	100	1	40	245010	1	13	99	242970	-1	243744	1	774	3	3	2040	53	245023	-54	0																67												
WM080112	792564_fnca	2	1	1	-1665039208	1	75.031	75.031	2.0.10.147	2.0.10.242	2.0.10.242	1.0.0.439	7	234	2	3	Verdana	1	80	0	0	0	WM Stimuli\	1	1035.2	1	671.3	1	847.5	1	604	1	917	1	753.8	0.9	769.888888888889	1	816.5	13	337265	1	337253	27	40	337292	-999999	337267	0	36	TrialsPROC	PL_020_SCENE_06.png	2	2	68	SessionSelectionList														lure	3	Place	2-Back	60	80	59	0	0	100	2	39	247582	1	13	73	245543	-1	246397	1	854	3	3	2039	52	247595	-53	0																68												
WM080112	792564_fnca	2	1	1	-1665039208	1	75.031	75.031	2.0.10.147	2.0.10.242	2.0.10.242	1.0.0.439	7	234	2	3	Verdana	1	80	0	0	0	WM Stimuli\	1	1035.2	1	671.3	1	847.5	1	604	1	917	1	753.8	0.9	769.888888888889	1	816.5	13	337265	1	337253	27	40	337292	-999999	337267	0	36	TrialsPROC	PL_018_SCENE_04.png	2	2	69	SessionSelectionList														nonlure	3	Place	2-Back	61	80	60	0	0	100	3	39	250167	2	14	85	248128	-1	249076	1	948	3	3	2039	53	250181	-54	0																69												
WM080112	792564_fnca	2	1	1	-1665039208	1	75.031	75.031	2.0.10.147	2.0.10.242	2.0.10.242	1.0.0.439	7	234	2	3	Verdana	1	80	0	0	0	WM Stimuli\	1	1035.2	1	671.3	1	847.5	1	604	1	917	1	753.8	0.9	769.888888888889	1	816.5	13	337265	1	337253	27	40	337292	-999999	337267	0	37	Fix15secPROC	""	2	2	70	SessionSelectionList																																															6	250634	-7	0							70												
WM080112	792564_fnca	2	1	1	-1665039208	1	75.031	75.031	2.0.10.147	2.0.10.242	2.0.10.242	1.0.0.439	7	234	2	3	Verdana	1	80	0	0	0	WM Stimuli\	1	1035.2	1	671.3	1	847.5	1	604	1	917	1	753.8	0.9	769.888888888889	1	816.5	13	337265	1	337253	27	40	337292	-999999	337267	0	38	Cue0BackPROC	FC_020_F10.png	2	2	71	SessionSelectionList																																										40	265668	-41	0												71												
WM080112	792564_fnca	2	1	1	-1665039208	1	75.031	75.031	2.0.10.147	2.0.10.242	2.0.10.242	1.0.0.439	7	234	2	3	Verdana	1	80	0	0	0	WM Stimuli\	1	1035.2	1	671.3	1	847.5	1	604	1	917	1	753.8	0.9	769.888888888889	1	816.5	13	337265	1	337253	27	40	337292	-999999	337267	0	39	TrialsPROC	FC_024_F12.png	2	2	72	SessionSelectionList														nonlure	3	Face	0-Back	62	80	61	0	0	100	4	39	270279	2	14	112	268240	-1	268905	1	665	3	3	2039	53	270293	-54	0																72												
WM080112	792564_fnca	2	1	1	-1665039208	1	75.031	75.031	2.0.10.147	2.0.10.242	2.0.10.242	1.0.0.439	7	234	2	3	Verdana	1	80	0	0	0	WM Stimuli\	1	1035.2	1	671.3	1	847.5	1	604	1	917	1	753.8	0.9	769.888888888889	1	816.5	13	337265	1	337253	27	40	337292	-999999	337267	0	39	TrialsPROC	FC_023_M12.png	2	2	73	SessionSelectionList														nonlure	3	Face	0-Back	63	80	62	0	0	100	5	39	272865	1	13	86	270826	-1	271415	1	589	3	3	2039	52	272878	-53	0																73												
WM080112	792564_fnca	2	1	1	-1665039208	1	75.031	75.031	2.0.10.147	2.0.10.242	2.0.10.242	1.0.0.439	7	234	2	3	Verdana	1	80	0	0	0	WM Stimuli\	1	1035.2	1	671.3	1	847.5	1	604	1	917	1	753.8	0.9	769.888888888889	1	816.5	13	337265	1	337253	27	40	337292	-999999	337267	0	39	TrialsPROC	FC_020_F10.png	2	2	74	SessionSelectionList														target	2	Face	0-Back	64	80	63	0	0	100	1	39	275437	1	14	72	273398	-1	274065	1	667	2	2	2039	53	275451	-54	0																74												
WM080112	792564_fnca	2	1	1	-1665039208	1	75.031	75.031	2.0.10.147	2.0.10.242	2.0.10.242	1.0.0.439	7	234	2	3	Verdana	1	80	0	0	0	WM Stimuli\	1	1035.2	1	671.3	1	847.5	1	604	1	917	1	753.8	0.9	769.888888888889	1	816.5	13	337265	1	337253	27	40	337292	-999999	337267	0	39	TrialsPROC	FC_024_F12.png	2	2	75	SessionSelectionList														lure	3	Face	0-Back	65	80	64	0	0	100	1	39	278009	2	14	72	275970	-1	276476	1	506	3	3	2039	53	278023	-54	0																75												
WM080112	792564_fnca	2	1	1	-1665039208	1	75.031	75.031	2.0.10.147	2.0.10.242	2.0.10.242	1.0.0.439	7	234	2	3	Verdana	1	80	0	0	0	WM Stimuli\	1	1035.2	1	671.3	1	847.5	1	604	1	917	1	753.8	0.9	769.888888888889	1	816.5	13	337265	1	337253	27	40	337292	-999999	337267	0	39	TrialsPROC	FC_020_F10.png	2	2	76	SessionSelectionList														target	2	Face	0-Back	66	80	65	0	0	100	1	40	280582	1	13	72	278542	-1	279109	1	567	2	2	2040	53	280595	-54	0																76												
WM080112	792564_fnca	2	1	1	-1665039208	1	75.031	75.031	2.0.10.147	2.0.10.242	2.0.10.242	1.0.0.439	7	234	2	3	Verdana	1	80	0	0	0	WM Stimuli\	1	1035.2	1	671.3	1	847.5	1	604	1	917	1	753.8	0.9	769.888888888889	1	816.5	13	337265	1	337253	27	40	337292	-999999	337267	0	39	TrialsPROC	FC_022_F11.png	2	2	77	SessionSelectionList														nonlure	3	Face	0-Back	67	80	66	0	0	100	1	39	283167	2	14	86	281128	-1	281671	1	543	3	3	2039	53	283181	-54	0																77												
WM080112	792564_fnca	2	1	1	-1665039208	1	75.031	75.031	2.0.10.147	2.0.10.242	2.0.10.242	1.0.0.439	7	234	2	3	Verdana	1	80	0	0	0	WM Stimuli\	1	1035.2	1	671.3	1	847.5	1	604	1	917	1	753.8	0.9	769.888888888889	1	816.5	13	337265	1	337253	27	40	337292	-999999	337267	0	39	TrialsPROC	FC_023_M12.png	2	2	78	SessionSelectionList														lure	3	Face	0-Back	68	80	67	0	0	100	2	39	285739	2	14	72	283700	-1	284372	1	672	3	3	2039	53	285753	-54	0																78												
WM080112	792564_fnca	2	1	1	-1665039208	1	75.031	75.031	2.0.10.147	2.0.10.242	2.0.10.242	1.0.0.439	7	234	2	3	Verdana	1	80	0	0	0	WM Stimuli\	1	1035.2	1	671.3	1	847.5	1	604	1	917	1	753.8	0.9	769.888888888889	1	816.5	13	337265	1	337253	27	40	337292	-999999	337267	0	39	TrialsPROC	FC_021_M11.png	2	2	79	SessionSelectionList														nonlure	3	Face	0-Back	69	80	68	0	0	100	3	39	288325	1	14	86	286286	-1	286847	1	561	3	3	2039	53	288339	-54	0																79												
WM080112	792564_fnca	2	1	1	-1665039208	1	75.031	75.031	2.0.10.147	2.0.10.242	2.0.10.242	1.0.0.439	7	234	2	3	Verdana	1	80	0	0	0	WM Stimuli\	1	1035.2	1	671.3	1	847.5	1	604	1	917	1	753.8	0.9	769.888888888889	1	816.5	13	337265	1	337253	27	40	337292	-999999	337267	0	39	TrialsPROC	FC_021_M11.png	2	2	80	SessionSelectionList														lure	3	Face	0-Back	70	80	69	0	0	100	4	39	290897	3	14	72	288858	-1	289534	1	676	3	3	2039	53	290911	-54	0																80												
WM080112	792564_fnca	2	1	1	-1665039208	1	75.031	75.031	2.0.10.147	2.0.10.242	2.0.10.242	1.0.0.439	7	234	2	3	Verdana	1	80	0	0	0	WM Stimuli\	1	1035.2	1	671.3	1	847.5	1	604	1	917	1	753.8	0.9	769.888888888889	1	816.5	13	337265	1	337253	27	40	337292	-999999	337267	0	39	TrialsPROC	FC_019_M10.png	2	2	81	SessionSelectionList														nonlure	3	Face	0-Back	71	80	70	0	0	100	5	39	293483	1	14	86	291444	-1	292038	1	594	3	3	2039	53	293497	-54	0																81												
WM080112	792564_fnca	2	1	1	-1665039208	1	75.031	75.031	2.0.10.147	2.0.10.242	2.0.10.242	1.0.0.439	7	234	2	3	Verdana	1	80	0	0	0	WM Stimuli\	1	1035.2	1	671.3	1	847.5	1	604	1	917	1	753.8	0.9	769.888888888889	1	816.5	13	337265	1	337253	27	40	337292	-999999	337267	0	40	Cue0BackPROC	PL_021_SCENE_07.png	2	2	82	SessionSelectionList																																										45	293989	-46	0												82												
WM080112	792564_fnca	2	1	1	-1665039208	1	75.031	75.031	2.0.10.147	2.0.10.242	2.0.10.242	1.0.0.439	7	234	2	3	Verdana	1	80	0	0	0	WM Stimuli\	1	1035.2	1	671.3	1	847.5	1	604	1	917	1	753.8	0.9	769.888888888889	1	816.5	13	337265	1	337253	27	40	337292	-999999	337267	0	41	TrialsPROC	PL_025_SCENE_18.png	2	2	83	SessionSelectionList														nonlure	3	Place	0-Back	72	80	71	0	0	100	6	39	298574	2	14	91	296535	-1	297485	1	950	3	3	2039	53	298588	-54	0																83												
WM080112	792564_fnca	2	1	1	-1665039208	1	75.031	75.031	2.0.10.147	2.0.10.242	2.0.10.242	1.0.0.439	7	234	2	3	Verdana	1	80	0	0	0	WM Stimuli\	1	1035.2	1	671.3	1	847.5	1	604	1	917	1	753.8	0.9	769.888888888889	1	816.5	13	337265	1	337253	27	40	337292	-999999	337267	0	41	TrialsPROC	PL_026_SCENE_24.png	2	2	84	SessionSelectionList														nonlure	3	Place	0-Back	73	80	72	0	0	100	7	39	301160	1	13	86	299121	-1	300105	1	984	3	3	2039	52	301173	-53	0																84												
WM080112	792564_fnca	2	1	1	-1665039208	1	75.031	75.031	2.0.10.147	2.0.10.242	2.0.10.242	1.0.0.439	7	234	2	3	Verdana	1	80	0	0	0	WM Stimuli\	1	1035.2	1	671.3	1	847.5	1	604	1	917	1	753.8	0.9	769.888888888889	1	816.5	13	337265	1	337253	27	40	337292	-999999	337267	0	41	TrialsPROC	PL_025_SCENE_18.png	2	2	85	SessionSelectionList														lure	3	Place	0-Back	74	80	73	0	0	100	8	39	303732	1	14	72	301693	-1	302356	1	663	3	3	2039	53	303746	-54	0																85												
WM080112	792564_fnca	2	1	1	-1665039208	1	75.031	75.031	2.0.10.147	2.0.10.242	2.0.10.242	1.0.0.439	7	234	2	3	Verdana	1	80	0	0	0	WM Stimuli\	1	1035.2	1	671.3	1	847.5	1	604	1	917	1	753.8	0.9	769.888888888889	1	816.5	13	337265	1	337253	27	40	337292	-999999	337267	0	41	TrialsPROC	PL_022_SCENE_08.png	2	2	86	SessionSelectionList														nonlure	3	Place	0-Back	75	80	74	0	0	100	9	39	306331	1	14	99	304292	-1	304917	1	625	3	3	2039	53	306345	-54	0																86												
WM080112	792564_fnca	2	1	1	-1665039208	1	75.031	75.031	2.0.10.147	2.0.10.242	2.0.10.242	1.0.0.439	7	234	2	3	Verdana	1	80	0	0	0	WM Stimuli\	1	1035.2	1	671.3	1	847.5	1	604	1	917	1	753.8	0.9	769.888888888889	1	816.5	13	337265	1	337253	27	40	337292	-999999	337267	0	41	TrialsPROC	PL_026_SCENE_24.png	2	2	87	SessionSelectionList														lure	3	Place	0-Back	76	80	75	0	0	100	10	39	308903	2	14	72	306864	-1	307501	1	637	3	3	2039	53	308917	-54	0																87												
WM080112	792564_fnca	2	1	1	-1665039208	1	75.031	75.031	2.0.10.147	2.0.10.242	2.0.10.242	1.0.0.439	7	234	2	3	Verdana	1	80	0	0	0	WM Stimuli\	1	1035.2	1	671.3	1	847.5	1	604	1	917	1	753.8	0.9	769.888888888889	1	816.5	13	337265	1	337253	27	40	337292	-999999	337267	0	41	TrialsPROC	PL_021_SCENE_07.png	2	2	88	SessionSelectionList														target	2	Place	0-Back	77	80	76	0	0	100	1	40	311476	1	13	72	309436	-1	309872	1	436	2	2	2040	53	311489	-54	0																88												
WM080112	792564_fnca	2	1	1	-1665039208	1	75.031	75.031	2.0.10.147	2.0.10.242	2.0.10.242	1.0.0.439	7	234	2	3	Verdana	1	80	0	0	0	WM Stimuli\	1	1035.2	1	671.3	1	847.5	1	604	1	917	1	753.8	0.9	769.888888888889	1	816.5	13	337265	1	337253	27	40	337292	-999999	337267	0	41	TrialsPROC	PL_021_SCENE_07.png	2	2	89	SessionSelectionList														target	2	Place	0-Back	78	80	77	0	0	100	2	39	314048	1	13	73	312009	-1	312719	1	710	2	2	2039	52	314061	-53	0																89												
WM080112	792564_fnca	2	1	1	-1665039208	1	75.031	75.031	2.0.10.147	2.0.10.242	2.0.10.242	1.0.0.439	7	234	2	3	Verdana	1	80	0	0	0	WM Stimuli\	1	1035.2	1	671.3	1	847.5	1	604	1	917	1	753.8	0.9	769.888888888889	1	816.5	13	337265	1	337253	27	40	337292	-999999	337267	0	41	TrialsPROC	PL_023_SCENE_09.png	2	2	90	SessionSelectionList														nonlure	3	Place	0-Back	79	80	78	0	0	100	1	39	316633	2	14	85	314594	-1	315419	1	825	3	3	2039	53	316647	-54	0																90												
WM080112	792564_fnca	2	1	1	-1665039208	1	75.031	75.031	2.0.10.147	2.0.10.242	2.0.10.242	1.0.0.439	7	234	2	3	Verdana	1	80	0	0	0	WM Stimuli\	1	1035.2	1	671.3	1	847.5	1	604	1	917	1	753.8	0.9	769.888888888889	1	816.5	13	337265	1	337253	27	40	337292	-999999	337267	0	41	TrialsPROC	PL_024_SCENE_10.png	2	2	91	SessionSelectionList														nonlure	3	Place	0-Back	80	80	79	0	0	100	2	39	319219	1	14	86	317180	-1	317842	1	662	3	3	2039	53	319233	-54	0																91												
WM080112	792564_fnca	2	1	1	-1665039208	1	75.031	75.031	2.0.10.147	2.0.10.242	2.0.10.242	1.0.0.439	7	234	2	3	Verdana	1	80	0	0	0	WM Stimuli\	1	1035.2	1	671.3	1	847.5	1	604	1	917	1	753.8	0.9	769.888888888889	1	816.5	13	337265	1	337253	27	40	337292	-999999	337267	0	41	TrialsPROC	PL_022_SCENE_08.png	2	2	92	SessionSelectionList														lure	3	Place	0-Back	80	80	80	0	0	100	3	39	321791	2	14	72	319752	-1	320798	1	1046	3	3	2039	53	321805	-54	0																92												
WM080112	792564_fnca	2	1	1	-1665039208	1	75.031	75.031	2.0.10.147	2.0.10.242	2.0.10.242	1.0.0.439	7	234	2	3	Verdana	1	80	0	0	0	WM Stimuli\	1	1035.2	1	671.3	1	847.5	1	604	1	917	1	753.8	0.9	769.888888888889	1	816.5	13	337265	1	337253	27	40	337292	-999999	337267	0	42	Fix15secPROC	""	2	2	93	SessionSelectionList																																															6	322258	-7	0							93												
