ExperimentName	HCPID	RunNumber	Subject	Session	RandomSeed	Group	Laptop.RefreshRate	ScannerD2.RefreshRate	StudioVersion	RuntimeVersion	RuntimeVersionExpected	ExperimentVersion	triggercode	Allowed	Target	Nontarget	FontStyle	RunTrialNumber[Session]	TrialsPerRun[Session]	TotalRespGreater200[Session]	ConsecRTLess200[Session]	ConsecNonResp[Session]	StimuliDir	ACC_2_Back_Body	Avg_RT_For_Correct_Trials_2_Back_Body	ACC_0_Back_Body	Avg_RT_For_Correct_Trials_0_Back_Body	ACC_2_Back_Face	Avg_RT_For_Correct_Trials_2_Back_Face	ACC_0_Back_Face	Avg_RT_For_Correct_Trials_0_Back_Face	ACC_2_Back_Place	Avg_RT_For_Correct_Trials_2_Back_Place	ACC_0_Back_Place	Avg_RT_For_Correct_Trials_0_Back_Place	ACC_2_Back_Tools	Avg_RT_For_Correct_Trials_2_Back_Tools	ACC_0_Back_Tools	Avg_RT_For_Correct_Trials_0_Back_Tools	ExpInstrucFeelFreeToRest.OnsetDelay	ExpInstrucFeelFreeToRest.OnsetTime	ExpInstrucFeelFreeToRest.DurationError	ExpInstrucFeelFreeToRest.StartTime	ExpInstrucFeelFreeToRest.OnsetToOnsetTime	FeelFreeToRest.OnsetDelay	FeelFreeToRest.OnsetTime	FeelFreeToRest.DurationError	FeelFreeToRest.StartTime	FeelFreeToRest.OnsetToOnsetTime	SessionSelectionList	Procedure[Block]	Stimulus[Block]	RunNumberFilterValue	SessionSelectionList.Cycle	SessionSelectionList.Sample	Running[Block]	IntroButtonMap.OnsetDelay	IntroButtonMap.OnsetTime	IntroButtonMap.DurationError	IntroButtonMap.OnsetToOnsetTime	GetReady.OnsetDelay	GetReady.OnsetTime	GetReady.DurationError	GetReady.OnsetToOnsetTime	Cue2Back.OnsetDelay	Cue2Back.OnsetTime	Cue2Back.DurationError	Cue2Back.OnsetToOnsetTime	Run1Block1	TargetType	CorrectResponse	StimType	BlockType	RunTrialNumber[Block]	TrialsPerRun[Block]	TotalRespGreater200[Block]	ConsecRTLess200[Block]	ConsecNonResp[Block]	ControlAcc	ConsecSameResp	ExperimenterWindow.OnsetDelay	ExperimenterWindow.OnsetTime	ExperimenterWindow.DurationError	ExperimenterWindow.OnsetToOnsetTime	Stim.OnsetDelay	Stim.OnsetTime	Stim.DurationError	Stim.RTTime	Stim.ACC	Stim.RT	Stim.RESP	Stim.CRESP	Stim.OnsetToOnsetTime	Fix.OnsetDelay	Fix.OnsetTime	Fix.DurationError	Fix.OnsetToOnsetTime	CueTarget.OnsetDelay	CueTarget.OnsetTime	CueTarget.DurationError	CueTarget.OnsetToOnsetTime	Run1Block2	Fix15sec.OnsetDelay	Fix15sec.OnsetTime	Fix15sec.DurationError	Fix15sec.OnsetToOnsetTime	Run1Block3	Run1Block4	Run1Block5	Run1Block6	Run1Block7	Run1Block8	Block	Procedure[Trial]	Stimulus[Trial]	ReadyList	Running[Trial]	ReadyList.Cycle	ReadyList.Sample	SyncSlide.OnsetDelay	SyncSlide.OnsetTime	SyncSlide.DurationError	SyncSlide.FinishTime	SyncSlide.OnsetToOnsetTime	Trial
WM080112	756055_fnca	4	1	1	-1423609206	1	75.031	75.031	2.0.10.147	2.0.10.242	2.0.10.242	1.0.0.439	7	234	2	3	Verdana	1	80	0	0	0	WM Stimuli\	0.8	1106	0.9	898.666666666667	0.8	1013.5	1	694.9	0.7	1085.85714285714	1	812.2	1	1210	1	717.6	13	321599	2	321587	27	40	321626	-999999	321601	0	64	TRSyncPROC	""	4	2	1	SessionSelectionList	101	14405	-999999	0	31	14805	-999999	0																																																	1	InitialTR	4	1	ReadyList	1	1	17	27640	-18	29622	0	1
WM080112	756055_fnca	4	1	1	-1423609206	1	75.031	75.031	2.0.10.147	2.0.10.242	2.0.10.242	1.0.0.439	7	234	2	3	Verdana	1	80	0	0	0	WM Stimuli\	0.8	1106	0.9	898.666666666667	0.8	1013.5	1	694.9	0.7	1085.85714285714	1	812.2	1	1210	1	717.6	13	321599	2	321587	27	40	321626	-999999	321601	0	64	TRSyncPROC	""	4	2	1	SessionSelectionList	101	14405	-999999	0	31	14805	-999999	0																																																	1	InitialTR	3	2	ReadyList	1	2	16	29639	-17	31622	0	2
WM080112	756055_fnca	4	1	1	-1423609206	1	75.031	75.031	2.0.10.147	2.0.10.242	2.0.10.242	1.0.0.439	7	234	2	3	Verdana	1	80	0	0	0	WM Stimuli\	0.8	1106	0.9	898.666666666667	0.8	1013.5	1	694.9	0.7	1085.85714285714	1	812.2	1	1210	1	717.6	13	321599	2	321587	27	40	321626	-999999	321601	0	64	TRSyncPROC	""	4	2	1	SessionSelectionList	101	14405	-999999	0	31	14805	-999999	0																																																	1	InitialTR	2	3	ReadyList	1	3	15	31638	-16	33622	0	3
WM080112	756055_fnca	4	1	1	-1423609206	1	75.031	75.031	2.0.10.147	2.0.10.242	2.0.10.242	1.0.0.439	7	234	2	3	Verdana	1	80	0	0	0	WM Stimuli\	0.8	1106	0.9	898.666666666667	0.8	1013.5	1	694.9	0.7	1085.85714285714	1	812.2	1	1210	1	717.6	13	321599	2	321587	27	40	321626	-999999	321601	0	64	TRSyncPROC	""	4	2	1	SessionSelectionList	101	14405	-999999	0	31	14805	-999999	0																																																	1	InitialTR	1	4	ReadyList	1	4	14	33637	-15	35622	0	4
WM080112	756055_fnca	4	1	1	-1423609206	1	75.031	75.031	2.0.10.147	2.0.10.242	2.0.10.242	1.0.0.439	7	234	2	3	Verdana	1	80	0	0	0	WM Stimuli\	0.8	1106	0.9	898.666666666667	0.8	1013.5	1	694.9	0.7	1085.85714285714	1	812.2	1	1210	1	717.6	13	321599	2	321587	27	40	321626	-999999	321601	0	65	Cue0BackPROC	FC_037_M19.png	4	2	2	SessionSelectionList																																										40	35663	-41	0												2												
WM080112	756055_fnca	4	1	1	-1423609206	1	75.031	75.031	2.0.10.147	2.0.10.242	2.0.10.242	1.0.0.439	7	234	2	3	Verdana	1	80	0	0	0	WM Stimuli\	0.8	1106	0.9	898.666666666667	0.8	1013.5	1	694.9	0.7	1085.85714285714	1	812.2	1	1210	1	717.6	13	321599	2	321587	27	40	321626	-999999	321601	0	66	TrialsPROC	FC_040_F20.png	4	2	3	SessionSelectionList														nonlure	3	Face	0-Back	2	80	1	0	0	100	1	52	40301	3	14	126	38249	-1	39026	1	777	3	3	2052	66	40315	-67	0																3												
WM080112	756055_fnca	4	1	1	-1423609206	1	75.031	75.031	2.0.10.147	2.0.10.242	2.0.10.242	1.0.0.439	7	234	2	3	Verdana	1	80	0	0	0	WM Stimuli\	0.8	1106	0.9	898.666666666667	0.8	1013.5	1	694.9	0.7	1085.85714285714	1	812.2	1	1210	1	717.6	13	321599	2	321587	27	40	321626	-999999	321601	0	66	TrialsPROC	FC_041_M21.png	4	2	4	SessionSelectionList														nonlure	3	Face	0-Back	3	80	2	0	0	100	2	39	42873	2	14	85	40834	-1	41735	1	901	3	3	2039	53	42887	-54	0																4												
WM080112	756055_fnca	4	1	1	-1423609206	1	75.031	75.031	2.0.10.147	2.0.10.242	2.0.10.242	1.0.0.439	7	234	2	3	Verdana	1	80	0	0	0	WM Stimuli\	0.8	1106	0.9	898.666666666667	0.8	1013.5	1	694.9	0.7	1085.85714285714	1	812.2	1	1210	1	717.6	13	321599	2	321587	27	40	321626	-999999	321601	0	66	TrialsPROC	FC_038_F19.png	4	2	5	SessionSelectionList														nonlure	3	Face	0-Back	4	80	3	0	0	100	3	39	45472	2	14	99	43433	-1	44096	1	663	3	3	2039	53	45486	-54	0																5												
WM080112	756055_fnca	4	1	1	-1423609206	1	75.031	75.031	2.0.10.147	2.0.10.242	2.0.10.242	1.0.0.439	7	234	2	3	Verdana	1	80	0	0	0	WM Stimuli\	0.8	1106	0.9	898.666666666667	0.8	1013.5	1	694.9	0.7	1085.85714285714	1	812.2	1	1210	1	717.6	13	321599	2	321587	27	40	321626	-999999	321601	0	66	TrialsPROC	FC_040_F20.png	4	2	6	SessionSelectionList														lure	3	Face	0-Back	5	80	4	0	0	100	4	40	48045	1	13	72	46005	-1	46536	1	531	3	3	2040	53	48058	-54	0																6												
WM080112	756055_fnca	4	1	1	-1423609206	1	75.031	75.031	2.0.10.147	2.0.10.242	2.0.10.242	1.0.0.439	7	234	2	3	Verdana	1	80	0	0	0	WM Stimuli\	0.8	1106	0.9	898.666666666667	0.8	1013.5	1	694.9	0.7	1085.85714285714	1	812.2	1	1210	1	717.6	13	321599	2	321587	27	40	321626	-999999	321601	0	66	TrialsPROC	FC_039_M20.png	4	2	7	SessionSelectionList														nonlure	3	Face	0-Back	6	80	5	0	0	100	5	39	50630	2	14	86	48591	-1	49347	1	756	3	3	2039	53	50644	-54	0																7												
WM080112	756055_fnca	4	1	1	-1423609206	1	75.031	75.031	2.0.10.147	2.0.10.242	2.0.10.242	1.0.0.439	7	234	2	3	Verdana	1	80	0	0	0	WM Stimuli\	0.8	1106	0.9	898.666666666667	0.8	1013.5	1	694.9	0.7	1085.85714285714	1	812.2	1	1210	1	717.6	13	321599	2	321587	27	40	321626	-999999	321601	0	66	TrialsPROC	FC_037_M19.png	4	2	8	SessionSelectionList														target	2	Face	0-Back	7	80	6	0	0	100	1	39	53202	2	14	72	51163	-1	51898	1	735	2	2	2039	53	53216	-54	0																8												
WM080112	756055_fnca	4	1	1	-1423609206	1	75.031	75.031	2.0.10.147	2.0.10.242	2.0.10.242	1.0.0.439	7	234	2	3	Verdana	1	80	0	0	0	WM Stimuli\	0.8	1106	0.9	898.666666666667	0.8	1013.5	1	694.9	0.7	1085.85714285714	1	812.2	1	1210	1	717.6	13	321599	2	321587	27	40	321626	-999999	321601	0	66	TrialsPROC	FC_038_F19.png	4	2	9	SessionSelectionList														lure	3	Face	0-Back	8	80	7	0	0	100	1	39	55775	1	13	73	53736	-1	54439	1	703	3	3	2039	52	55788	-53	0																9												
WM080112	756055_fnca	4	1	1	-1423609206	1	75.031	75.031	2.0.10.147	2.0.10.242	2.0.10.242	1.0.0.439	7	234	2	3	Verdana	1	80	0	0	0	WM Stimuli\	0.8	1106	0.9	898.666666666667	0.8	1013.5	1	694.9	0.7	1085.85714285714	1	812.2	1	1210	1	717.6	13	321599	2	321587	27	40	321626	-999999	321601	0	66	TrialsPROC	FC_042_F21.png	4	2	10	SessionSelectionList														nonlure	3	Face	0-Back	9	80	8	0	0	100	2	39	58360	3	14	85	56321	-1	56848	1	527	3	3	2039	53	58374	-54	0																10												
WM080112	756055_fnca	4	1	1	-1423609206	1	75.031	75.031	2.0.10.147	2.0.10.242	2.0.10.242	1.0.0.439	7	234	2	3	Verdana	1	80	0	0	0	WM Stimuli\	0.8	1106	0.9	898.666666666667	0.8	1013.5	1	694.9	0.7	1085.85714285714	1	812.2	1	1210	1	717.6	13	321599	2	321587	27	40	321626	-999999	321601	0	66	TrialsPROC	FC_041_M21.png	4	2	11	SessionSelectionList														lure	3	Face	0-Back	10	80	9	0	0	100	3	40	60933	2	13	72	58893	-1	59602	1	709	3	3	2040	53	60946	-54	0																11												
WM080112	756055_fnca	4	1	1	-1423609206	1	75.031	75.031	2.0.10.147	2.0.10.242	2.0.10.242	1.0.0.439	7	234	2	3	Verdana	1	80	0	0	0	WM Stimuli\	0.8	1106	0.9	898.666666666667	0.8	1013.5	1	694.9	0.7	1085.85714285714	1	812.2	1	1210	1	717.6	13	321599	2	321587	27	40	321626	-999999	321601	0	66	TrialsPROC	FC_037_M19.png	4	2	12	SessionSelectionList														target	2	Face	0-Back	11	80	10	0	0	100	1	39	63505	1	13	73	61466	-1	62113	1	647	2	2	2039	52	63518	-53	0																12												
WM080112	756055_fnca	4	1	1	-1423609206	1	75.031	75.031	2.0.10.147	2.0.10.242	2.0.10.242	1.0.0.439	7	234	2	3	Verdana	1	80	0	0	0	WM Stimuli\	0.8	1106	0.9	898.666666666667	0.8	1013.5	1	694.9	0.7	1085.85714285714	1	812.2	1	1210	1	717.6	13	321599	2	321587	27	40	321626	-999999	321601	0	67	Cue2BackPROC	""	4	2	13	SessionSelectionList									5	63971	-6	0																																													13												
WM080112	756055_fnca	4	1	1	-1423609206	1	75.031	75.031	2.0.10.147	2.0.10.242	2.0.10.242	1.0.0.439	7	234	2	3	Verdana	1	80	0	0	0	WM Stimuli\	0.8	1106	0.9	898.666666666667	0.8	1013.5	1	694.9	0.7	1085.85714285714	1	812.2	1	1210	1	717.6	13	321599	2	321587	27	40	321626	-999999	321601	0	68	TrialsPROC	BP_038_FRBHI_BA.png	4	2	14	SessionSelectionList														nonlure	3	Body	2-Back	12	80	11	0	0	100	1	39	68583	1	13	78	66544	-1	68137	1	1593	3	3	2039	52	68596	-53	0																14												
WM080112	756055_fnca	4	1	1	-1423609206	1	75.031	75.031	2.0.10.147	2.0.10.242	2.0.10.242	1.0.0.439	7	234	2	3	Verdana	1	80	0	0	0	WM Stimuli\	0.8	1106	0.9	898.666666666667	0.8	1013.5	1	694.9	0.7	1085.85714285714	1	812.2	1	1210	1	717.6	13	321599	2	321587	27	40	321626	-999999	321601	0	68	TrialsPROC	BP_040_FRCHS_BA.png	4	2	15	SessionSelectionList														nonlure	3	Body	2-Back	13	80	12	0	0	100	2	39	71168	2	14	85	69129	-1	70048	1	919	3	3	2039	53	71182	-54	0																15												
WM080112	756055_fnca	4	1	1	-1423609206	1	75.031	75.031	2.0.10.147	2.0.10.242	2.0.10.242	1.0.0.439	7	234	2	3	Verdana	1	80	0	0	0	WM Stimuli\	0.8	1106	0.9	898.666666666667	0.8	1013.5	1	694.9	0.7	1085.85714285714	1	812.2	1	1210	1	717.6	13	321599	2	321587	27	40	321626	-999999	321601	0	68	TrialsPROC	BP_038_FRBHI_BA.png	4	2	16	SessionSelectionList														target	2	Body	2-Back	14	80	13	0	0	100	1	39	73727	2	14	59	71688	-1	72466	1	778	2	2	2039	53	73741	-54	0																16												
WM080112	756055_fnca	4	1	1	-1423609206	1	75.031	75.031	2.0.10.147	2.0.10.242	2.0.10.242	1.0.0.439	7	234	2	3	Verdana	1	80	0	0	0	WM Stimuli\	0.8	1106	0.9	898.666666666667	0.8	1013.5	1	694.9	0.7	1085.85714285714	1	812.2	1	1210	1	717.6	13	321599	2	321587	27	40	321626	-999999	321601	0	68	TrialsPROC	BP_043_MLBAS_BA.png	4	2	17	SessionSelectionList														nonlure	3	Body	2-Back	15	80	14	0	0	100	1	39	76313	1	13	86	74274	-1	75107	1	833	3	3	2039	52	76326	-53	0																17												
WM080112	756055_fnca	4	1	1	-1423609206	1	75.031	75.031	2.0.10.147	2.0.10.242	2.0.10.242	1.0.0.439	7	234	2	3	Verdana	1	80	0	0	0	WM Stimuli\	0.8	1106	0.9	898.666666666667	0.8	1013.5	1	694.9	0.7	1085.85714285714	1	812.2	1	1210	1	717.6	13	321599	2	321587	27	40	321626	-999999	321601	0	68	TrialsPROC	BP_041_FRPUI_BA.png	4	2	18	SessionSelectionList														nonlure	3	Body	2-Back	16	80	15	0	0	100	2	40	78899	1	13	85	76859	-1	77869	1	1010	3	3	2040	53	78912	-54	0																18												
WM080112	756055_fnca	4	1	1	-1423609206	1	75.031	75.031	2.0.10.147	2.0.10.242	2.0.10.242	1.0.0.439	7	234	2	3	Verdana	1	80	0	0	0	WM Stimuli\	0.8	1106	0.9	898.666666666667	0.8	1013.5	1	694.9	0.7	1085.85714285714	1	812.2	1	1210	1	717.6	13	321599	2	321587	27	40	321626	-999999	321601	0	68	TrialsPROC	BP_042_MBBHS_BA.png	4	2	19	SessionSelectionList														nonlure	3	Body	2-Back	17	80	16	0	0	100	3	39	81471	1	13	73	79432	-1	80323	1	891	3	3	2039	52	81484	-53	0																19												
WM080112	756055_fnca	4	1	1	-1423609206	1	75.031	75.031	2.0.10.147	2.0.10.242	2.0.10.242	1.0.0.439	7	234	2	3	Verdana	1	80	0	0	0	WM Stimuli\	0.8	1106	0.9	898.666666666667	0.8	1013.5	1	694.9	0.7	1085.85714285714	1	812.2	1	1210	1	717.6	13	321599	2	321587	27	40	321626	-999999	321601	0	68	TrialsPROC	BP_043_MLBAS_BA.png	4	2	20	SessionSelectionList														lure	3	Body	2-Back	18	80	17	0	0	100	1	39	84030	1	13	59	81991	-1	82801	0	810	2	3	2039	52	84043	-53	0																20												
WM080112	756055_fnca	4	1	1	-1423609206	1	75.031	75.031	2.0.10.147	2.0.10.242	2.0.10.242	1.0.0.439	7	234	2	3	Verdana	1	80	0	0	0	WM Stimuli\	0.8	1106	0.9	898.666666666667	0.8	1013.5	1	694.9	0.7	1085.85714285714	1	812.2	1	1210	1	717.6	13	321599	2	321587	27	40	321626	-999999	321601	0	68	TrialsPROC	BP_042_MBBHS_BA.png	4	2	21	SessionSelectionList														target	2	Body	2-Back	19	80	18	0	0	100	2	39	86589	1	13	59	84550	-1	85940	1	1390	2	2	2039	52	86602	-53	0																21												
WM080112	756055_fnca	4	1	1	-1423609206	1	75.031	75.031	2.0.10.147	2.0.10.242	2.0.10.242	1.0.0.439	7	234	2	3	Verdana	1	80	0	0	0	WM Stimuli\	0.8	1106	0.9	898.666666666667	0.8	1013.5	1	694.9	0.7	1085.85714285714	1	812.2	1	1210	1	717.6	13	321599	2	321587	27	40	321626	-999999	321601	0	68	TrialsPROC	BP_041_FRPUI_BA.png	4	2	22	SessionSelectionList														lure	3	Body	2-Back	20	80	19	0	0	100	3	39	89161	1	13	72	87122	-1	88228	0	1106	2	3	2039	52	89174	-53	0																22												
WM080112	756055_fnca	4	1	1	-1423609206	1	75.031	75.031	2.0.10.147	2.0.10.242	2.0.10.242	1.0.0.439	7	234	2	3	Verdana	1	80	0	0	0	WM Stimuli\	0.8	1106	0.9	898.666666666667	0.8	1013.5	1	694.9	0.7	1085.85714285714	1	812.2	1	1210	1	717.6	13	321599	2	321587	27	40	321626	-999999	321601	0	68	TrialsPROC	BP_039_FRCHI_BA.png	4	2	23	SessionSelectionList														nonlure	3	Body	2-Back	21	80	20	0	0	100	1	39	91733	2	14	72	89694	-1	91128	1	1434	3	3	2039	53	91747	-54	0																23												
WM080112	756055_fnca	4	1	1	-1423609206	1	75.031	75.031	2.0.10.147	2.0.10.242	2.0.10.242	1.0.0.439	7	234	2	3	Verdana	1	80	0	0	0	WM Stimuli\	0.8	1106	0.9	898.666666666667	0.8	1013.5	1	694.9	0.7	1085.85714285714	1	812.2	1	1210	1	717.6	13	321599	2	321587	27	40	321626	-999999	321601	0	69	Fix15secPROC	""	4	2	24	SessionSelectionList																																															6	92200	-7	0							24												
WM080112	756055_fnca	4	1	1	-1423609206	1	75.031	75.031	2.0.10.147	2.0.10.242	2.0.10.242	1.0.0.439	7	234	2	3	Verdana	1	80	0	0	0	WM Stimuli\	0.8	1106	0.9	898.666666666667	0.8	1013.5	1	694.9	0.7	1085.85714285714	1	812.2	1	1210	1	717.6	13	321599	2	321587	27	40	321626	-999999	321601	0	70	Cue0BackPROC	TO_037_TOOL37_BA.png	4	2	25	SessionSelectionList																																										40	107234	-41	0												25												
WM080112	756055_fnca	4	1	1	-1423609206	1	75.031	75.031	2.0.10.147	2.0.10.242	2.0.10.242	1.0.0.439	7	234	2	3	Verdana	1	80	0	0	0	WM Stimuli\	0.8	1106	0.9	898.666666666667	0.8	1013.5	1	694.9	0.7	1085.85714285714	1	812.2	1	1210	1	717.6	13	321599	2	321587	27	40	321626	-999999	321601	0	71	TrialsPROC	TO_037_TOOL37_BA.png	4	2	26	SessionSelectionList														target	2	Tools	0-Back	22	80	21	0	0	100	1	39	111792	1	13	59	109753	-1	110462	1	709	2	2	2039	52	111805	-53	0																26												
WM080112	756055_fnca	4	1	1	-1423609206	1	75.031	75.031	2.0.10.147	2.0.10.242	2.0.10.242	1.0.0.439	7	234	2	3	Verdana	1	80	0	0	0	WM Stimuli\	0.8	1106	0.9	898.666666666667	0.8	1013.5	1	694.9	0.7	1085.85714285714	1	812.2	1	1210	1	717.6	13	321599	2	321587	27	40	321626	-999999	321601	0	71	TrialsPROC	TO_037_TOOL37_BA.png	4	2	27	SessionSelectionList														target	2	Tools	0-Back	23	80	22	0	0	100	2	39	114351	1	13	59	112312	-1	112959	1	647	2	2	2039	52	114364	-53	0																27												
WM080112	756055_fnca	4	1	1	-1423609206	1	75.031	75.031	2.0.10.147	2.0.10.242	2.0.10.242	1.0.0.439	7	234	2	3	Verdana	1	80	0	0	0	WM Stimuli\	0.8	1106	0.9	898.666666666667	0.8	1013.5	1	694.9	0.7	1085.85714285714	1	812.2	1	1210	1	717.6	13	321599	2	321587	27	40	321626	-999999	321601	0	71	TrialsPROC	TO_042_TOOL42_BA.png	4	2	28	SessionSelectionList														nonlure	3	Tools	0-Back	24	80	23	0	0	100	1	39	116936	2	14	85	114897	-1	115522	1	625	3	3	2039	53	116950	-54	0																28												
WM080112	756055_fnca	4	1	1	-1423609206	1	75.031	75.031	2.0.10.147	2.0.10.242	2.0.10.242	1.0.0.439	7	234	2	3	Verdana	1	80	0	0	0	WM Stimuli\	0.8	1106	0.9	898.666666666667	0.8	1013.5	1	694.9	0.7	1085.85714285714	1	812.2	1	1210	1	717.6	13	321599	2	321587	27	40	321626	-999999	321601	0	71	TrialsPROC	TO_038_TOOL38_BA.png	4	2	29	SessionSelectionList														nonlure	3	Tools	0-Back	25	80	24	0	0	100	2	39	119522	1	13	86	117483	-1	118086	1	603	3	3	2039	52	119535	-53	0																29												
WM080112	756055_fnca	4	1	1	-1423609206	1	75.031	75.031	2.0.10.147	2.0.10.242	2.0.10.242	1.0.0.439	7	234	2	3	Verdana	1	80	0	0	0	WM Stimuli\	0.8	1106	0.9	898.666666666667	0.8	1013.5	1	694.9	0.7	1085.85714285714	1	812.2	1	1210	1	717.6	13	321599	2	321587	27	40	321626	-999999	321601	0	71	TrialsPROC	TO_040_TOOL40_BA.png	4	2	30	SessionSelectionList														nonlure	3	Tools	0-Back	26	80	25	0	0	100	3	39	122094	2	14	72	120055	-1	120607	1	552	3	3	2039	53	122108	-54	0																30												
WM080112	756055_fnca	4	1	1	-1423609206	1	75.031	75.031	2.0.10.147	2.0.10.242	2.0.10.242	1.0.0.439	7	234	2	3	Verdana	1	80	0	0	0	WM Stimuli\	0.8	1106	0.9	898.666666666667	0.8	1013.5	1	694.9	0.7	1085.85714285714	1	812.2	1	1210	1	717.6	13	321599	2	321587	27	40	321626	-999999	321601	0	71	TrialsPROC	TO_039_TOOL39_BA.png	4	2	31	SessionSelectionList														nonlure	3	Tools	0-Back	27	80	26	0	0	100	4	39	124680	1	13	86	122641	-1	123166	1	525	3	3	2039	52	124693	-53	0																31												
WM080112	756055_fnca	4	1	1	-1423609206	1	75.031	75.031	2.0.10.147	2.0.10.242	2.0.10.242	1.0.0.439	7	234	2	3	Verdana	1	80	0	0	0	WM Stimuli\	0.8	1106	0.9	898.666666666667	0.8	1013.5	1	694.9	0.7	1085.85714285714	1	812.2	1	1210	1	717.6	13	321599	2	321587	27	40	321626	-999999	321601	0	71	TrialsPROC	TO_041_TOOL41_BA.png	4	2	32	SessionSelectionList														nonlure	3	Tools	0-Back	28	80	27	0	0	100	5	39	127252	2	14	72	125213	-1	126028	1	815	3	3	2039	53	127266	-54	0																32												
WM080112	756055_fnca	4	1	1	-1423609206	1	75.031	75.031	2.0.10.147	2.0.10.242	2.0.10.242	1.0.0.439	7	234	2	3	Verdana	1	80	0	0	0	WM Stimuli\	0.8	1106	0.9	898.666666666667	0.8	1013.5	1	694.9	0.7	1085.85714285714	1	812.2	1	1210	1	717.6	13	321599	2	321587	27	40	321626	-999999	321601	0	71	TrialsPROC	TO_040_TOOL40_BA.png	4	2	33	SessionSelectionList														lure	3	Tools	0-Back	29	80	28	0	0	100	6	39	129811	1	13	59	127772	-1	128612	1	840	3	3	2039	52	129824	-53	0																33												
WM080112	756055_fnca	4	1	1	-1423609206	1	75.031	75.031	2.0.10.147	2.0.10.242	2.0.10.242	1.0.0.439	7	234	2	3	Verdana	1	80	0	0	0	WM Stimuli\	0.8	1106	0.9	898.666666666667	0.8	1013.5	1	694.9	0.7	1085.85714285714	1	812.2	1	1210	1	717.6	13	321599	2	321587	27	40	321626	-999999	321601	0	71	TrialsPROC	TO_041_TOOL41_BA.png	4	2	34	SessionSelectionList														lure	3	Tools	0-Back	30	80	29	0	0	100	7	39	132370	1	13	59	130331	-1	131194	1	863	3	3	2039	52	132383	-53	0																34												
WM080112	756055_fnca	4	1	1	-1423609206	1	75.031	75.031	2.0.10.147	2.0.10.242	2.0.10.242	1.0.0.439	7	234	2	3	Verdana	1	80	0	0	0	WM Stimuli\	0.8	1106	0.9	898.666666666667	0.8	1013.5	1	694.9	0.7	1085.85714285714	1	812.2	1	1210	1	717.6	13	321599	2	321587	27	40	321626	-999999	321601	0	71	TrialsPROC	TO_038_TOOL38_BA.png	4	2	35	SessionSelectionList														lure	3	Tools	0-Back	31	80	30	0	0	100	8	39	134929	1	13	59	132890	-1	133887	1	997	3	3	2039	52	134942	-53	0																35												
WM080112	756055_fnca	4	1	1	-1423609206	1	75.031	75.031	2.0.10.147	2.0.10.242	2.0.10.242	1.0.0.439	7	234	2	3	Verdana	1	80	0	0	0	WM Stimuli\	0.8	1106	0.9	898.666666666667	0.8	1013.5	1	694.9	0.7	1085.85714285714	1	812.2	1	1210	1	717.6	13	321599	2	321587	27	40	321626	-999999	321601	0	72	Cue2BackPROC	""	4	2	36	SessionSelectionList									5	135395	-6	0																																													36												
WM080112	756055_fnca	4	1	1	-1423609206	1	75.031	75.031	2.0.10.147	2.0.10.242	2.0.10.242	1.0.0.439	7	234	2	3	Verdana	1	80	0	0	0	WM Stimuli\	0.8	1106	0.9	898.666666666667	0.8	1013.5	1	694.9	0.7	1085.85714285714	1	812.2	1	1210	1	717.6	13	321599	2	321587	27	40	321626	-999999	321601	0	73	TrialsPROC	PL_043_LEXINGTON19.png	4	2	37	SessionSelectionList														nonlure	3	Place	2-Back	32	80	30	0	1	100	8	39	140007	1	13	78	137968	-1	0	0	0	""	3	2039	52	140020	-53	0																37												
WM080112	756055_fnca	4	1	1	-1423609206	1	75.031	75.031	2.0.10.147	2.0.10.242	2.0.10.242	1.0.0.439	7	234	2	3	Verdana	1	80	0	0	0	WM Stimuli\	0.8	1106	0.9	898.666666666667	0.8	1013.5	1	694.9	0.7	1085.85714285714	1	812.2	1	1210	1	717.6	13	321599	2	321587	27	40	321626	-999999	321601	0	73	TrialsPROC	PL_043_LEXINGTON19.png	4	2	38	SessionSelectionList														lure	3	Place	2-Back	33	80	31	0	0	100	1	39	142566	1	13	59	140527	-1	141510	1	983	3	3	2039	52	142579	-53	0																38												
WM080112	756055_fnca	4	1	1	-1423609206	1	75.031	75.031	2.0.10.147	2.0.10.242	2.0.10.242	1.0.0.439	7	234	2	3	Verdana	1	80	0	0	0	WM Stimuli\	0.8	1106	0.9	898.666666666667	0.8	1013.5	1	694.9	0.7	1085.85714285714	1	812.2	1	1210	1	717.6	13	321599	2	321587	27	40	321626	-999999	321601	0	73	TrialsPROC	PL_044_SCENE01.png	4	2	39	SessionSelectionList														nonlure	3	Place	2-Back	34	80	32	0	0	100	2	39	145151	2	14	85	143112	-1	143993	1	881	3	3	2039	53	145165	-54	0																39												
WM080112	756055_fnca	4	1	1	-1423609206	1	75.031	75.031	2.0.10.147	2.0.10.242	2.0.10.242	1.0.0.439	7	234	2	3	Verdana	1	80	0	0	0	WM Stimuli\	0.8	1106	0.9	898.666666666667	0.8	1013.5	1	694.9	0.7	1085.85714285714	1	812.2	1	1210	1	717.6	13	321599	2	321587	27	40	321626	-999999	321601	0	73	TrialsPROC	PL_044_SCENE01.png	4	2	40	SessionSelectionList														lure	3	Place	2-Back	35	80	33	0	0	100	3	39	147724	1	13	73	145685	-1	147094	1	1409	3	3	2039	52	147737	-53	0																40												
WM080112	756055_fnca	4	1	1	-1423609206	1	75.031	75.031	2.0.10.147	2.0.10.242	2.0.10.242	1.0.0.439	7	234	2	3	Verdana	1	80	0	0	0	WM Stimuli\	0.8	1106	0.9	898.666666666667	0.8	1013.5	1	694.9	0.7	1085.85714285714	1	812.2	1	1210	1	717.6	13	321599	2	321587	27	40	321626	-999999	321601	0	73	TrialsPROC	PL_042_LEXINGTON18.png	4	2	41	SessionSelectionList														nonlure	3	Place	2-Back	36	80	34	0	0	100	4	39	150296	1	13	72	148257	-1	149119	1	862	3	3	2039	52	150309	-53	0																41												
WM080112	756055_fnca	4	1	1	-1423609206	1	75.031	75.031	2.0.10.147	2.0.10.242	2.0.10.242	1.0.0.439	7	234	2	3	Verdana	1	80	0	0	0	WM Stimuli\	0.8	1106	0.9	898.666666666667	0.8	1013.5	1	694.9	0.7	1085.85714285714	1	812.2	1	1210	1	717.6	13	321599	2	321587	27	40	321626	-999999	321601	0	73	TrialsPROC	PL_040_LEXINGTON16.png	4	2	42	SessionSelectionList														nonlure	3	Place	2-Back	37	80	35	0	0	100	5	39	152868	2	14	72	150829	-1	151840	1	1011	3	3	2039	53	152882	-54	0																42												
WM080112	756055_fnca	4	1	1	-1423609206	1	75.031	75.031	2.0.10.147	2.0.10.242	2.0.10.242	1.0.0.439	7	234	2	3	Verdana	1	80	0	0	0	WM Stimuli\	0.8	1106	0.9	898.666666666667	0.8	1013.5	1	694.9	0.7	1085.85714285714	1	812.2	1	1210	1	717.6	13	321599	2	321587	27	40	321626	-999999	321601	0	73	TrialsPROC	PL_041_LEXINGTON17.png	4	2	43	SessionSelectionList														nonlure	3	Place	2-Back	38	80	36	0	0	100	6	39	155441	1	13	73	153402	-1	155067	1	1665	3	3	2039	52	155454	-53	0																43												
WM080112	756055_fnca	4	1	1	-1423609206	1	75.031	75.031	2.0.10.147	2.0.10.242	2.0.10.242	1.0.0.439	7	234	2	3	Verdana	1	80	0	0	0	WM Stimuli\	0.8	1106	0.9	898.666666666667	0.8	1013.5	1	694.9	0.7	1085.85714285714	1	812.2	1	1210	1	717.6	13	321599	2	321587	27	40	321626	-999999	321601	0	73	TrialsPROC	PL_039_LEXINGTON06.png	4	2	44	SessionSelectionList														nonlure	3	Place	2-Back	39	80	37	0	0	100	1	39	158026	2	14	85	155987	-1	156835	0	848	2	3	2039	53	158040	-54	0																44												
WM080112	756055_fnca	4	1	1	-1423609206	1	75.031	75.031	2.0.10.147	2.0.10.242	2.0.10.242	1.0.0.439	7	234	2	3	Verdana	1	80	0	0	0	WM Stimuli\	0.8	1106	0.9	898.666666666667	0.8	1013.5	1	694.9	0.7	1085.85714285714	1	812.2	1	1210	1	717.6	13	321599	2	321587	27	40	321626	-999999	321601	0	73	TrialsPROC	PL_041_LEXINGTON17.png	4	2	45	SessionSelectionList														target	2	Place	2-Back	40	80	38	0	0	100	1	39	160585	2	14	59	158546	-1	159485	0	939	3	2	2039	53	160599	-54	0																45												
WM080112	756055_fnca	4	1	1	-1423609206	1	75.031	75.031	2.0.10.147	2.0.10.242	2.0.10.242	1.0.0.439	7	234	2	3	Verdana	1	80	0	0	0	WM Stimuli\	0.8	1106	0.9	898.666666666667	0.8	1013.5	1	694.9	0.7	1085.85714285714	1	812.2	1	1210	1	717.6	13	321599	2	321587	27	40	321626	-999999	321601	0	73	TrialsPROC	PL_039_LEXINGTON06.png	4	2	46	SessionSelectionList														target	2	Place	2-Back	41	80	39	0	0	100	1	39	163144	1	14	59	161105	-1	161895	1	790	2	2	2039	53	163158	-54	0																46												
WM080112	756055_fnca	4	1	1	-1423609206	1	75.031	75.031	2.0.10.147	2.0.10.242	2.0.10.242	1.0.0.439	7	234	2	3	Verdana	1	80	0	0	0	WM Stimuli\	0.8	1106	0.9	898.666666666667	0.8	1013.5	1	694.9	0.7	1085.85714285714	1	812.2	1	1210	1	717.6	13	321599	2	321587	27	40	321626	-999999	321601	0	74	Fix15secPROC	""	4	2	47	SessionSelectionList																																															6	163611	-7	0							47												
WM080112	756055_fnca	4	1	1	-1423609206	1	75.031	75.031	2.0.10.147	2.0.10.242	2.0.10.242	1.0.0.439	7	234	2	3	Verdana	1	80	0	0	0	WM Stimuli\	0.8	1106	0.9	898.666666666667	0.8	1013.5	1	694.9	0.7	1085.85714285714	1	812.2	1	1210	1	717.6	13	321599	2	321587	27	40	321626	-999999	321601	0	75	Cue0BackPROC	BP_044_MLBFI_BA.png	4	2	48	SessionSelectionList																																										39	178644	-40	0												48												
WM080112	756055_fnca	4	1	1	-1423609206	1	75.031	75.031	2.0.10.147	2.0.10.242	2.0.10.242	1.0.0.439	7	234	2	3	Verdana	1	80	0	0	0	WM Stimuli\	0.8	1106	0.9	898.666666666667	0.8	1013.5	1	694.9	0.7	1085.85714285714	1	812.2	1	1210	1	717.6	13	321599	2	321587	27	40	321626	-999999	321601	0	76	TrialsPROC	BP_049_MRBAI_BA.png	4	2	49	SessionSelectionList														nonlure	3	Body	0-Back	42	80	40	0	0	100	1	39	183229	2	14	85	181190	-1	182335	1	1145	3	3	2039	53	183243	-54	0																49												
WM080112	756055_fnca	4	1	1	-1423609206	1	75.031	75.031	2.0.10.147	2.0.10.242	2.0.10.242	1.0.0.439	7	234	2	3	Verdana	1	80	0	0	0	WM Stimuli\	0.8	1106	0.9	898.666666666667	0.8	1013.5	1	694.9	0.7	1085.85714285714	1	812.2	1	1210	1	717.6	13	321599	2	321587	27	40	321626	-999999	321601	0	76	TrialsPROC	BP_047_MLBHS_BA.png	4	2	50	SessionSelectionList														nonlure	3	Body	0-Back	43	80	41	0	0	100	2	39	185815	1	13	86	183776	-1	184939	1	1163	3	3	2039	52	185828	-53	0																50												
WM080112	756055_fnca	4	1	1	-1423609206	1	75.031	75.031	2.0.10.147	2.0.10.242	2.0.10.242	1.0.0.439	7	234	2	3	Verdana	1	80	0	0	0	WM Stimuli\	0.8	1106	0.9	898.666666666667	0.8	1013.5	1	694.9	0.7	1085.85714285714	1	812.2	1	1210	1	717.6	13	321599	2	321587	27	40	321626	-999999	321601	0	76	TrialsPROC	BP_045_MLBFS_BA.png	4	2	51	SessionSelectionList														nonlure	3	Body	0-Back	44	80	42	0	0	96	1	39	188387	2	13	72	186348	-1	187230	0	882	2	3	2039	52	188400	-53	0																51												
WM080112	756055_fnca	4	1	1	-1423609206	1	75.031	75.031	2.0.10.147	2.0.10.242	2.0.10.242	1.0.0.439	7	234	2	3	Verdana	1	80	0	0	0	WM Stimuli\	0.8	1106	0.9	898.666666666667	0.8	1013.5	1	694.9	0.7	1085.85714285714	1	812.2	1	1210	1	717.6	13	321599	2	321587	27	40	321626	-999999	321601	0	76	TrialsPROC	BP_048_MLCHS_BA.png	4	2	52	SessionSelectionList														nonlure	3	Body	0-Back	45	80	43	0	0	96	1	39	190959	2	14	72	188920	-1	189666	1	746	3	3	2039	53	190973	-54	0																52												
WM080112	756055_fnca	4	1	1	-1423609206	1	75.031	75.031	2.0.10.147	2.0.10.242	2.0.10.242	1.0.0.439	7	234	2	3	Verdana	1	80	0	0	0	WM Stimuli\	0.8	1106	0.9	898.666666666667	0.8	1013.5	1	694.9	0.7	1085.85714285714	1	812.2	1	1210	1	717.6	13	321599	2	321587	27	40	321626	-999999	321601	0	76	TrialsPROC	BP_044_MLBFI_BA.png	4	2	53	SessionSelectionList														target	2	Body	0-Back	46	80	44	0	0	96	1	40	193532	1	13	72	191492	-1	192167	1	675	2	2	2040	53	193545	-54	0																53												
WM080112	756055_fnca	4	1	1	-1423609206	1	75.031	75.031	2.0.10.147	2.0.10.242	2.0.10.242	1.0.0.439	7	234	2	3	Verdana	1	80	0	0	0	WM Stimuli\	0.8	1106	0.9	898.666666666667	0.8	1013.5	1	694.9	0.7	1085.85714285714	1	812.2	1	1210	1	717.6	13	321599	2	321587	27	40	321626	-999999	321601	0	76	TrialsPROC	BP_048_MLCHS_BA.png	4	2	54	SessionSelectionList														lure	3	Body	0-Back	47	80	45	0	0	96	1	40	196091	1	13	59	194051	-1	194692	1	641	3	3	2040	53	196104	-54	0																54												
WM080112	756055_fnca	4	1	1	-1423609206	1	75.031	75.031	2.0.10.147	2.0.10.242	2.0.10.242	1.0.0.439	7	234	2	3	Verdana	1	80	0	0	0	WM Stimuli\	0.8	1106	0.9	898.666666666667	0.8	1013.5	1	694.9	0.7	1085.85714285714	1	812.2	1	1210	1	717.6	13	321599	2	321587	27	40	321626	-999999	321601	0	76	TrialsPROC	BP_044_MLBFI_BA.png	4	2	55	SessionSelectionList														target	2	Body	0-Back	48	80	46	0	0	96	1	39	198663	1	13	73	196624	-1	197818	1	1194	2	2	2039	52	198676	-53	0																55												
WM080112	756055_fnca	4	1	1	-1423609206	1	75.031	75.031	2.0.10.147	2.0.10.242	2.0.10.242	1.0.0.439	7	234	2	3	Verdana	1	80	0	0	0	WM Stimuli\	0.8	1106	0.9	898.666666666667	0.8	1013.5	1	694.9	0.7	1085.85714285714	1	812.2	1	1210	1	717.6	13	321599	2	321587	27	40	321626	-999999	321601	0	76	TrialsPROC	BP_047_MLBHS_BA.png	4	2	56	SessionSelectionList														lure	3	Body	0-Back	49	80	47	0	0	96	1	39	201222	1	13	59	199183	-1	199980	1	797	3	3	2039	52	201235	-53	0																56												
WM080112	756055_fnca	4	1	1	-1423609206	1	75.031	75.031	2.0.10.147	2.0.10.242	2.0.10.242	1.0.0.439	7	234	2	3	Verdana	1	80	0	0	0	WM Stimuli\	0.8	1106	0.9	898.666666666667	0.8	1013.5	1	694.9	0.7	1085.85714285714	1	812.2	1	1210	1	717.6	13	321599	2	321587	27	40	321626	-999999	321601	0	76	TrialsPROC	BP_049_MRBAI_BA.png	4	2	57	SessionSelectionList														lure	3	Body	0-Back	50	80	48	0	0	97	2	39	203781	1	13	59	201742	-1	202719	1	977	3	3	2039	52	203794	-53	0																57												
WM080112	756055_fnca	4	1	1	-1423609206	1	75.031	75.031	2.0.10.147	2.0.10.242	2.0.10.242	1.0.0.439	7	234	2	3	Verdana	1	80	0	0	0	WM Stimuli\	0.8	1106	0.9	898.666666666667	0.8	1013.5	1	694.9	0.7	1085.85714285714	1	812.2	1	1210	1	717.6	13	321599	2	321587	27	40	321626	-999999	321601	0	76	TrialsPROC	BP_046_MLBHI_BA.png	4	2	58	SessionSelectionList														nonlure	3	Body	0-Back	51	80	49	0	0	97	3	39	206366	2	14	85	204327	-1	205077	1	750	3	3	2039	53	206380	-54	0																58												
WM080112	756055_fnca	4	1	1	-1423609206	1	75.031	75.031	2.0.10.147	2.0.10.242	2.0.10.242	1.0.0.439	7	234	2	3	Verdana	1	80	0	0	0	WM Stimuli\	0.8	1106	0.9	898.666666666667	0.8	1013.5	1	694.9	0.7	1085.85714285714	1	812.2	1	1210	1	717.6	13	321599	2	321587	27	40	321626	-999999	321601	0	77	Cue0BackPROC	PL_045_SCENE02.png	4	2	59	SessionSelectionList																																										33	206860	-34	0												59												
WM080112	756055_fnca	4	1	1	-1423609206	1	75.031	75.031	2.0.10.147	2.0.10.242	2.0.10.242	1.0.0.439	7	234	2	3	Verdana	1	80	0	0	0	WM Stimuli\	0.8	1106	0.9	898.666666666667	0.8	1013.5	1	694.9	0.7	1085.85714285714	1	812.2	1	1210	1	717.6	13	321599	2	321587	27	40	321626	-999999	321601	0	78	TrialsPROC	PL_048_SCENE05.png	4	2	60	SessionSelectionList														nonlure	3	Place	0-Back	52	80	50	0	0	97	4	40	211458	1	13	91	209418	-1	210226	1	808	3	3	2040	53	211471	-54	0																60												
WM080112	756055_fnca	4	1	1	-1423609206	1	75.031	75.031	2.0.10.147	2.0.10.242	2.0.10.242	1.0.0.439	7	234	2	3	Verdana	1	80	0	0	0	WM Stimuli\	0.8	1106	0.9	898.666666666667	0.8	1013.5	1	694.9	0.7	1085.85714285714	1	812.2	1	1210	1	717.6	13	321599	2	321587	27	40	321626	-999999	321601	0	78	TrialsPROC	PL_046_SCENE03.png	4	2	61	SessionSelectionList														nonlure	3	Place	0-Back	53	80	51	0	0	97	5	39	214030	1	13	73	211991	-1	212843	1	852	3	3	2039	52	214043	-53	0																61												
WM080112	756055_fnca	4	1	1	-1423609206	1	75.031	75.031	2.0.10.147	2.0.10.242	2.0.10.242	1.0.0.439	7	234	2	3	Verdana	1	80	0	0	0	WM Stimuli\	0.8	1106	0.9	898.666666666667	0.8	1013.5	1	694.9	0.7	1085.85714285714	1	812.2	1	1210	1	717.6	13	321599	2	321587	27	40	321626	-999999	321601	0	78	TrialsPROC	PL_045_SCENE02.png	4	2	62	SessionSelectionList														target	2	Place	0-Back	54	80	52	0	0	97	1	39	216602	2	14	72	214563	-1	215642	1	1079	2	2	2039	53	216616	-54	0																62												
WM080112	756055_fnca	4	1	1	-1423609206	1	75.031	75.031	2.0.10.147	2.0.10.242	2.0.10.242	1.0.0.439	7	234	2	3	Verdana	1	80	0	0	0	WM Stimuli\	0.8	1106	0.9	898.666666666667	0.8	1013.5	1	694.9	0.7	1085.85714285714	1	812.2	1	1210	1	717.6	13	321599	2	321587	27	40	321626	-999999	321601	0	78	TrialsPROC	PL_045_SCENE02.png	4	2	63	SessionSelectionList														target	2	Place	0-Back	55	80	53	0	0	97	2	39	219174	2	14	72	217135	-1	217783	1	648	2	2	2039	53	219188	-54	0																63												
WM080112	756055_fnca	4	1	1	-1423609206	1	75.031	75.031	2.0.10.147	2.0.10.242	2.0.10.242	1.0.0.439	7	234	2	3	Verdana	1	80	0	0	0	WM Stimuli\	0.8	1106	0.9	898.666666666667	0.8	1013.5	1	694.9	0.7	1085.85714285714	1	812.2	1	1210	1	717.6	13	321599	2	321587	27	40	321626	-999999	321601	0	78	TrialsPROC	PL_046_SCENE03.png	4	2	64	SessionSelectionList														lure	3	Place	0-Back	56	80	54	0	0	97	1	39	221747	1	13	73	219708	-1	220447	1	739	3	3	2039	52	221760	-53	0																64												
WM080112	756055_fnca	4	1	1	-1423609206	1	75.031	75.031	2.0.10.147	2.0.10.242	2.0.10.242	1.0.0.439	7	234	2	3	Verdana	1	80	0	0	0	WM Stimuli\	0.8	1106	0.9	898.666666666667	0.8	1013.5	1	694.9	0.7	1085.85714285714	1	812.2	1	1210	1	717.6	13	321599	2	321587	27	40	321626	-999999	321601	0	78	TrialsPROC	PL_049_SCENE06.png	4	2	65	SessionSelectionList														nonlure	3	Place	0-Back	57	80	55	0	0	97	2	39	224332	2	14	85	222293	-1	222982	1	689	3	3	2039	53	224346	-54	0																65												
WM080112	756055_fnca	4	1	1	-1423609206	1	75.031	75.031	2.0.10.147	2.0.10.242	2.0.10.242	1.0.0.439	7	234	2	3	Verdana	1	80	0	0	0	WM Stimuli\	0.8	1106	0.9	898.666666666667	0.8	1013.5	1	694.9	0.7	1085.85714285714	1	812.2	1	1210	1	717.6	13	321599	2	321587	27	40	321626	-999999	321601	0	78	TrialsPROC	PL_047_SCENE04.png	4	2	66	SessionSelectionList														nonlure	3	Place	0-Back	58	80	56	0	0	97	3	40	226905	1	13	72	224865	-1	225610	1	745	3	3	2040	53	226918	-54	0																66												
WM080112	756055_fnca	4	1	1	-1423609206	1	75.031	75.031	2.0.10.147	2.0.10.242	2.0.10.242	1.0.0.439	7	234	2	3	Verdana	1	80	0	0	0	WM Stimuli\	0.8	1106	0.9	898.666666666667	0.8	1013.5	1	694.9	0.7	1085.85714285714	1	812.2	1	1210	1	717.6	13	321599	2	321587	27	40	321626	-999999	321601	0	78	TrialsPROC	PL_048_SCENE05.png	4	2	67	SessionSelectionList														lure	3	Place	0-Back	59	80	57	0	0	97	4	39	229477	1	13	73	227438	-1	228583	1	1145	3	3	2039	52	229490	-53	0																67												
WM080112	756055_fnca	4	1	1	-1423609206	1	75.031	75.031	2.0.10.147	2.0.10.242	2.0.10.242	1.0.0.439	7	234	2	3	Verdana	1	80	0	0	0	WM Stimuli\	0.8	1106	0.9	898.666666666667	0.8	1013.5	1	694.9	0.7	1085.85714285714	1	812.2	1	1210	1	717.6	13	321599	2	321587	27	40	321626	-999999	321601	0	78	TrialsPROC	PL_050_SCENE07.png	4	2	68	SessionSelectionList														nonlure	3	Place	0-Back	60	80	58	0	0	97	5	39	232049	2	14	72	230010	-1	230742	1	732	3	3	2039	53	232063	-54	0																68												
WM080112	756055_fnca	4	1	1	-1423609206	1	75.031	75.031	2.0.10.147	2.0.10.242	2.0.10.242	1.0.0.439	7	234	2	3	Verdana	1	80	0	0	0	WM Stimuli\	0.8	1106	0.9	898.666666666667	0.8	1013.5	1	694.9	0.7	1085.85714285714	1	812.2	1	1210	1	717.6	13	321599	2	321587	27	40	321626	-999999	321601	0	78	TrialsPROC	PL_047_SCENE04.png	4	2	69	SessionSelectionList														lure	3	Place	0-Back	61	80	59	0	0	98	6	39	234621	2	14	72	232582	-1	233267	1	685	3	3	2039	53	234635	-54	0																69												
WM080112	756055_fnca	4	1	1	-1423609206	1	75.031	75.031	2.0.10.147	2.0.10.242	2.0.10.242	1.0.0.439	7	234	2	3	Verdana	1	80	0	0	0	WM Stimuli\	0.8	1106	0.9	898.666666666667	0.8	1013.5	1	694.9	0.7	1085.85714285714	1	812.2	1	1210	1	717.6	13	321599	2	321587	27	40	321626	-999999	321601	0	79	Fix15secPROC	""	4	2	70	SessionSelectionList																																															6	235088	-7	0							70												
WM080112	756055_fnca	4	1	1	-1423609206	1	75.031	75.031	2.0.10.147	2.0.10.242	2.0.10.242	1.0.0.439	7	234	2	3	Verdana	1	80	0	0	0	WM Stimuli\	0.8	1106	0.9	898.666666666667	0.8	1013.5	1	694.9	0.7	1085.85714285714	1	812.2	1	1210	1	717.6	13	321599	2	321587	27	40	321626	-999999	321601	0	80	Cue2BackPROC	""	4	2	71	SessionSelectionList									13	250095	-14	0																																													71												
WM080112	756055_fnca	4	1	1	-1423609206	1	75.031	75.031	2.0.10.147	2.0.10.242	2.0.10.242	1.0.0.439	7	234	2	3	Verdana	1	80	0	0	0	WM Stimuli\	0.8	1106	0.9	898.666666666667	0.8	1013.5	1	694.9	0.7	1085.85714285714	1	812.2	1	1210	1	717.6	13	321599	2	321587	27	40	321626	-999999	321601	0	81	TrialsPROC	FC_044_F22.png	4	2	72	SessionSelectionList														nonlure	3	Face	2-Back	62	80	59	0	1	98	6	40	254707	1	13	85	252667	-1	0	0	0	""	3	2040	53	254720	-54	0																72												
WM080112	756055_fnca	4	1	1	-1423609206	1	75.031	75.031	2.0.10.147	2.0.10.242	2.0.10.242	1.0.0.439	7	234	2	3	Verdana	1	80	0	0	0	WM Stimuli\	0.8	1106	0.9	898.666666666667	0.8	1013.5	1	694.9	0.7	1085.85714285714	1	812.2	1	1210	1	717.6	13	321599	2	321587	27	40	321626	-999999	321601	0	81	TrialsPROC	FC_046_F23.png	4	2	73	SessionSelectionList														nonlure	3	Face	2-Back	63	80	60	0	0	98	1	39	257292	2	14	86	255253	-1	255830	1	577	3	3	2039	53	257306	-54	0																73												
WM080112	756055_fnca	4	1	1	-1423609206	1	75.031	75.031	2.0.10.147	2.0.10.242	2.0.10.242	1.0.0.439	7	234	2	3	Verdana	1	80	0	0	0	WM Stimuli\	0.8	1106	0.9	898.666666666667	0.8	1013.5	1	694.9	0.7	1085.85714285714	1	812.2	1	1210	1	717.6	13	321599	2	321587	27	40	321626	-999999	321601	0	81	TrialsPROC	FC_044_F22.png	4	2	74	SessionSelectionList														target	2	Face	2-Back	64	80	61	0	0	98	1	39	259864	2	14	72	257825	-1	258435	1	610	2	2	2039	53	259878	-54	0																74												
WM080112	756055_fnca	4	1	1	-1423609206	1	75.031	75.031	2.0.10.147	2.0.10.242	2.0.10.242	1.0.0.439	7	234	2	3	Verdana	1	80	0	0	0	WM Stimuli\	0.8	1106	0.9	898.666666666667	0.8	1013.5	1	694.9	0.7	1085.85714285714	1	812.2	1	1210	1	717.6	13	321599	2	321587	27	40	321626	-999999	321601	0	81	TrialsPROC	FC_046_F23.png	4	2	75	SessionSelectionList														target	2	Face	2-Back	65	80	62	0	0	98	2	39	262437	1	13	73	260398	-1	261410	1	1012	2	2	2039	52	262450	-53	0																75												
WM080112	756055_fnca	4	1	1	-1423609206	1	75.031	75.031	2.0.10.147	2.0.10.242	2.0.10.242	1.0.0.439	7	234	2	3	Verdana	1	80	0	0	0	WM Stimuli\	0.8	1106	0.9	898.666666666667	0.8	1013.5	1	694.9	0.7	1085.85714285714	1	812.2	1	1210	1	717.6	13	321599	2	321587	27	40	321626	-999999	321601	0	81	TrialsPROC	FC_043_M22.png	4	2	76	SessionSelectionList														nonlure	3	Face	2-Back	66	80	63	0	0	98	1	39	265022	2	14	85	262983	-1	264161	1	1178	3	3	2039	53	265036	-54	0																76												
WM080112	756055_fnca	4	1	1	-1423609206	1	75.031	75.031	2.0.10.147	2.0.10.242	2.0.10.242	1.0.0.439	7	234	2	3	Verdana	1	80	0	0	0	WM Stimuli\	0.8	1106	0.9	898.666666666667	0.8	1013.5	1	694.9	0.7	1085.85714285714	1	812.2	1	1210	1	717.6	13	321599	2	321587	27	40	321626	-999999	321601	0	81	TrialsPROC	FC_045_M23.png	4	2	77	SessionSelectionList														nonlure	3	Face	2-Back	67	80	64	0	0	98	2	39	267608	1	13	86	265569	-1	266649	1	1080	3	3	2039	52	267621	-53	0																77												
WM080112	756055_fnca	4	1	1	-1423609206	1	75.031	75.031	2.0.10.147	2.0.10.242	2.0.10.242	1.0.0.439	7	234	2	3	Verdana	1	80	0	0	0	WM Stimuli\	0.8	1106	0.9	898.666666666667	0.8	1013.5	1	694.9	0.7	1085.85714285714	1	812.2	1	1210	1	717.6	13	321599	2	321587	27	40	321626	-999999	321601	0	81	TrialsPROC	FC_045_M23.png	4	2	78	SessionSelectionList														lure	3	Face	2-Back	68	80	65	0	0	98	3	39	270180	2	14	72	268141	-1	269537	1	1396	3	3	2039	53	270194	-54	0																78												
WM080112	756055_fnca	4	1	1	-1423609206	1	75.031	75.031	2.0.10.147	2.0.10.242	2.0.10.242	1.0.0.439	7	234	2	3	Verdana	1	80	0	0	0	WM Stimuli\	0.8	1106	0.9	898.666666666667	0.8	1013.5	1	694.9	0.7	1085.85714285714	1	812.2	1	1210	1	717.6	13	321599	2	321587	27	40	321626	-999999	321601	0	81	TrialsPROC	FC_043_M22.png	4	2	79	SessionSelectionList														lure	3	Face	2-Back	69	80	66	0	0	98	1	39	272752	2	14	72	270713	-1	271305	0	592	2	3	2039	53	272766	-54	0																79												
WM080112	756055_fnca	4	1	1	-1423609206	1	75.031	75.031	2.0.10.147	2.0.10.242	2.0.10.242	1.0.0.439	7	234	2	3	Verdana	1	80	0	0	0	WM Stimuli\	0.8	1106	0.9	898.666666666667	0.8	1013.5	1	694.9	0.7	1085.85714285714	1	812.2	1	1210	1	717.6	13	321599	2	321587	27	40	321626	-999999	321601	0	81	TrialsPROC	FC_047_M24.png	4	2	80	SessionSelectionList														nonlure	3	Face	2-Back	70	80	67	0	0	98	1	39	275338	2	14	86	273299	-1	274190	1	891	3	3	2039	53	275352	-54	0																80												
WM080112	756055_fnca	4	1	1	-1423609206	1	75.031	75.031	2.0.10.147	2.0.10.242	2.0.10.242	1.0.0.439	7	234	2	3	Verdana	1	80	0	0	0	WM Stimuli\	0.8	1106	0.9	898.666666666667	0.8	1013.5	1	694.9	0.7	1085.85714285714	1	812.2	1	1210	1	717.6	13	321599	2	321587	27	40	321626	-999999	321601	0	81	TrialsPROC	FC_048_F24.png	4	2	81	SessionSelectionList														nonlure	3	Face	2-Back	71	80	68	0	0	98	2	39	277924	1	13	86	275885	-1	277249	1	1364	3	3	2039	52	277937	-53	0																81												
WM080112	756055_fnca	4	1	1	-1423609206	1	75.031	75.031	2.0.10.147	2.0.10.242	2.0.10.242	1.0.0.439	7	234	2	3	Verdana	1	80	0	0	0	WM Stimuli\	0.8	1106	0.9	898.666666666667	0.8	1013.5	1	694.9	0.7	1085.85714285714	1	812.2	1	1210	1	717.6	13	321599	2	321587	27	40	321626	-999999	321601	0	82	Cue2BackPROC	""	4	2	82	SessionSelectionList									5	278390	-6	0																																													82												
WM080112	756055_fnca	4	1	1	-1423609206	1	75.031	75.031	2.0.10.147	2.0.10.242	2.0.10.242	1.0.0.439	7	234	2	3	Verdana	1	80	0	0	0	WM Stimuli\	0.8	1106	0.9	898.666666666667	0.8	1013.5	1	694.9	0.7	1085.85714285714	1	812.2	1	1210	1	717.6	13	321599	2	321587	27	40	321626	-999999	321601	0	83	TrialsPROC	TO_046_TOOL46_BA.png	4	2	83	SessionSelectionList														nonlure	3	Tools	2-Back	72	80	69	0	0	98	3	40	283002	1	13	77	280962	-1	282667	1	1705	3	3	2040	53	283015	-54	0																83												
WM080112	756055_fnca	4	1	1	-1423609206	1	75.031	75.031	2.0.10.147	2.0.10.242	2.0.10.242	1.0.0.439	7	234	2	3	Verdana	1	80	0	0	0	WM Stimuli\	0.8	1106	0.9	898.666666666667	0.8	1013.5	1	694.9	0.7	1085.85714285714	1	812.2	1	1210	1	717.6	13	321599	2	321587	27	40	321626	-999999	321601	0	83	TrialsPROC	TO_046_TOOL46_BA.png	4	2	84	SessionSelectionList														lure	3	Tools	2-Back	73	80	70	0	0	98	4	40	285561	1	13	59	283521	-1	284601	1	1080	3	3	2040	53	285574	-54	0																84												
WM080112	756055_fnca	4	1	1	-1423609206	1	75.031	75.031	2.0.10.147	2.0.10.242	2.0.10.242	1.0.0.439	7	234	2	3	Verdana	1	80	0	0	0	WM Stimuli\	0.8	1106	0.9	898.666666666667	0.8	1013.5	1	694.9	0.7	1085.85714285714	1	812.2	1	1210	1	717.6	13	321599	2	321587	27	40	321626	-999999	321601	0	83	TrialsPROC	TO_045_TOOL45_BA.png	4	2	85	SessionSelectionList														nonlure	3	Tools	2-Back	74	80	71	0	0	98	5	39	288133	1	13	73	286094	-1	287017	1	923	3	3	2039	52	288146	-53	0																85												
WM080112	756055_fnca	4	1	1	-1423609206	1	75.031	75.031	2.0.10.147	2.0.10.242	2.0.10.242	1.0.0.439	7	234	2	3	Verdana	1	80	0	0	0	WM Stimuli\	0.8	1106	0.9	898.666666666667	0.8	1013.5	1	694.9	0.7	1085.85714285714	1	812.2	1	1210	1	717.6	13	321599	2	321587	27	40	321626	-999999	321601	0	83	TrialsPROC	TO_043_TOOL43_BA.png	4	2	86	SessionSelectionList														nonlure	3	Tools	2-Back	75	80	72	0	0	98	6	39	290705	2	14	72	288666	-1	289577	1	911	3	3	2039	53	290719	-54	0																86												
WM080112	756055_fnca	4	1	1	-1423609206	1	75.031	75.031	2.0.10.147	2.0.10.242	2.0.10.242	1.0.0.439	7	234	2	3	Verdana	1	80	0	0	0	WM Stimuli\	0.8	1106	0.9	898.666666666667	0.8	1013.5	1	694.9	0.7	1085.85714285714	1	812.2	1	1210	1	717.6	13	321599	2	321587	27	40	321626	-999999	321601	0	83	TrialsPROC	TO_045_TOOL45_BA.png	4	2	87	SessionSelectionList														target	2	Tools	2-Back	76	80	73	0	0	98	1	39	293264	2	14	59	291225	-1	292157	1	932	2	2	2039	53	293278	-54	0																87												
WM080112	756055_fnca	4	1	1	-1423609206	1	75.031	75.031	2.0.10.147	2.0.10.242	2.0.10.242	1.0.0.439	7	234	2	3	Verdana	1	80	0	0	0	WM Stimuli\	0.8	1106	0.9	898.666666666667	0.8	1013.5	1	694.9	0.7	1085.85714285714	1	812.2	1	1210	1	717.6	13	321599	2	321587	27	40	321626	-999999	321601	0	83	TrialsPROC	TO_044_TOOL44_BA.png	4	2	88	SessionSelectionList														nonlure	3	Tools	2-Back	77	80	74	0	0	98	1	39	295850	1	13	86	293811	-1	294986	1	1175	3	3	2039	52	295863	-53	0																88												
WM080112	756055_fnca	4	1	1	-1423609206	1	75.031	75.031	2.0.10.147	2.0.10.242	2.0.10.242	1.0.0.439	7	234	2	3	Verdana	1	80	0	0	0	WM Stimuli\	0.8	1106	0.9	898.666666666667	0.8	1013.5	1	694.9	0.7	1085.85714285714	1	812.2	1	1210	1	717.6	13	321599	2	321587	27	40	321626	-999999	321601	0	83	TrialsPROC	TO_043_TOOL43_BA.png	4	2	89	SessionSelectionList														lure	3	Tools	2-Back	78	80	75	0	0	98	2	40	298409	1	13	58	296369	-1	297819	1	1450	3	3	2040	53	298422	-54	0																89												
WM080112	756055_fnca	4	1	1	-1423609206	1	75.031	75.031	2.0.10.147	2.0.10.242	2.0.10.242	1.0.0.439	7	234	2	3	Verdana	1	80	0	0	0	WM Stimuli\	0.8	1106	0.9	898.666666666667	0.8	1013.5	1	694.9	0.7	1085.85714285714	1	812.2	1	1210	1	717.6	13	321599	2	321587	27	40	321626	-999999	321601	0	83	TrialsPROC	TO_044_TOOL44_BA.png	4	2	90	SessionSelectionList														target	2	Tools	2-Back	79	80	76	0	0	98	1	40	300968	1	13	59	298928	-1	300505	1	1577	2	2	2040	53	300981	-54	0																90												
WM080112	756055_fnca	4	1	1	-1423609206	1	75.031	75.031	2.0.10.147	2.0.10.242	2.0.10.242	1.0.0.439	7	234	2	3	Verdana	1	80	0	0	0	WM Stimuli\	0.8	1106	0.9	898.666666666667	0.8	1013.5	1	694.9	0.7	1085.85714285714	1	812.2	1	1210	1	717.6	13	321599	2	321587	27	40	321626	-999999	321601	0	83	TrialsPROC	TO_048_TOOL48_BA.png	4	2	91	SessionSelectionList														nonlure	3	Tools	2-Back	80	80	77	0	0	98	1	39	303553	2	14	86	301514	-1	302508	1	994	3	3	2039	53	303567	-54	0																91												
WM080112	756055_fnca	4	1	1	-1423609206	1	75.031	75.031	2.0.10.147	2.0.10.242	2.0.10.242	1.0.0.439	7	234	2	3	Verdana	1	80	0	0	0	WM Stimuli\	0.8	1106	0.9	898.666666666667	0.8	1013.5	1	694.9	0.7	1085.85714285714	1	812.2	1	1210	1	717.6	13	321599	2	321587	27	40	321626	-999999	321601	0	83	TrialsPROC	TO_047_TOOL47_BA.png	4	2	92	SessionSelectionList														nonlure	3	Tools	2-Back	80	80	78	0	0	98	2	39	306125	2	14	72	304086	-1	305439	1	1353	3	3	2039	53	306139	-54	0																92												
WM080112	756055_fnca	4	1	1	-1423609206	1	75.031	75.031	2.0.10.147	2.0.10.242	2.0.10.242	1.0.0.439	7	234	2	3	Verdana	1	80	0	0	0	WM Stimuli\	0.8	1106	0.9	898.666666666667	0.8	1013.5	1	694.9	0.7	1085.85714285714	1	812.2	1	1210	1	717.6	13	321599	2	321587	27	40	321626	-999999	321601	0	84	Fix15secPROC	""	4	2	93	SessionSelectionList																																															6	306592	-7	0							93												
