ExperimentName	HCPID	RunNumber	Subject	Session	RandomSeed	Group	Laptop.RefreshRate	ScannerD2.RefreshRate	StudioVersion	RuntimeVersion	RuntimeVersionExpected	ExperimentVersion	triggercode	Allowed	Target	Nontarget	FontStyle	RunTrialNumber[Session]	TrialsPerRun[Session]	TotalRespGreater200[Session]	ConsecRTLess200[Session]	ConsecNonResp[Session]	StimuliDir	ACC_2_Back_Body	Avg_RT_For_Correct_Trials_2_Back_Body	ACC_0_Back_Body	Avg_RT_For_Correct_Trials_0_Back_Body	ACC_2_Back_Face	Avg_RT_For_Correct_Trials_2_Back_Face	ACC_0_Back_Face	Avg_RT_For_Correct_Trials_0_Back_Face	ACC_2_Back_Place	Avg_RT_For_Correct_Trials_2_Back_Place	ACC_0_Back_Place	Avg_RT_For_Correct_Trials_0_Back_Place	ACC_2_Back_Tools	Avg_RT_For_Correct_Trials_2_Back_Tools	ACC_0_Back_Tools	Avg_RT_For_Correct_Trials_0_Back_Tools	ExpInstrucFeelFreeToRest.OnsetDelay	ExpInstrucFeelFreeToRest.OnsetTime	ExpInstrucFeelFreeToRest.DurationError	ExpInstrucFeelFreeToRest.StartTime	ExpInstrucFeelFreeToRest.OnsetToOnsetTime	FeelFreeToRest.OnsetDelay	FeelFreeToRest.OnsetTime	FeelFreeToRest.DurationError	FeelFreeToRest.StartTime	FeelFreeToRest.OnsetToOnsetTime	SessionSelectionList	Procedure[Block]	Stimulus[Block]	RunNumberFilterValue	SessionSelectionList.Cycle	SessionSelectionList.Sample	Running[Block]	IntroButtonMap.OnsetDelay	IntroButtonMap.OnsetTime	IntroButtonMap.DurationError	IntroButtonMap.OnsetToOnsetTime	GetReady.OnsetDelay	GetReady.OnsetTime	GetReady.DurationError	GetReady.OnsetToOnsetTime	Cue2Back.OnsetDelay	Cue2Back.OnsetTime	Cue2Back.DurationError	Cue2Back.OnsetToOnsetTime	Run1Block1	TargetType	CorrectResponse	StimType	BlockType	RunTrialNumber[Block]	TrialsPerRun[Block]	TotalRespGreater200[Block]	ConsecRTLess200[Block]	ConsecNonResp[Block]	ControlAcc	ConsecSameResp	ExperimenterWindow.OnsetDelay	ExperimenterWindow.OnsetTime	ExperimenterWindow.DurationError	ExperimenterWindow.OnsetToOnsetTime	Stim.OnsetDelay	Stim.OnsetTime	Stim.DurationError	Stim.RTTime	Stim.ACC	Stim.RT	Stim.RESP	Stim.CRESP	Stim.OnsetToOnsetTime	Fix.OnsetDelay	Fix.OnsetTime	Fix.DurationError	Fix.OnsetToOnsetTime	CueTarget.OnsetDelay	CueTarget.OnsetTime	CueTarget.DurationError	CueTarget.OnsetToOnsetTime	Run1Block2	Fix15sec.OnsetDelay	Fix15sec.OnsetTime	Fix15sec.DurationError	Fix15sec.OnsetToOnsetTime	Run1Block3	Run1Block4	Run1Block5	Run1Block6	Run1Block7	Run1Block8	Block	Procedure[Trial]	Stimulus[Trial]	ReadyList	Running[Trial]	ReadyList.Cycle	ReadyList.Sample	SyncSlide.OnsetDelay	SyncSlide.OnsetTime	SyncSlide.DurationError	SyncSlide.FinishTime	SyncSlide.OnsetToOnsetTime	Trial
WM080112	792564_fnca	1	1	1	1481293451	1	75.031	75.031	2.0.10.147	2.0.10.242	2.0.10.242	1.0.0.439	7	234	2	3	Verdana	1	80	0	0	0	WM Stimuli\	0.6	931.666666666667	1	726.9	0.8	945.375	1	643.5	0.9	1005.44444444444	1	739.4	0.9	1000.88888888889	1	687.3	12	364380	2	364369	27	39	364407	-999999	364382	0	1	TRSyncPROC	""	1	2	1	SessionSelectionList	157	10393	-999999	0	39	50550	-999999	0																																																	1	InitialTR	4	1	ReadyList	1	1	15	70568	-16	72552	0	1
WM080112	792564_fnca	1	1	1	1481293451	1	75.031	75.031	2.0.10.147	2.0.10.242	2.0.10.242	1.0.0.439	7	234	2	3	Verdana	1	80	0	0	0	WM Stimuli\	0.6	931.666666666667	1	726.9	0.8	945.375	1	643.5	0.9	1005.44444444444	1	739.4	0.9	1000.88888888889	1	687.3	12	364380	2	364369	27	39	364407	-999999	364382	0	1	TRSyncPROC	""	1	2	1	SessionSelectionList	157	10393	-999999	0	39	50550	-999999	0																																																	1	InitialTR	3	2	ReadyList	1	2	14	72567	-15	74552	0	2
WM080112	792564_fnca	1	1	1	1481293451	1	75.031	75.031	2.0.10.147	2.0.10.242	2.0.10.242	1.0.0.439	7	234	2	3	Verdana	1	80	0	0	0	WM Stimuli\	0.6	931.666666666667	1	726.9	0.8	945.375	1	643.5	0.9	1005.44444444444	1	739.4	0.9	1000.88888888889	1	687.3	12	364380	2	364369	27	39	364407	-999999	364382	0	1	TRSyncPROC	""	1	2	1	SessionSelectionList	157	10393	-999999	0	39	50550	-999999	0																																																	1	InitialTR	2	3	ReadyList	1	3	13	74566	-14	76552	0	3
WM080112	792564_fnca	1	1	1	1481293451	1	75.031	75.031	2.0.10.147	2.0.10.242	2.0.10.242	1.0.0.439	7	234	2	3	Verdana	1	80	0	0	0	WM Stimuli\	0.6	931.666666666667	1	726.9	0.8	945.375	1	643.5	0.9	1005.44444444444	1	739.4	0.9	1000.88888888889	1	687.3	12	364380	2	364369	27	39	364407	-999999	364382	0	1	TRSyncPROC	""	1	2	1	SessionSelectionList	157	10393	-999999	0	39	50550	-999999	0																																																	1	InitialTR	1	4	ReadyList	1	4	13	76566	-14	78552	0	4
WM080112	792564_fnca	1	1	1	1481293451	1	75.031	75.031	2.0.10.147	2.0.10.242	2.0.10.242	1.0.0.439	7	234	2	3	Verdana	1	80	0	0	0	WM Stimuli\	0.6	931.666666666667	1	726.9	0.8	945.375	1	643.5	0.9	1005.44444444444	1	739.4	0.9	1000.88888888889	1	687.3	12	364380	2	364369	27	39	364407	-999999	364382	0	2	Cue2BackPROC	""	1	2	2	SessionSelectionList									12	78565	-13	0																																													2												
WM080112	792564_fnca	1	1	1	1481293451	1	75.031	75.031	2.0.10.147	2.0.10.242	2.0.10.242	1.0.0.439	7	234	2	3	Verdana	1	80	0	0	0	WM Stimuli\	0.6	931.666666666667	1	726.9	0.8	945.375	1	643.5	0.9	1005.44444444444	1	739.4	0.9	1000.88888888889	1	687.3	12	364380	2	364369	27	39	364407	-999999	364382	0	3	TrialsPROC	BP_002_BP10_BA.png	1	2	3	SessionSelectionList													1	nonlure	3	Body	2-Back	2	80	1	0	0	0	1	53	83203	3	13	97	81150	-1	81664	1	514	3	3	2053	66	83216	-67	0																3												
WM080112	792564_fnca	1	1	1	1481293451	1	75.031	75.031	2.0.10.147	2.0.10.242	2.0.10.242	1.0.0.439	7	234	2	3	Verdana	1	80	0	0	0	WM Stimuli\	0.6	931.666666666667	1	726.9	0.8	945.375	1	643.5	0.9	1005.44444444444	1	739.4	0.9	1000.88888888889	1	687.3	12	364380	2	364369	27	39	364407	-999999	364382	0	3	TrialsPROC	BP_001_BP1_BA.png	1	2	4	SessionSelectionList													2	nonlure	3	Body	2-Back	3	80	2	0	0	0	2	39	85762	1	13	73	83723	-1	84378	1	655	3	3	2039	52	85775	-53	0																4												
WM080112	792564_fnca	1	1	1	1481293451	1	75.031	75.031	2.0.10.147	2.0.10.242	2.0.10.242	1.0.0.439	7	234	2	3	Verdana	1	80	0	0	0	WM Stimuli\	0.6	931.666666666667	1	726.9	0.8	945.375	1	643.5	0.9	1005.44444444444	1	739.4	0.9	1000.88888888889	1	687.3	12	364380	2	364369	27	39	364407	-999999	364382	0	3	TrialsPROC	BP_006_BP2_BA.png	1	2	5	SessionSelectionList													3	nonlure	3	Body	2-Back	4	80	3	0	0	0	1	39	88347	2	14	85	86308	-1	86860	0	552	2	3	2039	53	88361	-54	0																5												
WM080112	792564_fnca	1	1	1	1481293451	1	75.031	75.031	2.0.10.147	2.0.10.242	2.0.10.242	1.0.0.439	7	234	2	3	Verdana	1	80	0	0	0	WM Stimuli\	0.6	931.666666666667	1	726.9	0.8	945.375	1	643.5	0.9	1005.44444444444	1	739.4	0.9	1000.88888888889	1	687.3	12	364380	2	364369	27	39	364407	-999999	364382	0	3	TrialsPROC	BP_001_BP1_BA.png	1	2	6	SessionSelectionList													4	target	2	Body	2-Back	5	80	4	0	0	0	1	40	90920	1	13	72	88880	-1	89442	0	562	3	2	2040	53	90933	-54	0																6												
WM080112	792564_fnca	1	1	1	1481293451	1	75.031	75.031	2.0.10.147	2.0.10.242	2.0.10.242	1.0.0.439	7	234	2	3	Verdana	1	80	0	0	0	WM Stimuli\	0.6	931.666666666667	1	726.9	0.8	945.375	1	643.5	0.9	1005.44444444444	1	739.4	0.9	1000.88888888889	1	687.3	12	364380	2	364369	27	39	364407	-999999	364382	0	3	TrialsPROC	BP_005_BP19_BA.png	1	2	7	SessionSelectionList													5	nonlure	3	Body	2-Back	6	80	5	0	0	0	2	39	93479	1	13	60	91440	-1	92612	1	1172	3	3	2039	52	93492	-53	0																7												
WM080112	792564_fnca	1	1	1	1481293451	1	75.031	75.031	2.0.10.147	2.0.10.242	2.0.10.242	1.0.0.439	7	234	2	3	Verdana	1	80	0	0	0	WM Stimuli\	0.6	931.666666666667	1	726.9	0.8	945.375	1	643.5	0.9	1005.44444444444	1	739.4	0.9	1000.88888888889	1	687.3	12	364380	2	364369	27	39	364407	-999999	364382	0	3	TrialsPROC	BP_003_BP16_BA.png	1	2	8	SessionSelectionList													6	nonlure	3	Body	2-Back	7	80	6	0	0	0	3	39	96051	1	13	72	94012	-1	94899	1	887	3	3	2039	52	96064	-53	0																8												
WM080112	792564_fnca	1	1	1	1481293451	1	75.031	75.031	2.0.10.147	2.0.10.242	2.0.10.242	1.0.0.439	7	234	2	3	Verdana	1	80	0	0	0	WM Stimuli\	0.6	931.666666666667	1	726.9	0.8	945.375	1	643.5	0.9	1005.44444444444	1	739.4	0.9	1000.88888888889	1	687.3	12	364380	2	364369	27	39	364407	-999999	364382	0	3	TrialsPROC	BP_006_BP2_BA.png	1	2	9	SessionSelectionList													7	lure	3	Body	2-Back	8	80	7	0	0	0	4	39	98610	1	13	59	96571	-1	97906	1	1335	3	3	2039	52	98623	-53	0																9												
WM080112	792564_fnca	1	1	1	1481293451	1	75.031	75.031	2.0.10.147	2.0.10.242	2.0.10.242	1.0.0.439	7	234	2	3	Verdana	1	80	0	0	0	WM Stimuli\	0.6	931.666666666667	1	726.9	0.8	945.375	1	643.5	0.9	1005.44444444444	1	739.4	0.9	1000.88888888889	1	687.3	12	364380	2	364369	27	39	364407	-999999	364382	0	3	TrialsPROC	BP_004_BP18_BA.png	1	2	10	SessionSelectionList													8	nonlure	3	Body	2-Back	9	80	8	0	0	0	5	39	101195	2	14	85	99156	-1	100183	1	1027	3	3	2039	53	101209	-54	0																10												
WM080112	792564_fnca	1	1	1	1481293451	1	75.031	75.031	2.0.10.147	2.0.10.242	2.0.10.242	1.0.0.439	7	234	2	3	Verdana	1	80	0	0	0	WM Stimuli\	0.6	931.666666666667	1	726.9	0.8	945.375	1	643.5	0.9	1005.44444444444	1	739.4	0.9	1000.88888888889	1	687.3	12	364380	2	364369	27	39	364407	-999999	364382	0	3	TrialsPROC	BP_005_BP19_BA.png	1	2	11	SessionSelectionList													9	lure	3	Body	2-Back	10	80	9	0	0	0	1	38	103754	2	14	60	101716	-1	102297	0	581	2	3	2038	52	103768	-53	0																11												
WM080112	792564_fnca	1	1	1	1481293451	1	75.031	75.031	2.0.10.147	2.0.10.242	2.0.10.242	1.0.0.439	7	234	2	3	Verdana	1	80	0	0	0	WM Stimuli\	0.6	931.666666666667	1	726.9	0.8	945.375	1	643.5	0.9	1005.44444444444	1	739.4	0.9	1000.88888888889	1	687.3	12	364380	2	364369	27	39	364407	-999999	364382	0	3	TrialsPROC	BP_004_BP18_BA.png	1	2	12	SessionSelectionList													10	target	2	Body	2-Back	11	80	10	0	0	0	1	39	106313	2	14	58	104274	-1	105747	0	1473	3	2	2039	53	106327	-54	0																12												
WM080112	792564_fnca	1	1	1	1481293451	1	75.031	75.031	2.0.10.147	2.0.10.242	2.0.10.242	1.0.0.439	7	234	2	3	Verdana	1	80	0	0	0	WM Stimuli\	0.6	931.666666666667	1	726.9	0.8	945.375	1	643.5	0.9	1005.44444444444	1	739.4	0.9	1000.88888888889	1	687.3	12	364380	2	364369	27	39	364407	-999999	364382	0	4	Cue0BackPROC	FC_001_M1.png	1	2	13	SessionSelectionList																																										46	106820	-47	0												13												
WM080112	792564_fnca	1	1	1	1481293451	1	75.031	75.031	2.0.10.147	2.0.10.242	2.0.10.242	1.0.0.439	7	234	2	3	Verdana	1	80	0	0	0	WM Stimuli\	0.6	931.666666666667	1	726.9	0.8	945.375	1	643.5	0.9	1005.44444444444	1	739.4	0.9	1000.88888888889	1	687.3	12	364380	2	364369	27	39	364407	-999999	364382	0	5	TrialsPROC	FC_005_M3.png	1	2	14	SessionSelectionList														nonlure	3	Face	0-Back	12	80	11	0	0	100	2	39	111404	2	14	91	109365	-1	110265	1	900	3	3	2039	53	111418	-54	0					1											14												
WM080112	792564_fnca	1	1	1	1481293451	1	75.031	75.031	2.0.10.147	2.0.10.242	2.0.10.242	1.0.0.439	7	234	2	3	Verdana	1	80	0	0	0	WM Stimuli\	0.6	931.666666666667	1	726.9	0.8	945.375	1	643.5	0.9	1005.44444444444	1	739.4	0.9	1000.88888888889	1	687.3	12	364380	2	364369	27	39	364407	-999999	364382	0	5	TrialsPROC	FC_001_M1.png	1	2	15	SessionSelectionList														target	2	Face	0-Back	13	80	12	0	0	100	1	39	113977	1	13	73	111938	-1	112530	1	592	2	2	2039	52	113990	-53	0					2											15												
WM080112	792564_fnca	1	1	1	1481293451	1	75.031	75.031	2.0.10.147	2.0.10.242	2.0.10.242	1.0.0.439	7	234	2	3	Verdana	1	80	0	0	0	WM Stimuli\	0.6	931.666666666667	1	726.9	0.8	945.375	1	643.5	0.9	1005.44444444444	1	739.4	0.9	1000.88888888889	1	687.3	12	364380	2	364369	27	39	364407	-999999	364382	0	5	TrialsPROC	FC_003_M2.png	1	2	16	SessionSelectionList														nonlure	3	Face	0-Back	14	80	13	0	0	100	1	39	116562	2	14	85	114523	-1	115183	1	660	3	3	2039	53	116576	-54	0					3											16												
WM080112	792564_fnca	1	1	1	1481293451	1	75.031	75.031	2.0.10.147	2.0.10.242	2.0.10.242	1.0.0.439	7	234	2	3	Verdana	1	80	0	0	0	WM Stimuli\	0.6	931.666666666667	1	726.9	0.8	945.375	1	643.5	0.9	1005.44444444444	1	739.4	0.9	1000.88888888889	1	687.3	12	364380	2	364369	27	39	364407	-999999	364382	0	5	TrialsPROC	FC_004_F2.png	1	2	17	SessionSelectionList														nonlure	3	Face	0-Back	15	80	14	0	0	100	2	40	119135	1	13	72	117095	-1	117762	1	667	3	3	2040	53	119148	-54	0					4											17												
WM080112	792564_fnca	1	1	1	1481293451	1	75.031	75.031	2.0.10.147	2.0.10.242	2.0.10.242	1.0.0.439	7	234	2	3	Verdana	1	80	0	0	0	WM Stimuli\	0.6	931.666666666667	1	726.9	0.8	945.375	1	643.5	0.9	1005.44444444444	1	739.4	0.9	1000.88888888889	1	687.3	12	364380	2	364369	27	39	364407	-999999	364382	0	5	TrialsPROC	FC_004_F2.png	1	2	18	SessionSelectionList														lure	3	Face	0-Back	16	80	15	0	0	100	3	39	121707	1	14	73	119668	-1	120374	1	706	3	3	2039	53	121721	-54	0					5											18												
WM080112	792564_fnca	1	1	1	1481293451	1	75.031	75.031	2.0.10.147	2.0.10.242	2.0.10.242	1.0.0.439	7	234	2	3	Verdana	1	80	0	0	0	WM Stimuli\	0.6	931.666666666667	1	726.9	0.8	945.375	1	643.5	0.9	1005.44444444444	1	739.4	0.9	1000.88888888889	1	687.3	12	364380	2	364369	27	39	364407	-999999	364382	0	5	TrialsPROC	FC_001_M1.png	1	2	19	SessionSelectionList														target	2	Face	0-Back	17	80	16	0	0	100	1	39	124279	2	14	72	122240	-1	122753	1	513	2	2	2039	53	124293	-54	0					6											19												
WM080112	792564_fnca	1	1	1	1481293451	1	75.031	75.031	2.0.10.147	2.0.10.242	2.0.10.242	1.0.0.439	7	234	2	3	Verdana	1	80	0	0	0	WM Stimuli\	0.6	931.666666666667	1	726.9	0.8	945.375	1	643.5	0.9	1005.44444444444	1	739.4	0.9	1000.88888888889	1	687.3	12	364380	2	364369	27	39	364407	-999999	364382	0	5	TrialsPROC	FC_006_F3.png	1	2	20	SessionSelectionList														nonlure	3	Face	0-Back	18	80	17	0	0	100	1	39	126878	2	14	99	124839	-1	125379	1	540	3	3	2039	53	126892	-54	0					7											20												
WM080112	792564_fnca	1	1	1	1481293451	1	75.031	75.031	2.0.10.147	2.0.10.242	2.0.10.242	1.0.0.439	7	234	2	3	Verdana	1	80	0	0	0	WM Stimuli\	0.6	931.666666666667	1	726.9	0.8	945.375	1	643.5	0.9	1005.44444444444	1	739.4	0.9	1000.88888888889	1	687.3	12	364380	2	364369	27	39	364407	-999999	364382	0	5	TrialsPROC	FC_006_F3.png	1	2	21	SessionSelectionList														lure	3	Face	0-Back	19	80	18	0	0	100	2	39	129450	2	14	72	127411	-1	128074	1	663	3	3	2039	53	129464	-54	0					8											21												
WM080112	792564_fnca	1	1	1	1481293451	1	75.031	75.031	2.0.10.147	2.0.10.242	2.0.10.242	1.0.0.439	7	234	2	3	Verdana	1	80	0	0	0	WM Stimuli\	0.6	931.666666666667	1	726.9	0.8	945.375	1	643.5	0.9	1005.44444444444	1	739.4	0.9	1000.88888888889	1	687.3	12	364380	2	364369	27	39	364407	-999999	364382	0	5	TrialsPROC	FC_003_M2.png	1	2	22	SessionSelectionList														lure	3	Face	0-Back	20	80	19	0	0	100	3	39	132023	1	13	73	129984	-1	130570	1	586	3	3	2039	52	132036	-53	0					9											22												
WM080112	792564_fnca	1	1	1	1481293451	1	75.031	75.031	2.0.10.147	2.0.10.242	2.0.10.242	1.0.0.439	7	234	2	3	Verdana	1	80	0	0	0	WM Stimuli\	0.6	931.666666666667	1	726.9	0.8	945.375	1	643.5	0.9	1005.44444444444	1	739.4	0.9	1000.88888888889	1	687.3	12	364380	2	364369	27	39	364407	-999999	364382	0	5	TrialsPROC	FC_002_F1.png	1	2	23	SessionSelectionList														nonlure	3	Face	0-Back	21	80	20	0	0	100	4	39	134608	2	14	85	132569	-1	133177	1	608	3	3	2039	53	134622	-54	0					10											23												
WM080112	792564_fnca	1	1	1	1481293451	1	75.031	75.031	2.0.10.147	2.0.10.242	2.0.10.242	1.0.0.439	7	234	2	3	Verdana	1	80	0	0	0	WM Stimuli\	0.6	931.666666666667	1	726.9	0.8	945.375	1	643.5	0.9	1005.44444444444	1	739.4	0.9	1000.88888888889	1	687.3	12	364380	2	364369	27	39	364407	-999999	364382	0	6	Fix15secPROC	""	1	2	24	SessionSelectionList																																															6	135075	-7	0							24												
WM080112	792564_fnca	1	1	1	1481293451	1	75.031	75.031	2.0.10.147	2.0.10.242	2.0.10.242	1.0.0.439	7	234	2	3	Verdana	1	80	0	0	0	WM Stimuli\	0.6	931.666666666667	1	726.9	0.8	945.375	1	643.5	0.9	1005.44444444444	1	739.4	0.9	1000.88888888889	1	687.3	12	364380	2	364369	27	39	364407	-999999	364382	0	7	Cue2BackPROC	""	1	2	25	SessionSelectionList									13	150082	-14	0																																													25												
WM080112	792564_fnca	1	1	1	1481293451	1	75.031	75.031	2.0.10.147	2.0.10.242	2.0.10.242	1.0.0.439	7	234	2	3	Verdana	1	80	0	0	0	WM Stimuli\	0.6	931.666666666667	1	726.9	0.8	945.375	1	643.5	0.9	1005.44444444444	1	739.4	0.9	1000.88888888889	1	687.3	12	364380	2	364369	27	39	364407	-999999	364382	0	8	TrialsPROC	TO_001_TOOL1_BA.png	1	2	26	SessionSelectionList														nonlure	3	Tools	2-Back	22	80	21	0	0	100	5	39	154707	1	13	99	152668	-1	153563	1	895	3	3	2039	52	154720	-53	0										1						26												
WM080112	792564_fnca	1	1	1	1481293451	1	75.031	75.031	2.0.10.147	2.0.10.242	2.0.10.242	1.0.0.439	7	234	2	3	Verdana	1	80	0	0	0	WM Stimuli\	0.6	931.666666666667	1	726.9	0.8	945.375	1	643.5	0.9	1005.44444444444	1	739.4	0.9	1000.88888888889	1	687.3	12	364380	2	364369	27	39	364407	-999999	364382	0	8	TrialsPROC	TO_002_TOOL2_BA.png	1	2	27	SessionSelectionList														nonlure	3	Tools	2-Back	23	80	22	0	0	100	6	40	157266	1	13	58	155226	-1	156152	1	926	3	3	2040	53	157279	-54	0										2						27												
WM080112	792564_fnca	1	1	1	1481293451	1	75.031	75.031	2.0.10.147	2.0.10.242	2.0.10.242	1.0.0.439	7	234	2	3	Verdana	1	80	0	0	0	WM Stimuli\	0.6	931.666666666667	1	726.9	0.8	945.375	1	643.5	0.9	1005.44444444444	1	739.4	0.9	1000.88888888889	1	687.3	12	364380	2	364369	27	39	364407	-999999	364382	0	8	TrialsPROC	TO_004_TOOL4_BA.png	1	2	28	SessionSelectionList														nonlure	3	Tools	2-Back	24	80	23	0	0	100	7	39	159851	2	14	86	157812	-1	158409	1	597	3	3	2039	53	159865	-54	0										3						28												
WM080112	792564_fnca	1	1	1	1481293451	1	75.031	75.031	2.0.10.147	2.0.10.242	2.0.10.242	1.0.0.439	7	234	2	3	Verdana	1	80	0	0	0	WM Stimuli\	0.6	931.666666666667	1	726.9	0.8	945.375	1	643.5	0.9	1005.44444444444	1	739.4	0.9	1000.88888888889	1	687.3	12	364380	2	364369	27	39	364407	-999999	364382	0	8	TrialsPROC	TO_002_TOOL2_BA.png	1	2	29	SessionSelectionList														target	2	Tools	2-Back	25	80	24	0	0	100	1	39	162410	2	14	59	160371	-1	161103	1	732	2	2	2039	53	162424	-54	0										4						29												
WM080112	792564_fnca	1	1	1	1481293451	1	75.031	75.031	2.0.10.147	2.0.10.242	2.0.10.242	1.0.0.439	7	234	2	3	Verdana	1	80	0	0	0	WM Stimuli\	0.6	931.666666666667	1	726.9	0.8	945.375	1	643.5	0.9	1005.44444444444	1	739.4	0.9	1000.88888888889	1	687.3	12	364380	2	364369	27	39	364407	-999999	364382	0	8	TrialsPROC	TO_001_TOOL1_BA.png	1	2	30	SessionSelectionList														lure	3	Tools	2-Back	26	80	25	0	0	100	1	39	164969	2	14	59	162930	-1	164374	1	1444	3	3	2039	53	164983	-54	0										5						30												
WM080112	792564_fnca	1	1	1	1481293451	1	75.031	75.031	2.0.10.147	2.0.10.242	2.0.10.242	1.0.0.439	7	234	2	3	Verdana	1	80	0	0	0	WM Stimuli\	0.6	931.666666666667	1	726.9	0.8	945.375	1	643.5	0.9	1005.44444444444	1	739.4	0.9	1000.88888888889	1	687.3	12	364380	2	364369	27	39	364407	-999999	364382	0	8	TrialsPROC	TO_004_TOOL4_BA.png	1	2	31	SessionSelectionList														lure	3	Tools	2-Back	27	80	26	0	0	100	1	39	167528	1	14	59	165489	-1	166838	0	1349	2	3	2039	53	167542	-54	0										6						31												
WM080112	792564_fnca	1	1	1	1481293451	1	75.031	75.031	2.0.10.147	2.0.10.242	2.0.10.242	1.0.0.439	7	234	2	3	Verdana	1	80	0	0	0	WM Stimuli\	0.6	931.666666666667	1	726.9	0.8	945.375	1	643.5	0.9	1005.44444444444	1	739.4	0.9	1000.88888888889	1	687.3	12	364380	2	364369	27	39	364407	-999999	364382	0	8	TrialsPROC	TO_006_TOOL6_BA.png	1	2	32	SessionSelectionList														nonlure	3	Tools	2-Back	28	80	27	0	0	100	1	39	170100	2	14	72	168061	-1	169324	1	1263	3	3	2039	53	170114	-54	0										7						32												
WM080112	792564_fnca	1	1	1	1481293451	1	75.031	75.031	2.0.10.147	2.0.10.242	2.0.10.242	1.0.0.439	7	234	2	3	Verdana	1	80	0	0	0	WM Stimuli\	0.6	931.666666666667	1	726.9	0.8	945.375	1	643.5	0.9	1005.44444444444	1	739.4	0.9	1000.88888888889	1	687.3	12	364380	2	364369	27	39	364407	-999999	364382	0	8	TrialsPROC	TO_005_TOOL5_BA.png	1	2	33	SessionSelectionList														nonlure	3	Tools	2-Back	29	80	28	0	0	100	2	39	172686	1	14	86	170647	-1	172192	1	1545	3	3	2039	53	172700	-54	0										8						33												
WM080112	792564_fnca	1	1	1	1481293451	1	75.031	75.031	2.0.10.147	2.0.10.242	2.0.10.242	1.0.0.439	7	234	2	3	Verdana	1	80	0	0	0	WM Stimuli\	0.6	931.666666666667	1	726.9	0.8	945.375	1	643.5	0.9	1005.44444444444	1	739.4	0.9	1000.88888888889	1	687.3	12	364380	2	364369	27	39	364407	-999999	364382	0	8	TrialsPROC	TO_006_TOOL6_BA.png	1	2	34	SessionSelectionList														target	2	Tools	2-Back	30	80	29	0	0	100	1	39	175245	1	14	59	173206	-1	173913	1	707	2	2	2039	53	175259	-54	0										9						34												
WM080112	792564_fnca	1	1	1	1481293451	1	75.031	75.031	2.0.10.147	2.0.10.242	2.0.10.242	1.0.0.439	7	234	2	3	Verdana	1	80	0	0	0	WM Stimuli\	0.6	931.666666666667	1	726.9	0.8	945.375	1	643.5	0.9	1005.44444444444	1	739.4	0.9	1000.88888888889	1	687.3	12	364380	2	364369	27	39	364407	-999999	364382	0	8	TrialsPROC	TO_003_TOOL3_BA.png	1	2	35	SessionSelectionList														nonlure	3	Tools	2-Back	31	80	30	0	0	100	1	39	177817	2	14	72	175778	-1	176677	1	899	3	3	2039	53	177831	-54	0										10						35												
WM080112	792564_fnca	1	1	1	1481293451	1	75.031	75.031	2.0.10.147	2.0.10.242	2.0.10.242	1.0.0.439	7	234	2	3	Verdana	1	80	0	0	0	WM Stimuli\	0.6	931.666666666667	1	726.9	0.8	945.375	1	643.5	0.9	1005.44444444444	1	739.4	0.9	1000.88888888889	1	687.3	12	364380	2	364369	27	39	364407	-999999	364382	0	9	Cue0BackPROC	BP_007_BP20_BA.png	1	2	36	SessionSelectionList																																										32	178310	-33	0												36												
WM080112	792564_fnca	1	1	1	1481293451	1	75.031	75.031	2.0.10.147	2.0.10.242	2.0.10.242	1.0.0.439	7	234	2	3	Verdana	1	80	0	0	0	WM Stimuli\	0.6	931.666666666667	1	726.9	0.8	945.375	1	643.5	0.9	1005.44444444444	1	739.4	0.9	1000.88888888889	1	687.3	12	364380	2	364369	27	39	364407	-999999	364382	0	10	TrialsPROC	BP_007_BP20_BA.png	1	2	37	SessionSelectionList														target	2	Body	0-Back	32	80	31	0	0	100	1	39	182868	2	14	51	180829	-1	182115	1	1286	2	2	2039	53	182882	-54	0											1					37												
WM080112	792564_fnca	1	1	1	1481293451	1	75.031	75.031	2.0.10.147	2.0.10.242	2.0.10.242	1.0.0.439	7	234	2	3	Verdana	1	80	0	0	0	WM Stimuli\	0.6	931.666666666667	1	726.9	0.8	945.375	1	643.5	0.9	1005.44444444444	1	739.4	0.9	1000.88888888889	1	687.3	12	364380	2	364369	27	39	364407	-999999	364382	0	10	TrialsPROC	BP_011_BP4_BA.png	1	2	38	SessionSelectionList														nonlure	3	Body	0-Back	33	80	32	0	0	100	1	39	185467	2	14	99	183428	-1	184097	1	669	3	3	2039	53	185481	-54	0											2					38												
WM080112	792564_fnca	1	1	1	1481293451	1	75.031	75.031	2.0.10.147	2.0.10.242	2.0.10.242	1.0.0.439	7	234	2	3	Verdana	1	80	0	0	0	WM Stimuli\	0.6	931.666666666667	1	726.9	0.8	945.375	1	643.5	0.9	1005.44444444444	1	739.4	0.9	1000.88888888889	1	687.3	12	364380	2	364369	27	39	364407	-999999	364382	0	10	TrialsPROC	BP_010_BP3_BA.png	1	2	39	SessionSelectionList														nonlure	3	Body	0-Back	34	80	33	0	0	100	2	39	188026	2	14	59	185987	-1	186575	1	588	3	3	2039	53	188040	-54	0											3					39												
WM080112	792564_fnca	1	1	1	1481293451	1	75.031	75.031	2.0.10.147	2.0.10.242	2.0.10.242	1.0.0.439	7	234	2	3	Verdana	1	80	0	0	0	WM Stimuli\	0.6	931.666666666667	1	726.9	0.8	945.375	1	643.5	0.9	1005.44444444444	1	739.4	0.9	1000.88888888889	1	687.3	12	364380	2	364369	27	39	364407	-999999	364382	0	10	TrialsPROC	BP_008_BP21_BA.png	1	2	40	SessionSelectionList														nonlure	3	Body	0-Back	35	80	34	0	0	100	3	40	190599	1	13	72	188559	-1	189270	1	711	3	3	2040	53	190612	-54	0											4					40												
WM080112	792564_fnca	1	1	1	1481293451	1	75.031	75.031	2.0.10.147	2.0.10.242	2.0.10.242	1.0.0.439	7	234	2	3	Verdana	1	80	0	0	0	WM Stimuli\	0.6	931.666666666667	1	726.9	0.8	945.375	1	643.5	0.9	1005.44444444444	1	739.4	0.9	1000.88888888889	1	687.3	12	364380	2	364369	27	39	364407	-999999	364382	0	10	TrialsPROC	BP_011_BP4_BA.png	1	2	41	SessionSelectionList														lure	3	Body	0-Back	36	80	35	0	0	100	4	39	193158	1	13	60	191119	-1	191792	1	673	3	3	2039	52	193171	-53	0											5					41												
WM080112	792564_fnca	1	1	1	1481293451	1	75.031	75.031	2.0.10.147	2.0.10.242	2.0.10.242	1.0.0.439	7	234	2	3	Verdana	1	80	0	0	0	WM Stimuli\	0.6	931.666666666667	1	726.9	0.8	945.375	1	643.5	0.9	1005.44444444444	1	739.4	0.9	1000.88888888889	1	687.3	12	364380	2	364369	27	39	364407	-999999	364382	0	10	TrialsPROC	BP_009_BP22_BA.png	1	2	42	SessionSelectionList														nonlure	3	Body	0-Back	37	80	36	0	0	100	5	39	195716	2	14	58	193677	-1	194429	1	752	3	3	2039	53	195730	-54	0											6					42												
WM080112	792564_fnca	1	1	1	1481293451	1	75.031	75.031	2.0.10.147	2.0.10.242	2.0.10.242	1.0.0.439	7	234	2	3	Verdana	1	80	0	0	0	WM Stimuli\	0.6	931.666666666667	1	726.9	0.8	945.375	1	643.5	0.9	1005.44444444444	1	739.4	0.9	1000.88888888889	1	687.3	12	364380	2	364369	27	39	364407	-999999	364382	0	10	TrialsPROC	BP_009_BP22_BA.png	1	2	43	SessionSelectionList														lure	3	Body	0-Back	38	80	37	0	0	100	6	39	198275	2	14	59	196236	-1	196885	1	649	3	3	2039	53	198289	-54	0											7					43												
WM080112	792564_fnca	1	1	1	1481293451	1	75.031	75.031	2.0.10.147	2.0.10.242	2.0.10.242	1.0.0.439	7	234	2	3	Verdana	1	80	0	0	0	WM Stimuli\	0.6	931.666666666667	1	726.9	0.8	945.375	1	643.5	0.9	1005.44444444444	1	739.4	0.9	1000.88888888889	1	687.3	12	364380	2	364369	27	39	364407	-999999	364382	0	10	TrialsPROC	BP_008_BP21_BA.png	1	2	44	SessionSelectionList														lure	3	Body	0-Back	39	80	38	0	0	100	7	39	200834	2	14	59	198795	-1	199526	1	731	3	3	2039	53	200848	-54	0											8					44												
WM080112	792564_fnca	1	1	1	1481293451	1	75.031	75.031	2.0.10.147	2.0.10.242	2.0.10.242	1.0.0.439	7	234	2	3	Verdana	1	80	0	0	0	WM Stimuli\	0.6	931.666666666667	1	726.9	0.8	945.375	1	643.5	0.9	1005.44444444444	1	739.4	0.9	1000.88888888889	1	687.3	12	364380	2	364369	27	39	364407	-999999	364382	0	10	TrialsPROC	BP_007_BP20_BA.png	1	2	45	SessionSelectionList														target	2	Body	0-Back	40	80	39	0	0	100	1	39	203393	2	14	59	201354	-1	201917	1	563	2	2	2039	53	203407	-54	0											9					45												
WM080112	792564_fnca	1	1	1	1481293451	1	75.031	75.031	2.0.10.147	2.0.10.242	2.0.10.242	1.0.0.439	7	234	2	3	Verdana	1	80	0	0	0	WM Stimuli\	0.6	931.666666666667	1	726.9	0.8	945.375	1	643.5	0.9	1005.44444444444	1	739.4	0.9	1000.88888888889	1	687.3	12	364380	2	364369	27	39	364407	-999999	364382	0	10	TrialsPROC	BP_012_BP5_BA.png	1	2	46	SessionSelectionList														nonlure	3	Body	0-Back	41	80	40	0	0	100	1	39	205952	2	14	59	203913	-1	204560	1	647	3	3	2039	53	205966	-54	0											10					46												
WM080112	792564_fnca	1	1	1	1481293451	1	75.031	75.031	2.0.10.147	2.0.10.242	2.0.10.242	1.0.0.439	7	234	2	3	Verdana	1	80	0	0	0	WM Stimuli\	0.6	931.666666666667	1	726.9	0.8	945.375	1	643.5	0.9	1005.44444444444	1	739.4	0.9	1000.88888888889	1	687.3	12	364380	2	364369	27	39	364407	-999999	364382	0	11	Fix15secPROC	""	1	2	47	SessionSelectionList																																															6	206419	-7	0							47												
WM080112	792564_fnca	1	1	1	1481293451	1	75.031	75.031	2.0.10.147	2.0.10.242	2.0.10.242	1.0.0.439	7	234	2	3	Verdana	1	80	0	0	0	WM Stimuli\	0.6	931.666666666667	1	726.9	0.8	945.375	1	643.5	0.9	1005.44444444444	1	739.4	0.9	1000.88888888889	1	687.3	12	364380	2	364369	27	39	364407	-999999	364382	0	12	Cue0BackPROC	PL_001_92012.png	1	2	48	SessionSelectionList																																										26	221439	-27	0												48												
WM080112	792564_fnca	1	1	1	1481293451	1	75.031	75.031	2.0.10.147	2.0.10.242	2.0.10.242	1.0.0.439	7	234	2	3	Verdana	1	80	0	0	0	WM Stimuli\	0.6	931.666666666667	1	726.9	0.8	945.375	1	643.5	0.9	1005.44444444444	1	739.4	0.9	1000.88888888889	1	687.3	12	364380	2	364369	27	39	364407	-999999	364382	0	13	TrialsPROC	PL_003_92016.png	1	2	49	SessionSelectionList														nonlure	3	Place	0-Back	42	80	41	0	0	100	2	39	226037	2	14	85	223998	-1	224834	1	836	3	3	2039	53	226051	-54	0												1				49												
WM080112	792564_fnca	1	1	1	1481293451	1	75.031	75.031	2.0.10.147	2.0.10.242	2.0.10.242	1.0.0.439	7	234	2	3	Verdana	1	80	0	0	0	WM Stimuli\	0.6	931.666666666667	1	726.9	0.8	945.375	1	643.5	0.9	1005.44444444444	1	739.4	0.9	1000.88888888889	1	687.3	12	364380	2	364369	27	39	364407	-999999	364382	0	13	TrialsPROC	PL_003_92016.png	1	2	50	SessionSelectionList														lure	3	Place	0-Back	43	80	42	0	0	100	3	39	228596	2	14	59	226557	-1	227385	1	828	3	3	2039	53	228610	-54	0												2				50												
WM080112	792564_fnca	1	1	1	1481293451	1	75.031	75.031	2.0.10.147	2.0.10.242	2.0.10.242	1.0.0.439	7	234	2	3	Verdana	1	80	0	0	0	WM Stimuli\	0.6	931.666666666667	1	726.9	0.8	945.375	1	643.5	0.9	1005.44444444444	1	739.4	0.9	1000.88888888889	1	687.3	12	364380	2	364369	27	39	364407	-999999	364382	0	13	TrialsPROC	PL_006_92025.png	1	2	51	SessionSelectionList														nonlure	3	Place	0-Back	44	80	43	0	0	100	4	39	231182	1	14	86	229143	-1	229884	1	741	3	3	2039	53	231196	-54	0												3				51												
WM080112	792564_fnca	1	1	1	1481293451	1	75.031	75.031	2.0.10.147	2.0.10.242	2.0.10.242	1.0.0.439	7	234	2	3	Verdana	1	80	0	0	0	WM Stimuli\	0.6	931.666666666667	1	726.9	0.8	945.375	1	643.5	0.9	1005.44444444444	1	739.4	0.9	1000.88888888889	1	687.3	12	364380	2	364369	27	39	364407	-999999	364382	0	13	TrialsPROC	PL_001_92012.png	1	2	52	SessionSelectionList														target	2	Place	0-Back	45	80	44	0	0	100	1	39	233741	1	14	59	231702	-1	232384	1	682	2	2	2039	53	233755	-54	0												4				52												
WM080112	792564_fnca	1	1	1	1481293451	1	75.031	75.031	2.0.10.147	2.0.10.242	2.0.10.242	1.0.0.439	7	234	2	3	Verdana	1	80	0	0	0	WM Stimuli\	0.6	931.666666666667	1	726.9	0.8	945.375	1	643.5	0.9	1005.44444444444	1	739.4	0.9	1000.88888888889	1	687.3	12	364380	2	364369	27	39	364407	-999999	364382	0	13	TrialsPROC	PL_004_92023.png	1	2	53	SessionSelectionList														nonlure	3	Place	0-Back	46	80	45	0	0	100	1	39	236313	3	14	72	234274	-1	234983	1	709	3	3	2039	53	236327	-54	0												5				53												
WM080112	792564_fnca	1	1	1	1481293451	1	75.031	75.031	2.0.10.147	2.0.10.242	2.0.10.242	1.0.0.439	7	234	2	3	Verdana	1	80	0	0	0	WM Stimuli\	0.6	931.666666666667	1	726.9	0.8	945.375	1	643.5	0.9	1005.44444444444	1	739.4	0.9	1000.88888888889	1	687.3	12	364380	2	364369	27	39	364407	-999999	364382	0	13	TrialsPROC	PL_005_92024.png	1	2	54	SessionSelectionList														nonlure	3	Place	0-Back	47	80	46	0	0	100	2	39	238885	2	14	72	236846	-1	237548	1	702	3	3	2039	53	238899	-54	0												6				54												
WM080112	792564_fnca	1	1	1	1481293451	1	75.031	75.031	2.0.10.147	2.0.10.242	2.0.10.242	1.0.0.439	7	234	2	3	Verdana	1	80	0	0	0	WM Stimuli\	0.6	931.666666666667	1	726.9	0.8	945.375	1	643.5	0.9	1005.44444444444	1	739.4	0.9	1000.88888888889	1	687.3	12	364380	2	364369	27	39	364407	-999999	364382	0	13	TrialsPROC	PL_001_92012.png	1	2	55	SessionSelectionList														target	2	Place	0-Back	48	80	47	0	0	100	1	39	241444	2	14	59	239405	-1	240269	1	864	2	2	2039	53	241458	-54	0												7				55												
WM080112	792564_fnca	1	1	1	1481293451	1	75.031	75.031	2.0.10.147	2.0.10.242	2.0.10.242	1.0.0.439	7	234	2	3	Verdana	1	80	0	0	0	WM Stimuli\	0.6	931.666666666667	1	726.9	0.8	945.375	1	643.5	0.9	1005.44444444444	1	739.4	0.9	1000.88888888889	1	687.3	12	364380	2	364369	27	39	364407	-999999	364382	0	13	TrialsPROC	PL_002_92014.png	1	2	56	SessionSelectionList														nonlure	3	Place	0-Back	49	80	48	0	0	100	1	39	244030	1	14	86	241991	-1	242621	1	630	3	3	2039	53	244044	-54	0												8				56												
WM080112	792564_fnca	1	1	1	1481293451	1	75.031	75.031	2.0.10.147	2.0.10.242	2.0.10.242	1.0.0.439	7	234	2	3	Verdana	1	80	0	0	0	WM Stimuli\	0.6	931.666666666667	1	726.9	0.8	945.375	1	643.5	0.9	1005.44444444444	1	739.4	0.9	1000.88888888889	1	687.3	12	364380	2	364369	27	39	364407	-999999	364382	0	13	TrialsPROC	PL_004_92023.png	1	2	57	SessionSelectionList														lure	3	Place	0-Back	50	80	49	0	0	100	2	39	246589	1	14	59	244550	-1	245217	1	667	3	3	2039	53	246603	-54	0												9				57												
WM080112	792564_fnca	1	1	1	1481293451	1	75.031	75.031	2.0.10.147	2.0.10.242	2.0.10.242	1.0.0.439	7	234	2	3	Verdana	1	80	0	0	0	WM Stimuli\	0.6	931.666666666667	1	726.9	0.8	945.375	1	643.5	0.9	1005.44444444444	1	739.4	0.9	1000.88888888889	1	687.3	12	364380	2	364369	27	39	364407	-999999	364382	0	13	TrialsPROC	PL_006_92025.png	1	2	58	SessionSelectionList														lure	3	Place	0-Back	51	80	50	0	0	100	3	39	249161	2	14	72	247122	-1	247857	1	735	3	3	2039	53	249175	-54	0												10				58												
WM080112	792564_fnca	1	1	1	1481293451	1	75.031	75.031	2.0.10.147	2.0.10.242	2.0.10.242	1.0.0.439	7	234	2	3	Verdana	1	80	0	0	0	WM Stimuli\	0.6	931.666666666667	1	726.9	0.8	945.375	1	643.5	0.9	1005.44444444444	1	739.4	0.9	1000.88888888889	1	687.3	12	364380	2	364369	27	39	364407	-999999	364382	0	14	Cue2BackPROC	""	1	2	59	SessionSelectionList									6	249628	-7	0																																													59												
WM080112	792564_fnca	1	1	1	1481293451	1	75.031	75.031	2.0.10.147	2.0.10.242	2.0.10.242	1.0.0.439	7	234	2	3	Verdana	1	80	0	0	0	WM Stimuli\	0.6	931.666666666667	1	726.9	0.8	945.375	1	643.5	0.9	1005.44444444444	1	739.4	0.9	1000.88888888889	1	687.3	12	364380	2	364369	27	39	364407	-999999	364382	0	15	TrialsPROC	FC_010_F5.png	1	2	60	SessionSelectionList														nonlure	3	Face	2-Back	52	80	50	0	1	100	3	39	254239	1	14	78	252200	-1	0	0	0	""	3	2039	53	254253	-54	0													1			60												
WM080112	792564_fnca	1	1	1	1481293451	1	75.031	75.031	2.0.10.147	2.0.10.242	2.0.10.242	1.0.0.439	7	234	2	3	Verdana	1	80	0	0	0	WM Stimuli\	0.6	931.666666666667	1	726.9	0.8	945.375	1	643.5	0.9	1005.44444444444	1	739.4	0.9	1000.88888888889	1	687.3	12	364380	2	364369	27	39	364407	-999999	364382	0	15	TrialsPROC	FC_012_F6.png	1	2	61	SessionSelectionList														nonlure	3	Face	2-Back	53	80	51	0	0	100	1	40	256825	1	13	85	254785	-1	255238	1	453	3	3	2040	53	256838	-54	0													2			61												
WM080112	792564_fnca	1	1	1	1481293451	1	75.031	75.031	2.0.10.147	2.0.10.242	2.0.10.242	1.0.0.439	7	234	2	3	Verdana	1	80	0	0	0	WM Stimuli\	0.6	931.666666666667	1	726.9	0.8	945.375	1	643.5	0.9	1005.44444444444	1	739.4	0.9	1000.88888888889	1	687.3	12	364380	2	364369	27	39	364407	-999999	364382	0	15	TrialsPROC	FC_010_F5.png	1	2	62	SessionSelectionList														target	2	Face	2-Back	54	80	52	0	0	100	1	39	259397	1	14	73	257358	-1	258136	1	778	2	2	2039	53	259411	-54	0													3			62												
WM080112	792564_fnca	1	1	1	1481293451	1	75.031	75.031	2.0.10.147	2.0.10.242	2.0.10.242	1.0.0.439	7	234	2	3	Verdana	1	80	0	0	0	WM Stimuli\	0.6	931.666666666667	1	726.9	0.8	945.375	1	643.5	0.9	1005.44444444444	1	739.4	0.9	1000.88888888889	1	687.3	12	364380	2	364369	27	39	364407	-999999	364382	0	15	TrialsPROC	FC_008_F4.png	1	2	63	SessionSelectionList														nonlure	3	Face	2-Back	55	80	53	0	0	100	1	40	261983	1	13	85	259943	-1	260926	1	983	3	3	2040	53	261996	-54	0													4			63												
WM080112	792564_fnca	1	1	1	1481293451	1	75.031	75.031	2.0.10.147	2.0.10.242	2.0.10.242	1.0.0.439	7	234	2	3	Verdana	1	80	0	0	0	WM Stimuli\	0.6	931.666666666667	1	726.9	0.8	945.375	1	643.5	0.9	1005.44444444444	1	739.4	0.9	1000.88888888889	1	687.3	12	364380	2	364369	27	39	364407	-999999	364382	0	15	TrialsPROC	FC_012_F6.png	1	2	64	SessionSelectionList														lure	3	Face	2-Back	56	80	54	0	0	100	2	39	264555	1	13	73	262516	-1	263975	1	1459	3	3	2039	52	264568	-53	0													5			64												
WM080112	792564_fnca	1	1	1	1481293451	1	75.031	75.031	2.0.10.147	2.0.10.242	2.0.10.242	1.0.0.439	7	234	2	3	Verdana	1	80	0	0	0	WM Stimuli\	0.6	931.666666666667	1	726.9	0.8	945.375	1	643.5	0.9	1005.44444444444	1	739.4	0.9	1000.88888888889	1	687.3	12	364380	2	364369	27	39	364407	-999999	364382	0	15	TrialsPROC	FC_008_F4.png	1	2	65	SessionSelectionList														target	2	Face	2-Back	57	80	55	0	0	100	1	39	267127	1	14	72	265088	-1	265967	1	879	2	2	2039	53	267141	-54	0													6			65												
WM080112	792564_fnca	1	1	1	1481293451	1	75.031	75.031	2.0.10.147	2.0.10.242	2.0.10.242	1.0.0.439	7	234	2	3	Verdana	1	80	0	0	0	WM Stimuli\	0.6	931.666666666667	1	726.9	0.8	945.375	1	643.5	0.9	1005.44444444444	1	739.4	0.9	1000.88888888889	1	687.3	12	364380	2	364369	27	39	364407	-999999	364382	0	15	TrialsPROC	FC_007_M4.png	1	2	66	SessionSelectionList														nonlure	3	Face	2-Back	58	80	56	0	0	100	1	39	269713	1	13	86	267674	-1	268580	1	906	3	3	2039	52	269726	-53	0													7			66												
WM080112	792564_fnca	1	1	1	1481293451	1	75.031	75.031	2.0.10.147	2.0.10.242	2.0.10.242	1.0.0.439	7	234	2	3	Verdana	1	80	0	0	0	WM Stimuli\	0.6	931.666666666667	1	726.9	0.8	945.375	1	643.5	0.9	1005.44444444444	1	739.4	0.9	1000.88888888889	1	687.3	12	364380	2	364369	27	39	364407	-999999	364382	0	15	TrialsPROC	FC_007_M4.png	1	2	67	SessionSelectionList														lure	3	Face	2-Back	59	80	57	0	0	100	2	39	272285	1	14	72	270246	-1	270961	1	715	3	3	2039	53	272299	-54	0													8			67												
WM080112	792564_fnca	1	1	1	1481293451	1	75.031	75.031	2.0.10.147	2.0.10.242	2.0.10.242	1.0.0.439	7	234	2	3	Verdana	1	80	0	0	0	WM Stimuli\	0.6	931.666666666667	1	726.9	0.8	945.375	1	643.5	0.9	1005.44444444444	1	739.4	0.9	1000.88888888889	1	687.3	12	364380	2	364369	27	39	364407	-999999	364382	0	15	TrialsPROC	FC_009_M5.png	1	2	68	SessionSelectionList														nonlure	3	Face	2-Back	60	80	58	0	0	100	3	40	274871	1	13	85	272831	-1	274221	1	1390	3	3	2040	53	274884	-54	0													9			68												
WM080112	792564_fnca	1	1	1	1481293451	1	75.031	75.031	2.0.10.147	2.0.10.242	2.0.10.242	1.0.0.439	7	234	2	3	Verdana	1	80	0	0	0	WM Stimuli\	0.6	931.666666666667	1	726.9	0.8	945.375	1	643.5	0.9	1005.44444444444	1	739.4	0.9	1000.88888888889	1	687.3	12	364380	2	364369	27	39	364407	-999999	364382	0	15	TrialsPROC	FC_011_M6.png	1	2	69	SessionSelectionList														nonlure	3	Face	2-Back	61	80	58	0	1	100	3	39	277456	2	14	86	275417	-1	0	0	0	""	3	2039	53	277470	-54	0													10			69												
WM080112	792564_fnca	1	1	1	1481293451	1	75.031	75.031	2.0.10.147	2.0.10.242	2.0.10.242	1.0.0.439	7	234	2	3	Verdana	1	80	0	0	0	WM Stimuli\	0.6	931.666666666667	1	726.9	0.8	945.375	1	643.5	0.9	1005.44444444444	1	739.4	0.9	1000.88888888889	1	687.3	12	364380	2	364369	27	39	364407	-999999	364382	0	16	Fix15secPROC	""	1	2	70	SessionSelectionList																																															6	277923	-7	0							70												
WM080112	792564_fnca	1	1	1	1481293451	1	75.031	75.031	2.0.10.147	2.0.10.242	2.0.10.242	1.0.0.439	7	234	2	3	Verdana	1	80	0	0	0	WM Stimuli\	0.6	931.666666666667	1	726.9	0.8	945.375	1	643.5	0.9	1005.44444444444	1	739.4	0.9	1000.88888888889	1	687.3	12	364380	2	364369	27	39	364407	-999999	364382	0	17	Cue0BackPROC	TO_007_TOOL7_BA.png	1	2	71	SessionSelectionList																																										53	292970	-54	0												71												
WM080112	792564_fnca	1	1	1	1481293451	1	75.031	75.031	2.0.10.147	2.0.10.242	2.0.10.242	1.0.0.439	7	234	2	3	Verdana	1	80	0	0	0	WM Stimuli\	0.6	931.666666666667	1	726.9	0.8	945.375	1	643.5	0.9	1005.44444444444	1	739.4	0.9	1000.88888888889	1	687.3	12	364380	2	364369	27	39	364407	-999999	364382	0	18	TrialsPROC	TO_010_TOOL10_BA.png	1	2	72	SessionSelectionList														nonlure	3	Tools	0-Back	62	80	59	0	0	100	1	39	297541	2	14	85	295502	-1	296230	1	728	3	3	2039	53	297555	-54	0														1		72												
WM080112	792564_fnca	1	1	1	1481293451	1	75.031	75.031	2.0.10.147	2.0.10.242	2.0.10.242	1.0.0.439	7	234	2	3	Verdana	1	80	0	0	0	WM Stimuli\	0.6	931.666666666667	1	726.9	0.8	945.375	1	643.5	0.9	1005.44444444444	1	739.4	0.9	1000.88888888889	1	687.3	12	364380	2	364369	27	39	364407	-999999	364382	0	18	TrialsPROC	TO_009_TOOL9_BA.png	1	2	73	SessionSelectionList														nonlure	3	Tools	0-Back	63	80	60	0	0	100	2	39	300127	2	14	86	298088	-1	298672	1	584	3	3	2039	53	300141	-54	0														2		73												
WM080112	792564_fnca	1	1	1	1481293451	1	75.031	75.031	2.0.10.147	2.0.10.242	2.0.10.242	1.0.0.439	7	234	2	3	Verdana	1	80	0	0	0	WM Stimuli\	0.6	931.666666666667	1	726.9	0.8	945.375	1	643.5	0.9	1005.44444444444	1	739.4	0.9	1000.88888888889	1	687.3	12	364380	2	364369	27	39	364407	-999999	364382	0	18	TrialsPROC	TO_009_TOOL9_BA.png	1	2	74	SessionSelectionList														lure	3	Tools	0-Back	64	80	61	0	0	100	3	39	302686	1	13	59	300647	-1	301569	1	922	3	3	2039	52	302699	-53	0														3		74												
WM080112	792564_fnca	1	1	1	1481293451	1	75.031	75.031	2.0.10.147	2.0.10.242	2.0.10.242	1.0.0.439	7	234	2	3	Verdana	1	80	0	0	0	WM Stimuli\	0.6	931.666666666667	1	726.9	0.8	945.375	1	643.5	0.9	1005.44444444444	1	739.4	0.9	1000.88888888889	1	687.3	12	364380	2	364369	27	39	364407	-999999	364382	0	18	TrialsPROC	TO_008_TOOL8_BA.png	1	2	75	SessionSelectionList														nonlure	3	Tools	0-Back	65	80	62	0	0	100	4	39	305271	2	14	85	303232	-1	303892	1	660	3	3	2039	53	305285	-54	0														4		75												
WM080112	792564_fnca	1	1	1	1481293451	1	75.031	75.031	2.0.10.147	2.0.10.242	2.0.10.242	1.0.0.439	7	234	2	3	Verdana	1	80	0	0	0	WM Stimuli\	0.6	931.666666666667	1	726.9	0.8	945.375	1	643.5	0.9	1005.44444444444	1	739.4	0.9	1000.88888888889	1	687.3	12	364380	2	364369	27	39	364407	-999999	364382	0	18	TrialsPROC	TO_011_TOOL11_BA.png	1	2	76	SessionSelectionList														nonlure	3	Tools	0-Back	66	80	63	0	0	100	5	39	307857	1	14	86	305818	-1	306422	1	604	3	3	2039	53	307871	-54	0														5		76												
WM080112	792564_fnca	1	1	1	1481293451	1	75.031	75.031	2.0.10.147	2.0.10.242	2.0.10.242	1.0.0.439	7	234	2	3	Verdana	1	80	0	0	0	WM Stimuli\	0.6	931.666666666667	1	726.9	0.8	945.375	1	643.5	0.9	1005.44444444444	1	739.4	0.9	1000.88888888889	1	687.3	12	364380	2	364369	27	39	364407	-999999	364382	0	18	TrialsPROC	TO_012_TOOL12_BA.png	1	2	77	SessionSelectionList														nonlure	3	Tools	0-Back	67	80	64	0	0	100	6	40	310443	1	13	85	308403	-1	308955	1	552	3	3	2040	53	310456	-54	0														6		77												
WM080112	792564_fnca	1	1	1	1481293451	1	75.031	75.031	2.0.10.147	2.0.10.242	2.0.10.242	1.0.0.439	7	234	2	3	Verdana	1	80	0	0	0	WM Stimuli\	0.6	931.666666666667	1	726.9	0.8	945.375	1	643.5	0.9	1005.44444444444	1	739.4	0.9	1000.88888888889	1	687.3	12	364380	2	364369	27	39	364407	-999999	364382	0	18	TrialsPROC	TO_010_TOOL10_BA.png	1	2	78	SessionSelectionList														lure	3	Tools	0-Back	68	80	65	0	0	100	7	40	313002	1	13	59	310962	-1	312067	1	1105	3	3	2040	53	313015	-54	0														7		78												
WM080112	792564_fnca	1	1	1	1481293451	1	75.031	75.031	2.0.10.147	2.0.10.242	2.0.10.242	1.0.0.439	7	234	2	3	Verdana	1	80	0	0	0	WM Stimuli\	0.6	931.666666666667	1	726.9	0.8	945.375	1	643.5	0.9	1005.44444444444	1	739.4	0.9	1000.88888888889	1	687.3	12	364380	2	364369	27	39	364407	-999999	364382	0	18	TrialsPROC	TO_007_TOOL7_BA.png	1	2	79	SessionSelectionList														target	2	Tools	0-Back	69	80	66	0	0	100	1	40	315561	1	13	59	313521	-1	314070	1	549	2	2	2040	53	315574	-54	0														8		79												
WM080112	792564_fnca	1	1	1	1481293451	1	75.031	75.031	2.0.10.147	2.0.10.242	2.0.10.242	1.0.0.439	7	234	2	3	Verdana	1	80	0	0	0	WM Stimuli\	0.6	931.666666666667	1	726.9	0.8	945.375	1	643.5	0.9	1005.44444444444	1	739.4	0.9	1000.88888888889	1	687.3	12	364380	2	364369	27	39	364407	-999999	364382	0	18	TrialsPROC	TO_008_TOOL8_BA.png	1	2	80	SessionSelectionList														lure	3	Tools	0-Back	70	80	67	0	0	100	1	39	318119	3	14	59	316080	-1	316640	1	560	3	3	2039	53	318133	-54	0														9		80												
WM080112	792564_fnca	1	1	1	1481293451	1	75.031	75.031	2.0.10.147	2.0.10.242	2.0.10.242	1.0.0.439	7	234	2	3	Verdana	1	80	0	0	0	WM Stimuli\	0.6	931.666666666667	1	726.9	0.8	945.375	1	643.5	0.9	1005.44444444444	1	739.4	0.9	1000.88888888889	1	687.3	12	364380	2	364369	27	39	364407	-999999	364382	0	18	TrialsPROC	TO_007_TOOL7_BA.png	1	2	81	SessionSelectionList														target	2	Tools	0-Back	71	80	68	0	0	100	1	39	320678	2	14	59	318639	-1	319248	1	609	2	2	2039	53	320692	-54	0														10		81												
WM080112	792564_fnca	1	1	1	1481293451	1	75.031	75.031	2.0.10.147	2.0.10.242	2.0.10.242	1.0.0.439	7	234	2	3	Verdana	1	80	0	0	0	WM Stimuli\	0.6	931.666666666667	1	726.9	0.8	945.375	1	643.5	0.9	1005.44444444444	1	739.4	0.9	1000.88888888889	1	687.3	12	364380	2	364369	27	39	364407	-999999	364382	0	19	Cue2BackPROC	""	1	2	82	SessionSelectionList									6	321145	-7	0																																													82												
WM080112	792564_fnca	1	1	1	1481293451	1	75.031	75.031	2.0.10.147	2.0.10.242	2.0.10.242	1.0.0.439	7	234	2	3	Verdana	1	80	0	0	0	WM Stimuli\	0.6	931.666666666667	1	726.9	0.8	945.375	1	643.5	0.9	1005.44444444444	1	739.4	0.9	1000.88888888889	1	687.3	12	364380	2	364369	27	39	364407	-999999	364382	0	20	TrialsPROC	PL_007_92026.png	1	2	83	SessionSelectionList														nonlure	3	Place	2-Back	72	80	69	0	0	100	1	39	325756	2	14	78	323717	-1	325400	1	1683	3	3	2039	53	325770	-54	0															1	83												
WM080112	792564_fnca	1	1	1	1481293451	1	75.031	75.031	2.0.10.147	2.0.10.242	2.0.10.242	1.0.0.439	7	234	2	3	Verdana	1	80	0	0	0	WM Stimuli\	0.6	931.666666666667	1	726.9	0.8	945.375	1	643.5	0.9	1005.44444444444	1	739.4	0.9	1000.88888888889	1	687.3	12	364380	2	364369	27	39	364407	-999999	364382	0	20	TrialsPROC	PL_007_92026.png	1	2	84	SessionSelectionList														lure	3	Place	2-Back	73	80	70	0	0	100	2	39	328315	2	14	59	326276	-1	327659	1	1383	3	3	2039	53	328329	-54	0															2	84												
WM080112	792564_fnca	1	1	1	1481293451	1	75.031	75.031	2.0.10.147	2.0.10.242	2.0.10.242	1.0.0.439	7	234	2	3	Verdana	1	80	0	0	0	WM Stimuli\	0.6	931.666666666667	1	726.9	0.8	945.375	1	643.5	0.9	1005.44444444444	1	739.4	0.9	1000.88888888889	1	687.3	12	364380	2	364369	27	39	364407	-999999	364382	0	20	TrialsPROC	PL_010_92038.png	1	2	85	SessionSelectionList														nonlure	3	Place	2-Back	74	80	71	0	0	100	3	39	330901	1	14	86	328862	-1	329787	1	925	3	3	2039	53	330915	-54	0															3	85												
WM080112	792564_fnca	1	1	1	1481293451	1	75.031	75.031	2.0.10.147	2.0.10.242	2.0.10.242	1.0.0.439	7	234	2	3	Verdana	1	80	0	0	0	WM Stimuli\	0.6	931.666666666667	1	726.9	0.8	945.375	1	643.5	0.9	1005.44444444444	1	739.4	0.9	1000.88888888889	1	687.3	12	364380	2	364369	27	39	364407	-999999	364382	0	20	TrialsPROC	PL_009_92037.png	1	2	86	SessionSelectionList														nonlure	3	Place	2-Back	75	80	72	0	0	100	4	38	333486	2	14	86	331448	-1	332154	1	706	3	3	2038	52	333500	-53	0															4	86												
WM080112	792564_fnca	1	1	1	1481293451	1	75.031	75.031	2.0.10.147	2.0.10.242	2.0.10.242	1.0.0.439	7	234	2	3	Verdana	1	80	0	0	0	WM Stimuli\	0.6	931.666666666667	1	726.9	0.8	945.375	1	643.5	0.9	1005.44444444444	1	739.4	0.9	1000.88888888889	1	687.3	12	364380	2	364369	27	39	364407	-999999	364382	0	20	TrialsPROC	PL_010_92038.png	1	2	87	SessionSelectionList														target	2	Place	2-Back	76	80	72	0	1	100	4	39	336045	2	14	58	334006	-1	0	0	0	""	2	2039	53	336059	-54	0															5	87												
WM080112	792564_fnca	1	1	1	1481293451	1	75.031	75.031	2.0.10.147	2.0.10.242	2.0.10.242	1.0.0.439	7	234	2	3	Verdana	1	80	0	0	0	WM Stimuli\	0.6	931.666666666667	1	726.9	0.8	945.375	1	643.5	0.9	1005.44444444444	1	739.4	0.9	1000.88888888889	1	687.3	12	364380	2	364369	27	39	364407	-999999	364382	0	20	TrialsPROC	PL_009_92037.png	1	2	88	SessionSelectionList														target	2	Place	2-Back	77	80	73	0	0	100	1	39	338604	2	14	59	336565	-1	337303	1	738	2	2	2039	53	338618	-54	0															6	88												
WM080112	792564_fnca	1	1	1	1481293451	1	75.031	75.031	2.0.10.147	2.0.10.242	2.0.10.242	1.0.0.439	7	234	2	3	Verdana	1	80	0	0	0	WM Stimuli\	0.6	931.666666666667	1	726.9	0.8	945.375	1	643.5	0.9	1005.44444444444	1	739.4	0.9	1000.88888888889	1	687.3	12	364380	2	364369	27	39	364407	-999999	364382	0	20	TrialsPROC	PL_008_92033.png	1	2	89	SessionSelectionList														nonlure	3	Place	2-Back	78	80	74	0	0	100	1	40	341177	1	13	72	339137	-1	340047	1	910	3	3	2040	53	341190	-54	0															7	89												
WM080112	792564_fnca	1	1	1	1481293451	1	75.031	75.031	2.0.10.147	2.0.10.242	2.0.10.242	1.0.0.439	7	234	2	3	Verdana	1	80	0	0	0	WM Stimuli\	0.6	931.666666666667	1	726.9	0.8	945.375	1	643.5	0.9	1005.44444444444	1	739.4	0.9	1000.88888888889	1	687.3	12	364380	2	364369	27	39	364407	-999999	364382	0	20	TrialsPROC	PL_012_92047.png	1	2	90	SessionSelectionList														nonlure	3	Place	2-Back	79	80	75	0	0	100	2	40	343776	1	13	99	341736	-1	342473	1	737	3	3	2040	53	343789	-54	0															8	90												
WM080112	792564_fnca	1	1	1	1481293451	1	75.031	75.031	2.0.10.147	2.0.10.242	2.0.10.242	1.0.0.439	7	234	2	3	Verdana	1	80	0	0	0	WM Stimuli\	0.6	931.666666666667	1	726.9	0.8	945.375	1	643.5	0.9	1005.44444444444	1	739.4	0.9	1000.88888888889	1	687.3	12	364380	2	364369	27	39	364407	-999999	364382	0	20	TrialsPROC	PL_012_92047.png	1	2	91	SessionSelectionList														lure	3	Place	2-Back	80	80	76	0	0	100	3	39	346334	2	14	59	344295	-1	345318	1	1023	3	3	2039	53	346348	-54	0															9	91												
WM080112	792564_fnca	1	1	1	1481293451	1	75.031	75.031	2.0.10.147	2.0.10.242	2.0.10.242	1.0.0.439	7	234	2	3	Verdana	1	80	0	0	0	WM Stimuli\	0.6	931.666666666667	1	726.9	0.8	945.375	1	643.5	0.9	1005.44444444444	1	739.4	0.9	1000.88888888889	1	687.3	12	364380	2	364369	27	39	364407	-999999	364382	0	20	TrialsPROC	PL_011_92044.png	1	2	92	SessionSelectionList														nonlure	3	Place	2-Back	80	80	77	0	0	100	4	39	348907	1	13	73	346868	-1	347812	1	944	3	3	2039	52	348920	-53	0															10	92												
WM080112	792564_fnca	1	1	1	1481293451	1	75.031	75.031	2.0.10.147	2.0.10.242	2.0.10.242	1.0.0.439	7	234	2	3	Verdana	1	80	0	0	0	WM Stimuli\	0.6	931.666666666667	1	726.9	0.8	945.375	1	643.5	0.9	1005.44444444444	1	739.4	0.9	1000.88888888889	1	687.3	12	364380	2	364369	27	39	364407	-999999	364382	0	21	Fix15secPROC	""	1	2	93	SessionSelectionList																																															6	349374	-7	0							93												
