ExperimentName	HCPID	RunNumber	Subject	Session	RandomSeed	Group	Laptop.RefreshRate	ScannerD2.RefreshRate	StudioVersion	RuntimeVersion	RuntimeVersionExpected	ExperimentVersion	triggercode	Allowed	Target	Nontarget	FontStyle	RunTrialNumber[Session]	TrialsPerRun[Session]	TotalRespGreater200[Session]	ConsecRTLess200[Session]	ConsecNonResp[Session]	StimuliDir	ACC_2_Back_Body	Avg_RT_For_Correct_Trials_2_Back_Body	ACC_0_Back_Body	Avg_RT_For_Correct_Trials_0_Back_Body	ACC_2_Back_Face	Avg_RT_For_Correct_Trials_2_Back_Face	ACC_0_Back_Face	Avg_RT_For_Correct_Trials_0_Back_Face	ACC_2_Back_Place	Avg_RT_For_Correct_Trials_2_Back_Place	ACC_0_Back_Place	Avg_RT_For_Correct_Trials_0_Back_Place	ACC_2_Back_Tools	Avg_RT_For_Correct_Trials_2_Back_Tools	ACC_0_Back_Tools	Avg_RT_For_Correct_Trials_0_Back_Tools	ExpInstrucFeelFreeToRest.OnsetDelay	ExpInstrucFeelFreeToRest.OnsetTime	ExpInstrucFeelFreeToRest.DurationError	ExpInstrucFeelFreeToRest.StartTime	ExpInstrucFeelFreeToRest.OnsetToOnsetTime	FeelFreeToRest.OnsetDelay	FeelFreeToRest.OnsetTime	FeelFreeToRest.DurationError	FeelFreeToRest.StartTime	FeelFreeToRest.OnsetToOnsetTime	SessionSelectionList	Procedure[Block]	Stimulus[Block]	RunNumberFilterValue	SessionSelectionList.Cycle	SessionSelectionList.Sample	Running[Block]	IntroButtonMap.OnsetDelay	IntroButtonMap.OnsetTime	IntroButtonMap.DurationError	IntroButtonMap.OnsetToOnsetTime	GetReady.OnsetDelay	GetReady.OnsetTime	GetReady.DurationError	GetReady.OnsetToOnsetTime	Cue2Back.OnsetDelay	Cue2Back.OnsetTime	Cue2Back.DurationError	Cue2Back.OnsetToOnsetTime	Run1Block1	TargetType	CorrectResponse	StimType	BlockType	RunTrialNumber[Block]	TrialsPerRun[Block]	TotalRespGreater200[Block]	ConsecRTLess200[Block]	ConsecNonResp[Block]	ControlAcc	ConsecSameResp	ExperimenterWindow.OnsetDelay	ExperimenterWindow.OnsetTime	ExperimenterWindow.DurationError	ExperimenterWindow.OnsetToOnsetTime	Stim.OnsetDelay	Stim.OnsetTime	Stim.DurationError	Stim.RTTime	Stim.ACC	Stim.RT	Stim.RESP	Stim.CRESP	Stim.OnsetToOnsetTime	Fix.OnsetDelay	Fix.OnsetTime	Fix.DurationError	Fix.OnsetToOnsetTime	CueTarget.OnsetDelay	CueTarget.OnsetTime	CueTarget.DurationError	CueTarget.OnsetToOnsetTime	Run1Block2	Fix15sec.OnsetDelay	Fix15sec.OnsetTime	Fix15sec.DurationError	Fix15sec.OnsetToOnsetTime	Run1Block3	Run1Block4	Run1Block5	Run1Block6	Run1Block7	Run1Block8	Block	Procedure[Trial]	Stimulus[Trial]	ReadyList	Running[Trial]	ReadyList.Cycle	ReadyList.Sample	SyncSlide.OnsetDelay	SyncSlide.OnsetTime	SyncSlide.DurationError	SyncSlide.FinishTime	SyncSlide.OnsetToOnsetTime	Trial
WM080112	857263_fnca	2	1	1	265082595	1	75.044	75.031	2.0.10.147	2.0.10.242	2.0.10.242	1.0.0.439	7	234	2	3	Verdana	1	80	0	0	0	WM Stimuli\	0.7	1289.14285714286	0.5	1225.8	0.7	999.714285714286	0.7	822.428571428571	0.6	971.666666666667	0.4	785	0.7	1146.42857142857	0.6	941.5	13	315491	2	315479	27	40	315518	-999999	315494	0	22	TRSyncPROC	""	2	2	1	SessionSelectionList	105	6260	-999999	0	28	6913	-999999	0																																																	1	InitialTR	4	1	ReadyList	1	1	20	22040	-21	24019	0	1
WM080112	857263_fnca	2	1	1	265082595	1	75.044	75.031	2.0.10.147	2.0.10.242	2.0.10.242	1.0.0.439	7	234	2	3	Verdana	1	80	0	0	0	WM Stimuli\	0.7	1289.14285714286	0.5	1225.8	0.7	999.714285714286	0.7	822.428571428571	0.6	971.666666666667	0.4	785	0.7	1146.42857142857	0.6	941.5	13	315491	2	315479	27	40	315518	-999999	315494	0	22	TRSyncPROC	""	2	2	1	SessionSelectionList	105	6260	-999999	0	28	6913	-999999	0																																																	1	InitialTR	3	2	ReadyList	1	2	19	24039	-20	26019	0	2
WM080112	857263_fnca	2	1	1	265082595	1	75.044	75.031	2.0.10.147	2.0.10.242	2.0.10.242	1.0.0.439	7	234	2	3	Verdana	1	80	0	0	0	WM Stimuli\	0.7	1289.14285714286	0.5	1225.8	0.7	999.714285714286	0.7	822.428571428571	0.6	971.666666666667	0.4	785	0.7	1146.42857142857	0.6	941.5	13	315491	2	315479	27	40	315518	-999999	315494	0	22	TRSyncPROC	""	2	2	1	SessionSelectionList	105	6260	-999999	0	28	6913	-999999	0																																																	1	InitialTR	2	3	ReadyList	1	3	5	26025	-6	28019	0	3
WM080112	857263_fnca	2	1	1	265082595	1	75.044	75.031	2.0.10.147	2.0.10.242	2.0.10.242	1.0.0.439	7	234	2	3	Verdana	1	80	0	0	0	WM Stimuli\	0.7	1289.14285714286	0.5	1225.8	0.7	999.714285714286	0.7	822.428571428571	0.6	971.666666666667	0.4	785	0.7	1146.42857142857	0.6	941.5	13	315491	2	315479	27	40	315518	-999999	315494	0	22	TRSyncPROC	""	2	2	1	SessionSelectionList	105	6260	-999999	0	28	6913	-999999	0																																																	1	InitialTR	1	4	ReadyList	1	4	4	28024	-5	30019	0	4
WM080112	857263_fnca	2	1	1	265082595	1	75.044	75.031	2.0.10.147	2.0.10.242	2.0.10.242	1.0.0.439	7	234	2	3	Verdana	1	80	0	0	0	WM Stimuli\	0.7	1289.14285714286	0.5	1225.8	0.7	999.714285714286	0.7	822.428571428571	0.6	971.666666666667	0.4	785	0.7	1146.42857142857	0.6	941.5	13	315491	2	315479	27	40	315518	-999999	315494	0	23	Cue2BackPROC	""	2	2	2	SessionSelectionList									16	30036	-17	0																																													2												
WM080112	857263_fnca	2	1	1	265082595	1	75.044	75.031	2.0.10.147	2.0.10.242	2.0.10.242	1.0.0.439	7	234	2	3	Verdana	1	80	0	0	0	WM Stimuli\	0.7	1289.14285714286	0.5	1225.8	0.7	999.714285714286	0.7	822.428571428571	0.6	971.666666666667	0.4	785	0.7	1146.42857142857	0.6	941.5	13	315491	2	315479	27	40	315518	-999999	315494	0	24	TrialsPROC	TO_014_TOOL14_BA.png	2	2	3	SessionSelectionList														nonlure	3	Tools	2-Back	2	80	0	0	1	0	0	53	34648	3	13	75	32595	-1	0	0	0	""	3	2053	66	34661	-67	0																3												
WM080112	857263_fnca	2	1	1	265082595	1	75.044	75.031	2.0.10.147	2.0.10.242	2.0.10.242	1.0.0.439	7	234	2	3	Verdana	1	80	0	0	0	WM Stimuli\	0.7	1289.14285714286	0.5	1225.8	0.7	999.714285714286	0.7	822.428571428571	0.6	971.666666666667	0.4	785	0.7	1146.42857142857	0.6	941.5	13	315491	2	315479	27	40	315518	-999999	315494	0	24	TrialsPROC	TO_013_TOOL13_BA.png	2	2	4	SessionSelectionList														nonlure	3	Tools	2-Back	3	80	1	0	0	0	1	39	37193	2	14	59	35154	-1	37099	1	1945	3	3	2039	53	37207	-54	0																4												
WM080112	857263_fnca	2	1	1	265082595	1	75.044	75.031	2.0.10.147	2.0.10.242	2.0.10.242	1.0.0.439	7	234	2	3	Verdana	1	80	0	0	0	WM Stimuli\	0.7	1289.14285714286	0.5	1225.8	0.7	999.714285714286	0.7	822.428571428571	0.6	971.666666666667	0.4	785	0.7	1146.42857142857	0.6	941.5	13	315491	2	315479	27	40	315518	-999999	315494	0	24	TrialsPROC	TO_016_TOOL16_BA.png	2	2	5	SessionSelectionList														nonlure	3	Tools	2-Back	4	80	2	0	0	0	2	38	39752	2	14	60	37714	-1	38791	1	1077	3	3	2038	52	39766	-53	0																5												
WM080112	857263_fnca	2	1	1	265082595	1	75.044	75.031	2.0.10.147	2.0.10.242	2.0.10.242	1.0.0.439	7	234	2	3	Verdana	1	80	0	0	0	WM Stimuli\	0.7	1289.14285714286	0.5	1225.8	0.7	999.714285714286	0.7	822.428571428571	0.6	971.666666666667	0.4	785	0.7	1146.42857142857	0.6	941.5	13	315491	2	315479	27	40	315518	-999999	315494	0	24	TrialsPROC	TO_014_TOOL14_BA.png	2	2	6	SessionSelectionList														lure	3	Tools	2-Back	5	80	3	0	0	0	1	39	42325	1	13	72	40286	-1	41237	0	951	2	3	2039	52	42338	-53	0																6												
WM080112	857263_fnca	2	1	1	265082595	1	75.044	75.031	2.0.10.147	2.0.10.242	2.0.10.242	1.0.0.439	7	234	2	3	Verdana	1	80	0	0	0	WM Stimuli\	0.7	1289.14285714286	0.5	1225.8	0.7	999.714285714286	0.7	822.428571428571	0.6	971.666666666667	0.4	785	0.7	1146.42857142857	0.6	941.5	13	315491	2	315479	27	40	315518	-999999	315494	0	24	TrialsPROC	TO_016_TOOL16_BA.png	2	2	7	SessionSelectionList														target	2	Tools	2-Back	6	80	4	0	0	0	2	39	44884	1	13	59	42845	-1	44259	1	1414	2	2	2039	52	44897	-53	0																7												
WM080112	857263_fnca	2	1	1	265082595	1	75.044	75.031	2.0.10.147	2.0.10.242	2.0.10.242	1.0.0.439	7	234	2	3	Verdana	1	80	0	0	0	WM Stimuli\	0.7	1289.14285714286	0.5	1225.8	0.7	999.714285714286	0.7	822.428571428571	0.6	971.666666666667	0.4	785	0.7	1146.42857142857	0.6	941.5	13	315491	2	315479	27	40	315518	-999999	315494	0	24	TrialsPROC	TO_018_TOOL18_BA.png	2	2	8	SessionSelectionList														nonlure	3	Tools	2-Back	7	80	5	0	0	0	1	40	47443	1	13	58	45403	-1	46380	1	977	3	3	2040	53	47456	-54	0																8												
WM080112	857263_fnca	2	1	1	265082595	1	75.044	75.031	2.0.10.147	2.0.10.242	2.0.10.242	1.0.0.439	7	234	2	3	Verdana	1	80	0	0	0	WM Stimuli\	0.7	1289.14285714286	0.5	1225.8	0.7	999.714285714286	0.7	822.428571428571	0.6	971.666666666667	0.4	785	0.7	1146.42857142857	0.6	941.5	13	315491	2	315479	27	40	315518	-999999	315494	0	24	TrialsPROC	TO_017_TOOL17_BA.png	2	2	9	SessionSelectionList														nonlure	3	Tools	2-Back	8	80	6	0	0	0	2	39	50001	3	14	59	47962	-1	48828	1	866	3	3	2039	53	50015	-54	0																9												
WM080112	857263_fnca	2	1	1	265082595	1	75.044	75.031	2.0.10.147	2.0.10.242	2.0.10.242	1.0.0.439	7	234	2	3	Verdana	1	80	0	0	0	WM Stimuli\	0.7	1289.14285714286	0.5	1225.8	0.7	999.714285714286	0.7	822.428571428571	0.6	971.666666666667	0.4	785	0.7	1146.42857142857	0.6	941.5	13	315491	2	315479	27	40	315518	-999999	315494	0	24	TrialsPROC	TO_018_TOOL18_BA.png	2	2	10	SessionSelectionList														target	2	Tools	2-Back	9	80	7	0	0	0	1	39	52560	2	14	59	50521	-1	51139	1	618	2	2	2039	53	52574	-54	0																10												
WM080112	857263_fnca	2	1	1	265082595	1	75.044	75.031	2.0.10.147	2.0.10.242	2.0.10.242	1.0.0.439	7	234	2	3	Verdana	1	80	0	0	0	WM Stimuli\	0.7	1289.14285714286	0.5	1225.8	0.7	999.714285714286	0.7	822.428571428571	0.6	971.666666666667	0.4	785	0.7	1146.42857142857	0.6	941.5	13	315491	2	315479	27	40	315518	-999999	315494	0	24	TrialsPROC	TO_015_TOOL15_BA.png	2	2	11	SessionSelectionList														nonlure	3	Tools	2-Back	10	80	8	0	0	0	1	39	55119	2	14	59	53080	-1	54208	1	1128	3	3	2039	53	55133	-54	0																11												
WM080112	857263_fnca	2	1	1	265082595	1	75.044	75.031	2.0.10.147	2.0.10.242	2.0.10.242	1.0.0.439	7	234	2	3	Verdana	1	80	0	0	0	WM Stimuli\	0.7	1289.14285714286	0.5	1225.8	0.7	999.714285714286	0.7	822.428571428571	0.6	971.666666666667	0.4	785	0.7	1146.42857142857	0.6	941.5	13	315491	2	315479	27	40	315518	-999999	315494	0	24	TrialsPROC	TO_017_TOOL17_BA.png	2	2	12	SessionSelectionList														lure	3	Tools	2-Back	11	80	9	0	0	0	1	39	57678	2	14	59	55639	-1	56571	0	932	2	3	2039	53	57692	-54	0																12												
WM080112	857263_fnca	2	1	1	265082595	1	75.044	75.031	2.0.10.147	2.0.10.242	2.0.10.242	1.0.0.439	7	234	2	3	Verdana	1	80	0	0	0	WM Stimuli\	0.7	1289.14285714286	0.5	1225.8	0.7	999.714285714286	0.7	822.428571428571	0.6	971.666666666667	0.4	785	0.7	1146.42857142857	0.6	941.5	13	315491	2	315479	27	40	315518	-999999	315494	0	25	Cue0BackPROC	BP_013_BP7_BA.png	2	2	13	SessionSelectionList																																										19	58158	-20	0												13												
WM080112	857263_fnca	2	1	1	265082595	1	75.044	75.031	2.0.10.147	2.0.10.242	2.0.10.242	1.0.0.439	7	234	2	3	Verdana	1	80	0	0	0	WM Stimuli\	0.7	1289.14285714286	0.5	1225.8	0.7	999.714285714286	0.7	822.428571428571	0.6	971.666666666667	0.4	785	0.7	1146.42857142857	0.6	941.5	13	315491	2	315479	27	40	315518	-999999	315494	0	26	TrialsPROC	BP_015_H10-T_BA.png	2	2	14	SessionSelectionList														nonlure	3	Body	0-Back	12	80	10	0	0	100	1	40	62730	1	13	51	60690	-1	61812	1	1122	3	3	2040	53	62743	-54	0																14												
WM080112	857263_fnca	2	1	1	265082595	1	75.044	75.031	2.0.10.147	2.0.10.242	2.0.10.242	1.0.0.439	7	234	2	3	Verdana	1	80	0	0	0	WM Stimuli\	0.7	1289.14285714286	0.5	1225.8	0.7	999.714285714286	0.7	822.428571428571	0.6	971.666666666667	0.4	785	0.7	1146.42857142857	0.6	941.5	13	315491	2	315479	27	40	315518	-999999	315494	0	26	TrialsPROC	BP_018_H13-T_BA.png	2	2	15	SessionSelectionList														nonlure	3	Body	0-Back	13	80	11	0	0	50	1	38	65288	2	14	60	63250	-1	64191	0	941	2	3	2038	52	65302	-53	0																15												
WM080112	857263_fnca	2	1	1	265082595	1	75.044	75.031	2.0.10.147	2.0.10.242	2.0.10.242	1.0.0.439	7	234	2	3	Verdana	1	80	0	0	0	WM Stimuli\	0.7	1289.14285714286	0.5	1225.8	0.7	999.714285714286	0.7	822.428571428571	0.6	971.666666666667	0.4	785	0.7	1146.42857142857	0.6	941.5	13	315491	2	315479	27	40	315518	-999999	315494	0	26	TrialsPROC	BP_014_BP9_BA.png	2	2	16	SessionSelectionList														nonlure	3	Body	0-Back	14	80	12	0	0	67	1	39	67847	2	14	58	65808	-1	66890	1	1082	3	3	2039	53	67861	-54	0																16												
WM080112	857263_fnca	2	1	1	265082595	1	75.044	75.031	2.0.10.147	2.0.10.242	2.0.10.242	1.0.0.439	7	234	2	3	Verdana	1	80	0	0	0	WM Stimuli\	0.7	1289.14285714286	0.5	1225.8	0.7	999.714285714286	0.7	822.428571428571	0.6	971.666666666667	0.4	785	0.7	1146.42857142857	0.6	941.5	13	315491	2	315479	27	40	315518	-999999	315494	0	26	TrialsPROC	BP_018_H13-T_BA.png	2	2	17	SessionSelectionList														lure	3	Body	0-Back	15	80	13	0	0	50	1	39	70406	2	14	59	68367	-1	69262	0	895	2	3	2039	53	70420	-54	0																17												
WM080112	857263_fnca	2	1	1	265082595	1	75.044	75.031	2.0.10.147	2.0.10.242	2.0.10.242	1.0.0.439	7	234	2	3	Verdana	1	80	0	0	0	WM Stimuli\	0.7	1289.14285714286	0.5	1225.8	0.7	999.714285714286	0.7	822.428571428571	0.6	971.666666666667	0.4	785	0.7	1146.42857142857	0.6	941.5	13	315491	2	315479	27	40	315518	-999999	315494	0	26	TrialsPROC	BP_013_BP7_BA.png	2	2	18	SessionSelectionList														target	2	Body	0-Back	16	80	14	0	0	60	2	38	72965	2	14	60	70927	-1	72101	1	1174	2	2	2038	52	72979	-53	0																18												
WM080112	857263_fnca	2	1	1	265082595	1	75.044	75.031	2.0.10.147	2.0.10.242	2.0.10.242	1.0.0.439	7	234	2	3	Verdana	1	80	0	0	0	WM Stimuli\	0.7	1289.14285714286	0.5	1225.8	0.7	999.714285714286	0.7	822.428571428571	0.6	971.666666666667	0.4	785	0.7	1146.42857142857	0.6	941.5	13	315491	2	315479	27	40	315518	-999999	315494	0	26	TrialsPROC	BP_015_H10-T_BA.png	2	2	19	SessionSelectionList														lure	3	Body	0-Back	17	80	14	0	1	50	2	39	75524	2	14	58	73485	-1	0	0	0	""	3	2039	53	75538	-54	0																19												
WM080112	857263_fnca	2	1	1	265082595	1	75.044	75.031	2.0.10.147	2.0.10.242	2.0.10.242	1.0.0.439	7	234	2	3	Verdana	1	80	0	0	0	WM Stimuli\	0.7	1289.14285714286	0.5	1225.8	0.7	999.714285714286	0.7	822.428571428571	0.6	971.666666666667	0.4	785	0.7	1146.42857142857	0.6	941.5	13	315491	2	315479	27	40	315518	-999999	315494	0	26	TrialsPROC	BP_016_H11-T_BA.png	2	2	20	SessionSelectionList														nonlure	3	Body	0-Back	18	80	15	0	0	43	1	39	78096	2	14	72	76057	-1	76804	0	747	2	3	2039	53	78110	-54	0																20												
WM080112	857263_fnca	2	1	1	265082595	1	75.044	75.031	2.0.10.147	2.0.10.242	2.0.10.242	1.0.0.439	7	234	2	3	Verdana	1	80	0	0	0	WM Stimuli\	0.7	1289.14285714286	0.5	1225.8	0.7	999.714285714286	0.7	822.428571428571	0.6	971.666666666667	0.4	785	0.7	1146.42857142857	0.6	941.5	13	315491	2	315479	27	40	315518	-999999	315494	0	26	TrialsPROC	BP_013_BP7_BA.png	2	2	21	SessionSelectionList														target	2	Body	0-Back	19	80	16	0	0	50	2	38	80655	2	14	60	78617	-1	80212	1	1595	2	2	2038	52	80669	-53	0																21												
WM080112	857263_fnca	2	1	1	265082595	1	75.044	75.031	2.0.10.147	2.0.10.242	2.0.10.242	1.0.0.439	7	234	2	3	Verdana	1	80	0	0	0	WM Stimuli\	0.7	1289.14285714286	0.5	1225.8	0.7	999.714285714286	0.7	822.428571428571	0.6	971.666666666667	0.4	785	0.7	1146.42857142857	0.6	941.5	13	315491	2	315479	27	40	315518	-999999	315494	0	26	TrialsPROC	BP_017_H12-T_BA.png	2	2	22	SessionSelectionList														nonlure	3	Body	0-Back	20	80	17	0	0	56	1	38	83214	2	14	59	81176	-1	82332	1	1156	3	3	2038	52	83228	-53	0																22												
WM080112	857263_fnca	2	1	1	265082595	1	75.044	75.031	2.0.10.147	2.0.10.242	2.0.10.242	1.0.0.439	7	234	2	3	Verdana	1	80	0	0	0	WM Stimuli\	0.7	1289.14285714286	0.5	1225.8	0.7	999.714285714286	0.7	822.428571428571	0.6	971.666666666667	0.4	785	0.7	1146.42857142857	0.6	941.5	13	315491	2	315479	27	40	315518	-999999	315494	0	26	TrialsPROC	BP_014_BP9_BA.png	2	2	23	SessionSelectionList														lure	3	Body	0-Back	21	80	18	0	0	50	1	39	85773	2	14	58	83734	-1	84735	0	1001	2	3	2039	53	85787	-54	0																23												
WM080112	857263_fnca	2	1	1	265082595	1	75.044	75.031	2.0.10.147	2.0.10.242	2.0.10.242	1.0.0.439	7	234	2	3	Verdana	1	80	0	0	0	WM Stimuli\	0.7	1289.14285714286	0.5	1225.8	0.7	999.714285714286	0.7	822.428571428571	0.6	971.666666666667	0.4	785	0.7	1146.42857142857	0.6	941.5	13	315491	2	315479	27	40	315518	-999999	315494	0	27	Fix15secPROC	""	2	2	24	SessionSelectionList																																															6	86240	-7	0							24												
WM080112	857263_fnca	2	1	1	265082595	1	75.044	75.031	2.0.10.147	2.0.10.242	2.0.10.242	1.0.0.439	7	234	2	3	Verdana	1	80	0	0	0	WM Stimuli\	0.7	1289.14285714286	0.5	1225.8	0.7	999.714285714286	0.7	822.428571428571	0.6	971.666666666667	0.4	785	0.7	1146.42857142857	0.6	941.5	13	315491	2	315479	27	40	315518	-999999	315494	0	28	Cue2BackPROC	""	2	2	25	SessionSelectionList									13	101247	-14	0																																													25												
WM080112	857263_fnca	2	1	1	265082595	1	75.044	75.031	2.0.10.147	2.0.10.242	2.0.10.242	1.0.0.439	7	234	2	3	Verdana	1	80	0	0	0	WM Stimuli\	0.7	1289.14285714286	0.5	1225.8	0.7	999.714285714286	0.7	822.428571428571	0.6	971.666666666667	0.4	785	0.7	1146.42857142857	0.6	941.5	13	315491	2	315479	27	40	315518	-999999	315494	0	29	TrialsPROC	FC_015_M8.png	2	2	26	SessionSelectionList														nonlure	3	Face	2-Back	22	80	18	0	1	50	1	39	105845	1	13	72	103806	-1	0	0	0	""	3	2039	52	105858	-53	0																26												
WM080112	857263_fnca	2	1	1	265082595	1	75.044	75.031	2.0.10.147	2.0.10.242	2.0.10.242	1.0.0.439	7	234	2	3	Verdana	1	80	0	0	0	WM Stimuli\	0.7	1289.14285714286	0.5	1225.8	0.7	999.714285714286	0.7	822.428571428571	0.6	971.666666666667	0.4	785	0.7	1146.42857142857	0.6	941.5	13	315491	2	315479	27	40	315518	-999999	315494	0	29	TrialsPROC	FC_018_F9.png	2	2	27	SessionSelectionList														nonlure	3	Face	2-Back	23	80	19	0	0	50	1	39	108417	2	14	72	106378	-1	107251	1	873	3	3	2039	53	108431	-54	0																27												
WM080112	857263_fnca	2	1	1	265082595	1	75.044	75.031	2.0.10.147	2.0.10.242	2.0.10.242	1.0.0.439	7	234	2	3	Verdana	1	80	0	0	0	WM Stimuli\	0.7	1289.14285714286	0.5	1225.8	0.7	999.714285714286	0.7	822.428571428571	0.6	971.666666666667	0.4	785	0.7	1146.42857142857	0.6	941.5	13	315491	2	315479	27	40	315518	-999999	315494	0	29	TrialsPROC	FC_018_F9.png	2	2	28	SessionSelectionList														lure	3	Face	2-Back	24	80	20	0	0	50	1	39	110989	2	14	72	108950	-1	109799	0	849	2	3	2039	53	111003	-54	0																28												
WM080112	857263_fnca	2	1	1	265082595	1	75.044	75.031	2.0.10.147	2.0.10.242	2.0.10.242	1.0.0.439	7	234	2	3	Verdana	1	80	0	0	0	WM Stimuli\	0.7	1289.14285714286	0.5	1225.8	0.7	999.714285714286	0.7	822.428571428571	0.6	971.666666666667	0.4	785	0.7	1146.42857142857	0.6	941.5	13	315491	2	315479	27	40	315518	-999999	315494	0	29	TrialsPROC	FC_017_M9.png	2	2	29	SessionSelectionList														nonlure	3	Face	2-Back	25	80	21	0	0	50	1	39	113562	1	13	73	111523	-1	112480	1	957	3	3	2039	52	113575	-53	0																29												
WM080112	857263_fnca	2	1	1	265082595	1	75.044	75.031	2.0.10.147	2.0.10.242	2.0.10.242	1.0.0.439	7	234	2	3	Verdana	1	80	0	0	0	WM Stimuli\	0.7	1289.14285714286	0.5	1225.8	0.7	999.714285714286	0.7	822.428571428571	0.6	971.666666666667	0.4	785	0.7	1146.42857142857	0.6	941.5	13	315491	2	315479	27	40	315518	-999999	315494	0	29	TrialsPROC	FC_017_M9.png	2	2	30	SessionSelectionList														lure	3	Face	2-Back	26	80	22	0	0	50	1	39	116134	1	13	72	114095	-1	114985	0	890	2	3	2039	52	116147	-53	0																30												
WM080112	857263_fnca	2	1	1	265082595	1	75.044	75.031	2.0.10.147	2.0.10.242	2.0.10.242	1.0.0.439	7	234	2	3	Verdana	1	80	0	0	0	WM Stimuli\	0.7	1289.14285714286	0.5	1225.8	0.7	999.714285714286	0.7	822.428571428571	0.6	971.666666666667	0.4	785	0.7	1146.42857142857	0.6	941.5	13	315491	2	315479	27	40	315518	-999999	315494	0	29	TrialsPROC	FC_016_F8.png	2	2	31	SessionSelectionList														nonlure	3	Face	2-Back	27	80	23	0	0	50	1	39	118706	2	14	72	116667	-1	117741	1	1074	3	3	2039	53	118720	-54	0																31												
WM080112	857263_fnca	2	1	1	265082595	1	75.044	75.031	2.0.10.147	2.0.10.242	2.0.10.242	1.0.0.439	7	234	2	3	Verdana	1	80	0	0	0	WM Stimuli\	0.7	1289.14285714286	0.5	1225.8	0.7	999.714285714286	0.7	822.428571428571	0.6	971.666666666667	0.4	785	0.7	1146.42857142857	0.6	941.5	13	315491	2	315479	27	40	315518	-999999	315494	0	29	TrialsPROC	FC_013_M7.png	2	2	32	SessionSelectionList														nonlure	3	Face	2-Back	28	80	24	0	0	50	2	39	121278	2	14	72	119239	-1	120323	1	1084	3	3	2039	53	121292	-54	0																32												
WM080112	857263_fnca	2	1	1	265082595	1	75.044	75.031	2.0.10.147	2.0.10.242	2.0.10.242	1.0.0.439	7	234	2	3	Verdana	1	80	0	0	0	WM Stimuli\	0.7	1289.14285714286	0.5	1225.8	0.7	999.714285714286	0.7	822.428571428571	0.6	971.666666666667	0.4	785	0.7	1146.42857142857	0.6	941.5	13	315491	2	315479	27	40	315518	-999999	315494	0	29	TrialsPROC	FC_014_F7.png	2	2	33	SessionSelectionList														nonlure	3	Face	2-Back	29	80	25	0	0	50	3	39	123851	1	13	73	121812	-1	123063	1	1251	3	3	2039	52	123864	-53	0																33												
WM080112	857263_fnca	2	1	1	265082595	1	75.044	75.031	2.0.10.147	2.0.10.242	2.0.10.242	1.0.0.439	7	234	2	3	Verdana	1	80	0	0	0	WM Stimuli\	0.7	1289.14285714286	0.5	1225.8	0.7	999.714285714286	0.7	822.428571428571	0.6	971.666666666667	0.4	785	0.7	1146.42857142857	0.6	941.5	13	315491	2	315479	27	40	315518	-999999	315494	0	29	TrialsPROC	FC_013_M7.png	2	2	34	SessionSelectionList														target	2	Face	2-Back	30	80	26	0	0	50	1	39	126423	1	13	72	124384	-1	125085	1	701	2	2	2039	52	126436	-53	0																34												
WM080112	857263_fnca	2	1	1	265082595	1	75.044	75.031	2.0.10.147	2.0.10.242	2.0.10.242	1.0.0.439	7	234	2	3	Verdana	1	80	0	0	0	WM Stimuli\	0.7	1289.14285714286	0.5	1225.8	0.7	999.714285714286	0.7	822.428571428571	0.6	971.666666666667	0.4	785	0.7	1146.42857142857	0.6	941.5	13	315491	2	315479	27	40	315518	-999999	315494	0	29	TrialsPROC	FC_014_F7.png	2	2	35	SessionSelectionList														target	2	Face	2-Back	31	80	27	0	0	50	2	39	128995	2	14	72	126956	-1	128014	1	1058	2	2	2039	53	129009	-54	0																35												
WM080112	857263_fnca	2	1	1	265082595	1	75.044	75.031	2.0.10.147	2.0.10.242	2.0.10.242	1.0.0.439	7	234	2	3	Verdana	1	80	0	0	0	WM Stimuli\	0.7	1289.14285714286	0.5	1225.8	0.7	999.714285714286	0.7	822.428571428571	0.6	971.666666666667	0.4	785	0.7	1146.42857142857	0.6	941.5	13	315491	2	315479	27	40	315518	-999999	315494	0	30	Cue0BackPROC	TO_019_TOOL19_BA.png	2	2	36	SessionSelectionList																																										19	129475	-20	0												36												
WM080112	857263_fnca	2	1	1	265082595	1	75.044	75.031	2.0.10.147	2.0.10.242	2.0.10.242	1.0.0.439	7	234	2	3	Verdana	1	80	0	0	0	WM Stimuli\	0.7	1289.14285714286	0.5	1225.8	0.7	999.714285714286	0.7	822.428571428571	0.6	971.666666666667	0.4	785	0.7	1146.42857142857	0.6	941.5	13	315491	2	315479	27	40	315518	-999999	315494	0	31	TrialsPROC	TO_019_TOOL19_BA.png	2	2	37	SessionSelectionList														target	2	Tools	0-Back	32	80	27	0	1	45	2	40	134047	1	13	51	132007	-1	0	0	0	""	2	2040	53	134060	-54	0																37												
WM080112	857263_fnca	2	1	1	265082595	1	75.044	75.031	2.0.10.147	2.0.10.242	2.0.10.242	1.0.0.439	7	234	2	3	Verdana	1	80	0	0	0	WM Stimuli\	0.7	1289.14285714286	0.5	1225.8	0.7	999.714285714286	0.7	822.428571428571	0.6	971.666666666667	0.4	785	0.7	1146.42857142857	0.6	941.5	13	315491	2	315479	27	40	315518	-999999	315494	0	31	TrialsPROC	TO_024_TOOL24_BA.png	2	2	38	SessionSelectionList														nonlure	3	Tools	0-Back	33	80	28	0	0	50	1	38	136605	2	14	60	134567	-1	135360	1	793	3	3	2038	52	136619	-53	0																38												
WM080112	857263_fnca	2	1	1	265082595	1	75.044	75.031	2.0.10.147	2.0.10.242	2.0.10.242	1.0.0.439	7	234	2	3	Verdana	1	80	0	0	0	WM Stimuli\	0.7	1289.14285714286	0.5	1225.8	0.7	999.714285714286	0.7	822.428571428571	0.6	971.666666666667	0.4	785	0.7	1146.42857142857	0.6	941.5	13	315491	2	315479	27	40	315518	-999999	315494	0	31	TrialsPROC	TO_019_TOOL19_BA.png	2	2	39	SessionSelectionList														target	2	Tools	0-Back	34	80	29	0	0	54	1	39	139164	2	14	58	137125	-1	137726	1	601	2	2	2039	53	139178	-54	0																39												
WM080112	857263_fnca	2	1	1	265082595	1	75.044	75.031	2.0.10.147	2.0.10.242	2.0.10.242	1.0.0.439	7	234	2	3	Verdana	1	80	0	0	0	WM Stimuli\	0.7	1289.14285714286	0.5	1225.8	0.7	999.714285714286	0.7	822.428571428571	0.6	971.666666666667	0.4	785	0.7	1146.42857142857	0.6	941.5	13	315491	2	315479	27	40	315518	-999999	315494	0	31	TrialsPROC	TO_023_TOOL23_BA.png	2	2	40	SessionSelectionList														nonlure	3	Tools	0-Back	35	80	30	0	0	57	1	38	141723	2	14	60	139685	-1	140832	1	1147	3	3	2038	52	141737	-53	0																40												
WM080112	857263_fnca	2	1	1	265082595	1	75.044	75.031	2.0.10.147	2.0.10.242	2.0.10.242	1.0.0.439	7	234	2	3	Verdana	1	80	0	0	0	WM Stimuli\	0.7	1289.14285714286	0.5	1225.8	0.7	999.714285714286	0.7	822.428571428571	0.6	971.666666666667	0.4	785	0.7	1146.42857142857	0.6	941.5	13	315491	2	315479	27	40	315518	-999999	315494	0	31	TrialsPROC	TO_020_TOOL20_BA.png	2	2	41	SessionSelectionList														nonlure	3	Tools	0-Back	36	80	31	0	0	60	2	39	144282	2	14	58	142243	-1	143099	1	856	3	3	2039	53	144296	-54	0																41												
WM080112	857263_fnca	2	1	1	265082595	1	75.044	75.031	2.0.10.147	2.0.10.242	2.0.10.242	1.0.0.439	7	234	2	3	Verdana	1	80	0	0	0	WM Stimuli\	0.7	1289.14285714286	0.5	1225.8	0.7	999.714285714286	0.7	822.428571428571	0.6	971.666666666667	0.4	785	0.7	1146.42857142857	0.6	941.5	13	315491	2	315479	27	40	315518	-999999	315494	0	31	TrialsPROC	TO_020_TOOL20_BA.png	2	2	42	SessionSelectionList														lure	3	Tools	0-Back	37	80	32	0	0	56	1	39	146841	2	14	59	144802	-1	145466	0	664	2	3	2039	53	146855	-54	0																42												
WM080112	857263_fnca	2	1	1	265082595	1	75.044	75.031	2.0.10.147	2.0.10.242	2.0.10.242	1.0.0.439	7	234	2	3	Verdana	1	80	0	0	0	WM Stimuli\	0.7	1289.14285714286	0.5	1225.8	0.7	999.714285714286	0.7	822.428571428571	0.6	971.666666666667	0.4	785	0.7	1146.42857142857	0.6	941.5	13	315491	2	315479	27	40	315518	-999999	315494	0	31	TrialsPROC	TO_022_TOOL22_BA.png	2	2	43	SessionSelectionList														nonlure	3	Tools	0-Back	38	80	33	0	0	59	1	39	149400	2	14	59	147361	-1	148765	1	1404	3	3	2039	53	149414	-54	0																43												
WM080112	857263_fnca	2	1	1	265082595	1	75.044	75.031	2.0.10.147	2.0.10.242	2.0.10.242	1.0.0.439	7	234	2	3	Verdana	1	80	0	0	0	WM Stimuli\	0.7	1289.14285714286	0.5	1225.8	0.7	999.714285714286	0.7	822.428571428571	0.6	971.666666666667	0.4	785	0.7	1146.42857142857	0.6	941.5	13	315491	2	315479	27	40	315518	-999999	315494	0	31	TrialsPROC	TO_022_TOOL22_BA.png	2	2	44	SessionSelectionList														lure	3	Tools	0-Back	39	80	34	0	0	56	1	39	151959	2	14	59	149920	-1	150710	0	790	2	3	2039	53	151973	-54	0																44												
WM080112	857263_fnca	2	1	1	265082595	1	75.044	75.031	2.0.10.147	2.0.10.242	2.0.10.242	1.0.0.439	7	234	2	3	Verdana	1	80	0	0	0	WM Stimuli\	0.7	1289.14285714286	0.5	1225.8	0.7	999.714285714286	0.7	822.428571428571	0.6	971.666666666667	0.4	785	0.7	1146.42857142857	0.6	941.5	13	315491	2	315479	27	40	315518	-999999	315494	0	31	TrialsPROC	TO_021_TOOL21_BA.png	2	2	45	SessionSelectionList														nonlure	3	Tools	0-Back	40	80	35	0	0	58	1	39	154518	1	13	59	152479	-1	153327	1	848	3	3	2039	52	154531	-53	0																45												
WM080112	857263_fnca	2	1	1	265082595	1	75.044	75.031	2.0.10.147	2.0.10.242	2.0.10.242	1.0.0.439	7	234	2	3	Verdana	1	80	0	0	0	WM Stimuli\	0.7	1289.14285714286	0.5	1225.8	0.7	999.714285714286	0.7	822.428571428571	0.6	971.666666666667	0.4	785	0.7	1146.42857142857	0.6	941.5	13	315491	2	315479	27	40	315518	-999999	315494	0	31	TrialsPROC	TO_021_TOOL21_BA.png	2	2	46	SessionSelectionList														lure	3	Tools	0-Back	41	80	36	0	0	55	1	39	157077	1	13	59	155038	-1	155679	0	641	2	3	2039	52	157090	-53	0																46												
WM080112	857263_fnca	2	1	1	265082595	1	75.044	75.031	2.0.10.147	2.0.10.242	2.0.10.242	1.0.0.439	7	234	2	3	Verdana	1	80	0	0	0	WM Stimuli\	0.7	1289.14285714286	0.5	1225.8	0.7	999.714285714286	0.7	822.428571428571	0.6	971.666666666667	0.4	785	0.7	1146.42857142857	0.6	941.5	13	315491	2	315479	27	40	315518	-999999	315494	0	32	Fix15secPROC	""	2	2	47	SessionSelectionList																																															6	157544	-7	0							47												
WM080112	857263_fnca	2	1	1	265082595	1	75.044	75.031	2.0.10.147	2.0.10.242	2.0.10.242	1.0.0.439	7	234	2	3	Verdana	1	80	0	0	0	WM Stimuli\	0.7	1289.14285714286	0.5	1225.8	0.7	999.714285714286	0.7	822.428571428571	0.6	971.666666666667	0.4	785	0.7	1146.42857142857	0.6	941.5	13	315491	2	315479	27	40	315518	-999999	315494	0	33	Cue2BackPROC	""	2	2	48	SessionSelectionList									13	172551	-14	0																																													48												
WM080112	857263_fnca	2	1	1	265082595	1	75.044	75.031	2.0.10.147	2.0.10.242	2.0.10.242	1.0.0.439	7	234	2	3	Verdana	1	80	0	0	0	WM Stimuli\	0.7	1289.14285714286	0.5	1225.8	0.7	999.714285714286	0.7	822.428571428571	0.6	971.666666666667	0.4	785	0.7	1146.42857142857	0.6	941.5	13	315491	2	315479	27	40	315518	-999999	315494	0	34	TrialsPROC	BP_020_H17-T_BA.png	2	2	49	SessionSelectionList														nonlure	3	Body	2-Back	42	80	36	0	1	55	1	39	177135	2	14	58	175096	-1	0	0	0	""	3	2039	53	177149	-54	0																49												
WM080112	857263_fnca	2	1	1	265082595	1	75.044	75.031	2.0.10.147	2.0.10.242	2.0.10.242	1.0.0.439	7	234	2	3	Verdana	1	80	0	0	0	WM Stimuli\	0.7	1289.14285714286	0.5	1225.8	0.7	999.714285714286	0.7	822.428571428571	0.6	971.666666666667	0.4	785	0.7	1146.42857142857	0.6	941.5	13	315491	2	315479	27	40	315518	-999999	315494	0	34	TrialsPROC	BP_019_H14-T_BA.png	2	2	50	SessionSelectionList														nonlure	3	Body	2-Back	43	80	37	0	0	55	1	40	179708	1	13	72	177668	-1	179275	1	1607	3	3	2040	53	179721	-54	0																50												
WM080112	857263_fnca	2	1	1	265082595	1	75.044	75.031	2.0.10.147	2.0.10.242	2.0.10.242	1.0.0.439	7	234	2	3	Verdana	1	80	0	0	0	WM Stimuli\	0.7	1289.14285714286	0.5	1225.8	0.7	999.714285714286	0.7	822.428571428571	0.6	971.666666666667	0.4	785	0.7	1146.42857142857	0.6	941.5	13	315491	2	315479	27	40	315518	-999999	315494	0	34	TrialsPROC	BP_020_H17-T_BA.png	2	2	51	SessionSelectionList														target	2	Body	2-Back	44	80	38	0	0	55	1	38	182266	2	14	60	180228	-1	180853	1	625	2	2	2038	52	182280	-53	0																51												
WM080112	857263_fnca	2	1	1	265082595	1	75.044	75.031	2.0.10.147	2.0.10.242	2.0.10.242	1.0.0.439	7	234	2	3	Verdana	1	80	0	0	0	WM Stimuli\	0.7	1289.14285714286	0.5	1225.8	0.7	999.714285714286	0.7	822.428571428571	0.6	971.666666666667	0.4	785	0.7	1146.42857142857	0.6	941.5	13	315491	2	315479	27	40	315518	-999999	315494	0	34	TrialsPROC	BP_019_H14-T_BA.png	2	2	52	SessionSelectionList														target	2	Body	2-Back	45	80	39	0	0	55	2	38	184825	3	14	59	182787	-1	184436	1	1649	2	2	2038	52	184839	-53	0																52												
WM080112	857263_fnca	2	1	1	265082595	1	75.044	75.031	2.0.10.147	2.0.10.242	2.0.10.242	1.0.0.439	7	234	2	3	Verdana	1	80	0	0	0	WM Stimuli\	0.7	1289.14285714286	0.5	1225.8	0.7	999.714285714286	0.7	822.428571428571	0.6	971.666666666667	0.4	785	0.7	1146.42857142857	0.6	941.5	13	315491	2	315479	27	40	315518	-999999	315494	0	34	TrialsPROC	BP_024_H3-T_BA.png	2	2	53	SessionSelectionList														nonlure	3	Body	2-Back	46	80	40	0	0	55	1	39	187398	1	13	72	185359	-1	186873	1	1514	3	3	2039	52	187411	-53	0																53												
WM080112	857263_fnca	2	1	1	265082595	1	75.044	75.031	2.0.10.147	2.0.10.242	2.0.10.242	1.0.0.439	7	234	2	3	Verdana	1	80	0	0	0	WM Stimuli\	0.7	1289.14285714286	0.5	1225.8	0.7	999.714285714286	0.7	822.428571428571	0.6	971.666666666667	0.4	785	0.7	1146.42857142857	0.6	941.5	13	315491	2	315479	27	40	315518	-999999	315494	0	34	TrialsPROC	BP_024_H3-T_BA.png	2	2	54	SessionSelectionList														lure	3	Body	2-Back	47	80	41	0	0	55	1	40	189957	1	13	58	187917	-1	188577	0	660	2	3	2040	53	189970	-54	0																54												
WM080112	857263_fnca	2	1	1	265082595	1	75.044	75.031	2.0.10.147	2.0.10.242	2.0.10.242	1.0.0.439	7	234	2	3	Verdana	1	80	0	0	0	WM Stimuli\	0.7	1289.14285714286	0.5	1225.8	0.7	999.714285714286	0.7	822.428571428571	0.6	971.666666666667	0.4	785	0.7	1146.42857142857	0.6	941.5	13	315491	2	315479	27	40	315518	-999999	315494	0	34	TrialsPROC	BP_025_H5-T_BA.png	2	2	55	SessionSelectionList														nonlure	3	Body	2-Back	48	80	42	0	0	55	1	39	192516	1	13	60	190477	-1	191649	1	1172	3	3	2039	52	192529	-53	0																55												
WM080112	857263_fnca	2	1	1	265082595	1	75.044	75.031	2.0.10.147	2.0.10.242	2.0.10.242	1.0.0.439	7	234	2	3	Verdana	1	80	0	0	0	WM Stimuli\	0.7	1289.14285714286	0.5	1225.8	0.7	999.714285714286	0.7	822.428571428571	0.6	971.666666666667	0.4	785	0.7	1146.42857142857	0.6	941.5	13	315491	2	315479	27	40	315518	-999999	315494	0	34	TrialsPROC	BP_023_H25-T_BA.png	2	2	56	SessionSelectionList														nonlure	3	Body	2-Back	49	80	43	0	0	55	2	39	195074	2	14	58	193035	-1	194231	1	1196	3	3	2039	53	195088	-54	0																56												
WM080112	857263_fnca	2	1	1	265082595	1	75.044	75.031	2.0.10.147	2.0.10.242	2.0.10.242	1.0.0.439	7	234	2	3	Verdana	1	80	0	0	0	WM Stimuli\	0.7	1289.14285714286	0.5	1225.8	0.7	999.714285714286	0.7	822.428571428571	0.6	971.666666666667	0.4	785	0.7	1146.42857142857	0.6	941.5	13	315491	2	315479	27	40	315518	-999999	315494	0	34	TrialsPROC	BP_022_H24-T_BA.png	2	2	57	SessionSelectionList														nonlure	3	Body	2-Back	50	80	44	0	0	55	3	38	197633	2	14	60	195595	-1	196856	1	1261	3	3	2038	52	197647	-53	0																57												
WM080112	857263_fnca	2	1	1	265082595	1	75.044	75.031	2.0.10.147	2.0.10.242	2.0.10.242	1.0.0.439	7	234	2	3	Verdana	1	80	0	0	0	WM Stimuli\	0.7	1289.14285714286	0.5	1225.8	0.7	999.714285714286	0.7	822.428571428571	0.6	971.666666666667	0.4	785	0.7	1146.42857142857	0.6	941.5	13	315491	2	315479	27	40	315518	-999999	315494	0	34	TrialsPROC	BP_022_H24-T_BA.png	2	2	58	SessionSelectionList														lure	3	Body	2-Back	51	80	45	0	0	55	1	39	200192	2	14	58	198153	-1	198867	0	714	2	3	2039	53	200206	-54	0																58												
WM080112	857263_fnca	2	1	1	265082595	1	75.044	75.031	2.0.10.147	2.0.10.242	2.0.10.242	1.0.0.439	7	234	2	3	Verdana	1	80	0	0	0	WM Stimuli\	0.7	1289.14285714286	0.5	1225.8	0.7	999.714285714286	0.7	822.428571428571	0.6	971.666666666667	0.4	785	0.7	1146.42857142857	0.6	941.5	13	315491	2	315479	27	40	315518	-999999	315494	0	35	Cue2BackPROC	""	2	2	59	SessionSelectionList									6	200659	-7	0																																													59												
WM080112	857263_fnca	2	1	1	265082595	1	75.044	75.031	2.0.10.147	2.0.10.242	2.0.10.242	1.0.0.439	7	234	2	3	Verdana	1	80	0	0	0	WM Stimuli\	0.7	1289.14285714286	0.5	1225.8	0.7	999.714285714286	0.7	822.428571428571	0.6	971.666666666667	0.4	785	0.7	1146.42857142857	0.6	941.5	13	315491	2	315479	27	40	315518	-999999	315494	0	36	TrialsPROC	PL_019_SCENE_05.png	2	2	60	SessionSelectionList														nonlure	3	Place	2-Back	52	80	45	0	1	55	1	39	205257	1	13	65	203218	-1	0	0	0	""	3	2039	52	205270	-53	0																60												
WM080112	857263_fnca	2	1	1	265082595	1	75.044	75.031	2.0.10.147	2.0.10.242	2.0.10.242	1.0.0.439	7	234	2	3	Verdana	1	80	0	0	0	WM Stimuli\	0.7	1289.14285714286	0.5	1225.8	0.7	999.714285714286	0.7	822.428571428571	0.6	971.666666666667	0.4	785	0.7	1146.42857142857	0.6	941.5	13	315491	2	315479	27	40	315518	-999999	315494	0	36	TrialsPROC	PL_017_SCENE_03.png	2	2	61	SessionSelectionList														nonlure	3	Place	2-Back	53	80	46	0	0	55	1	39	207829	2	14	72	205790	-1	206349	1	559	3	3	2039	53	207843	-54	0																61												
WM080112	857263_fnca	2	1	1	265082595	1	75.044	75.031	2.0.10.147	2.0.10.242	2.0.10.242	1.0.0.439	7	234	2	3	Verdana	1	80	0	0	0	WM Stimuli\	0.7	1289.14285714286	0.5	1225.8	0.7	999.714285714286	0.7	822.428571428571	0.6	971.666666666667	0.4	785	0.7	1146.42857142857	0.6	941.5	13	315491	2	315479	27	40	315518	-999999	315494	0	36	TrialsPROC	PL_017_SCENE_03.png	2	2	62	SessionSelectionList														lure	3	Place	2-Back	54	80	47	0	0	55	1	39	210401	2	14	72	208362	-1	209610	0	1248	2	3	2039	53	210415	-54	0																62												
WM080112	857263_fnca	2	1	1	265082595	1	75.044	75.031	2.0.10.147	2.0.10.242	2.0.10.242	1.0.0.439	7	234	2	3	Verdana	1	80	0	0	0	WM Stimuli\	0.7	1289.14285714286	0.5	1225.8	0.7	999.714285714286	0.7	822.428571428571	0.6	971.666666666667	0.4	785	0.7	1146.42857142857	0.6	941.5	13	315491	2	315479	27	40	315518	-999999	315494	0	36	TrialsPROC	PL_016_SCENE_02.png	2	2	63	SessionSelectionList														nonlure	3	Place	2-Back	55	80	48	0	0	55	1	39	212974	1	13	73	210935	-1	211718	1	783	3	3	2039	52	212987	-53	0																63												
WM080112	857263_fnca	2	1	1	265082595	1	75.044	75.031	2.0.10.147	2.0.10.242	2.0.10.242	1.0.0.439	7	234	2	3	Verdana	1	80	0	0	0	WM Stimuli\	0.7	1289.14285714286	0.5	1225.8	0.7	999.714285714286	0.7	822.428571428571	0.6	971.666666666667	0.4	785	0.7	1146.42857142857	0.6	941.5	13	315491	2	315479	27	40	315518	-999999	315494	0	36	TrialsPROC	PL_015_SCENE_01.png	2	2	64	SessionSelectionList														nonlure	3	Place	2-Back	56	80	48	0	1	55	1	39	215546	1	13	72	213507	-1	0	0	0	""	3	2039	52	215559	-53	0																64												
WM080112	857263_fnca	2	1	1	265082595	1	75.044	75.031	2.0.10.147	2.0.10.242	2.0.10.242	1.0.0.439	7	234	2	3	Verdana	1	80	0	0	0	WM Stimuli\	0.7	1289.14285714286	0.5	1225.8	0.7	999.714285714286	0.7	822.428571428571	0.6	971.666666666667	0.4	785	0.7	1146.42857142857	0.6	941.5	13	315491	2	315479	27	40	315518	-999999	315494	0	36	TrialsPROC	PL_016_SCENE_02.png	2	2	65	SessionSelectionList														target	2	Place	2-Back	57	80	49	0	0	55	1	39	218118	2	14	72	216079	-1	216928	1	849	2	2	2039	53	218132	-54	0																65												
WM080112	857263_fnca	2	1	1	265082595	1	75.044	75.031	2.0.10.147	2.0.10.242	2.0.10.242	1.0.0.439	7	234	2	3	Verdana	1	80	0	0	0	WM Stimuli\	0.7	1289.14285714286	0.5	1225.8	0.7	999.714285714286	0.7	822.428571428571	0.6	971.666666666667	0.4	785	0.7	1146.42857142857	0.6	941.5	13	315491	2	315479	27	40	315518	-999999	315494	0	36	TrialsPROC	PL_015_SCENE_01.png	2	2	66	SessionSelectionList														target	2	Place	2-Back	58	80	50	0	0	55	2	39	220690	2	14	72	218651	-1	220219	1	1568	2	2	2039	53	220704	-54	0																66												
WM080112	857263_fnca	2	1	1	265082595	1	75.044	75.031	2.0.10.147	2.0.10.242	2.0.10.242	1.0.0.439	7	234	2	3	Verdana	1	80	0	0	0	WM Stimuli\	0.7	1289.14285714286	0.5	1225.8	0.7	999.714285714286	0.7	822.428571428571	0.6	971.666666666667	0.4	785	0.7	1146.42857142857	0.6	941.5	13	315491	2	315479	27	40	315518	-999999	315494	0	36	TrialsPROC	PL_020_SCENE_06.png	2	2	67	SessionSelectionList														nonlure	3	Place	2-Back	59	80	51	0	0	55	1	39	223276	1	13	86	221237	-1	222396	1	1159	3	3	2039	52	223289	-53	0																67												
WM080112	857263_fnca	2	1	1	265082595	1	75.044	75.031	2.0.10.147	2.0.10.242	2.0.10.242	1.0.0.439	7	234	2	3	Verdana	1	80	0	0	0	WM Stimuli\	0.7	1289.14285714286	0.5	1225.8	0.7	999.714285714286	0.7	822.428571428571	0.6	971.666666666667	0.4	785	0.7	1146.42857142857	0.6	941.5	13	315491	2	315479	27	40	315518	-999999	315494	0	36	TrialsPROC	PL_020_SCENE_06.png	2	2	68	SessionSelectionList														lure	3	Place	2-Back	60	80	52	0	0	55	1	39	225848	2	14	72	223809	-1	224706	0	897	2	3	2039	53	225862	-54	0																68												
WM080112	857263_fnca	2	1	1	265082595	1	75.044	75.031	2.0.10.147	2.0.10.242	2.0.10.242	1.0.0.439	7	234	2	3	Verdana	1	80	0	0	0	WM Stimuli\	0.7	1289.14285714286	0.5	1225.8	0.7	999.714285714286	0.7	822.428571428571	0.6	971.666666666667	0.4	785	0.7	1146.42857142857	0.6	941.5	13	315491	2	315479	27	40	315518	-999999	315494	0	36	TrialsPROC	PL_018_SCENE_04.png	2	2	69	SessionSelectionList														nonlure	3	Place	2-Back	61	80	53	0	0	55	1	39	228447	2	14	99	226408	-1	227320	1	912	3	3	2039	53	228461	-54	0																69												
WM080112	857263_fnca	2	1	1	265082595	1	75.044	75.031	2.0.10.147	2.0.10.242	2.0.10.242	1.0.0.439	7	234	2	3	Verdana	1	80	0	0	0	WM Stimuli\	0.7	1289.14285714286	0.5	1225.8	0.7	999.714285714286	0.7	822.428571428571	0.6	971.666666666667	0.4	785	0.7	1146.42857142857	0.6	941.5	13	315491	2	315479	27	40	315518	-999999	315494	0	37	Fix15secPROC	""	2	2	70	SessionSelectionList																																															6	228914	-7	0							70												
WM080112	857263_fnca	2	1	1	265082595	1	75.044	75.031	2.0.10.147	2.0.10.242	2.0.10.242	1.0.0.439	7	234	2	3	Verdana	1	80	0	0	0	WM Stimuli\	0.7	1289.14285714286	0.5	1225.8	0.7	999.714285714286	0.7	822.428571428571	0.6	971.666666666667	0.4	785	0.7	1146.42857142857	0.6	941.5	13	315491	2	315479	27	40	315518	-999999	315494	0	38	Cue0BackPROC	FC_020_F10.png	2	2	71	SessionSelectionList																																										39	243947	-40	0												71												
WM080112	857263_fnca	2	1	1	265082595	1	75.044	75.031	2.0.10.147	2.0.10.242	2.0.10.242	1.0.0.439	7	234	2	3	Verdana	1	80	0	0	0	WM Stimuli\	0.7	1289.14285714286	0.5	1225.8	0.7	999.714285714286	0.7	822.428571428571	0.6	971.666666666667	0.4	785	0.7	1146.42857142857	0.6	941.5	13	315491	2	315479	27	40	315518	-999999	315494	0	39	TrialsPROC	FC_024_F12.png	2	2	72	SessionSelectionList														nonlure	3	Face	0-Back	62	80	53	0	1	52	1	39	248532	2	14	85	246493	-1	0	0	0	""	3	2039	53	248546	-54	0																72												
WM080112	857263_fnca	2	1	1	265082595	1	75.044	75.031	2.0.10.147	2.0.10.242	2.0.10.242	1.0.0.439	7	234	2	3	Verdana	1	80	0	0	0	WM Stimuli\	0.7	1289.14285714286	0.5	1225.8	0.7	999.714285714286	0.7	822.428571428571	0.6	971.666666666667	0.4	785	0.7	1146.42857142857	0.6	941.5	13	315491	2	315479	27	40	315518	-999999	315494	0	39	TrialsPROC	FC_023_M12.png	2	2	73	SessionSelectionList														nonlure	3	Face	0-Back	63	80	54	0	0	55	1	39	251118	1	13	86	249079	-1	249814	1	735	3	3	2039	52	251131	-53	0																73												
WM080112	857263_fnca	2	1	1	265082595	1	75.044	75.031	2.0.10.147	2.0.10.242	2.0.10.242	1.0.0.439	7	234	2	3	Verdana	1	80	0	0	0	WM Stimuli\	0.7	1289.14285714286	0.5	1225.8	0.7	999.714285714286	0.7	822.428571428571	0.6	971.666666666667	0.4	785	0.7	1146.42857142857	0.6	941.5	13	315491	2	315479	27	40	315518	-999999	315494	0	39	TrialsPROC	FC_020_F10.png	2	2	74	SessionSelectionList														target	2	Face	0-Back	64	80	55	0	0	57	1	39	253690	1	13	72	251651	-1	252284	1	633	2	2	2039	52	253703	-53	0																74												
WM080112	857263_fnca	2	1	1	265082595	1	75.044	75.031	2.0.10.147	2.0.10.242	2.0.10.242	1.0.0.439	7	234	2	3	Verdana	1	80	0	0	0	WM Stimuli\	0.7	1289.14285714286	0.5	1225.8	0.7	999.714285714286	0.7	822.428571428571	0.6	971.666666666667	0.4	785	0.7	1146.42857142857	0.6	941.5	13	315491	2	315479	27	40	315518	-999999	315494	0	39	TrialsPROC	FC_024_F12.png	2	2	75	SessionSelectionList														lure	3	Face	0-Back	65	80	56	0	0	54	2	39	256262	2	14	72	254223	-1	255072	0	849	2	3	2039	53	256276	-54	0																75												
WM080112	857263_fnca	2	1	1	265082595	1	75.044	75.031	2.0.10.147	2.0.10.242	2.0.10.242	1.0.0.439	7	234	2	3	Verdana	1	80	0	0	0	WM Stimuli\	0.7	1289.14285714286	0.5	1225.8	0.7	999.714285714286	0.7	822.428571428571	0.6	971.666666666667	0.4	785	0.7	1146.42857142857	0.6	941.5	13	315491	2	315479	27	40	315518	-999999	315494	0	39	TrialsPROC	FC_020_F10.png	2	2	76	SessionSelectionList														target	2	Face	0-Back	66	80	57	0	0	56	3	40	258835	1	13	72	256795	-1	257531	1	736	2	2	2040	53	258848	-54	0																76												
WM080112	857263_fnca	2	1	1	265082595	1	75.044	75.031	2.0.10.147	2.0.10.242	2.0.10.242	1.0.0.439	7	234	2	3	Verdana	1	80	0	0	0	WM Stimuli\	0.7	1289.14285714286	0.5	1225.8	0.7	999.714285714286	0.7	822.428571428571	0.6	971.666666666667	0.4	785	0.7	1146.42857142857	0.6	941.5	13	315491	2	315479	27	40	315518	-999999	315494	0	39	TrialsPROC	FC_022_F11.png	2	2	77	SessionSelectionList														nonlure	3	Face	0-Back	67	80	58	0	0	58	1	39	261420	2	14	86	259381	-1	260259	1	878	3	3	2039	53	261434	-54	0																77												
WM080112	857263_fnca	2	1	1	265082595	1	75.044	75.031	2.0.10.147	2.0.10.242	2.0.10.242	1.0.0.439	7	234	2	3	Verdana	1	80	0	0	0	WM Stimuli\	0.7	1289.14285714286	0.5	1225.8	0.7	999.714285714286	0.7	822.428571428571	0.6	971.666666666667	0.4	785	0.7	1146.42857142857	0.6	941.5	13	315491	2	315479	27	40	315518	-999999	315494	0	39	TrialsPROC	FC_023_M12.png	2	2	78	SessionSelectionList														lure	3	Face	0-Back	68	80	59	0	0	59	2	39	263992	2	14	72	261953	-1	263005	1	1052	3	3	2039	53	264006	-54	0																78												
WM080112	857263_fnca	2	1	1	265082595	1	75.044	75.031	2.0.10.147	2.0.10.242	2.0.10.242	1.0.0.439	7	234	2	3	Verdana	1	80	0	0	0	WM Stimuli\	0.7	1289.14285714286	0.5	1225.8	0.7	999.714285714286	0.7	822.428571428571	0.6	971.666666666667	0.4	785	0.7	1146.42857142857	0.6	941.5	13	315491	2	315479	27	40	315518	-999999	315494	0	39	TrialsPROC	FC_021_M11.png	2	2	79	SessionSelectionList														nonlure	3	Face	0-Back	69	80	60	0	0	61	3	39	266578	1	13	86	264539	-1	265255	1	716	3	3	2039	52	266591	-53	0																79												
WM080112	857263_fnca	2	1	1	265082595	1	75.044	75.031	2.0.10.147	2.0.10.242	2.0.10.242	1.0.0.439	7	234	2	3	Verdana	1	80	0	0	0	WM Stimuli\	0.7	1289.14285714286	0.5	1225.8	0.7	999.714285714286	0.7	822.428571428571	0.6	971.666666666667	0.4	785	0.7	1146.42857142857	0.6	941.5	13	315491	2	315479	27	40	315518	-999999	315494	0	39	TrialsPROC	FC_021_M11.png	2	2	80	SessionSelectionList														lure	3	Face	0-Back	70	80	61	0	0	59	1	39	269150	2	14	72	267111	-1	268237	0	1126	2	3	2039	53	269164	-54	0																80												
WM080112	857263_fnca	2	1	1	265082595	1	75.044	75.031	2.0.10.147	2.0.10.242	2.0.10.242	1.0.0.439	7	234	2	3	Verdana	1	80	0	0	0	WM Stimuli\	0.7	1289.14285714286	0.5	1225.8	0.7	999.714285714286	0.7	822.428571428571	0.6	971.666666666667	0.4	785	0.7	1146.42857142857	0.6	941.5	13	315491	2	315479	27	40	315518	-999999	315494	0	39	TrialsPROC	FC_019_M10.png	2	2	81	SessionSelectionList														nonlure	3	Face	0-Back	71	80	62	0	0	60	1	39	271736	1	13	86	269697	-1	270704	1	1007	3	3	2039	52	271749	-53	0																81												
WM080112	857263_fnca	2	1	1	265082595	1	75.044	75.031	2.0.10.147	2.0.10.242	2.0.10.242	1.0.0.439	7	234	2	3	Verdana	1	80	0	0	0	WM Stimuli\	0.7	1289.14285714286	0.5	1225.8	0.7	999.714285714286	0.7	822.428571428571	0.6	971.666666666667	0.4	785	0.7	1146.42857142857	0.6	941.5	13	315491	2	315479	27	40	315518	-999999	315494	0	40	Cue0BackPROC	PL_021_SCENE_07.png	2	2	82	SessionSelectionList																																										45	272242	-46	0												82												
WM080112	857263_fnca	2	1	1	265082595	1	75.044	75.031	2.0.10.147	2.0.10.242	2.0.10.242	1.0.0.439	7	234	2	3	Verdana	1	80	0	0	0	WM Stimuli\	0.7	1289.14285714286	0.5	1225.8	0.7	999.714285714286	0.7	822.428571428571	0.6	971.666666666667	0.4	785	0.7	1146.42857142857	0.6	941.5	13	315491	2	315479	27	40	315518	-999999	315494	0	41	TrialsPROC	PL_025_SCENE_18.png	2	2	83	SessionSelectionList														nonlure	3	Place	0-Back	72	80	62	0	1	58	1	39	276814	1	13	78	274775	-1	0	0	0	""	3	2039	52	276827	-53	0																83												
WM080112	857263_fnca	2	1	1	265082595	1	75.044	75.031	2.0.10.147	2.0.10.242	2.0.10.242	1.0.0.439	7	234	2	3	Verdana	1	80	0	0	0	WM Stimuli\	0.7	1289.14285714286	0.5	1225.8	0.7	999.714285714286	0.7	822.428571428571	0.6	971.666666666667	0.4	785	0.7	1146.42857142857	0.6	941.5	13	315491	2	315479	27	40	315518	-999999	315494	0	41	TrialsPROC	PL_026_SCENE_24.png	2	2	84	SessionSelectionList														nonlure	3	Place	0-Back	73	80	63	0	0	59	1	38	279399	2	14	86	277361	-1	277996	1	635	3	3	2038	52	279413	-53	0																84												
WM080112	857263_fnca	2	1	1	265082595	1	75.044	75.031	2.0.10.147	2.0.10.242	2.0.10.242	1.0.0.439	7	234	2	3	Verdana	1	80	0	0	0	WM Stimuli\	0.7	1289.14285714286	0.5	1225.8	0.7	999.714285714286	0.7	822.428571428571	0.6	971.666666666667	0.4	785	0.7	1146.42857142857	0.6	941.5	13	315491	2	315479	27	40	315518	-999999	315494	0	41	TrialsPROC	PL_025_SCENE_18.png	2	2	85	SessionSelectionList														lure	3	Place	0-Back	74	80	64	0	0	58	1	40	281972	2	13	71	279932	-1	280673	0	741	2	3	2040	53	281985	-54	0																85												
WM080112	857263_fnca	2	1	1	265082595	1	75.044	75.031	2.0.10.147	2.0.10.242	2.0.10.242	1.0.0.439	7	234	2	3	Verdana	1	80	0	0	0	WM Stimuli\	0.7	1289.14285714286	0.5	1225.8	0.7	999.714285714286	0.7	822.428571428571	0.6	971.666666666667	0.4	785	0.7	1146.42857142857	0.6	941.5	13	315491	2	315479	27	40	315518	-999999	315494	0	41	TrialsPROC	PL_022_SCENE_08.png	2	2	86	SessionSelectionList														nonlure	3	Place	0-Back	75	80	65	0	0	59	1	39	284557	2	14	86	282518	-1	283409	1	891	3	3	2039	53	284571	-54	0																86												
WM080112	857263_fnca	2	1	1	265082595	1	75.044	75.031	2.0.10.147	2.0.10.242	2.0.10.242	1.0.0.439	7	234	2	3	Verdana	1	80	0	0	0	WM Stimuli\	0.7	1289.14285714286	0.5	1225.8	0.7	999.714285714286	0.7	822.428571428571	0.6	971.666666666667	0.4	785	0.7	1146.42857142857	0.6	941.5	13	315491	2	315479	27	40	315518	-999999	315494	0	41	TrialsPROC	PL_026_SCENE_24.png	2	2	87	SessionSelectionList														lure	3	Place	0-Back	76	80	66	0	0	57	1	39	287129	2	14	72	285090	-1	286040	0	950	2	3	2039	53	287143	-54	0																87												
WM080112	857263_fnca	2	1	1	265082595	1	75.044	75.031	2.0.10.147	2.0.10.242	2.0.10.242	1.0.0.439	7	234	2	3	Verdana	1	80	0	0	0	WM Stimuli\	0.7	1289.14285714286	0.5	1225.8	0.7	999.714285714286	0.7	822.428571428571	0.6	971.666666666667	0.4	785	0.7	1146.42857142857	0.6	941.5	13	315491	2	315479	27	40	315518	-999999	315494	0	41	TrialsPROC	PL_021_SCENE_07.png	2	2	88	SessionSelectionList														target	2	Place	0-Back	77	80	66	0	1	56	1	39	289702	1	13	73	287663	-1	0	0	0	""	2	2039	52	289715	-53	0																88												
WM080112	857263_fnca	2	1	1	265082595	1	75.044	75.031	2.0.10.147	2.0.10.242	2.0.10.242	1.0.0.439	7	234	2	3	Verdana	1	80	0	0	0	WM Stimuli\	0.7	1289.14285714286	0.5	1225.8	0.7	999.714285714286	0.7	822.428571428571	0.6	971.666666666667	0.4	785	0.7	1146.42857142857	0.6	941.5	13	315491	2	315479	27	40	315518	-999999	315494	0	41	TrialsPROC	PL_021_SCENE_07.png	2	2	89	SessionSelectionList														target	2	Place	0-Back	78	80	67	0	0	57	1	39	292274	1	13	72	290235	-1	290904	1	669	2	2	2039	52	292287	-53	0																89												
WM080112	857263_fnca	2	1	1	265082595	1	75.044	75.031	2.0.10.147	2.0.10.242	2.0.10.242	1.0.0.439	7	234	2	3	Verdana	1	80	0	0	0	WM Stimuli\	0.7	1289.14285714286	0.5	1225.8	0.7	999.714285714286	0.7	822.428571428571	0.6	971.666666666667	0.4	785	0.7	1146.42857142857	0.6	941.5	13	315491	2	315479	27	40	315518	-999999	315494	0	41	TrialsPROC	PL_023_SCENE_09.png	2	2	90	SessionSelectionList														nonlure	3	Place	0-Back	79	80	67	0	1	55	1	40	294860	1	13	85	292820	-1	0	0	0	""	3	2040	53	294873	-54	0																90												
WM080112	857263_fnca	2	1	1	265082595	1	75.044	75.031	2.0.10.147	2.0.10.242	2.0.10.242	1.0.0.439	7	234	2	3	Verdana	1	80	0	0	0	WM Stimuli\	0.7	1289.14285714286	0.5	1225.8	0.7	999.714285714286	0.7	822.428571428571	0.6	971.666666666667	0.4	785	0.7	1146.42857142857	0.6	941.5	13	315491	2	315479	27	40	315518	-999999	315494	0	41	TrialsPROC	PL_024_SCENE_10.png	2	2	91	SessionSelectionList														nonlure	3	Place	0-Back	80	80	68	0	0	56	1	39	297445	2	14	86	295406	-1	296351	1	945	3	3	2039	53	297459	-54	0																91												
WM080112	857263_fnca	2	1	1	265082595	1	75.044	75.031	2.0.10.147	2.0.10.242	2.0.10.242	1.0.0.439	7	234	2	3	Verdana	1	80	0	0	0	WM Stimuli\	0.7	1289.14285714286	0.5	1225.8	0.7	999.714285714286	0.7	822.428571428571	0.6	971.666666666667	0.4	785	0.7	1146.42857142857	0.6	941.5	13	315491	2	315479	27	40	315518	-999999	315494	0	41	TrialsPROC	PL_022_SCENE_08.png	2	2	92	SessionSelectionList														lure	3	Place	0-Back	80	80	69	0	0	55	1	39	300017	2	14	72	297978	-1	298816	0	838	2	3	2039	53	300031	-54	0																92												
WM080112	857263_fnca	2	1	1	265082595	1	75.044	75.031	2.0.10.147	2.0.10.242	2.0.10.242	1.0.0.439	7	234	2	3	Verdana	1	80	0	0	0	WM Stimuli\	0.7	1289.14285714286	0.5	1225.8	0.7	999.714285714286	0.7	822.428571428571	0.6	971.666666666667	0.4	785	0.7	1146.42857142857	0.6	941.5	13	315491	2	315479	27	40	315518	-999999	315494	0	42	Fix15secPROC	""	2	2	93	SessionSelectionList																																															6	300484	-7	0							93												
