ExperimentName	HCPID	RunNumber	Subject	Session	RandomSeed	Group	Laptop.RefreshRate	ScannerD2.RefreshRate	StudioVersion	RuntimeVersion	RuntimeVersionExpected	ExperimentVersion	triggercode	Allowed	Target	Nontarget	FontStyle	RunTrialNumber[Session]	TrialsPerRun[Session]	TotalRespGreater200[Session]	ConsecRTLess200[Session]	ConsecNonResp[Session]	StimuliDir	ACC_2_Back_Body	Avg_RT_For_Correct_Trials_2_Back_Body	ACC_0_Back_Body	Avg_RT_For_Correct_Trials_0_Back_Body	ACC_2_Back_Face	Avg_RT_For_Correct_Trials_2_Back_Face	ACC_0_Back_Face	Avg_RT_For_Correct_Trials_0_Back_Face	ACC_2_Back_Place	Avg_RT_For_Correct_Trials_2_Back_Place	ACC_0_Back_Place	Avg_RT_For_Correct_Trials_0_Back_Place	ACC_2_Back_Tools	Avg_RT_For_Correct_Trials_2_Back_Tools	ACC_0_Back_Tools	Avg_RT_For_Correct_Trials_0_Back_Tools	ExpInstrucFeelFreeToRest.OnsetDelay	ExpInstrucFeelFreeToRest.OnsetTime	ExpInstrucFeelFreeToRest.DurationError	ExpInstrucFeelFreeToRest.StartTime	ExpInstrucFeelFreeToRest.OnsetToOnsetTime	FeelFreeToRest.OnsetDelay	FeelFreeToRest.OnsetTime	FeelFreeToRest.DurationError	FeelFreeToRest.StartTime	FeelFreeToRest.OnsetToOnsetTime	SessionSelectionList	Procedure[Block]	Stimulus[Block]	RunNumberFilterValue	SessionSelectionList.Cycle	SessionSelectionList.Sample	Running[Block]	IntroButtonMap.OnsetDelay	IntroButtonMap.OnsetTime	IntroButtonMap.DurationError	IntroButtonMap.OnsetToOnsetTime	GetReady.OnsetDelay	GetReady.OnsetTime	GetReady.DurationError	GetReady.OnsetToOnsetTime	Cue2Back.OnsetDelay	Cue2Back.OnsetTime	Cue2Back.DurationError	Cue2Back.OnsetToOnsetTime	Run1Block1	TargetType	CorrectResponse	StimType	BlockType	RunTrialNumber[Block]	TrialsPerRun[Block]	TotalRespGreater200[Block]	ConsecRTLess200[Block]	ConsecNonResp[Block]	ControlAcc	ConsecSameResp	ExperimenterWindow.OnsetDelay	ExperimenterWindow.OnsetTime	ExperimenterWindow.DurationError	ExperimenterWindow.OnsetToOnsetTime	Stim.OnsetDelay	Stim.OnsetTime	Stim.DurationError	Stim.RTTime	Stim.ACC	Stim.RT	Stim.RESP	Stim.CRESP	Stim.OnsetToOnsetTime	Fix.OnsetDelay	Fix.OnsetTime	Fix.DurationError	Fix.OnsetToOnsetTime	CueTarget.OnsetDelay	CueTarget.OnsetTime	CueTarget.DurationError	CueTarget.OnsetToOnsetTime	Run1Block2	Fix15sec.OnsetDelay	Fix15sec.OnsetTime	Fix15sec.DurationError	Fix15sec.OnsetToOnsetTime	Run1Block3	Run1Block4	Run1Block5	Run1Block6	Run1Block7	Run1Block8	Block	Procedure[Trial]	Stimulus[Trial]	ReadyList	Running[Trial]	ReadyList.Cycle	ReadyList.Sample	SyncSlide.OnsetDelay	SyncSlide.OnsetTime	SyncSlide.DurationError	SyncSlide.FinishTime	SyncSlide.OnsetToOnsetTime	Trial
WM080112	857263_fnca	1	1	1	-1449929678	1	75.035	75.031	2.0.10.147	2.0.10.242	2.0.10.242	1.0.0.439	7	234	2	3	Verdana	1	80	0	0	0	WM Stimuli\	0.4	1093	0.5	1268.6	0.7	1025.28571428571	0.7	1179.14285714286	0.6	1147	0.6	1229.5	0.7	1070.85714285714	0.6	1080.66666666667	13	551684	2	551672	26	39	551710	-999999	551687	0	1	TRSyncPROC	""	1	2	1	SessionSelectionList	104	42642	-999999	0	40	245358	-999999	0																																																	1	InitialTR	4	1	ReadyList	1	1	16	258272	-17	260255	0	1
WM080112	857263_fnca	1	1	1	-1449929678	1	75.035	75.031	2.0.10.147	2.0.10.242	2.0.10.242	1.0.0.439	7	234	2	3	Verdana	1	80	0	0	0	WM Stimuli\	0.4	1093	0.5	1268.6	0.7	1025.28571428571	0.7	1179.14285714286	0.6	1147	0.6	1229.5	0.7	1070.85714285714	0.6	1080.66666666667	13	551684	2	551672	26	39	551710	-999999	551687	0	1	TRSyncPROC	""	1	2	1	SessionSelectionList	104	42642	-999999	0	40	245358	-999999	0																																																	1	InitialTR	3	2	ReadyList	1	2	16	260272	-17	262255	0	2
WM080112	857263_fnca	1	1	1	-1449929678	1	75.035	75.031	2.0.10.147	2.0.10.242	2.0.10.242	1.0.0.439	7	234	2	3	Verdana	1	80	0	0	0	WM Stimuli\	0.4	1093	0.5	1268.6	0.7	1025.28571428571	0.7	1179.14285714286	0.6	1147	0.6	1229.5	0.7	1070.85714285714	0.6	1080.66666666667	13	551684	2	551672	26	39	551710	-999999	551687	0	1	TRSyncPROC	""	1	2	1	SessionSelectionList	104	42642	-999999	0	40	245358	-999999	0																																																	1	InitialTR	2	3	ReadyList	1	3	15	262271	-16	264255	0	3
WM080112	857263_fnca	1	1	1	-1449929678	1	75.035	75.031	2.0.10.147	2.0.10.242	2.0.10.242	1.0.0.439	7	234	2	3	Verdana	1	80	0	0	0	WM Stimuli\	0.4	1093	0.5	1268.6	0.7	1025.28571428571	0.7	1179.14285714286	0.6	1147	0.6	1229.5	0.7	1070.85714285714	0.6	1080.66666666667	13	551684	2	551672	26	39	551710	-999999	551687	0	1	TRSyncPROC	""	1	2	1	SessionSelectionList	104	42642	-999999	0	40	245358	-999999	0																																																	1	InitialTR	1	4	ReadyList	1	4	14	264270	-15	266255	0	4
WM080112	857263_fnca	1	1	1	-1449929678	1	75.035	75.031	2.0.10.147	2.0.10.242	2.0.10.242	1.0.0.439	7	234	2	3	Verdana	1	80	0	0	0	WM Stimuli\	0.4	1093	0.5	1268.6	0.7	1025.28571428571	0.7	1179.14285714286	0.6	1147	0.6	1229.5	0.7	1070.85714285714	0.6	1080.66666666667	13	551684	2	551672	26	39	551710	-999999	551687	0	2	Cue2BackPROC	""	1	2	2	SessionSelectionList									13	266269	-14	0																																													2												
WM080112	857263_fnca	1	1	1	-1449929678	1	75.035	75.031	2.0.10.147	2.0.10.242	2.0.10.242	1.0.0.439	7	234	2	3	Verdana	1	80	0	0	0	WM Stimuli\	0.4	1093	0.5	1268.6	0.7	1025.28571428571	0.7	1179.14285714286	0.6	1147	0.6	1229.5	0.7	1070.85714285714	0.6	1080.66666666667	13	551684	2	551672	26	39	551710	-999999	551687	0	3	TrialsPROC	BP_002_BP10_BA.png	1	2	3	SessionSelectionList													1	nonlure	3	Body	2-Back	2	80	0	0	1	0	0	53	270894	3	13	85	268841	-1	0	0	0	""	3	2053	66	270907	-67	0																3												
WM080112	857263_fnca	1	1	1	-1449929678	1	75.035	75.031	2.0.10.147	2.0.10.242	2.0.10.242	1.0.0.439	7	234	2	3	Verdana	1	80	0	0	0	WM Stimuli\	0.4	1093	0.5	1268.6	0.7	1025.28571428571	0.7	1179.14285714286	0.6	1147	0.6	1229.5	0.7	1070.85714285714	0.6	1080.66666666667	13	551684	2	551672	26	39	551710	-999999	551687	0	3	TrialsPROC	BP_001_BP1_BA.png	1	2	4	SessionSelectionList													2	nonlure	3	Body	2-Back	3	80	1	0	0	0	1	39	273453	1	13	73	271414	-1	272589	1	1175	3	3	2039	52	273466	-53	0																4												
WM080112	857263_fnca	1	1	1	-1449929678	1	75.035	75.031	2.0.10.147	2.0.10.242	2.0.10.242	1.0.0.439	7	234	2	3	Verdana	1	80	0	0	0	WM Stimuli\	0.4	1093	0.5	1268.6	0.7	1025.28571428571	0.7	1179.14285714286	0.6	1147	0.6	1229.5	0.7	1070.85714285714	0.6	1080.66666666667	13	551684	2	551672	26	39	551710	-999999	551687	0	3	TrialsPROC	BP_006_BP2_BA.png	1	2	5	SessionSelectionList													3	nonlure	3	Body	2-Back	4	80	2	0	0	0	1	39	276012	1	13	59	273973	-1	274919	0	946	2	3	2039	52	276025	-53	0																5												
WM080112	857263_fnca	1	1	1	-1449929678	1	75.035	75.031	2.0.10.147	2.0.10.242	2.0.10.242	1.0.0.439	7	234	2	3	Verdana	1	80	0	0	0	WM Stimuli\	0.4	1093	0.5	1268.6	0.7	1025.28571428571	0.7	1179.14285714286	0.6	1147	0.6	1229.5	0.7	1070.85714285714	0.6	1080.66666666667	13	551684	2	551672	26	39	551710	-999999	551687	0	3	TrialsPROC	BP_001_BP1_BA.png	1	2	6	SessionSelectionList													4	target	2	Body	2-Back	5	80	3	0	0	0	1	39	278584	1	13	72	276545	-1	277963	0	1418	3	2	2039	52	278597	-53	0																6												
WM080112	857263_fnca	1	1	1	-1449929678	1	75.035	75.031	2.0.10.147	2.0.10.242	2.0.10.242	1.0.0.439	7	234	2	3	Verdana	1	80	0	0	0	WM Stimuli\	0.4	1093	0.5	1268.6	0.7	1025.28571428571	0.7	1179.14285714286	0.6	1147	0.6	1229.5	0.7	1070.85714285714	0.6	1080.66666666667	13	551684	2	551672	26	39	551710	-999999	551687	0	3	TrialsPROC	BP_005_BP19_BA.png	1	2	7	SessionSelectionList													5	nonlure	3	Body	2-Back	6	80	4	0	0	0	2	39	281156	2	14	72	279117	-1	280415	1	1298	3	3	2039	53	281170	-54	0																7												
WM080112	857263_fnca	1	1	1	-1449929678	1	75.035	75.031	2.0.10.147	2.0.10.242	2.0.10.242	1.0.0.439	7	234	2	3	Verdana	1	80	0	0	0	WM Stimuli\	0.4	1093	0.5	1268.6	0.7	1025.28571428571	0.7	1179.14285714286	0.6	1147	0.6	1229.5	0.7	1070.85714285714	0.6	1080.66666666667	13	551684	2	551672	26	39	551710	-999999	551687	0	3	TrialsPROC	BP_003_BP16_BA.png	1	2	8	SessionSelectionList													6	nonlure	3	Body	2-Back	7	80	5	0	0	0	3	39	283715	2	14	59	281676	-1	282679	1	1003	3	3	2039	53	283729	-54	0																8												
WM080112	857263_fnca	1	1	1	-1449929678	1	75.035	75.031	2.0.10.147	2.0.10.242	2.0.10.242	1.0.0.439	7	234	2	3	Verdana	1	80	0	0	0	WM Stimuli\	0.4	1093	0.5	1268.6	0.7	1025.28571428571	0.7	1179.14285714286	0.6	1147	0.6	1229.5	0.7	1070.85714285714	0.6	1080.66666666667	13	551684	2	551672	26	39	551710	-999999	551687	0	3	TrialsPROC	BP_006_BP2_BA.png	1	2	9	SessionSelectionList													7	lure	3	Body	2-Back	8	80	6	0	0	0	1	39	286274	2	14	59	284235	-1	285287	0	1052	2	3	2039	53	286288	-54	0																9												
WM080112	857263_fnca	1	1	1	-1449929678	1	75.035	75.031	2.0.10.147	2.0.10.242	2.0.10.242	1.0.0.439	7	234	2	3	Verdana	1	80	0	0	0	WM Stimuli\	0.4	1093	0.5	1268.6	0.7	1025.28571428571	0.7	1179.14285714286	0.6	1147	0.6	1229.5	0.7	1070.85714285714	0.6	1080.66666666667	13	551684	2	551672	26	39	551710	-999999	551687	0	3	TrialsPROC	BP_004_BP18_BA.png	1	2	10	SessionSelectionList													8	nonlure	3	Body	2-Back	9	80	7	0	0	0	1	39	288833	1	14	59	286794	-1	287690	1	896	3	3	2039	53	288847	-54	0																10												
WM080112	857263_fnca	1	1	1	-1449929678	1	75.035	75.031	2.0.10.147	2.0.10.242	2.0.10.242	1.0.0.439	7	234	2	3	Verdana	1	80	0	0	0	WM Stimuli\	0.4	1093	0.5	1268.6	0.7	1025.28571428571	0.7	1179.14285714286	0.6	1147	0.6	1229.5	0.7	1070.85714285714	0.6	1080.66666666667	13	551684	2	551672	26	39	551710	-999999	551687	0	3	TrialsPROC	BP_005_BP19_BA.png	1	2	11	SessionSelectionList													9	lure	3	Body	2-Back	10	80	8	0	0	0	1	39	291392	1	13	59	289353	-1	290468	0	1115	2	3	2039	52	291405	-53	0																11												
WM080112	857263_fnca	1	1	1	-1449929678	1	75.035	75.031	2.0.10.147	2.0.10.242	2.0.10.242	1.0.0.439	7	234	2	3	Verdana	1	80	0	0	0	WM Stimuli\	0.4	1093	0.5	1268.6	0.7	1025.28571428571	0.7	1179.14285714286	0.6	1147	0.6	1229.5	0.7	1070.85714285714	0.6	1080.66666666667	13	551684	2	551672	26	39	551710	-999999	551687	0	3	TrialsPROC	BP_004_BP18_BA.png	1	2	12	SessionSelectionList													10	target	2	Body	2-Back	11	80	9	0	0	0	1	39	293951	1	13	59	291912	-1	293257	0	1345	3	2	2039	52	293964	-53	0																12												
WM080112	857263_fnca	1	1	1	-1449929678	1	75.035	75.031	2.0.10.147	2.0.10.242	2.0.10.242	1.0.0.439	7	234	2	3	Verdana	1	80	0	0	0	WM Stimuli\	0.4	1093	0.5	1268.6	0.7	1025.28571428571	0.7	1179.14285714286	0.6	1147	0.6	1229.5	0.7	1070.85714285714	0.6	1080.66666666667	13	551684	2	551672	26	39	551710	-999999	551687	0	4	Cue0BackPROC	FC_001_M1.png	1	2	13	SessionSelectionList																																										19	294431	-20	0												13												
WM080112	857263_fnca	1	1	1	-1449929678	1	75.035	75.031	2.0.10.147	2.0.10.242	2.0.10.242	1.0.0.439	7	234	2	3	Verdana	1	80	0	0	0	WM Stimuli\	0.4	1093	0.5	1268.6	0.7	1025.28571428571	0.7	1179.14285714286	0.6	1147	0.6	1229.5	0.7	1070.85714285714	0.6	1080.66666666667	13	551684	2	551672	26	39	551710	-999999	551687	0	5	TrialsPROC	FC_005_M3.png	1	2	14	SessionSelectionList														nonlure	3	Face	0-Back	12	80	9	0	1	0	1	39	299015	2	14	64	296976	-1	0	0	0	""	3	2039	53	299029	-54	0					1											14												
WM080112	857263_fnca	1	1	1	-1449929678	1	75.035	75.031	2.0.10.147	2.0.10.242	2.0.10.242	1.0.0.439	7	234	2	3	Verdana	1	80	0	0	0	WM Stimuli\	0.4	1093	0.5	1268.6	0.7	1025.28571428571	0.7	1179.14285714286	0.6	1147	0.6	1229.5	0.7	1070.85714285714	0.6	1080.66666666667	13	551684	2	551672	26	39	551710	-999999	551687	0	5	TrialsPROC	FC_001_M1.png	1	2	15	SessionSelectionList														target	2	Face	0-Back	13	80	10	0	0	50	1	39	301588	1	13	73	299549	-1	300399	1	850	2	2	2039	52	301601	-53	0					2											15												
WM080112	857263_fnca	1	1	1	-1449929678	1	75.035	75.031	2.0.10.147	2.0.10.242	2.0.10.242	1.0.0.439	7	234	2	3	Verdana	1	80	0	0	0	WM Stimuli\	0.4	1093	0.5	1268.6	0.7	1025.28571428571	0.7	1179.14285714286	0.6	1147	0.6	1229.5	0.7	1070.85714285714	0.6	1080.66666666667	13	551684	2	551672	26	39	551710	-999999	551687	0	5	TrialsPROC	FC_003_M2.png	1	2	16	SessionSelectionList														nonlure	3	Face	0-Back	14	80	11	0	0	67	1	39	304160	1	13	72	302121	-1	303232	1	1111	3	3	2039	52	304173	-53	0					3											16												
WM080112	857263_fnca	1	1	1	-1449929678	1	75.035	75.031	2.0.10.147	2.0.10.242	2.0.10.242	1.0.0.439	7	234	2	3	Verdana	1	80	0	0	0	WM Stimuli\	0.4	1093	0.5	1268.6	0.7	1025.28571428571	0.7	1179.14285714286	0.6	1147	0.6	1229.5	0.7	1070.85714285714	0.6	1080.66666666667	13	551684	2	551672	26	39	551710	-999999	551687	0	5	TrialsPROC	FC_004_F2.png	1	2	17	SessionSelectionList														nonlure	3	Face	0-Back	15	80	12	0	0	75	2	39	306732	2	14	72	304693	-1	305549	1	856	3	3	2039	53	306746	-54	0					4											17												
WM080112	857263_fnca	1	1	1	-1449929678	1	75.035	75.031	2.0.10.147	2.0.10.242	2.0.10.242	1.0.0.439	7	234	2	3	Verdana	1	80	0	0	0	WM Stimuli\	0.4	1093	0.5	1268.6	0.7	1025.28571428571	0.7	1179.14285714286	0.6	1147	0.6	1229.5	0.7	1070.85714285714	0.6	1080.66666666667	13	551684	2	551672	26	39	551710	-999999	551687	0	5	TrialsPROC	FC_004_F2.png	1	2	18	SessionSelectionList														lure	3	Face	0-Back	16	80	13	0	0	60	1	40	309305	1	13	72	307265	-1	308940	0	1675	2	3	2040	53	309318	-54	0					5											18												
WM080112	857263_fnca	1	1	1	-1449929678	1	75.035	75.031	2.0.10.147	2.0.10.242	2.0.10.242	1.0.0.439	7	234	2	3	Verdana	1	80	0	0	0	WM Stimuli\	0.4	1093	0.5	1268.6	0.7	1025.28571428571	0.7	1179.14285714286	0.6	1147	0.6	1229.5	0.7	1070.85714285714	0.6	1080.66666666667	13	551684	2	551672	26	39	551710	-999999	551687	0	5	TrialsPROC	FC_001_M1.png	1	2	19	SessionSelectionList														target	2	Face	0-Back	17	80	14	0	0	67	2	39	311877	1	13	73	309838	-1	311205	1	1367	2	2	2039	52	311890	-53	0					6											19												
WM080112	857263_fnca	1	1	1	-1449929678	1	75.035	75.031	2.0.10.147	2.0.10.242	2.0.10.242	1.0.0.439	7	234	2	3	Verdana	1	80	0	0	0	WM Stimuli\	0.4	1093	0.5	1268.6	0.7	1025.28571428571	0.7	1179.14285714286	0.6	1147	0.6	1229.5	0.7	1070.85714285714	0.6	1080.66666666667	13	551684	2	551672	26	39	551710	-999999	551687	0	5	TrialsPROC	FC_006_F3.png	1	2	20	SessionSelectionList														nonlure	3	Face	0-Back	18	80	15	0	0	71	1	39	314449	2	14	72	312410	-1	313384	1	974	3	3	2039	53	314463	-54	0					7											20												
WM080112	857263_fnca	1	1	1	-1449929678	1	75.035	75.031	2.0.10.147	2.0.10.242	2.0.10.242	1.0.0.439	7	234	2	3	Verdana	1	80	0	0	0	WM Stimuli\	0.4	1093	0.5	1268.6	0.7	1025.28571428571	0.7	1179.14285714286	0.6	1147	0.6	1229.5	0.7	1070.85714285714	0.6	1080.66666666667	13	551684	2	551672	26	39	551710	-999999	551687	0	5	TrialsPROC	FC_006_F3.png	1	2	21	SessionSelectionList														lure	3	Face	0-Back	19	80	16	0	0	62	1	39	317021	2	14	72	314982	-1	316420	0	1438	2	3	2039	53	317035	-54	0					8											21												
WM080112	857263_fnca	1	1	1	-1449929678	1	75.035	75.031	2.0.10.147	2.0.10.242	2.0.10.242	1.0.0.439	7	234	2	3	Verdana	1	80	0	0	0	WM Stimuli\	0.4	1093	0.5	1268.6	0.7	1025.28571428571	0.7	1179.14285714286	0.6	1147	0.6	1229.5	0.7	1070.85714285714	0.6	1080.66666666667	13	551684	2	551672	26	39	551710	-999999	551687	0	5	TrialsPROC	FC_003_M2.png	1	2	22	SessionSelectionList														lure	3	Face	0-Back	20	80	17	0	0	67	1	40	319594	1	13	72	317554	-1	319087	1	1533	3	3	2040	53	319607	-54	0					9											22												
WM080112	857263_fnca	1	1	1	-1449929678	1	75.035	75.031	2.0.10.147	2.0.10.242	2.0.10.242	1.0.0.439	7	234	2	3	Verdana	1	80	0	0	0	WM Stimuli\	0.4	1093	0.5	1268.6	0.7	1025.28571428571	0.7	1179.14285714286	0.6	1147	0.6	1229.5	0.7	1070.85714285714	0.6	1080.66666666667	13	551684	2	551672	26	39	551710	-999999	551687	0	5	TrialsPROC	FC_002_F1.png	1	2	23	SessionSelectionList														nonlure	3	Face	0-Back	21	80	18	0	0	70	2	39	322166	1	13	73	320127	-1	321690	1	1563	3	3	2039	52	322179	-53	0					10											23												
WM080112	857263_fnca	1	1	1	-1449929678	1	75.035	75.031	2.0.10.147	2.0.10.242	2.0.10.242	1.0.0.439	7	234	2	3	Verdana	1	80	0	0	0	WM Stimuli\	0.4	1093	0.5	1268.6	0.7	1025.28571428571	0.7	1179.14285714286	0.6	1147	0.6	1229.5	0.7	1070.85714285714	0.6	1080.66666666667	13	551684	2	551672	26	39	551710	-999999	551687	0	6	Fix15secPROC	""	1	2	24	SessionSelectionList																																															5	322632	-6	0							24												
WM080112	857263_fnca	1	1	1	-1449929678	1	75.035	75.031	2.0.10.147	2.0.10.242	2.0.10.242	1.0.0.439	7	234	2	3	Verdana	1	80	0	0	0	WM Stimuli\	0.4	1093	0.5	1268.6	0.7	1025.28571428571	0.7	1179.14285714286	0.6	1147	0.6	1229.5	0.7	1070.85714285714	0.6	1080.66666666667	13	551684	2	551672	26	39	551710	-999999	551687	0	7	Cue2BackPROC	""	1	2	25	SessionSelectionList									12	337639	-13	0																																													25												
WM080112	857263_fnca	1	1	1	-1449929678	1	75.035	75.031	2.0.10.147	2.0.10.242	2.0.10.242	1.0.0.439	7	234	2	3	Verdana	1	80	0	0	0	WM Stimuli\	0.4	1093	0.5	1268.6	0.7	1025.28571428571	0.7	1179.14285714286	0.6	1147	0.6	1229.5	0.7	1070.85714285714	0.6	1080.66666666667	13	551684	2	551672	26	39	551710	-999999	551687	0	8	TrialsPROC	TO_001_TOOL1_BA.png	1	2	26	SessionSelectionList														nonlure	3	Tools	2-Back	22	80	18	0	1	70	2	39	342224	2	14	58	340185	-1	0	0	0	""	3	2039	53	342238	-54	0										1						26												
WM080112	857263_fnca	1	1	1	-1449929678	1	75.035	75.031	2.0.10.147	2.0.10.242	2.0.10.242	1.0.0.439	7	234	2	3	Verdana	1	80	0	0	0	WM Stimuli\	0.4	1093	0.5	1268.6	0.7	1025.28571428571	0.7	1179.14285714286	0.6	1147	0.6	1229.5	0.7	1070.85714285714	0.6	1080.66666666667	13	551684	2	551672	26	39	551710	-999999	551687	0	8	TrialsPROC	TO_002_TOOL2_BA.png	1	2	27	SessionSelectionList														nonlure	3	Tools	2-Back	23	80	19	0	0	70	1	39	344783	2	14	59	342744	-1	344078	1	1334	3	3	2039	53	344797	-54	0										2						27												
WM080112	857263_fnca	1	1	1	-1449929678	1	75.035	75.031	2.0.10.147	2.0.10.242	2.0.10.242	1.0.0.439	7	234	2	3	Verdana	1	80	0	0	0	WM Stimuli\	0.4	1093	0.5	1268.6	0.7	1025.28571428571	0.7	1179.14285714286	0.6	1147	0.6	1229.5	0.7	1070.85714285714	0.6	1080.66666666667	13	551684	2	551672	26	39	551710	-999999	551687	0	8	TrialsPROC	TO_004_TOOL4_BA.png	1	2	28	SessionSelectionList														nonlure	3	Tools	2-Back	24	80	20	0	0	70	2	39	347342	1	14	59	345303	-1	346587	1	1284	3	3	2039	53	347356	-54	0										3						28												
WM080112	857263_fnca	1	1	1	-1449929678	1	75.035	75.031	2.0.10.147	2.0.10.242	2.0.10.242	1.0.0.439	7	234	2	3	Verdana	1	80	0	0	0	WM Stimuli\	0.4	1093	0.5	1268.6	0.7	1025.28571428571	0.7	1179.14285714286	0.6	1147	0.6	1229.5	0.7	1070.85714285714	0.6	1080.66666666667	13	551684	2	551672	26	39	551710	-999999	551687	0	8	TrialsPROC	TO_002_TOOL2_BA.png	1	2	29	SessionSelectionList														target	2	Tools	2-Back	25	80	21	0	0	70	1	39	349901	1	13	59	347862	-1	348739	1	877	2	2	2039	52	349914	-53	0										4						29												
WM080112	857263_fnca	1	1	1	-1449929678	1	75.035	75.031	2.0.10.147	2.0.10.242	2.0.10.242	1.0.0.439	7	234	2	3	Verdana	1	80	0	0	0	WM Stimuli\	0.4	1093	0.5	1268.6	0.7	1025.28571428571	0.7	1179.14285714286	0.6	1147	0.6	1229.5	0.7	1070.85714285714	0.6	1080.66666666667	13	551684	2	551672	26	39	551710	-999999	551687	0	8	TrialsPROC	TO_001_TOOL1_BA.png	1	2	30	SessionSelectionList														lure	3	Tools	2-Back	26	80	22	0	0	70	2	39	352460	1	13	59	350421	-1	351546	0	1125	2	3	2039	52	352473	-53	0										5						30												
WM080112	857263_fnca	1	1	1	-1449929678	1	75.035	75.031	2.0.10.147	2.0.10.242	2.0.10.242	1.0.0.439	7	234	2	3	Verdana	1	80	0	0	0	WM Stimuli\	0.4	1093	0.5	1268.6	0.7	1025.28571428571	0.7	1179.14285714286	0.6	1147	0.6	1229.5	0.7	1070.85714285714	0.6	1080.66666666667	13	551684	2	551672	26	39	551710	-999999	551687	0	8	TrialsPROC	TO_004_TOOL4_BA.png	1	2	31	SessionSelectionList														lure	3	Tools	2-Back	27	80	23	0	0	70	3	39	355019	1	13	59	352980	-1	354226	0	1246	2	3	2039	52	355032	-53	0										6						31												
WM080112	857263_fnca	1	1	1	-1449929678	1	75.035	75.031	2.0.10.147	2.0.10.242	2.0.10.242	1.0.0.439	7	234	2	3	Verdana	1	80	0	0	0	WM Stimuli\	0.4	1093	0.5	1268.6	0.7	1025.28571428571	0.7	1179.14285714286	0.6	1147	0.6	1229.5	0.7	1070.85714285714	0.6	1080.66666666667	13	551684	2	551672	26	39	551710	-999999	551687	0	8	TrialsPROC	TO_006_TOOL6_BA.png	1	2	32	SessionSelectionList														nonlure	3	Tools	2-Back	28	80	24	0	0	70	1	39	357578	1	13	59	355539	-1	356566	1	1027	3	3	2039	52	357591	-53	0										7						32												
WM080112	857263_fnca	1	1	1	-1449929678	1	75.035	75.031	2.0.10.147	2.0.10.242	2.0.10.242	1.0.0.439	7	234	2	3	Verdana	1	80	0	0	0	WM Stimuli\	0.4	1093	0.5	1268.6	0.7	1025.28571428571	0.7	1179.14285714286	0.6	1147	0.6	1229.5	0.7	1070.85714285714	0.6	1080.66666666667	13	551684	2	551672	26	39	551710	-999999	551687	0	8	TrialsPROC	TO_005_TOOL5_BA.png	1	2	33	SessionSelectionList														nonlure	3	Tools	2-Back	29	80	25	0	0	70	2	39	360137	1	13	59	358098	-1	359127	1	1029	3	3	2039	52	360150	-53	0										8						33												
WM080112	857263_fnca	1	1	1	-1449929678	1	75.035	75.031	2.0.10.147	2.0.10.242	2.0.10.242	1.0.0.439	7	234	2	3	Verdana	1	80	0	0	0	WM Stimuli\	0.4	1093	0.5	1268.6	0.7	1025.28571428571	0.7	1179.14285714286	0.6	1147	0.6	1229.5	0.7	1070.85714285714	0.6	1080.66666666667	13	551684	2	551672	26	39	551710	-999999	551687	0	8	TrialsPROC	TO_006_TOOL6_BA.png	1	2	34	SessionSelectionList														target	2	Tools	2-Back	30	80	26	0	0	70	1	39	362696	1	13	59	360657	-1	361687	1	1030	2	2	2039	52	362709	-53	0										9						34												
WM080112	857263_fnca	1	1	1	-1449929678	1	75.035	75.031	2.0.10.147	2.0.10.242	2.0.10.242	1.0.0.439	7	234	2	3	Verdana	1	80	0	0	0	WM Stimuli\	0.4	1093	0.5	1268.6	0.7	1025.28571428571	0.7	1179.14285714286	0.6	1147	0.6	1229.5	0.7	1070.85714285714	0.6	1080.66666666667	13	551684	2	551672	26	39	551710	-999999	551687	0	8	TrialsPROC	TO_003_TOOL3_BA.png	1	2	35	SessionSelectionList														nonlure	3	Tools	2-Back	31	80	27	0	0	70	1	40	365255	1	13	58	363215	-1	364130	1	915	3	3	2040	53	365268	-54	0										10						35												
WM080112	857263_fnca	1	1	1	-1449929678	1	75.035	75.031	2.0.10.147	2.0.10.242	2.0.10.242	1.0.0.439	7	234	2	3	Verdana	1	80	0	0	0	WM Stimuli\	0.4	1093	0.5	1268.6	0.7	1025.28571428571	0.7	1179.14285714286	0.6	1147	0.6	1229.5	0.7	1070.85714285714	0.6	1080.66666666667	13	551684	2	551672	26	39	551710	-999999	551687	0	9	Cue0BackPROC	BP_007_BP20_BA.png	1	2	36	SessionSelectionList																																										19	365734	-20	0												36												
WM080112	857263_fnca	1	1	1	-1449929678	1	75.035	75.031	2.0.10.147	2.0.10.242	2.0.10.242	1.0.0.439	7	234	2	3	Verdana	1	80	0	0	0	WM Stimuli\	0.4	1093	0.5	1268.6	0.7	1025.28571428571	0.7	1179.14285714286	0.6	1147	0.6	1229.5	0.7	1070.85714285714	0.6	1080.66666666667	13	551684	2	551672	26	39	551710	-999999	551687	0	10	TrialsPROC	BP_007_BP20_BA.png	1	2	37	SessionSelectionList														target	2	Body	0-Back	32	80	28	0	0	64	2	39	370306	1	13	52	368267	-1	369730	0	1463	3	2	2039	52	370319	-53	0											1					37												
WM080112	857263_fnca	1	1	1	-1449929678	1	75.035	75.031	2.0.10.147	2.0.10.242	2.0.10.242	1.0.0.439	7	234	2	3	Verdana	1	80	0	0	0	WM Stimuli\	0.4	1093	0.5	1268.6	0.7	1025.28571428571	0.7	1179.14285714286	0.6	1147	0.6	1229.5	0.7	1070.85714285714	0.6	1080.66666666667	13	551684	2	551672	26	39	551710	-999999	551687	0	10	TrialsPROC	BP_011_BP4_BA.png	1	2	38	SessionSelectionList														nonlure	3	Body	0-Back	33	80	29	0	0	67	3	39	372865	1	13	59	370826	-1	372344	1	1518	3	3	2039	52	372878	-53	0											2					38												
WM080112	857263_fnca	1	1	1	-1449929678	1	75.035	75.031	2.0.10.147	2.0.10.242	2.0.10.242	1.0.0.439	7	234	2	3	Verdana	1	80	0	0	0	WM Stimuli\	0.4	1093	0.5	1268.6	0.7	1025.28571428571	0.7	1179.14285714286	0.6	1147	0.6	1229.5	0.7	1070.85714285714	0.6	1080.66666666667	13	551684	2	551672	26	39	551710	-999999	551687	0	10	TrialsPROC	BP_010_BP3_BA.png	1	2	39	SessionSelectionList														nonlure	3	Body	0-Back	34	80	30	0	0	69	4	39	375424	1	13	59	373385	-1	374706	1	1321	3	3	2039	52	375437	-53	0											3					39												
WM080112	857263_fnca	1	1	1	-1449929678	1	75.035	75.031	2.0.10.147	2.0.10.242	2.0.10.242	1.0.0.439	7	234	2	3	Verdana	1	80	0	0	0	WM Stimuli\	0.4	1093	0.5	1268.6	0.7	1025.28571428571	0.7	1179.14285714286	0.6	1147	0.6	1229.5	0.7	1070.85714285714	0.6	1080.66666666667	13	551684	2	551672	26	39	551710	-999999	551687	0	10	TrialsPROC	BP_008_BP21_BA.png	1	2	40	SessionSelectionList														nonlure	3	Body	0-Back	35	80	31	0	0	71	5	40	377983	1	13	58	375943	-1	377310	1	1367	3	3	2040	53	377996	-54	0											4					40												
WM080112	857263_fnca	1	1	1	-1449929678	1	75.035	75.031	2.0.10.147	2.0.10.242	2.0.10.242	1.0.0.439	7	234	2	3	Verdana	1	80	0	0	0	WM Stimuli\	0.4	1093	0.5	1268.6	0.7	1025.28571428571	0.7	1179.14285714286	0.6	1147	0.6	1229.5	0.7	1070.85714285714	0.6	1080.66666666667	13	551684	2	551672	26	39	551710	-999999	551687	0	10	TrialsPROC	BP_011_BP4_BA.png	1	2	41	SessionSelectionList														lure	3	Body	0-Back	36	80	32	0	0	67	1	39	380555	1	13	73	378516	-1	379437	0	921	2	3	2039	52	380568	-53	0											5					41												
WM080112	857263_fnca	1	1	1	-1449929678	1	75.035	75.031	2.0.10.147	2.0.10.242	2.0.10.242	1.0.0.439	7	234	2	3	Verdana	1	80	0	0	0	WM Stimuli\	0.4	1093	0.5	1268.6	0.7	1025.28571428571	0.7	1179.14285714286	0.6	1147	0.6	1229.5	0.7	1070.85714285714	0.6	1080.66666666667	13	551684	2	551672	26	39	551710	-999999	551687	0	10	TrialsPROC	BP_009_BP22_BA.png	1	2	42	SessionSelectionList														nonlure	3	Body	0-Back	37	80	33	0	0	69	1	39	383114	1	13	59	381075	-1	382000	1	925	3	3	2039	52	383127	-53	0											6					42												
WM080112	857263_fnca	1	1	1	-1449929678	1	75.035	75.031	2.0.10.147	2.0.10.242	2.0.10.242	1.0.0.439	7	234	2	3	Verdana	1	80	0	0	0	WM Stimuli\	0.4	1093	0.5	1268.6	0.7	1025.28571428571	0.7	1179.14285714286	0.6	1147	0.6	1229.5	0.7	1070.85714285714	0.6	1080.66666666667	13	551684	2	551672	26	39	551710	-999999	551687	0	10	TrialsPROC	BP_009_BP22_BA.png	1	2	43	SessionSelectionList														lure	3	Body	0-Back	38	80	34	0	0	65	1	39	385673	1	13	59	383634	-1	384903	0	1269	2	3	2039	52	385686	-53	0											7					43												
WM080112	857263_fnca	1	1	1	-1449929678	1	75.035	75.031	2.0.10.147	2.0.10.242	2.0.10.242	1.0.0.439	7	234	2	3	Verdana	1	80	0	0	0	WM Stimuli\	0.4	1093	0.5	1268.6	0.7	1025.28571428571	0.7	1179.14285714286	0.6	1147	0.6	1229.5	0.7	1070.85714285714	0.6	1080.66666666667	13	551684	2	551672	26	39	551710	-999999	551687	0	10	TrialsPROC	BP_008_BP21_BA.png	1	2	44	SessionSelectionList														lure	3	Body	0-Back	39	80	35	0	0	61	2	39	388232	1	13	59	386193	-1	387192	0	999	2	3	2039	52	388245	-53	0											8					44												
WM080112	857263_fnca	1	1	1	-1449929678	1	75.035	75.031	2.0.10.147	2.0.10.242	2.0.10.242	1.0.0.439	7	234	2	3	Verdana	1	80	0	0	0	WM Stimuli\	0.4	1093	0.5	1268.6	0.7	1025.28571428571	0.7	1179.14285714286	0.6	1147	0.6	1229.5	0.7	1070.85714285714	0.6	1080.66666666667	13	551684	2	551672	26	39	551710	-999999	551687	0	10	TrialsPROC	BP_007_BP20_BA.png	1	2	45	SessionSelectionList														target	2	Body	0-Back	40	80	36	0	0	58	1	39	390791	1	13	59	388752	-1	389941	0	1189	3	2	2039	52	390804	-53	0											9					45												
WM080112	857263_fnca	1	1	1	-1449929678	1	75.035	75.031	2.0.10.147	2.0.10.242	2.0.10.242	1.0.0.439	7	234	2	3	Verdana	1	80	0	0	0	WM Stimuli\	0.4	1093	0.5	1268.6	0.7	1025.28571428571	0.7	1179.14285714286	0.6	1147	0.6	1229.5	0.7	1070.85714285714	0.6	1080.66666666667	13	551684	2	551672	26	39	551710	-999999	551687	0	10	TrialsPROC	BP_012_BP5_BA.png	1	2	46	SessionSelectionList														nonlure	3	Body	0-Back	41	80	37	0	0	60	2	39	393363	1	13	72	391324	-1	392536	1	1212	3	3	2039	52	393376	-53	0											10					46												
WM080112	857263_fnca	1	1	1	-1449929678	1	75.035	75.031	2.0.10.147	2.0.10.242	2.0.10.242	1.0.0.439	7	234	2	3	Verdana	1	80	0	0	0	WM Stimuli\	0.4	1093	0.5	1268.6	0.7	1025.28571428571	0.7	1179.14285714286	0.6	1147	0.6	1229.5	0.7	1070.85714285714	0.6	1080.66666666667	13	551684	2	551672	26	39	551710	-999999	551687	0	11	Fix15secPROC	""	1	2	47	SessionSelectionList																																															5	393829	-6	0							47												
WM080112	857263_fnca	1	1	1	-1449929678	1	75.035	75.031	2.0.10.147	2.0.10.242	2.0.10.242	1.0.0.439	7	234	2	3	Verdana	1	80	0	0	0	WM Stimuli\	0.4	1093	0.5	1268.6	0.7	1025.28571428571	0.7	1179.14285714286	0.6	1147	0.6	1229.5	0.7	1070.85714285714	0.6	1080.66666666667	13	551684	2	551672	26	39	551710	-999999	551687	0	12	Cue0BackPROC	PL_001_92012.png	1	2	48	SessionSelectionList																																										12	408836	-13	0												48												
WM080112	857263_fnca	1	1	1	-1449929678	1	75.035	75.031	2.0.10.147	2.0.10.242	2.0.10.242	1.0.0.439	7	234	2	3	Verdana	1	80	0	0	0	WM Stimuli\	0.4	1093	0.5	1268.6	0.7	1025.28571428571	0.7	1179.14285714286	0.6	1147	0.6	1229.5	0.7	1070.85714285714	0.6	1080.66666666667	13	551684	2	551672	26	39	551710	-999999	551687	0	13	TrialsPROC	PL_003_92016.png	1	2	49	SessionSelectionList														nonlure	3	Place	0-Back	42	80	38	0	0	62	3	40	413435	1	13	71	411395	-1	412696	1	1301	3	3	2040	53	413448	-54	0												1				49												
WM080112	857263_fnca	1	1	1	-1449929678	1	75.035	75.031	2.0.10.147	2.0.10.242	2.0.10.242	1.0.0.439	7	234	2	3	Verdana	1	80	0	0	0	WM Stimuli\	0.4	1093	0.5	1268.6	0.7	1025.28571428571	0.7	1179.14285714286	0.6	1147	0.6	1229.5	0.7	1070.85714285714	0.6	1080.66666666667	13	551684	2	551672	26	39	551710	-999999	551687	0	13	TrialsPROC	PL_003_92016.png	1	2	50	SessionSelectionList														lure	3	Place	0-Back	43	80	39	0	0	64	4	39	416007	1	13	73	413968	-1	415817	1	1849	3	3	2039	52	416020	-53	0												2				50												
WM080112	857263_fnca	1	1	1	-1449929678	1	75.035	75.031	2.0.10.147	2.0.10.242	2.0.10.242	1.0.0.439	7	234	2	3	Verdana	1	80	0	0	0	WM Stimuli\	0.4	1093	0.5	1268.6	0.7	1025.28571428571	0.7	1179.14285714286	0.6	1147	0.6	1229.5	0.7	1070.85714285714	0.6	1080.66666666667	13	551684	2	551672	26	39	551710	-999999	551687	0	13	TrialsPROC	PL_006_92025.png	1	2	51	SessionSelectionList														nonlure	3	Place	0-Back	44	80	40	0	0	65	5	39	418579	1	14	72	416540	-1	418135	1	1595	3	3	2039	53	418593	-54	0												3				51												
WM080112	857263_fnca	1	1	1	-1449929678	1	75.035	75.031	2.0.10.147	2.0.10.242	2.0.10.242	1.0.0.439	7	234	2	3	Verdana	1	80	0	0	0	WM Stimuli\	0.4	1093	0.5	1268.6	0.7	1025.28571428571	0.7	1179.14285714286	0.6	1147	0.6	1229.5	0.7	1070.85714285714	0.6	1080.66666666667	13	551684	2	551672	26	39	551710	-999999	551687	0	13	TrialsPROC	PL_001_92012.png	1	2	52	SessionSelectionList														target	2	Place	0-Back	45	80	41	0	0	67	1	39	421151	2	14	72	419112	-1	419816	1	704	2	2	2039	53	421165	-54	0												4				52												
WM080112	857263_fnca	1	1	1	-1449929678	1	75.035	75.031	2.0.10.147	2.0.10.242	2.0.10.242	1.0.0.439	7	234	2	3	Verdana	1	80	0	0	0	WM Stimuli\	0.4	1093	0.5	1268.6	0.7	1025.28571428571	0.7	1179.14285714286	0.6	1147	0.6	1229.5	0.7	1070.85714285714	0.6	1080.66666666667	13	551684	2	551672	26	39	551710	-999999	551687	0	13	TrialsPROC	PL_004_92023.png	1	2	53	SessionSelectionList														nonlure	3	Place	0-Back	46	80	42	0	0	68	1	40	423724	1	13	72	421684	-1	422453	1	769	3	3	2040	53	423737	-54	0												5				53												
WM080112	857263_fnca	1	1	1	-1449929678	1	75.035	75.031	2.0.10.147	2.0.10.242	2.0.10.242	1.0.0.439	7	234	2	3	Verdana	1	80	0	0	0	WM Stimuli\	0.4	1093	0.5	1268.6	0.7	1025.28571428571	0.7	1179.14285714286	0.6	1147	0.6	1229.5	0.7	1070.85714285714	0.6	1080.66666666667	13	551684	2	551672	26	39	551710	-999999	551687	0	13	TrialsPROC	PL_005_92024.png	1	2	54	SessionSelectionList														nonlure	3	Place	0-Back	47	80	43	0	0	65	1	40	426283	1	13	59	424243	-1	425039	0	796	2	3	2040	53	426296	-54	0												6				54												
WM080112	857263_fnca	1	1	1	-1449929678	1	75.035	75.031	2.0.10.147	2.0.10.242	2.0.10.242	1.0.0.439	7	234	2	3	Verdana	1	80	0	0	0	WM Stimuli\	0.4	1093	0.5	1268.6	0.7	1025.28571428571	0.7	1179.14285714286	0.6	1147	0.6	1229.5	0.7	1070.85714285714	0.6	1080.66666666667	13	551684	2	551672	26	39	551710	-999999	551687	0	13	TrialsPROC	PL_001_92012.png	1	2	55	SessionSelectionList														target	2	Place	0-Back	48	80	44	0	0	63	1	39	428841	2	14	59	426802	-1	427990	0	1188	3	2	2039	53	428855	-54	0												7				55												
WM080112	857263_fnca	1	1	1	-1449929678	1	75.035	75.031	2.0.10.147	2.0.10.242	2.0.10.242	1.0.0.439	7	234	2	3	Verdana	1	80	0	0	0	WM Stimuli\	0.4	1093	0.5	1268.6	0.7	1025.28571428571	0.7	1179.14285714286	0.6	1147	0.6	1229.5	0.7	1070.85714285714	0.6	1080.66666666667	13	551684	2	551672	26	39	551710	-999999	551687	0	13	TrialsPROC	PL_002_92014.png	1	2	56	SessionSelectionList														nonlure	3	Place	0-Back	49	80	45	0	0	64	2	39	431414	1	13	73	429375	-1	430534	1	1159	3	3	2039	52	431427	-53	0												8				56												
WM080112	857263_fnca	1	1	1	-1449929678	1	75.035	75.031	2.0.10.147	2.0.10.242	2.0.10.242	1.0.0.439	7	234	2	3	Verdana	1	80	0	0	0	WM Stimuli\	0.4	1093	0.5	1268.6	0.7	1025.28571428571	0.7	1179.14285714286	0.6	1147	0.6	1229.5	0.7	1070.85714285714	0.6	1080.66666666667	13	551684	2	551672	26	39	551710	-999999	551687	0	13	TrialsPROC	PL_004_92023.png	1	2	57	SessionSelectionList														lure	3	Place	0-Back	50	80	46	0	0	62	1	39	433973	1	13	59	431934	-1	432710	0	776	2	3	2039	52	433986	-53	0												9				57												
WM080112	857263_fnca	1	1	1	-1449929678	1	75.035	75.031	2.0.10.147	2.0.10.242	2.0.10.242	1.0.0.439	7	234	2	3	Verdana	1	80	0	0	0	WM Stimuli\	0.4	1093	0.5	1268.6	0.7	1025.28571428571	0.7	1179.14285714286	0.6	1147	0.6	1229.5	0.7	1070.85714285714	0.6	1080.66666666667	13	551684	2	551672	26	39	551710	-999999	551687	0	13	TrialsPROC	PL_006_92025.png	1	2	58	SessionSelectionList														lure	3	Place	0-Back	51	80	47	0	0	60	2	40	436532	1	13	58	434492	-1	436091	0	1599	2	3	2040	53	436545	-54	0												10				58												
WM080112	857263_fnca	1	1	1	-1449929678	1	75.035	75.031	2.0.10.147	2.0.10.242	2.0.10.242	1.0.0.439	7	234	2	3	Verdana	1	80	0	0	0	WM Stimuli\	0.4	1093	0.5	1268.6	0.7	1025.28571428571	0.7	1179.14285714286	0.6	1147	0.6	1229.5	0.7	1070.85714285714	0.6	1080.66666666667	13	551684	2	551672	26	39	551710	-999999	551687	0	14	Cue2BackPROC	""	1	2	59	SessionSelectionList									6	436998	-7	0																																													59												
WM080112	857263_fnca	1	1	1	-1449929678	1	75.035	75.031	2.0.10.147	2.0.10.242	2.0.10.242	1.0.0.439	7	234	2	3	Verdana	1	80	0	0	0	WM Stimuli\	0.4	1093	0.5	1268.6	0.7	1025.28571428571	0.7	1179.14285714286	0.6	1147	0.6	1229.5	0.7	1070.85714285714	0.6	1080.66666666667	13	551684	2	551672	26	39	551710	-999999	551687	0	15	TrialsPROC	FC_010_F5.png	1	2	60	SessionSelectionList														nonlure	3	Face	2-Back	52	80	47	0	1	60	2	39	441596	2	14	65	439557	-1	0	0	0	""	3	2039	53	441610	-54	0													1			60												
WM080112	857263_fnca	1	1	1	-1449929678	1	75.035	75.031	2.0.10.147	2.0.10.242	2.0.10.242	1.0.0.439	7	234	2	3	Verdana	1	80	0	0	0	WM Stimuli\	0.4	1093	0.5	1268.6	0.7	1025.28571428571	0.7	1179.14285714286	0.6	1147	0.6	1229.5	0.7	1070.85714285714	0.6	1080.66666666667	13	551684	2	551672	26	39	551710	-999999	551687	0	15	TrialsPROC	FC_012_F6.png	1	2	61	SessionSelectionList														nonlure	3	Face	2-Back	53	80	48	0	0	60	1	39	444168	2	14	72	442129	-1	442736	1	607	3	3	2039	53	444182	-54	0													2			61												
WM080112	857263_fnca	1	1	1	-1449929678	1	75.035	75.031	2.0.10.147	2.0.10.242	2.0.10.242	1.0.0.439	7	234	2	3	Verdana	1	80	0	0	0	WM Stimuli\	0.4	1093	0.5	1268.6	0.7	1025.28571428571	0.7	1179.14285714286	0.6	1147	0.6	1229.5	0.7	1070.85714285714	0.6	1080.66666666667	13	551684	2	551672	26	39	551710	-999999	551687	0	15	TrialsPROC	FC_010_F5.png	1	2	62	SessionSelectionList														target	2	Face	2-Back	54	80	49	0	0	60	1	39	446741	1	13	73	444702	-1	445628	1	926	2	2	2039	52	446754	-53	0													3			62												
WM080112	857263_fnca	1	1	1	-1449929678	1	75.035	75.031	2.0.10.147	2.0.10.242	2.0.10.242	1.0.0.439	7	234	2	3	Verdana	1	80	0	0	0	WM Stimuli\	0.4	1093	0.5	1268.6	0.7	1025.28571428571	0.7	1179.14285714286	0.6	1147	0.6	1229.5	0.7	1070.85714285714	0.6	1080.66666666667	13	551684	2	551672	26	39	551710	-999999	551687	0	15	TrialsPROC	FC_008_F4.png	1	2	63	SessionSelectionList														nonlure	3	Face	2-Back	55	80	50	0	0	60	1	39	449313	1	13	72	447274	-1	448466	1	1192	3	3	2039	52	449326	-53	0													4			63												
WM080112	857263_fnca	1	1	1	-1449929678	1	75.035	75.031	2.0.10.147	2.0.10.242	2.0.10.242	1.0.0.439	7	234	2	3	Verdana	1	80	0	0	0	WM Stimuli\	0.4	1093	0.5	1268.6	0.7	1025.28571428571	0.7	1179.14285714286	0.6	1147	0.6	1229.5	0.7	1070.85714285714	0.6	1080.66666666667	13	551684	2	551672	26	39	551710	-999999	551687	0	15	TrialsPROC	FC_012_F6.png	1	2	64	SessionSelectionList														lure	3	Face	2-Back	56	80	51	0	0	60	1	39	451885	2	14	72	449846	-1	450947	0	1101	2	3	2039	53	451899	-54	0													5			64												
WM080112	857263_fnca	1	1	1	-1449929678	1	75.035	75.031	2.0.10.147	2.0.10.242	2.0.10.242	1.0.0.439	7	234	2	3	Verdana	1	80	0	0	0	WM Stimuli\	0.4	1093	0.5	1268.6	0.7	1025.28571428571	0.7	1179.14285714286	0.6	1147	0.6	1229.5	0.7	1070.85714285714	0.6	1080.66666666667	13	551684	2	551672	26	39	551710	-999999	551687	0	15	TrialsPROC	FC_008_F4.png	1	2	65	SessionSelectionList														target	2	Face	2-Back	57	80	52	0	0	60	2	39	454457	2	14	72	452418	-1	453863	1	1445	2	2	2039	53	454471	-54	0													6			65												
WM080112	857263_fnca	1	1	1	-1449929678	1	75.035	75.031	2.0.10.147	2.0.10.242	2.0.10.242	1.0.0.439	7	234	2	3	Verdana	1	80	0	0	0	WM Stimuli\	0.4	1093	0.5	1268.6	0.7	1025.28571428571	0.7	1179.14285714286	0.6	1147	0.6	1229.5	0.7	1070.85714285714	0.6	1080.66666666667	13	551684	2	551672	26	39	551710	-999999	551687	0	15	TrialsPROC	FC_007_M4.png	1	2	66	SessionSelectionList														nonlure	3	Face	2-Back	58	80	53	0	0	60	1	39	457030	1	13	73	454991	-1	455893	1	902	3	3	2039	52	457043	-53	0													7			66												
WM080112	857263_fnca	1	1	1	-1449929678	1	75.035	75.031	2.0.10.147	2.0.10.242	2.0.10.242	1.0.0.439	7	234	2	3	Verdana	1	80	0	0	0	WM Stimuli\	0.4	1093	0.5	1268.6	0.7	1025.28571428571	0.7	1179.14285714286	0.6	1147	0.6	1229.5	0.7	1070.85714285714	0.6	1080.66666666667	13	551684	2	551672	26	39	551710	-999999	551687	0	15	TrialsPROC	FC_007_M4.png	1	2	67	SessionSelectionList														lure	3	Face	2-Back	59	80	54	0	0	60	1	39	459602	1	13	72	457563	-1	459458	0	1895	2	3	2039	52	459615	-53	0													8			67												
WM080112	857263_fnca	1	1	1	-1449929678	1	75.035	75.031	2.0.10.147	2.0.10.242	2.0.10.242	1.0.0.439	7	234	2	3	Verdana	1	80	0	0	0	WM Stimuli\	0.4	1093	0.5	1268.6	0.7	1025.28571428571	0.7	1179.14285714286	0.6	1147	0.6	1229.5	0.7	1070.85714285714	0.6	1080.66666666667	13	551684	2	551672	26	39	551710	-999999	551687	0	15	TrialsPROC	FC_009_M5.png	1	2	68	SessionSelectionList														nonlure	3	Face	2-Back	60	80	55	0	0	60	1	39	462174	2	14	72	460135	-1	461150	1	1015	3	3	2039	53	462188	-54	0													9			68												
WM080112	857263_fnca	1	1	1	-1449929678	1	75.035	75.031	2.0.10.147	2.0.10.242	2.0.10.242	1.0.0.439	7	234	2	3	Verdana	1	80	0	0	0	WM Stimuli\	0.4	1093	0.5	1268.6	0.7	1025.28571428571	0.7	1179.14285714286	0.6	1147	0.6	1229.5	0.7	1070.85714285714	0.6	1080.66666666667	13	551684	2	551672	26	39	551710	-999999	551687	0	15	TrialsPROC	FC_011_M6.png	1	2	69	SessionSelectionList														nonlure	3	Face	2-Back	61	80	56	0	0	60	2	39	464760	1	13	86	462721	-1	463811	1	1090	3	3	2039	52	464773	-53	0													10			69												
WM080112	857263_fnca	1	1	1	-1449929678	1	75.035	75.031	2.0.10.147	2.0.10.242	2.0.10.242	1.0.0.439	7	234	2	3	Verdana	1	80	0	0	0	WM Stimuli\	0.4	1093	0.5	1268.6	0.7	1025.28571428571	0.7	1179.14285714286	0.6	1147	0.6	1229.5	0.7	1070.85714285714	0.6	1080.66666666667	13	551684	2	551672	26	39	551710	-999999	551687	0	16	Fix15secPROC	""	1	2	70	SessionSelectionList																																															5	465226	-6	0							70												
WM080112	857263_fnca	1	1	1	-1449929678	1	75.035	75.031	2.0.10.147	2.0.10.242	2.0.10.242	1.0.0.439	7	234	2	3	Verdana	1	80	0	0	0	WM Stimuli\	0.4	1093	0.5	1268.6	0.7	1025.28571428571	0.7	1179.14285714286	0.6	1147	0.6	1229.5	0.7	1070.85714285714	0.6	1080.66666666667	13	551684	2	551672	26	39	551710	-999999	551687	0	17	Cue0BackPROC	TO_007_TOOL7_BA.png	1	2	71	SessionSelectionList																																										39	480260	-40	0												71												
WM080112	857263_fnca	1	1	1	-1449929678	1	75.035	75.031	2.0.10.147	2.0.10.242	2.0.10.242	1.0.0.439	7	234	2	3	Verdana	1	80	0	0	0	WM Stimuli\	0.4	1093	0.5	1268.6	0.7	1025.28571428571	0.7	1179.14285714286	0.6	1147	0.6	1229.5	0.7	1070.85714285714	0.6	1080.66666666667	13	551684	2	551672	26	39	551710	-999999	551687	0	18	TrialsPROC	TO_010_TOOL10_BA.png	1	2	72	SessionSelectionList														nonlure	3	Tools	0-Back	62	80	57	0	0	61	3	39	484845	1	13	85	482806	-1	484498	1	1692	3	3	2039	52	484858	-53	0														1		72												
WM080112	857263_fnca	1	1	1	-1449929678	1	75.035	75.031	2.0.10.147	2.0.10.242	2.0.10.242	1.0.0.439	7	234	2	3	Verdana	1	80	0	0	0	WM Stimuli\	0.4	1093	0.5	1268.6	0.7	1025.28571428571	0.7	1179.14285714286	0.6	1147	0.6	1229.5	0.7	1070.85714285714	0.6	1080.66666666667	13	551684	2	551672	26	39	551710	-999999	551687	0	18	TrialsPROC	TO_009_TOOL9_BA.png	1	2	73	SessionSelectionList														nonlure	3	Tools	0-Back	63	80	58	0	0	62	4	39	487430	2	14	85	485391	-1	486160	1	769	3	3	2039	53	487444	-54	0														2		73												
WM080112	857263_fnca	1	1	1	-1449929678	1	75.035	75.031	2.0.10.147	2.0.10.242	2.0.10.242	1.0.0.439	7	234	2	3	Verdana	1	80	0	0	0	WM Stimuli\	0.4	1093	0.5	1268.6	0.7	1025.28571428571	0.7	1179.14285714286	0.6	1147	0.6	1229.5	0.7	1070.85714285714	0.6	1080.66666666667	13	551684	2	551672	26	39	551710	-999999	551687	0	18	TrialsPROC	TO_009_TOOL9_BA.png	1	2	74	SessionSelectionList														lure	3	Tools	0-Back	64	80	59	0	0	61	1	39	489989	2	14	59	487950	-1	489000	0	1050	2	3	2039	53	490003	-54	0														3		74												
WM080112	857263_fnca	1	1	1	-1449929678	1	75.035	75.031	2.0.10.147	2.0.10.242	2.0.10.242	1.0.0.439	7	234	2	3	Verdana	1	80	0	0	0	WM Stimuli\	0.4	1093	0.5	1268.6	0.7	1025.28571428571	0.7	1179.14285714286	0.6	1147	0.6	1229.5	0.7	1070.85714285714	0.6	1080.66666666667	13	551684	2	551672	26	39	551710	-999999	551687	0	18	TrialsPROC	TO_008_TOOL8_BA.png	1	2	75	SessionSelectionList														nonlure	3	Tools	0-Back	65	80	60	0	0	62	1	39	492575	1	13	86	490536	-1	491449	1	913	3	3	2039	52	492588	-53	0														4		75												
WM080112	857263_fnca	1	1	1	-1449929678	1	75.035	75.031	2.0.10.147	2.0.10.242	2.0.10.242	1.0.0.439	7	234	2	3	Verdana	1	80	0	0	0	WM Stimuli\	0.4	1093	0.5	1268.6	0.7	1025.28571428571	0.7	1179.14285714286	0.6	1147	0.6	1229.5	0.7	1070.85714285714	0.6	1080.66666666667	13	551684	2	551672	26	39	551710	-999999	551687	0	18	TrialsPROC	TO_011_TOOL11_BA.png	1	2	76	SessionSelectionList														nonlure	3	Tools	0-Back	66	80	61	0	0	63	2	40	495161	1	13	85	493121	-1	494030	1	909	3	3	2040	53	495174	-54	0														5		76												
WM080112	857263_fnca	1	1	1	-1449929678	1	75.035	75.031	2.0.10.147	2.0.10.242	2.0.10.242	1.0.0.439	7	234	2	3	Verdana	1	80	0	0	0	WM Stimuli\	0.4	1093	0.5	1268.6	0.7	1025.28571428571	0.7	1179.14285714286	0.6	1147	0.6	1229.5	0.7	1070.85714285714	0.6	1080.66666666667	13	551684	2	551672	26	39	551710	-999999	551687	0	18	TrialsPROC	TO_012_TOOL12_BA.png	1	2	77	SessionSelectionList														nonlure	3	Tools	0-Back	67	80	62	0	0	64	3	39	497746	2	14	86	495707	-1	496593	1	886	3	3	2039	53	497760	-54	0														6		77												
WM080112	857263_fnca	1	1	1	-1449929678	1	75.035	75.031	2.0.10.147	2.0.10.242	2.0.10.242	1.0.0.439	7	234	2	3	Verdana	1	80	0	0	0	WM Stimuli\	0.4	1093	0.5	1268.6	0.7	1025.28571428571	0.7	1179.14285714286	0.6	1147	0.6	1229.5	0.7	1070.85714285714	0.6	1080.66666666667	13	551684	2	551672	26	39	551710	-999999	551687	0	18	TrialsPROC	TO_010_TOOL10_BA.png	1	2	78	SessionSelectionList														lure	3	Tools	0-Back	68	80	63	0	0	62	1	39	500305	2	14	59	498266	-1	499228	0	962	2	3	2039	53	500319	-54	0														7		78												
WM080112	857263_fnca	1	1	1	-1449929678	1	75.035	75.031	2.0.10.147	2.0.10.242	2.0.10.242	1.0.0.439	7	234	2	3	Verdana	1	80	0	0	0	WM Stimuli\	0.4	1093	0.5	1268.6	0.7	1025.28571428571	0.7	1179.14285714286	0.6	1147	0.6	1229.5	0.7	1070.85714285714	0.6	1080.66666666667	13	551684	2	551672	26	39	551710	-999999	551687	0	18	TrialsPROC	TO_007_TOOL7_BA.png	1	2	79	SessionSelectionList														target	2	Tools	0-Back	69	80	64	0	0	63	2	39	502864	1	13	59	500825	-1	502140	1	1315	2	2	2039	52	502877	-53	0														8		79												
WM080112	857263_fnca	1	1	1	-1449929678	1	75.035	75.031	2.0.10.147	2.0.10.242	2.0.10.242	1.0.0.439	7	234	2	3	Verdana	1	80	0	0	0	WM Stimuli\	0.4	1093	0.5	1268.6	0.7	1025.28571428571	0.7	1179.14285714286	0.6	1147	0.6	1229.5	0.7	1070.85714285714	0.6	1080.66666666667	13	551684	2	551672	26	39	551710	-999999	551687	0	18	TrialsPROC	TO_008_TOOL8_BA.png	1	2	80	SessionSelectionList														lure	3	Tools	0-Back	70	80	65	0	0	62	3	39	505423	1	13	59	503384	-1	504700	0	1316	2	3	2039	52	505436	-53	0														9		80												
WM080112	857263_fnca	1	1	1	-1449929678	1	75.035	75.031	2.0.10.147	2.0.10.242	2.0.10.242	1.0.0.439	7	234	2	3	Verdana	1	80	0	0	0	WM Stimuli\	0.4	1093	0.5	1268.6	0.7	1025.28571428571	0.7	1179.14285714286	0.6	1147	0.6	1229.5	0.7	1070.85714285714	0.6	1080.66666666667	13	551684	2	551672	26	39	551710	-999999	551687	0	18	TrialsPROC	TO_007_TOOL7_BA.png	1	2	81	SessionSelectionList														target	2	Tools	0-Back	71	80	66	0	0	60	1	39	507982	1	13	59	505943	-1	507657	0	1714	3	2	2039	52	507995	-53	0														10		81												
WM080112	857263_fnca	1	1	1	-1449929678	1	75.035	75.031	2.0.10.147	2.0.10.242	2.0.10.242	1.0.0.439	7	234	2	3	Verdana	1	80	0	0	0	WM Stimuli\	0.4	1093	0.5	1268.6	0.7	1025.28571428571	0.7	1179.14285714286	0.6	1147	0.6	1229.5	0.7	1070.85714285714	0.6	1080.66666666667	13	551684	2	551672	26	39	551710	-999999	551687	0	19	Cue2BackPROC	""	1	2	82	SessionSelectionList									5	508448	-6	0																																													82												
WM080112	857263_fnca	1	1	1	-1449929678	1	75.035	75.031	2.0.10.147	2.0.10.242	2.0.10.242	1.0.0.439	7	234	2	3	Verdana	1	80	0	0	0	WM Stimuli\	0.4	1093	0.5	1268.6	0.7	1025.28571428571	0.7	1179.14285714286	0.6	1147	0.6	1229.5	0.7	1070.85714285714	0.6	1080.66666666667	13	551684	2	551672	26	39	551710	-999999	551687	0	20	TrialsPROC	PL_007_92026.png	1	2	83	SessionSelectionList														nonlure	3	Place	2-Back	72	80	66	0	1	60	1	39	513060	1	13	78	511021	-1	0	0	0	""	3	2039	52	513073	-53	0															1	83												
WM080112	857263_fnca	1	1	1	-1449929678	1	75.035	75.031	2.0.10.147	2.0.10.242	2.0.10.242	1.0.0.439	7	234	2	3	Verdana	1	80	0	0	0	WM Stimuli\	0.4	1093	0.5	1268.6	0.7	1025.28571428571	0.7	1179.14285714286	0.6	1147	0.6	1229.5	0.7	1070.85714285714	0.6	1080.66666666667	13	551684	2	551672	26	39	551710	-999999	551687	0	20	TrialsPROC	PL_007_92026.png	1	2	84	SessionSelectionList														lure	3	Place	2-Back	73	80	67	0	0	60	1	39	515619	1	13	59	513580	-1	514704	0	1124	2	3	2039	52	515632	-53	0															2	84												
WM080112	857263_fnca	1	1	1	-1449929678	1	75.035	75.031	2.0.10.147	2.0.10.242	2.0.10.242	1.0.0.439	7	234	2	3	Verdana	1	80	0	0	0	WM Stimuli\	0.4	1093	0.5	1268.6	0.7	1025.28571428571	0.7	1179.14285714286	0.6	1147	0.6	1229.5	0.7	1070.85714285714	0.6	1080.66666666667	13	551684	2	551672	26	39	551710	-999999	551687	0	20	TrialsPROC	PL_010_92038.png	1	2	85	SessionSelectionList														nonlure	3	Place	2-Back	74	80	68	0	0	60	1	39	518191	1	13	72	516152	-1	517566	1	1414	3	3	2039	52	518204	-53	0															3	85												
WM080112	857263_fnca	1	1	1	-1449929678	1	75.035	75.031	2.0.10.147	2.0.10.242	2.0.10.242	1.0.0.439	7	234	2	3	Verdana	1	80	0	0	0	WM Stimuli\	0.4	1093	0.5	1268.6	0.7	1025.28571428571	0.7	1179.14285714286	0.6	1147	0.6	1229.5	0.7	1070.85714285714	0.6	1080.66666666667	13	551684	2	551672	26	39	551710	-999999	551687	0	20	TrialsPROC	PL_009_92037.png	1	2	86	SessionSelectionList														nonlure	3	Place	2-Back	75	80	69	0	0	60	2	40	520777	1	13	85	518737	-1	519783	1	1046	3	3	2040	53	520790	-54	0															4	86												
WM080112	857263_fnca	1	1	1	-1449929678	1	75.035	75.031	2.0.10.147	2.0.10.242	2.0.10.242	1.0.0.439	7	234	2	3	Verdana	1	80	0	0	0	WM Stimuli\	0.4	1093	0.5	1268.6	0.7	1025.28571428571	0.7	1179.14285714286	0.6	1147	0.6	1229.5	0.7	1070.85714285714	0.6	1080.66666666667	13	551684	2	551672	26	39	551710	-999999	551687	0	20	TrialsPROC	PL_010_92038.png	1	2	87	SessionSelectionList														target	2	Place	2-Back	76	80	70	0	0	60	1	38	523335	2	14	60	521297	-1	522013	1	716	2	2	2038	52	523349	-53	0															5	87												
WM080112	857263_fnca	1	1	1	-1449929678	1	75.035	75.031	2.0.10.147	2.0.10.242	2.0.10.242	1.0.0.439	7	234	2	3	Verdana	1	80	0	0	0	WM Stimuli\	0.4	1093	0.5	1268.6	0.7	1025.28571428571	0.7	1179.14285714286	0.6	1147	0.6	1229.5	0.7	1070.85714285714	0.6	1080.66666666667	13	551684	2	551672	26	39	551710	-999999	551687	0	20	TrialsPROC	PL_009_92037.png	1	2	88	SessionSelectionList														target	2	Place	2-Back	77	80	71	0	0	60	1	39	525894	2	14	58	523855	-1	525059	0	1204	3	2	2039	53	525908	-54	0															6	88												
WM080112	857263_fnca	1	1	1	-1449929678	1	75.035	75.031	2.0.10.147	2.0.10.242	2.0.10.242	1.0.0.439	7	234	2	3	Verdana	1	80	0	0	0	WM Stimuli\	0.4	1093	0.5	1268.6	0.7	1025.28571428571	0.7	1179.14285714286	0.6	1147	0.6	1229.5	0.7	1070.85714285714	0.6	1080.66666666667	13	551684	2	551672	26	39	551710	-999999	551687	0	20	TrialsPROC	PL_008_92033.png	1	2	89	SessionSelectionList														nonlure	3	Place	2-Back	78	80	72	0	0	60	2	39	528480	1	13	86	526441	-1	527415	1	974	3	3	2039	52	528493	-53	0															7	89												
WM080112	857263_fnca	1	1	1	-1449929678	1	75.035	75.031	2.0.10.147	2.0.10.242	2.0.10.242	1.0.0.439	7	234	2	3	Verdana	1	80	0	0	0	WM Stimuli\	0.4	1093	0.5	1268.6	0.7	1025.28571428571	0.7	1179.14285714286	0.6	1147	0.6	1229.5	0.7	1070.85714285714	0.6	1080.66666666667	13	551684	2	551672	26	39	551710	-999999	551687	0	20	TrialsPROC	PL_012_92047.png	1	2	90	SessionSelectionList														nonlure	3	Place	2-Back	79	80	73	0	0	60	3	40	531066	1	13	85	529026	-1	530707	1	1681	3	3	2040	53	531079	-54	0															8	90												
WM080112	857263_fnca	1	1	1	-1449929678	1	75.035	75.031	2.0.10.147	2.0.10.242	2.0.10.242	1.0.0.439	7	234	2	3	Verdana	1	80	0	0	0	WM Stimuli\	0.4	1093	0.5	1268.6	0.7	1025.28571428571	0.7	1179.14285714286	0.6	1147	0.6	1229.5	0.7	1070.85714285714	0.6	1080.66666666667	13	551684	2	551672	26	39	551710	-999999	551687	0	20	TrialsPROC	PL_012_92047.png	1	2	91	SessionSelectionList														lure	3	Place	2-Back	80	80	74	0	0	60	1	40	533625	1	13	59	531585	-1	532477	0	892	2	3	2040	53	533638	-54	0															9	91												
WM080112	857263_fnca	1	1	1	-1449929678	1	75.035	75.031	2.0.10.147	2.0.10.242	2.0.10.242	1.0.0.439	7	234	2	3	Verdana	1	80	0	0	0	WM Stimuli\	0.4	1093	0.5	1268.6	0.7	1025.28571428571	0.7	1179.14285714286	0.6	1147	0.6	1229.5	0.7	1070.85714285714	0.6	1080.66666666667	13	551684	2	551672	26	39	551710	-999999	551687	0	20	TrialsPROC	PL_011_92044.png	1	2	92	SessionSelectionList														nonlure	3	Place	2-Back	80	80	75	0	0	60	1	39	536210	2	14	86	534171	-1	535222	1	1051	3	3	2039	53	536224	-54	0															10	92												
WM080112	857263_fnca	1	1	1	-1449929678	1	75.035	75.031	2.0.10.147	2.0.10.242	2.0.10.242	1.0.0.439	7	234	2	3	Verdana	1	80	0	0	0	WM Stimuli\	0.4	1093	0.5	1268.6	0.7	1025.28571428571	0.7	1179.14285714286	0.6	1147	0.6	1229.5	0.7	1070.85714285714	0.6	1080.66666666667	13	551684	2	551672	26	39	551710	-999999	551687	0	21	Fix15secPROC	""	1	2	93	SessionSelectionList																																															6	536677	-7	0							93												
