ExperimentName	HCPID	RunNumber	Subject	Session	RandomSeed	Group	Laptop.RefreshRate	ScannerD2.RefreshRate	StudioVersion	RuntimeVersion	RuntimeVersionExpected	ExperimentVersion	triggercode	Allowed	Target	Nontarget	FontStyle	RunTrialNumber[Session]	TrialsPerRun[Session]	TotalRespGreater200[Session]	ConsecRTLess200[Session]	ConsecNonResp[Session]	StimuliDir	ACC_2_Back_Body	Avg_RT_For_Correct_Trials_2_Back_Body	ACC_0_Back_Body	Avg_RT_For_Correct_Trials_0_Back_Body	ACC_2_Back_Face	Avg_RT_For_Correct_Trials_2_Back_Face	ACC_0_Back_Face	Avg_RT_For_Correct_Trials_0_Back_Face	ACC_2_Back_Place	Avg_RT_For_Correct_Trials_2_Back_Place	ACC_0_Back_Place	Avg_RT_For_Correct_Trials_0_Back_Place	ACC_2_Back_Tools	Avg_RT_For_Correct_Trials_2_Back_Tools	ACC_0_Back_Tools	Avg_RT_For_Correct_Trials_0_Back_Tools	ExpInstrucFeelFreeToRest.OnsetDelay	ExpInstrucFeelFreeToRest.OnsetTime	ExpInstrucFeelFreeToRest.DurationError	ExpInstrucFeelFreeToRest.StartTime	ExpInstrucFeelFreeToRest.OnsetToOnsetTime	FeelFreeToRest.OnsetDelay	FeelFreeToRest.OnsetTime	FeelFreeToRest.DurationError	FeelFreeToRest.StartTime	FeelFreeToRest.OnsetToOnsetTime	SessionSelectionList	Procedure[Block]	Stimulus[Block]	RunNumberFilterValue	SessionSelectionList.Cycle	SessionSelectionList.Sample	Running[Block]	IntroButtonMap.OnsetDelay	IntroButtonMap.OnsetTime	IntroButtonMap.DurationError	IntroButtonMap.OnsetToOnsetTime	GetReady.OnsetDelay	GetReady.OnsetTime	GetReady.DurationError	GetReady.OnsetToOnsetTime	Cue2Back.OnsetDelay	Cue2Back.OnsetTime	Cue2Back.DurationError	Cue2Back.OnsetToOnsetTime	Run1Block1	TargetType	CorrectResponse	StimType	BlockType	RunTrialNumber[Block]	TrialsPerRun[Block]	TotalRespGreater200[Block]	ConsecRTLess200[Block]	ConsecNonResp[Block]	ControlAcc	ConsecSameResp	ExperimenterWindow.OnsetDelay	ExperimenterWindow.OnsetTime	ExperimenterWindow.DurationError	ExperimenterWindow.OnsetToOnsetTime	Stim.OnsetDelay	Stim.OnsetTime	Stim.DurationError	Stim.RTTime	Stim.ACC	Stim.RT	Stim.RESP	Stim.CRESP	Stim.OnsetToOnsetTime	Fix.OnsetDelay	Fix.OnsetTime	Fix.DurationError	Fix.OnsetToOnsetTime	CueTarget.OnsetDelay	CueTarget.OnsetTime	CueTarget.DurationError	CueTarget.OnsetToOnsetTime	Run1Block2	Fix15sec.OnsetDelay	Fix15sec.OnsetTime	Fix15sec.DurationError	Fix15sec.OnsetToOnsetTime	Run1Block3	Run1Block4	Run1Block5	Run1Block6	Run1Block7	Run1Block8	Block	Procedure[Trial]	Stimulus[Trial]	ReadyList	Running[Trial]	ReadyList.Cycle	ReadyList.Sample	SyncSlide.OnsetDelay	SyncSlide.OnsetTime	SyncSlide.DurationError	SyncSlide.FinishTime	SyncSlide.OnsetToOnsetTime	Trial
WM080112	856766	1	1	1	103918057	1	75.031	75.030	2.0.10.147	2.0.10.242	2.0.10.242	1.0.0.439	7	234	2	3	Verdana	1	80	0	0	0	WM Stimuli\	0.4	847.25	0.9	892	0.8	739.375	0.8	717.5	0.9	910	1	723.1	0.8	807	0.9	569.777777777778	13	602644	3	602632	27	40	602671	-999999	602647	0	1	TRSyncPROC	""	1	2	1	SessionSelectionList	118	16457	-999999	0	33	293077	-999999	0																																																	1	InitialTR	4	1	ReadyList	1	1	13	309097	-14	311083	0	1
WM080112	856766	1	1	1	103918057	1	75.031	75.030	2.0.10.147	2.0.10.242	2.0.10.242	1.0.0.439	7	234	2	3	Verdana	1	80	0	0	0	WM Stimuli\	0.4	847.25	0.9	892	0.8	739.375	0.8	717.5	0.9	910	1	723.1	0.8	807	0.9	569.777777777778	13	602644	3	602632	27	40	602671	-999999	602647	0	1	TRSyncPROC	""	1	2	1	SessionSelectionList	118	16457	-999999	0	33	293077	-999999	0																																																	1	InitialTR	3	2	ReadyList	1	2	12	311096	-13	313083	0	2
WM080112	856766	1	1	1	103918057	1	75.031	75.030	2.0.10.147	2.0.10.242	2.0.10.242	1.0.0.439	7	234	2	3	Verdana	1	80	0	0	0	WM Stimuli\	0.4	847.25	0.9	892	0.8	739.375	0.8	717.5	0.9	910	1	723.1	0.8	807	0.9	569.777777777778	13	602644	3	602632	27	40	602671	-999999	602647	0	1	TRSyncPROC	""	1	2	1	SessionSelectionList	118	16457	-999999	0	33	293077	-999999	0																																																	1	InitialTR	2	3	ReadyList	1	3	12	313096	-13	315083	0	3
WM080112	856766	1	1	1	103918057	1	75.031	75.030	2.0.10.147	2.0.10.242	2.0.10.242	1.0.0.439	7	234	2	3	Verdana	1	80	0	0	0	WM Stimuli\	0.4	847.25	0.9	892	0.8	739.375	0.8	717.5	0.9	910	1	723.1	0.8	807	0.9	569.777777777778	13	602644	3	602632	27	40	602671	-999999	602647	0	1	TRSyncPROC	""	1	2	1	SessionSelectionList	118	16457	-999999	0	33	293077	-999999	0																																																	1	InitialTR	1	4	ReadyList	1	4	11	315095	-12	317083	0	4
WM080112	856766	1	1	1	103918057	1	75.031	75.030	2.0.10.147	2.0.10.242	2.0.10.242	1.0.0.439	7	234	2	3	Verdana	1	80	0	0	0	WM Stimuli\	0.4	847.25	0.9	892	0.8	739.375	0.8	717.5	0.9	910	1	723.1	0.8	807	0.9	569.777777777778	13	602644	3	602632	27	40	602671	-999999	602647	0	2	Cue2BackPROC	""	1	2	2	SessionSelectionList									10	317094	-11	0																																													2												
WM080112	856766	1	1	1	103918057	1	75.031	75.030	2.0.10.147	2.0.10.242	2.0.10.242	1.0.0.439	7	234	2	3	Verdana	1	80	0	0	0	WM Stimuli\	0.4	847.25	0.9	892	0.8	739.375	0.8	717.5	0.9	910	1	723.1	0.8	807	0.9	569.777777777778	13	602644	3	602632	27	40	602671	-999999	602647	0	3	TrialsPROC	BP_002_BP10_BA.png	1	2	3	SessionSelectionList													1	nonlure	3	Body	2-Back	2	80	0	0	1	0	0	52	321732	3	14	96	319680	-1	0	0	0	""	3	2052	66	321746	-67	0																3												
WM080112	856766	1	1	1	103918057	1	75.031	75.030	2.0.10.147	2.0.10.242	2.0.10.242	1.0.0.439	7	234	2	3	Verdana	1	80	0	0	0	WM Stimuli\	0.4	847.25	0.9	892	0.8	739.375	0.8	717.5	0.9	910	1	723.1	0.8	807	0.9	569.777777777778	13	602644	3	602632	27	40	602671	-999999	602647	0	3	TrialsPROC	BP_001_BP1_BA.png	1	2	4	SessionSelectionList													2	nonlure	3	Body	2-Back	3	80	0	0	2	0	0	39	324304	3	14	85	322265	-1	0	0	0	""	3	2039	53	324318	-54	0																4												
WM080112	856766	1	1	1	103918057	1	75.031	75.030	2.0.10.147	2.0.10.242	2.0.10.242	1.0.0.439	7	234	2	3	Verdana	1	80	0	0	0	WM Stimuli\	0.4	847.25	0.9	892	0.8	739.375	0.8	717.5	0.9	910	1	723.1	0.8	807	0.9	569.777777777778	13	602644	3	602632	27	40	602671	-999999	602647	0	3	TrialsPROC	BP_006_BP2_BA.png	1	2	5	SessionSelectionList													3	nonlure	3	Body	2-Back	4	80	1	0	0	0	1	39	326863	2	14	59	324824	-1	325269	1	445	3	3	2039	53	326877	-54	0																5												
WM080112	856766	1	1	1	103918057	1	75.031	75.030	2.0.10.147	2.0.10.242	2.0.10.242	1.0.0.439	7	234	2	3	Verdana	1	80	0	0	0	WM Stimuli\	0.4	847.25	0.9	892	0.8	739.375	0.8	717.5	0.9	910	1	723.1	0.8	807	0.9	569.777777777778	13	602644	3	602632	27	40	602671	-999999	602647	0	3	TrialsPROC	BP_001_BP1_BA.png	1	2	6	SessionSelectionList													4	target	2	Body	2-Back	5	80	2	0	0	0	2	40	329436	1	13	72	327396	-1	328847	0	1451	3	2	2040	53	329449	-54	0																6												
WM080112	856766	1	1	1	103918057	1	75.031	75.030	2.0.10.147	2.0.10.242	2.0.10.242	1.0.0.439	7	234	2	3	Verdana	1	80	0	0	0	WM Stimuli\	0.4	847.25	0.9	892	0.8	739.375	0.8	717.5	0.9	910	1	723.1	0.8	807	0.9	569.777777777778	13	602644	3	602632	27	40	602671	-999999	602647	0	3	TrialsPROC	BP_005_BP19_BA.png	1	2	7	SessionSelectionList													5	nonlure	3	Body	2-Back	6	80	3	0	0	0	3	39	332008	1	13	73	329969	-1	331038	1	1069	3	3	2039	52	332021	-53	0																7												
WM080112	856766	1	1	1	103918057	1	75.031	75.030	2.0.10.147	2.0.10.242	2.0.10.242	1.0.0.439	7	234	2	3	Verdana	1	80	0	0	0	WM Stimuli\	0.4	847.25	0.9	892	0.8	739.375	0.8	717.5	0.9	910	1	723.1	0.8	807	0.9	569.777777777778	13	602644	3	602632	27	40	602671	-999999	602647	0	3	TrialsPROC	BP_003_BP16_BA.png	1	2	8	SessionSelectionList													6	nonlure	3	Body	2-Back	7	80	4	0	0	0	4	39	334580	2	14	72	332541	-1	333731	1	1190	3	3	2039	53	334594	-54	0																8												
WM080112	856766	1	1	1	103918057	1	75.031	75.030	2.0.10.147	2.0.10.242	2.0.10.242	1.0.0.439	7	234	2	3	Verdana	1	80	0	0	0	WM Stimuli\	0.4	847.25	0.9	892	0.8	739.375	0.8	717.5	0.9	910	1	723.1	0.8	807	0.9	569.777777777778	13	602644	3	602632	27	40	602671	-999999	602647	0	3	TrialsPROC	BP_006_BP2_BA.png	1	2	9	SessionSelectionList													7	lure	3	Body	2-Back	8	80	5	0	0	0	1	39	337139	1	14	59	335100	-1	335562	0	462	2	3	2039	53	337153	-54	0																9												
WM080112	856766	1	1	1	103918057	1	75.031	75.030	2.0.10.147	2.0.10.242	2.0.10.242	1.0.0.439	7	234	2	3	Verdana	1	80	0	0	0	WM Stimuli\	0.4	847.25	0.9	892	0.8	739.375	0.8	717.5	0.9	910	1	723.1	0.8	807	0.9	569.777777777778	13	602644	3	602632	27	40	602671	-999999	602647	0	3	TrialsPROC	BP_004_BP18_BA.png	1	2	10	SessionSelectionList													8	nonlure	3	Body	2-Back	9	80	6	0	0	0	1	39	339711	2	14	72	337672	-1	338357	1	685	3	3	2039	53	339725	-54	0																10												
WM080112	856766	1	1	1	103918057	1	75.031	75.030	2.0.10.147	2.0.10.242	2.0.10.242	1.0.0.439	7	234	2	3	Verdana	1	80	0	0	0	WM Stimuli\	0.4	847.25	0.9	892	0.8	739.375	0.8	717.5	0.9	910	1	723.1	0.8	807	0.9	569.777777777778	13	602644	3	602632	27	40	602671	-999999	602647	0	3	TrialsPROC	BP_005_BP19_BA.png	1	2	11	SessionSelectionList													9	lure	3	Body	2-Back	10	80	7	0	0	0	1	39	342270	2	14	59	340231	-1	340921	0	690	2	3	2039	53	342284	-54	0																11												
WM080112	856766	1	1	1	103918057	1	75.031	75.030	2.0.10.147	2.0.10.242	2.0.10.242	1.0.0.439	7	234	2	3	Verdana	1	80	0	0	0	WM Stimuli\	0.4	847.25	0.9	892	0.8	739.375	0.8	717.5	0.9	910	1	723.1	0.8	807	0.9	569.777777777778	13	602644	3	602632	27	40	602671	-999999	602647	0	3	TrialsPROC	BP_004_BP18_BA.png	1	2	12	SessionSelectionList													10	target	2	Body	2-Back	11	80	8	0	0	0	1	39	344829	2	14	59	342790	-1	343627	0	837	3	2	2039	53	344843	-54	0																12												
WM080112	856766	1	1	1	103918057	1	75.031	75.030	2.0.10.147	2.0.10.242	2.0.10.242	1.0.0.439	7	234	2	3	Verdana	1	80	0	0	0	WM Stimuli\	0.4	847.25	0.9	892	0.8	739.375	0.8	717.5	0.9	910	1	723.1	0.8	807	0.9	569.777777777778	13	602644	3	602632	27	40	602671	-999999	602647	0	4	Cue0BackPROC	FC_001_M1.png	1	2	13	SessionSelectionList																																										19	345309	-20	0												13												
WM080112	856766	1	1	1	103918057	1	75.031	75.030	2.0.10.147	2.0.10.242	2.0.10.242	1.0.0.439	7	234	2	3	Verdana	1	80	0	0	0	WM Stimuli\	0.4	847.25	0.9	892	0.8	739.375	0.8	717.5	0.9	910	1	723.1	0.8	807	0.9	569.777777777778	13	602644	3	602632	27	40	602671	-999999	602647	0	5	TrialsPROC	FC_005_M3.png	1	2	14	SessionSelectionList														nonlure	3	Face	0-Back	12	80	9	0	0	0	1	39	349894	1	13	65	347855	-1	348768	0	913	2	3	2039	52	349907	-53	0					1											14												
WM080112	856766	1	1	1	103918057	1	75.031	75.030	2.0.10.147	2.0.10.242	2.0.10.242	1.0.0.439	7	234	2	3	Verdana	1	80	0	0	0	WM Stimuli\	0.4	847.25	0.9	892	0.8	739.375	0.8	717.5	0.9	910	1	723.1	0.8	807	0.9	569.777777777778	13	602644	3	602632	27	40	602671	-999999	602647	0	5	TrialsPROC	FC_001_M1.png	1	2	15	SessionSelectionList														target	2	Face	0-Back	13	80	10	0	0	50	2	39	352466	2	14	72	350427	-1	351181	1	754	2	2	2039	53	352480	-54	0					2											15												
WM080112	856766	1	1	1	103918057	1	75.031	75.030	2.0.10.147	2.0.10.242	2.0.10.242	1.0.0.439	7	234	2	3	Verdana	1	80	0	0	0	WM Stimuli\	0.4	847.25	0.9	892	0.8	739.375	0.8	717.5	0.9	910	1	723.1	0.8	807	0.9	569.777777777778	13	602644	3	602632	27	40	602671	-999999	602647	0	5	TrialsPROC	FC_003_M2.png	1	2	16	SessionSelectionList														nonlure	3	Face	0-Back	14	80	11	0	0	67	1	39	355038	2	14	72	352999	-1	353725	1	726	3	3	2039	53	355052	-54	0					3											16												
WM080112	856766	1	1	1	103918057	1	75.031	75.030	2.0.10.147	2.0.10.242	2.0.10.242	1.0.0.439	7	234	2	3	Verdana	1	80	0	0	0	WM Stimuli\	0.4	847.25	0.9	892	0.8	739.375	0.8	717.5	0.9	910	1	723.1	0.8	807	0.9	569.777777777778	13	602644	3	602632	27	40	602671	-999999	602647	0	5	TrialsPROC	FC_004_F2.png	1	2	17	SessionSelectionList														nonlure	3	Face	0-Back	15	80	12	0	0	75	2	39	357611	1	13	73	355572	-1	356329	1	757	3	3	2039	52	357624	-53	0					4											17												
WM080112	856766	1	1	1	103918057	1	75.031	75.030	2.0.10.147	2.0.10.242	2.0.10.242	1.0.0.439	7	234	2	3	Verdana	1	80	0	0	0	WM Stimuli\	0.4	847.25	0.9	892	0.8	739.375	0.8	717.5	0.9	910	1	723.1	0.8	807	0.9	569.777777777778	13	602644	3	602632	27	40	602671	-999999	602647	0	5	TrialsPROC	FC_004_F2.png	1	2	18	SessionSelectionList														lure	3	Face	0-Back	16	80	13	0	0	80	3	39	360183	1	14	72	358144	-1	358800	1	656	3	3	2039	53	360197	-54	0					5											18												
WM080112	856766	1	1	1	103918057	1	75.031	75.030	2.0.10.147	2.0.10.242	2.0.10.242	1.0.0.439	7	234	2	3	Verdana	1	80	0	0	0	WM Stimuli\	0.4	847.25	0.9	892	0.8	739.375	0.8	717.5	0.9	910	1	723.1	0.8	807	0.9	569.777777777778	13	602644	3	602632	27	40	602671	-999999	602647	0	5	TrialsPROC	FC_001_M1.png	1	2	19	SessionSelectionList														target	2	Face	0-Back	17	80	14	0	0	83	1	39	362755	2	14	72	360716	-1	361512	1	796	2	2	2039	53	362769	-54	0					6											19												
WM080112	856766	1	1	1	103918057	1	75.031	75.030	2.0.10.147	2.0.10.242	2.0.10.242	1.0.0.439	7	234	2	3	Verdana	1	80	0	0	0	WM Stimuli\	0.4	847.25	0.9	892	0.8	739.375	0.8	717.5	0.9	910	1	723.1	0.8	807	0.9	569.777777777778	13	602644	3	602632	27	40	602671	-999999	602647	0	5	TrialsPROC	FC_006_F3.png	1	2	20	SessionSelectionList														nonlure	3	Face	0-Back	18	80	15	0	0	86	1	40	365328	1	13	72	363288	-1	363967	1	679	3	3	2040	53	365341	-54	0					7											20												
WM080112	856766	1	1	1	103918057	1	75.031	75.030	2.0.10.147	2.0.10.242	2.0.10.242	1.0.0.439	7	234	2	3	Verdana	1	80	0	0	0	WM Stimuli\	0.4	847.25	0.9	892	0.8	739.375	0.8	717.5	0.9	910	1	723.1	0.8	807	0.9	569.777777777778	13	602644	3	602632	27	40	602671	-999999	602647	0	5	TrialsPROC	FC_006_F3.png	1	2	21	SessionSelectionList														lure	3	Face	0-Back	19	80	16	0	0	88	2	39	367900	1	13	73	365861	-1	366485	1	624	3	3	2039	52	367913	-53	0					8											21												
WM080112	856766	1	1	1	103918057	1	75.031	75.030	2.0.10.147	2.0.10.242	2.0.10.242	1.0.0.439	7	234	2	3	Verdana	1	80	0	0	0	WM Stimuli\	0.4	847.25	0.9	892	0.8	739.375	0.8	717.5	0.9	910	1	723.1	0.8	807	0.9	569.777777777778	13	602644	3	602632	27	40	602671	-999999	602647	0	5	TrialsPROC	FC_003_M2.png	1	2	22	SessionSelectionList														lure	3	Face	0-Back	20	80	17	0	0	78	1	39	370472	2	14	72	368433	-1	369122	0	689	2	3	2039	53	370486	-54	0					9											22												
WM080112	856766	1	1	1	103918057	1	75.031	75.030	2.0.10.147	2.0.10.242	2.0.10.242	1.0.0.439	7	234	2	3	Verdana	1	80	0	0	0	WM Stimuli\	0.4	847.25	0.9	892	0.8	739.375	0.8	717.5	0.9	910	1	723.1	0.8	807	0.9	569.777777777778	13	602644	3	602632	27	40	602671	-999999	602647	0	5	TrialsPROC	FC_002_F1.png	1	2	23	SessionSelectionList														nonlure	3	Face	0-Back	21	80	18	0	0	80	1	39	373044	2	14	72	371005	-1	371753	1	748	3	3	2039	53	373058	-54	0					10											23												
WM080112	856766	1	1	1	103918057	1	75.031	75.030	2.0.10.147	2.0.10.242	2.0.10.242	1.0.0.439	7	234	2	3	Verdana	1	80	0	0	0	WM Stimuli\	0.4	847.25	0.9	892	0.8	739.375	0.8	717.5	0.9	910	1	723.1	0.8	807	0.9	569.777777777778	13	602644	3	602632	27	40	602671	-999999	602647	0	6	Fix15secPROC	""	1	2	24	SessionSelectionList																																															6	373511	-7	0							24												
WM080112	856766	1	1	1	103918057	1	75.031	75.030	2.0.10.147	2.0.10.242	2.0.10.242	1.0.0.439	7	234	2	3	Verdana	1	80	0	0	0	WM Stimuli\	0.4	847.25	0.9	892	0.8	739.375	0.8	717.5	0.9	910	1	723.1	0.8	807	0.9	569.777777777778	13	602644	3	602632	27	40	602671	-999999	602647	0	7	Cue2BackPROC	""	1	2	25	SessionSelectionList									13	388518	-14	0																																													25												
WM080112	856766	1	1	1	103918057	1	75.031	75.030	2.0.10.147	2.0.10.242	2.0.10.242	1.0.0.439	7	234	2	3	Verdana	1	80	0	0	0	WM Stimuli\	0.4	847.25	0.9	892	0.8	739.375	0.8	717.5	0.9	910	1	723.1	0.8	807	0.9	569.777777777778	13	602644	3	602632	27	40	602671	-999999	602647	0	8	TrialsPROC	TO_001_TOOL1_BA.png	1	2	26	SessionSelectionList														nonlure	3	Tools	2-Back	22	80	19	0	0	80	2	39	393103	1	14	59	391064	-1	392241	1	1177	3	3	2039	53	393117	-54	0										1						26												
WM080112	856766	1	1	1	103918057	1	75.031	75.030	2.0.10.147	2.0.10.242	2.0.10.242	1.0.0.439	7	234	2	3	Verdana	1	80	0	0	0	WM Stimuli\	0.4	847.25	0.9	892	0.8	739.375	0.8	717.5	0.9	910	1	723.1	0.8	807	0.9	569.777777777778	13	602644	3	602632	27	40	602671	-999999	602647	0	8	TrialsPROC	TO_002_TOOL2_BA.png	1	2	27	SessionSelectionList														nonlure	3	Tools	2-Back	23	80	19	0	1	80	2	39	395662	1	13	59	393623	-1	0	0	0	""	3	2039	52	395675	-53	0										2						27												
WM080112	856766	1	1	1	103918057	1	75.031	75.030	2.0.10.147	2.0.10.242	2.0.10.242	1.0.0.439	7	234	2	3	Verdana	1	80	0	0	0	WM Stimuli\	0.4	847.25	0.9	892	0.8	739.375	0.8	717.5	0.9	910	1	723.1	0.8	807	0.9	569.777777777778	13	602644	3	602632	27	40	602671	-999999	602647	0	8	TrialsPROC	TO_004_TOOL4_BA.png	1	2	28	SessionSelectionList														nonlure	3	Tools	2-Back	24	80	20	0	0	80	1	39	398221	1	13	59	396182	-1	396532	1	350	3	3	2039	52	398234	-53	0										3						28												
WM080112	856766	1	1	1	103918057	1	75.031	75.030	2.0.10.147	2.0.10.242	2.0.10.242	1.0.0.439	7	234	2	3	Verdana	1	80	0	0	0	WM Stimuli\	0.4	847.25	0.9	892	0.8	739.375	0.8	717.5	0.9	910	1	723.1	0.8	807	0.9	569.777777777778	13	602644	3	602632	27	40	602671	-999999	602647	0	8	TrialsPROC	TO_002_TOOL2_BA.png	1	2	29	SessionSelectionList														target	2	Tools	2-Back	25	80	21	0	0	80	1	39	400780	1	13	59	398741	-1	399531	1	790	2	2	2039	52	400793	-53	0										4						29												
WM080112	856766	1	1	1	103918057	1	75.031	75.030	2.0.10.147	2.0.10.242	2.0.10.242	1.0.0.439	7	234	2	3	Verdana	1	80	0	0	0	WM Stimuli\	0.4	847.25	0.9	892	0.8	739.375	0.8	717.5	0.9	910	1	723.1	0.8	807	0.9	569.777777777778	13	602644	3	602632	27	40	602671	-999999	602647	0	8	TrialsPROC	TO_001_TOOL1_BA.png	1	2	30	SessionSelectionList														lure	3	Tools	2-Back	26	80	22	0	0	80	1	39	403339	1	13	59	401300	-1	402415	1	1115	3	3	2039	52	403352	-53	0										5						30												
WM080112	856766	1	1	1	103918057	1	75.031	75.030	2.0.10.147	2.0.10.242	2.0.10.242	1.0.0.439	7	234	2	3	Verdana	1	80	0	0	0	WM Stimuli\	0.4	847.25	0.9	892	0.8	739.375	0.8	717.5	0.9	910	1	723.1	0.8	807	0.9	569.777777777778	13	602644	3	602632	27	40	602671	-999999	602647	0	8	TrialsPROC	TO_004_TOOL4_BA.png	1	2	31	SessionSelectionList														lure	3	Tools	2-Back	27	80	23	0	0	80	1	39	405898	1	13	59	403859	-1	405021	0	1162	2	3	2039	52	405911	-53	0										6						31												
WM080112	856766	1	1	1	103918057	1	75.031	75.030	2.0.10.147	2.0.10.242	2.0.10.242	1.0.0.439	7	234	2	3	Verdana	1	80	0	0	0	WM Stimuli\	0.4	847.25	0.9	892	0.8	739.375	0.8	717.5	0.9	910	1	723.1	0.8	807	0.9	569.777777777778	13	602644	3	602632	27	40	602671	-999999	602647	0	8	TrialsPROC	TO_006_TOOL6_BA.png	1	2	32	SessionSelectionList														nonlure	3	Tools	2-Back	28	80	24	0	0	80	1	40	408457	1	13	58	406417	-1	407279	1	862	3	3	2040	53	408470	-54	0										7						32												
WM080112	856766	1	1	1	103918057	1	75.031	75.030	2.0.10.147	2.0.10.242	2.0.10.242	1.0.0.439	7	234	2	3	Verdana	1	80	0	0	0	WM Stimuli\	0.4	847.25	0.9	892	0.8	739.375	0.8	717.5	0.9	910	1	723.1	0.8	807	0.9	569.777777777778	13	602644	3	602632	27	40	602671	-999999	602647	0	8	TrialsPROC	TO_005_TOOL5_BA.png	1	2	33	SessionSelectionList														nonlure	3	Tools	2-Back	29	80	25	0	0	80	2	40	411016	1	13	59	408976	-1	409629	1	653	3	3	2040	53	411029	-54	0										8						33												
WM080112	856766	1	1	1	103918057	1	75.031	75.030	2.0.10.147	2.0.10.242	2.0.10.242	1.0.0.439	7	234	2	3	Verdana	1	80	0	0	0	WM Stimuli\	0.4	847.25	0.9	892	0.8	739.375	0.8	717.5	0.9	910	1	723.1	0.8	807	0.9	569.777777777778	13	602644	3	602632	27	40	602671	-999999	602647	0	8	TrialsPROC	TO_006_TOOL6_BA.png	1	2	34	SessionSelectionList														target	2	Tools	2-Back	30	80	26	0	0	80	1	40	413575	1	13	59	411535	-1	412264	1	729	2	2	2040	53	413588	-54	0										9						34												
WM080112	856766	1	1	1	103918057	1	75.031	75.030	2.0.10.147	2.0.10.242	2.0.10.242	1.0.0.439	7	234	2	3	Verdana	1	80	0	0	0	WM Stimuli\	0.4	847.25	0.9	892	0.8	739.375	0.8	717.5	0.9	910	1	723.1	0.8	807	0.9	569.777777777778	13	602644	3	602632	27	40	602671	-999999	602647	0	8	TrialsPROC	TO_003_TOOL3_BA.png	1	2	35	SessionSelectionList														nonlure	3	Tools	2-Back	31	80	27	0	0	80	1	40	416134	1	13	59	414094	-1	414874	1	780	3	3	2040	53	416147	-54	0										10						35												
WM080112	856766	1	1	1	103918057	1	75.031	75.030	2.0.10.147	2.0.10.242	2.0.10.242	1.0.0.439	7	234	2	3	Verdana	1	80	0	0	0	WM Stimuli\	0.4	847.25	0.9	892	0.8	739.375	0.8	717.5	0.9	910	1	723.1	0.8	807	0.9	569.777777777778	13	602644	3	602632	27	40	602671	-999999	602647	0	9	Cue0BackPROC	BP_007_BP20_BA.png	1	2	36	SessionSelectionList																																										19	416613	-20	0												36												
WM080112	856766	1	1	1	103918057	1	75.031	75.030	2.0.10.147	2.0.10.242	2.0.10.242	1.0.0.439	7	234	2	3	Verdana	1	80	0	0	0	WM Stimuli\	0.4	847.25	0.9	892	0.8	739.375	0.8	717.5	0.9	910	1	723.1	0.8	807	0.9	569.777777777778	13	602644	3	602632	27	40	602671	-999999	602647	0	10	TrialsPROC	BP_007_BP20_BA.png	1	2	37	SessionSelectionList														target	2	Body	0-Back	32	80	27	0	1	73	1	39	421185	1	13	52	419146	-1	0	0	0	""	2	2039	52	421198	-53	0											1					37												
WM080112	856766	1	1	1	103918057	1	75.031	75.030	2.0.10.147	2.0.10.242	2.0.10.242	1.0.0.439	7	234	2	3	Verdana	1	80	0	0	0	WM Stimuli\	0.4	847.25	0.9	892	0.8	739.375	0.8	717.5	0.9	910	1	723.1	0.8	807	0.9	569.777777777778	13	602644	3	602632	27	40	602671	-999999	602647	0	10	TrialsPROC	BP_011_BP4_BA.png	1	2	38	SessionSelectionList														nonlure	3	Body	0-Back	33	80	28	0	0	75	1	39	423757	1	14	72	421718	-1	422898	1	1180	3	3	2039	53	423771	-54	0											2					38												
WM080112	856766	1	1	1	103918057	1	75.031	75.030	2.0.10.147	2.0.10.242	2.0.10.242	1.0.0.439	7	234	2	3	Verdana	1	80	0	0	0	WM Stimuli\	0.4	847.25	0.9	892	0.8	739.375	0.8	717.5	0.9	910	1	723.1	0.8	807	0.9	569.777777777778	13	602644	3	602632	27	40	602671	-999999	602647	0	10	TrialsPROC	BP_010_BP3_BA.png	1	2	39	SessionSelectionList														nonlure	3	Body	0-Back	34	80	29	0	0	77	2	39	426316	1	14	59	424277	-1	424954	1	677	3	3	2039	53	426330	-54	0											3					39												
WM080112	856766	1	1	1	103918057	1	75.031	75.030	2.0.10.147	2.0.10.242	2.0.10.242	1.0.0.439	7	234	2	3	Verdana	1	80	0	0	0	WM Stimuli\	0.4	847.25	0.9	892	0.8	739.375	0.8	717.5	0.9	910	1	723.1	0.8	807	0.9	569.777777777778	13	602644	3	602632	27	40	602671	-999999	602647	0	10	TrialsPROC	BP_008_BP21_BA.png	1	2	40	SessionSelectionList														nonlure	3	Body	0-Back	35	80	30	0	0	79	3	39	428875	1	14	59	426836	-1	427811	1	975	3	3	2039	53	428889	-54	0											4					40												
WM080112	856766	1	1	1	103918057	1	75.031	75.030	2.0.10.147	2.0.10.242	2.0.10.242	1.0.0.439	7	234	2	3	Verdana	1	80	0	0	0	WM Stimuli\	0.4	847.25	0.9	892	0.8	739.375	0.8	717.5	0.9	910	1	723.1	0.8	807	0.9	569.777777777778	13	602644	3	602632	27	40	602671	-999999	602647	0	10	TrialsPROC	BP_011_BP4_BA.png	1	2	41	SessionSelectionList														lure	3	Body	0-Back	36	80	31	0	0	80	4	39	431434	1	14	59	429395	-1	430122	1	727	3	3	2039	53	431448	-54	0											5					41												
WM080112	856766	1	1	1	103918057	1	75.031	75.030	2.0.10.147	2.0.10.242	2.0.10.242	1.0.0.439	7	234	2	3	Verdana	1	80	0	0	0	WM Stimuli\	0.4	847.25	0.9	892	0.8	739.375	0.8	717.5	0.9	910	1	723.1	0.8	807	0.9	569.777777777778	13	602644	3	602632	27	40	602671	-999999	602647	0	10	TrialsPROC	BP_009_BP22_BA.png	1	2	42	SessionSelectionList														nonlure	3	Body	0-Back	37	80	32	0	0	81	5	39	433993	1	14	59	431954	-1	432738	1	784	3	3	2039	53	434007	-54	0											6					42												
WM080112	856766	1	1	1	103918057	1	75.031	75.030	2.0.10.147	2.0.10.242	2.0.10.242	1.0.0.439	7	234	2	3	Verdana	1	80	0	0	0	WM Stimuli\	0.4	847.25	0.9	892	0.8	739.375	0.8	717.5	0.9	910	1	723.1	0.8	807	0.9	569.777777777778	13	602644	3	602632	27	40	602671	-999999	602647	0	10	TrialsPROC	BP_009_BP22_BA.png	1	2	43	SessionSelectionList														lure	3	Body	0-Back	38	80	33	0	0	82	6	39	436552	1	13	59	434513	-1	435240	1	727	3	3	2039	52	436565	-53	0											7					43												
WM080112	856766	1	1	1	103918057	1	75.031	75.030	2.0.10.147	2.0.10.242	2.0.10.242	1.0.0.439	7	234	2	3	Verdana	1	80	0	0	0	WM Stimuli\	0.4	847.25	0.9	892	0.8	739.375	0.8	717.5	0.9	910	1	723.1	0.8	807	0.9	569.777777777778	13	602644	3	602632	27	40	602671	-999999	602647	0	10	TrialsPROC	BP_008_BP21_BA.png	1	2	44	SessionSelectionList														lure	3	Body	0-Back	39	80	34	0	0	83	7	39	439111	1	13	59	437072	-1	438594	1	1522	3	3	2039	52	439124	-53	0											8					44												
WM080112	856766	1	1	1	103918057	1	75.031	75.030	2.0.10.147	2.0.10.242	2.0.10.242	1.0.0.439	7	234	2	3	Verdana	1	80	0	0	0	WM Stimuli\	0.4	847.25	0.9	892	0.8	739.375	0.8	717.5	0.9	910	1	723.1	0.8	807	0.9	569.777777777778	13	602644	3	602632	27	40	602671	-999999	602647	0	10	TrialsPROC	BP_007_BP20_BA.png	1	2	45	SessionSelectionList														target	2	Body	0-Back	40	80	35	0	0	84	1	39	441670	1	13	59	439631	-1	440468	1	837	2	2	2039	52	441683	-53	0											9					45												
WM080112	856766	1	1	1	103918057	1	75.031	75.030	2.0.10.147	2.0.10.242	2.0.10.242	1.0.0.439	7	234	2	3	Verdana	1	80	0	0	0	WM Stimuli\	0.4	847.25	0.9	892	0.8	739.375	0.8	717.5	0.9	910	1	723.1	0.8	807	0.9	569.777777777778	13	602644	3	602632	27	40	602671	-999999	602647	0	10	TrialsPROC	BP_012_BP5_BA.png	1	2	46	SessionSelectionList														nonlure	3	Body	0-Back	41	80	36	0	0	85	1	39	444229	1	13	59	442190	-1	442789	1	599	3	3	2039	52	444242	-53	0											10					46												
WM080112	856766	1	1	1	103918057	1	75.031	75.030	2.0.10.147	2.0.10.242	2.0.10.242	1.0.0.439	7	234	2	3	Verdana	1	80	0	0	0	WM Stimuli\	0.4	847.25	0.9	892	0.8	739.375	0.8	717.5	0.9	910	1	723.1	0.8	807	0.9	569.777777777778	13	602644	3	602632	27	40	602671	-999999	602647	0	11	Fix15secPROC	""	1	2	47	SessionSelectionList																																															5	444695	-6	0							47												
WM080112	856766	1	1	1	103918057	1	75.031	75.030	2.0.10.147	2.0.10.242	2.0.10.242	1.0.0.439	7	234	2	3	Verdana	1	80	0	0	0	WM Stimuli\	0.4	847.25	0.9	892	0.8	739.375	0.8	717.5	0.9	910	1	723.1	0.8	807	0.9	569.777777777778	13	602644	3	602632	27	40	602671	-999999	602647	0	12	Cue0BackPROC	PL_001_92012.png	1	2	48	SessionSelectionList																																										12	459702	-13	0												48												
WM080112	856766	1	1	1	103918057	1	75.031	75.030	2.0.10.147	2.0.10.242	2.0.10.242	1.0.0.439	7	234	2	3	Verdana	1	80	0	0	0	WM Stimuli\	0.4	847.25	0.9	892	0.8	739.375	0.8	717.5	0.9	910	1	723.1	0.8	807	0.9	569.777777777778	13	602644	3	602632	27	40	602671	-999999	602647	0	13	TrialsPROC	PL_003_92016.png	1	2	49	SessionSelectionList														nonlure	3	Place	0-Back	42	80	37	0	0	86	2	40	464301	1	13	71	462261	-1	463105	1	844	3	3	2040	53	464314	-54	0												1				49												
WM080112	856766	1	1	1	103918057	1	75.031	75.030	2.0.10.147	2.0.10.242	2.0.10.242	1.0.0.439	7	234	2	3	Verdana	1	80	0	0	0	WM Stimuli\	0.4	847.25	0.9	892	0.8	739.375	0.8	717.5	0.9	910	1	723.1	0.8	807	0.9	569.777777777778	13	602644	3	602632	27	40	602671	-999999	602647	0	13	TrialsPROC	PL_003_92016.png	1	2	50	SessionSelectionList														lure	3	Place	0-Back	43	80	38	0	0	86	3	39	466873	1	13	73	464834	-1	465485	1	651	3	3	2039	52	466886	-53	0												2				50												
WM080112	856766	1	1	1	103918057	1	75.031	75.030	2.0.10.147	2.0.10.242	2.0.10.242	1.0.0.439	7	234	2	3	Verdana	1	80	0	0	0	WM Stimuli\	0.4	847.25	0.9	892	0.8	739.375	0.8	717.5	0.9	910	1	723.1	0.8	807	0.9	569.777777777778	13	602644	3	602632	27	40	602671	-999999	602647	0	13	TrialsPROC	PL_006_92025.png	1	2	51	SessionSelectionList														nonlure	3	Place	0-Back	44	80	39	0	0	87	4	39	469432	1	13	59	467393	-1	468116	1	723	3	3	2039	52	469445	-53	0												3				51												
WM080112	856766	1	1	1	103918057	1	75.031	75.030	2.0.10.147	2.0.10.242	2.0.10.242	1.0.0.439	7	234	2	3	Verdana	1	80	0	0	0	WM Stimuli\	0.4	847.25	0.9	892	0.8	739.375	0.8	717.5	0.9	910	1	723.1	0.8	807	0.9	569.777777777778	13	602644	3	602632	27	40	602671	-999999	602647	0	13	TrialsPROC	PL_001_92012.png	1	2	52	SessionSelectionList														target	2	Place	0-Back	45	80	40	0	0	88	1	39	472004	1	14	72	469965	-1	471005	1	1040	2	2	2039	53	472018	-54	0												4				52												
WM080112	856766	1	1	1	103918057	1	75.031	75.030	2.0.10.147	2.0.10.242	2.0.10.242	1.0.0.439	7	234	2	3	Verdana	1	80	0	0	0	WM Stimuli\	0.4	847.25	0.9	892	0.8	739.375	0.8	717.5	0.9	910	1	723.1	0.8	807	0.9	569.777777777778	13	602644	3	602632	27	40	602671	-999999	602647	0	13	TrialsPROC	PL_004_92023.png	1	2	53	SessionSelectionList														nonlure	3	Place	0-Back	46	80	41	0	0	88	1	39	474576	2	14	72	472537	-1	473203	1	666	3	3	2039	53	474590	-54	0												5				53												
WM080112	856766	1	1	1	103918057	1	75.031	75.030	2.0.10.147	2.0.10.242	2.0.10.242	1.0.0.439	7	234	2	3	Verdana	1	80	0	0	0	WM Stimuli\	0.4	847.25	0.9	892	0.8	739.375	0.8	717.5	0.9	910	1	723.1	0.8	807	0.9	569.777777777778	13	602644	3	602632	27	40	602671	-999999	602647	0	13	TrialsPROC	PL_005_92024.png	1	2	54	SessionSelectionList														nonlure	3	Place	0-Back	47	80	42	0	0	88	2	39	477135	2	14	59	475096	-1	475575	1	479	3	3	2039	53	477149	-54	0												6				54												
WM080112	856766	1	1	1	103918057	1	75.031	75.030	2.0.10.147	2.0.10.242	2.0.10.242	1.0.0.439	7	234	2	3	Verdana	1	80	0	0	0	WM Stimuli\	0.4	847.25	0.9	892	0.8	739.375	0.8	717.5	0.9	910	1	723.1	0.8	807	0.9	569.777777777778	13	602644	3	602632	27	40	602671	-999999	602647	0	13	TrialsPROC	PL_001_92012.png	1	2	55	SessionSelectionList														target	2	Place	0-Back	48	80	43	0	0	89	1	40	479708	1	13	72	477668	-1	478456	1	788	2	2	2040	53	479721	-54	0												7				55												
WM080112	856766	1	1	1	103918057	1	75.031	75.030	2.0.10.147	2.0.10.242	2.0.10.242	1.0.0.439	7	234	2	3	Verdana	1	80	0	0	0	WM Stimuli\	0.4	847.25	0.9	892	0.8	739.375	0.8	717.5	0.9	910	1	723.1	0.8	807	0.9	569.777777777778	13	602644	3	602632	27	40	602671	-999999	602647	0	13	TrialsPROC	PL_002_92014.png	1	2	56	SessionSelectionList														nonlure	3	Place	0-Back	49	80	44	0	0	89	1	40	482267	1	13	59	480227	-1	480919	1	692	3	3	2040	53	482280	-54	0												8				56												
WM080112	856766	1	1	1	103918057	1	75.031	75.030	2.0.10.147	2.0.10.242	2.0.10.242	1.0.0.439	7	234	2	3	Verdana	1	80	0	0	0	WM Stimuli\	0.4	847.25	0.9	892	0.8	739.375	0.8	717.5	0.9	910	1	723.1	0.8	807	0.9	569.777777777778	13	602644	3	602632	27	40	602671	-999999	602647	0	13	TrialsPROC	PL_004_92023.png	1	2	57	SessionSelectionList														lure	3	Place	0-Back	50	80	45	0	0	90	2	39	484839	1	13	73	482800	-1	483432	1	632	3	3	2039	52	484852	-53	0												9				57												
WM080112	856766	1	1	1	103918057	1	75.031	75.030	2.0.10.147	2.0.10.242	2.0.10.242	1.0.0.439	7	234	2	3	Verdana	1	80	0	0	0	WM Stimuli\	0.4	847.25	0.9	892	0.8	739.375	0.8	717.5	0.9	910	1	723.1	0.8	807	0.9	569.777777777778	13	602644	3	602632	27	40	602671	-999999	602647	0	13	TrialsPROC	PL_006_92025.png	1	2	58	SessionSelectionList														lure	3	Place	0-Back	51	80	46	0	0	90	3	39	487411	2	14	72	485372	-1	486088	1	716	3	3	2039	53	487425	-54	0												10				58												
WM080112	856766	1	1	1	103918057	1	75.031	75.030	2.0.10.147	2.0.10.242	2.0.10.242	1.0.0.439	7	234	2	3	Verdana	1	80	0	0	0	WM Stimuli\	0.4	847.25	0.9	892	0.8	739.375	0.8	717.5	0.9	910	1	723.1	0.8	807	0.9	569.777777777778	13	602644	3	602632	27	40	602671	-999999	602647	0	14	Cue2BackPROC	""	1	2	59	SessionSelectionList									6	487878	-7	0																																													59												
WM080112	856766	1	1	1	103918057	1	75.031	75.030	2.0.10.147	2.0.10.242	2.0.10.242	1.0.0.439	7	234	2	3	Verdana	1	80	0	0	0	WM Stimuli\	0.4	847.25	0.9	892	0.8	739.375	0.8	717.5	0.9	910	1	723.1	0.8	807	0.9	569.777777777778	13	602644	3	602632	27	40	602671	-999999	602647	0	15	TrialsPROC	FC_010_F5.png	1	2	60	SessionSelectionList														nonlure	3	Face	2-Back	52	80	46	0	1	90	3	39	492476	1	13	65	490437	-1	0	0	0	""	3	2039	52	492489	-53	0													1			60												
WM080112	856766	1	1	1	103918057	1	75.031	75.030	2.0.10.147	2.0.10.242	2.0.10.242	1.0.0.439	7	234	2	3	Verdana	1	80	0	0	0	WM Stimuli\	0.4	847.25	0.9	892	0.8	739.375	0.8	717.5	0.9	910	1	723.1	0.8	807	0.9	569.777777777778	13	602644	3	602632	27	40	602671	-999999	602647	0	15	TrialsPROC	FC_012_F6.png	1	2	61	SessionSelectionList														nonlure	3	Face	2-Back	53	80	47	0	0	90	1	39	495048	1	14	72	493009	-1	493642	1	633	3	3	2039	53	495062	-54	0													2			61												
WM080112	856766	1	1	1	103918057	1	75.031	75.030	2.0.10.147	2.0.10.242	2.0.10.242	1.0.0.439	7	234	2	3	Verdana	1	80	0	0	0	WM Stimuli\	0.4	847.25	0.9	892	0.8	739.375	0.8	717.5	0.9	910	1	723.1	0.8	807	0.9	569.777777777778	13	602644	3	602632	27	40	602671	-999999	602647	0	15	TrialsPROC	FC_010_F5.png	1	2	62	SessionSelectionList														target	2	Face	2-Back	54	80	48	0	0	90	1	39	497620	2	14	72	495581	-1	496254	1	673	2	2	2039	53	497634	-54	0													3			62												
WM080112	856766	1	1	1	103918057	1	75.031	75.030	2.0.10.147	2.0.10.242	2.0.10.242	1.0.0.439	7	234	2	3	Verdana	1	80	0	0	0	WM Stimuli\	0.4	847.25	0.9	892	0.8	739.375	0.8	717.5	0.9	910	1	723.1	0.8	807	0.9	569.777777777778	13	602644	3	602632	27	40	602671	-999999	602647	0	15	TrialsPROC	FC_008_F4.png	1	2	63	SessionSelectionList														nonlure	3	Face	2-Back	55	80	49	0	0	90	1	39	500219	2	14	99	498180	-1	498900	1	720	3	3	2039	53	500233	-54	0													4			63												
WM080112	856766	1	1	1	103918057	1	75.031	75.030	2.0.10.147	2.0.10.242	2.0.10.242	1.0.0.439	7	234	2	3	Verdana	1	80	0	0	0	WM Stimuli\	0.4	847.25	0.9	892	0.8	739.375	0.8	717.5	0.9	910	1	723.1	0.8	807	0.9	569.777777777778	13	602644	3	602632	27	40	602671	-999999	602647	0	15	TrialsPROC	FC_012_F6.png	1	2	64	SessionSelectionList														lure	3	Face	2-Back	56	80	50	0	0	90	2	40	502792	1	13	72	500752	-1	501392	1	640	3	3	2040	53	502805	-54	0													5			64												
WM080112	856766	1	1	1	103918057	1	75.031	75.030	2.0.10.147	2.0.10.242	2.0.10.242	1.0.0.439	7	234	2	3	Verdana	1	80	0	0	0	WM Stimuli\	0.4	847.25	0.9	892	0.8	739.375	0.8	717.5	0.9	910	1	723.1	0.8	807	0.9	569.777777777778	13	602644	3	602632	27	40	602671	-999999	602647	0	15	TrialsPROC	FC_008_F4.png	1	2	65	SessionSelectionList														target	2	Face	2-Back	57	80	51	0	0	90	3	39	505364	1	13	73	503325	-1	503935	0	610	3	2	2039	52	505377	-53	0													6			65												
WM080112	856766	1	1	1	103918057	1	75.031	75.030	2.0.10.147	2.0.10.242	2.0.10.242	1.0.0.439	7	234	2	3	Verdana	1	80	0	0	0	WM Stimuli\	0.4	847.25	0.9	892	0.8	739.375	0.8	717.5	0.9	910	1	723.1	0.8	807	0.9	569.777777777778	13	602644	3	602632	27	40	602671	-999999	602647	0	15	TrialsPROC	FC_007_M4.png	1	2	66	SessionSelectionList														nonlure	3	Face	2-Back	58	80	52	0	0	90	4	38	507949	2	14	86	505911	-1	506692	1	781	3	3	2038	52	507963	-53	0													7			66												
WM080112	856766	1	1	1	103918057	1	75.031	75.030	2.0.10.147	2.0.10.242	2.0.10.242	1.0.0.439	7	234	2	3	Verdana	1	80	0	0	0	WM Stimuli\	0.4	847.25	0.9	892	0.8	739.375	0.8	717.5	0.9	910	1	723.1	0.8	807	0.9	569.777777777778	13	602644	3	602632	27	40	602671	-999999	602647	0	15	TrialsPROC	FC_007_M4.png	1	2	67	SessionSelectionList														lure	3	Face	2-Back	59	80	53	0	0	90	5	39	510522	1	13	72	508483	-1	509437	1	954	3	3	2039	52	510535	-53	0													8			67												
WM080112	856766	1	1	1	103918057	1	75.031	75.030	2.0.10.147	2.0.10.242	2.0.10.242	1.0.0.439	7	234	2	3	Verdana	1	80	0	0	0	WM Stimuli\	0.4	847.25	0.9	892	0.8	739.375	0.8	717.5	0.9	910	1	723.1	0.8	807	0.9	569.777777777778	13	602644	3	602632	27	40	602671	-999999	602647	0	15	TrialsPROC	FC_009_M5.png	1	2	68	SessionSelectionList														nonlure	3	Face	2-Back	60	80	54	0	0	90	6	40	513121	1	13	98	511081	-1	511968	1	887	3	3	2040	53	513134	-54	0													9			68												
WM080112	856766	1	1	1	103918057	1	75.031	75.030	2.0.10.147	2.0.10.242	2.0.10.242	1.0.0.439	7	234	2	3	Verdana	1	80	0	0	0	WM Stimuli\	0.4	847.25	0.9	892	0.8	739.375	0.8	717.5	0.9	910	1	723.1	0.8	807	0.9	569.777777777778	13	602644	3	602632	27	40	602671	-999999	602647	0	15	TrialsPROC	FC_011_M6.png	1	2	69	SessionSelectionList														nonlure	3	Face	2-Back	61	80	55	0	0	90	7	39	515706	2	14	86	513667	-1	514294	1	627	3	3	2039	53	515720	-54	0													10			69												
WM080112	856766	1	1	1	103918057	1	75.031	75.030	2.0.10.147	2.0.10.242	2.0.10.242	1.0.0.439	7	234	2	3	Verdana	1	80	0	0	0	WM Stimuli\	0.4	847.25	0.9	892	0.8	739.375	0.8	717.5	0.9	910	1	723.1	0.8	807	0.9	569.777777777778	13	602644	3	602632	27	40	602671	-999999	602647	0	16	Fix15secPROC	""	1	2	70	SessionSelectionList																																															6	516173	-7	0							70												
WM080112	856766	1	1	1	103918057	1	75.031	75.030	2.0.10.147	2.0.10.242	2.0.10.242	1.0.0.439	7	234	2	3	Verdana	1	80	0	0	0	WM Stimuli\	0.4	847.25	0.9	892	0.8	739.375	0.8	717.5	0.9	910	1	723.1	0.8	807	0.9	569.777777777778	13	602644	3	602632	27	40	602671	-999999	602647	0	17	Cue0BackPROC	TO_007_TOOL7_BA.png	1	2	71	SessionSelectionList																																										40	531207	-41	0												71												
WM080112	856766	1	1	1	103918057	1	75.031	75.030	2.0.10.147	2.0.10.242	2.0.10.242	1.0.0.439	7	234	2	3	Verdana	1	80	0	0	0	WM Stimuli\	0.4	847.25	0.9	892	0.8	739.375	0.8	717.5	0.9	910	1	723.1	0.8	807	0.9	569.777777777778	13	602644	3	602632	27	40	602671	-999999	602647	0	18	TrialsPROC	TO_010_TOOL10_BA.png	1	2	72	SessionSelectionList														nonlure	3	Tools	0-Back	62	80	56	0	0	90	8	39	535805	1	13	99	533766	-1	534543	1	777	3	3	2039	52	535818	-53	0														1		72												
WM080112	856766	1	1	1	103918057	1	75.031	75.030	2.0.10.147	2.0.10.242	2.0.10.242	1.0.0.439	7	234	2	3	Verdana	1	80	0	0	0	WM Stimuli\	0.4	847.25	0.9	892	0.8	739.375	0.8	717.5	0.9	910	1	723.1	0.8	807	0.9	569.777777777778	13	602644	3	602632	27	40	602671	-999999	602647	0	18	TrialsPROC	TO_009_TOOL9_BA.png	1	2	73	SessionSelectionList														nonlure	3	Tools	0-Back	63	80	57	0	0	91	9	39	538390	2	14	85	536351	-1	536892	1	541	3	3	2039	53	538404	-54	0														2		73												
WM080112	856766	1	1	1	103918057	1	75.031	75.030	2.0.10.147	2.0.10.242	2.0.10.242	1.0.0.439	7	234	2	3	Verdana	1	80	0	0	0	WM Stimuli\	0.4	847.25	0.9	892	0.8	739.375	0.8	717.5	0.9	910	1	723.1	0.8	807	0.9	569.777777777778	13	602644	3	602632	27	40	602671	-999999	602647	0	18	TrialsPROC	TO_009_TOOL9_BA.png	1	2	74	SessionSelectionList														lure	3	Tools	0-Back	64	80	58	0	0	91	10	39	540949	2	14	59	538910	-1	539418	1	508	3	3	2039	53	540963	-54	0														3		74												
WM080112	856766	1	1	1	103918057	1	75.031	75.030	2.0.10.147	2.0.10.242	2.0.10.242	1.0.0.439	7	234	2	3	Verdana	1	80	0	0	0	WM Stimuli\	0.4	847.25	0.9	892	0.8	739.375	0.8	717.5	0.9	910	1	723.1	0.8	807	0.9	569.777777777778	13	602644	3	602632	27	40	602671	-999999	602647	0	18	TrialsPROC	TO_008_TOOL8_BA.png	1	2	75	SessionSelectionList														nonlure	3	Tools	0-Back	65	80	59	0	0	91	11	39	543535	1	14	86	541496	-1	542004	1	508	3	3	2039	53	543549	-54	0														4		75												
WM080112	856766	1	1	1	103918057	1	75.031	75.030	2.0.10.147	2.0.10.242	2.0.10.242	1.0.0.439	7	234	2	3	Verdana	1	80	0	0	0	WM Stimuli\	0.4	847.25	0.9	892	0.8	739.375	0.8	717.5	0.9	910	1	723.1	0.8	807	0.9	569.777777777778	13	602644	3	602632	27	40	602671	-999999	602647	0	18	TrialsPROC	TO_011_TOOL11_BA.png	1	2	76	SessionSelectionList														nonlure	3	Tools	0-Back	66	80	60	0	0	91	12	40	546121	1	13	85	544081	-1	544833	1	752	3	3	2040	53	546134	-54	0														5		76												
WM080112	856766	1	1	1	103918057	1	75.031	75.030	2.0.10.147	2.0.10.242	2.0.10.242	1.0.0.439	7	234	2	3	Verdana	1	80	0	0	0	WM Stimuli\	0.4	847.25	0.9	892	0.8	739.375	0.8	717.5	0.9	910	1	723.1	0.8	807	0.9	569.777777777778	13	602644	3	602632	27	40	602671	-999999	602647	0	18	TrialsPROC	TO_012_TOOL12_BA.png	1	2	77	SessionSelectionList														nonlure	3	Tools	0-Back	67	80	61	0	0	92	13	39	548706	2	14	86	546667	-1	547226	1	559	3	3	2039	53	548720	-54	0														6		77												
WM080112	856766	1	1	1	103918057	1	75.031	75.030	2.0.10.147	2.0.10.242	2.0.10.242	1.0.0.439	7	234	2	3	Verdana	1	80	0	0	0	WM Stimuli\	0.4	847.25	0.9	892	0.8	739.375	0.8	717.5	0.9	910	1	723.1	0.8	807	0.9	569.777777777778	13	602644	3	602632	27	40	602671	-999999	602647	0	18	TrialsPROC	TO_010_TOOL10_BA.png	1	2	78	SessionSelectionList														lure	3	Tools	0-Back	68	80	62	0	0	92	14	39	551265	2	14	59	549226	-1	549786	1	560	3	3	2039	53	551279	-54	0														7		78												
WM080112	856766	1	1	1	103918057	1	75.031	75.030	2.0.10.147	2.0.10.242	2.0.10.242	1.0.0.439	7	234	2	3	Verdana	1	80	0	0	0	WM Stimuli\	0.4	847.25	0.9	892	0.8	739.375	0.8	717.5	0.9	910	1	723.1	0.8	807	0.9	569.777777777778	13	602644	3	602632	27	40	602671	-999999	602647	0	18	TrialsPROC	TO_007_TOOL7_BA.png	1	2	79	SessionSelectionList														target	2	Tools	0-Back	69	80	63	0	0	92	1	39	553824	2	14	59	551785	-1	552310	1	525	2	2	2039	53	553838	-54	0														8		79												
WM080112	856766	1	1	1	103918057	1	75.031	75.030	2.0.10.147	2.0.10.242	2.0.10.242	1.0.0.439	7	234	2	3	Verdana	1	80	0	0	0	WM Stimuli\	0.4	847.25	0.9	892	0.8	739.375	0.8	717.5	0.9	910	1	723.1	0.8	807	0.9	569.777777777778	13	602644	3	602632	27	40	602671	-999999	602647	0	18	TrialsPROC	TO_008_TOOL8_BA.png	1	2	80	SessionSelectionList														lure	3	Tools	0-Back	70	80	64	0	0	92	1	39	556383	1	14	59	554344	-1	554742	1	398	3	3	2039	53	556397	-54	0														9		80												
WM080112	856766	1	1	1	103918057	1	75.031	75.030	2.0.10.147	2.0.10.242	2.0.10.242	1.0.0.439	7	234	2	3	Verdana	1	80	0	0	0	WM Stimuli\	0.4	847.25	0.9	892	0.8	739.375	0.8	717.5	0.9	910	1	723.1	0.8	807	0.9	569.777777777778	13	602644	3	602632	27	40	602671	-999999	602647	0	18	TrialsPROC	TO_007_TOOL7_BA.png	1	2	81	SessionSelectionList														target	2	Tools	0-Back	71	80	65	0	0	90	2	39	558942	1	14	59	556903	-1	557317	0	414	3	2	2039	53	558956	-54	0														10		81												
WM080112	856766	1	1	1	103918057	1	75.031	75.030	2.0.10.147	2.0.10.242	2.0.10.242	1.0.0.439	7	234	2	3	Verdana	1	80	0	0	0	WM Stimuli\	0.4	847.25	0.9	892	0.8	739.375	0.8	717.5	0.9	910	1	723.1	0.8	807	0.9	569.777777777778	13	602644	3	602632	27	40	602671	-999999	602647	0	19	Cue2BackPROC	""	1	2	82	SessionSelectionList									5	559408	-6	0																																													82												
WM080112	856766	1	1	1	103918057	1	75.031	75.030	2.0.10.147	2.0.10.242	2.0.10.242	1.0.0.439	7	234	2	3	Verdana	1	80	0	0	0	WM Stimuli\	0.4	847.25	0.9	892	0.8	739.375	0.8	717.5	0.9	910	1	723.1	0.8	807	0.9	569.777777777778	13	602644	3	602632	27	40	602671	-999999	602647	0	20	TrialsPROC	PL_007_92026.png	1	2	83	SessionSelectionList														nonlure	3	Place	2-Back	72	80	65	0	1	90	2	39	564020	1	13	78	561981	-1	0	0	0	""	3	2039	52	564033	-53	0															1	83												
WM080112	856766	1	1	1	103918057	1	75.031	75.030	2.0.10.147	2.0.10.242	2.0.10.242	1.0.0.439	7	234	2	3	Verdana	1	80	0	0	0	WM Stimuli\	0.4	847.25	0.9	892	0.8	739.375	0.8	717.5	0.9	910	1	723.1	0.8	807	0.9	569.777777777778	13	602644	3	602632	27	40	602671	-999999	602647	0	20	TrialsPROC	PL_007_92026.png	1	2	84	SessionSelectionList														lure	3	Place	2-Back	73	80	66	0	0	90	1	39	566592	2	14	72	564553	-1	564975	1	422	3	3	2039	53	566606	-54	0															2	84												
WM080112	856766	1	1	1	103918057	1	75.031	75.030	2.0.10.147	2.0.10.242	2.0.10.242	1.0.0.439	7	234	2	3	Verdana	1	80	0	0	0	WM Stimuli\	0.4	847.25	0.9	892	0.8	739.375	0.8	717.5	0.9	910	1	723.1	0.8	807	0.9	569.777777777778	13	602644	3	602632	27	40	602671	-999999	602647	0	20	TrialsPROC	PL_010_92038.png	1	2	85	SessionSelectionList														nonlure	3	Place	2-Back	74	80	67	0	0	90	2	39	569191	2	14	99	567152	-1	568466	1	1314	3	3	2039	53	569205	-54	0															3	85												
WM080112	856766	1	1	1	103918057	1	75.031	75.030	2.0.10.147	2.0.10.242	2.0.10.242	1.0.0.439	7	234	2	3	Verdana	1	80	0	0	0	WM Stimuli\	0.4	847.25	0.9	892	0.8	739.375	0.8	717.5	0.9	910	1	723.1	0.8	807	0.9	569.777777777778	13	602644	3	602632	27	40	602671	-999999	602647	0	20	TrialsPROC	PL_009_92037.png	1	2	86	SessionSelectionList														nonlure	3	Place	2-Back	75	80	68	0	0	90	3	39	571763	2	14	72	569724	-1	571018	1	1294	3	3	2039	53	571777	-54	0															4	86												
WM080112	856766	1	1	1	103918057	1	75.031	75.030	2.0.10.147	2.0.10.242	2.0.10.242	1.0.0.439	7	234	2	3	Verdana	1	80	0	0	0	WM Stimuli\	0.4	847.25	0.9	892	0.8	739.375	0.8	717.5	0.9	910	1	723.1	0.8	807	0.9	569.777777777778	13	602644	3	602632	27	40	602671	-999999	602647	0	20	TrialsPROC	PL_010_92038.png	1	2	87	SessionSelectionList														target	2	Place	2-Back	76	80	69	0	0	90	1	38	574322	2	14	60	572284	-1	572758	1	474	2	2	2038	52	574336	-53	0															5	87												
WM080112	856766	1	1	1	103918057	1	75.031	75.030	2.0.10.147	2.0.10.242	2.0.10.242	1.0.0.439	7	234	2	3	Verdana	1	80	0	0	0	WM Stimuli\	0.4	847.25	0.9	892	0.8	739.375	0.8	717.5	0.9	910	1	723.1	0.8	807	0.9	569.777777777778	13	602644	3	602632	27	40	602671	-999999	602647	0	20	TrialsPROC	PL_009_92037.png	1	2	88	SessionSelectionList														target	2	Place	2-Back	77	80	70	0	0	90	2	40	576895	1	13	71	574855	-1	575666	1	811	2	2	2040	53	576908	-54	0															6	88												
WM080112	856766	1	1	1	103918057	1	75.031	75.030	2.0.10.147	2.0.10.242	2.0.10.242	1.0.0.439	7	234	2	3	Verdana	1	80	0	0	0	WM Stimuli\	0.4	847.25	0.9	892	0.8	739.375	0.8	717.5	0.9	910	1	723.1	0.8	807	0.9	569.777777777778	13	602644	3	602632	27	40	602671	-999999	602647	0	20	TrialsPROC	PL_008_92033.png	1	2	89	SessionSelectionList														nonlure	3	Place	2-Back	78	80	71	0	0	90	1	39	579467	1	14	73	577428	-1	578630	1	1202	3	3	2039	53	579481	-54	0															7	89												
WM080112	856766	1	1	1	103918057	1	75.031	75.030	2.0.10.147	2.0.10.242	2.0.10.242	1.0.0.439	7	234	2	3	Verdana	1	80	0	0	0	WM Stimuli\	0.4	847.25	0.9	892	0.8	739.375	0.8	717.5	0.9	910	1	723.1	0.8	807	0.9	569.777777777778	13	602644	3	602632	27	40	602671	-999999	602647	0	20	TrialsPROC	PL_012_92047.png	1	2	90	SessionSelectionList														nonlure	3	Place	2-Back	79	80	72	0	0	90	2	39	582026	1	13	59	579987	-1	580894	1	907	3	3	2039	52	582039	-53	0															8	90												
WM080112	856766	1	1	1	103918057	1	75.031	75.030	2.0.10.147	2.0.10.242	2.0.10.242	1.0.0.439	7	234	2	3	Verdana	1	80	0	0	0	WM Stimuli\	0.4	847.25	0.9	892	0.8	739.375	0.8	717.5	0.9	910	1	723.1	0.8	807	0.9	569.777777777778	13	602644	3	602632	27	40	602671	-999999	602647	0	20	TrialsPROC	PL_012_92047.png	1	2	91	SessionSelectionList														lure	3	Place	2-Back	80	80	73	0	0	90	3	39	584598	2	14	72	582559	-1	583483	1	924	3	3	2039	53	584612	-54	0															9	91												
WM080112	856766	1	1	1	103918057	1	75.031	75.030	2.0.10.147	2.0.10.242	2.0.10.242	1.0.0.439	7	234	2	3	Verdana	1	80	0	0	0	WM Stimuli\	0.4	847.25	0.9	892	0.8	739.375	0.8	717.5	0.9	910	1	723.1	0.8	807	0.9	569.777777777778	13	602644	3	602632	27	40	602671	-999999	602647	0	20	TrialsPROC	PL_011_92044.png	1	2	92	SessionSelectionList														nonlure	3	Place	2-Back	80	80	74	0	0	90	4	39	587170	2	14	72	585131	-1	585973	1	842	3	3	2039	53	587184	-54	0															10	92												
WM080112	856766	1	1	1	103918057	1	75.031	75.030	2.0.10.147	2.0.10.242	2.0.10.242	1.0.0.439	7	234	2	3	Verdana	1	80	0	0	0	WM Stimuli\	0.4	847.25	0.9	892	0.8	739.375	0.8	717.5	0.9	910	1	723.1	0.8	807	0.9	569.777777777778	13	602644	3	602632	27	40	602671	-999999	602647	0	21	Fix15secPROC	""	1	2	93	SessionSelectionList																																															6	587637	-7	0							93												
