ExperimentName	HCPID	RunNumber	Subject	Session	RandomSeed	Group	Laptop.RefreshRate	ScannerD2.RefreshRate	StudioVersion	RuntimeVersion	RuntimeVersionExpected	ExperimentVersion	triggercode	Allowed	Target	Nontarget	FontStyle	RunTrialNumber[Session]	TrialsPerRun[Session]	TotalRespGreater200[Session]	ConsecRTLess200[Session]	ConsecNonResp[Session]	StimuliDir	ACC_2_Back_Body	Avg_RT_For_Correct_Trials_2_Back_Body	ACC_0_Back_Body	Avg_RT_For_Correct_Trials_0_Back_Body	ACC_2_Back_Face	Avg_RT_For_Correct_Trials_2_Back_Face	ACC_0_Back_Face	Avg_RT_For_Correct_Trials_0_Back_Face	ACC_2_Back_Place	Avg_RT_For_Correct_Trials_2_Back_Place	ACC_0_Back_Place	Avg_RT_For_Correct_Trials_0_Back_Place	ACC_2_Back_Tools	Avg_RT_For_Correct_Trials_2_Back_Tools	ACC_0_Back_Tools	Avg_RT_For_Correct_Trials_0_Back_Tools	ExpInstrucFeelFreeToRest.OnsetDelay	ExpInstrucFeelFreeToRest.OnsetTime	ExpInstrucFeelFreeToRest.DurationError	ExpInstrucFeelFreeToRest.StartTime	ExpInstrucFeelFreeToRest.OnsetToOnsetTime	FeelFreeToRest.OnsetDelay	FeelFreeToRest.OnsetTime	FeelFreeToRest.DurationError	FeelFreeToRest.StartTime	FeelFreeToRest.OnsetToOnsetTime	SessionSelectionList	Procedure[Block]	Stimulus[Block]	RunNumberFilterValue	SessionSelectionList.Cycle	SessionSelectionList.Sample	Running[Block]	IntroButtonMap.OnsetDelay	IntroButtonMap.OnsetTime	IntroButtonMap.DurationError	IntroButtonMap.OnsetToOnsetTime	GetReady.OnsetDelay	GetReady.OnsetTime	GetReady.DurationError	GetReady.OnsetToOnsetTime	Cue2Back.OnsetDelay	Cue2Back.OnsetTime	Cue2Back.DurationError	Cue2Back.OnsetToOnsetTime	Run1Block1	TargetType	CorrectResponse	StimType	BlockType	RunTrialNumber[Block]	TrialsPerRun[Block]	TotalRespGreater200[Block]	ConsecRTLess200[Block]	ConsecNonResp[Block]	ControlAcc	ConsecSameResp	ExperimenterWindow.OnsetDelay	ExperimenterWindow.OnsetTime	ExperimenterWindow.DurationError	ExperimenterWindow.OnsetToOnsetTime	Stim.OnsetDelay	Stim.OnsetTime	Stim.DurationError	Stim.RTTime	Stim.ACC	Stim.RT	Stim.RESP	Stim.CRESP	Stim.OnsetToOnsetTime	Fix.OnsetDelay	Fix.OnsetTime	Fix.DurationError	Fix.OnsetToOnsetTime	CueTarget.OnsetDelay	CueTarget.OnsetTime	CueTarget.DurationError	CueTarget.OnsetToOnsetTime	Run1Block2	Fix15sec.OnsetDelay	Fix15sec.OnsetTime	Fix15sec.DurationError	Fix15sec.OnsetToOnsetTime	Run1Block3	Run1Block4	Run1Block5	Run1Block6	Run1Block7	Run1Block8	Block	Procedure[Trial]	Stimulus[Trial]	ReadyList	Running[Trial]	ReadyList.Cycle	ReadyList.Sample	SyncSlide.OnsetDelay	SyncSlide.OnsetTime	SyncSlide.DurationError	SyncSlide.FinishTime	SyncSlide.OnsetToOnsetTime	Trial
WM080112	899885_fnca	2	1	1	22290193	1	75.031	75.031	2.0.10.147	2.0.10.242	2.0.10.242	1.0.0.439	7	234	2	3	Verdana	1	80	0	0	0	WM Stimuli\	1	1016.5	1	690.3	1	993.1	1	631.7	1	923.7	1	790.1	0.9	918	1	739.8	13	331795	2	331783	13	26	331808	-999999	331798	0	22	TRSyncPROC	""	2	2	1	SessionSelectionList	109	7501	-999999	0	28	24254	-999999	0																																																	1	InitialTR	4	1	ReadyList	1	1	16	38528	-17	40511	0	1
WM080112	899885_fnca	2	1	1	22290193	1	75.031	75.031	2.0.10.147	2.0.10.242	2.0.10.242	1.0.0.439	7	234	2	3	Verdana	1	80	0	0	0	WM Stimuli\	1	1016.5	1	690.3	1	993.1	1	631.7	1	923.7	1	790.1	0.9	918	1	739.8	13	331795	2	331783	13	26	331808	-999999	331798	0	22	TRSyncPROC	""	2	2	1	SessionSelectionList	109	7501	-999999	0	28	24254	-999999	0																																																	1	InitialTR	3	2	ReadyList	1	2	15	40527	-16	42511	0	2
WM080112	899885_fnca	2	1	1	22290193	1	75.031	75.031	2.0.10.147	2.0.10.242	2.0.10.242	1.0.0.439	7	234	2	3	Verdana	1	80	0	0	0	WM Stimuli\	1	1016.5	1	690.3	1	993.1	1	631.7	1	923.7	1	790.1	0.9	918	1	739.8	13	331795	2	331783	13	26	331808	-999999	331798	0	22	TRSyncPROC	""	2	2	1	SessionSelectionList	109	7501	-999999	0	28	24254	-999999	0																																																	1	InitialTR	2	3	ReadyList	1	3	15	42527	-16	44511	0	3
WM080112	899885_fnca	2	1	1	22290193	1	75.031	75.031	2.0.10.147	2.0.10.242	2.0.10.242	1.0.0.439	7	234	2	3	Verdana	1	80	0	0	0	WM Stimuli\	1	1016.5	1	690.3	1	993.1	1	631.7	1	923.7	1	790.1	0.9	918	1	739.8	13	331795	2	331783	13	26	331808	-999999	331798	0	22	TRSyncPROC	""	2	2	1	SessionSelectionList	109	7501	-999999	0	28	24254	-999999	0																																																	1	InitialTR	1	4	ReadyList	1	4	14	44526	-15	46511	0	4
WM080112	899885_fnca	2	1	1	22290193	1	75.031	75.031	2.0.10.147	2.0.10.242	2.0.10.242	1.0.0.439	7	234	2	3	Verdana	1	80	0	0	0	WM Stimuli\	1	1016.5	1	690.3	1	993.1	1	631.7	1	923.7	1	790.1	0.9	918	1	739.8	13	331795	2	331783	13	26	331808	-999999	331798	0	23	Cue2BackPROC	""	2	2	2	SessionSelectionList									13	46525	-14	0																																													2												
WM080112	899885_fnca	2	1	1	22290193	1	75.031	75.031	2.0.10.147	2.0.10.242	2.0.10.242	1.0.0.439	7	234	2	3	Verdana	1	80	0	0	0	WM Stimuli\	1	1016.5	1	690.3	1	993.1	1	631.7	1	923.7	1	790.1	0.9	918	1	739.8	13	331795	2	331783	13	26	331808	-999999	331798	0	24	TrialsPROC	TO_014_TOOL14_BA.png	2	2	3	SessionSelectionList														nonlure	3	Tools	2-Back	2	80	1	0	0	0	1	52	51136	3	14	72	49084	-1	50257	1	1173	3	3	2052	66	51150	-67	0																3												
WM080112	899885_fnca	2	1	1	22290193	1	75.031	75.031	2.0.10.147	2.0.10.242	2.0.10.242	1.0.0.439	7	234	2	3	Verdana	1	80	0	0	0	WM Stimuli\	1	1016.5	1	690.3	1	993.1	1	631.7	1	923.7	1	790.1	0.9	918	1	739.8	13	331795	2	331783	13	26	331808	-999999	331798	0	24	TrialsPROC	TO_013_TOOL13_BA.png	2	2	4	SessionSelectionList														nonlure	3	Tools	2-Back	3	80	2	0	0	0	2	39	53682	2	13	59	51643	-1	52472	1	829	3	3	2039	52	53695	-53	0																4												
WM080112	899885_fnca	2	1	1	22290193	1	75.031	75.031	2.0.10.147	2.0.10.242	2.0.10.242	1.0.0.439	7	234	2	3	Verdana	1	80	0	0	0	WM Stimuli\	1	1016.5	1	690.3	1	993.1	1	631.7	1	923.7	1	790.1	0.9	918	1	739.8	13	331795	2	331783	13	26	331808	-999999	331798	0	24	TrialsPROC	TO_016_TOOL16_BA.png	2	2	5	SessionSelectionList														nonlure	3	Tools	2-Back	4	80	3	0	0	0	3	39	56241	2	13	59	54202	-1	54978	1	776	3	3	2039	52	56254	-53	0																5												
WM080112	899885_fnca	2	1	1	22290193	1	75.031	75.031	2.0.10.147	2.0.10.242	2.0.10.242	1.0.0.439	7	234	2	3	Verdana	1	80	0	0	0	WM Stimuli\	1	1016.5	1	690.3	1	993.1	1	631.7	1	923.7	1	790.1	0.9	918	1	739.8	13	331795	2	331783	13	26	331808	-999999	331798	0	24	TrialsPROC	TO_014_TOOL14_BA.png	2	2	6	SessionSelectionList														lure	3	Tools	2-Back	5	80	3	0	1	0	3	39	58813	3	14	72	56774	-1	0	0	0	""	3	2039	53	58827	-54	0																6												
WM080112	899885_fnca	2	1	1	22290193	1	75.031	75.031	2.0.10.147	2.0.10.242	2.0.10.242	1.0.0.439	7	234	2	3	Verdana	1	80	0	0	0	WM Stimuli\	1	1016.5	1	690.3	1	993.1	1	631.7	1	923.7	1	790.1	0.9	918	1	739.8	13	331795	2	331783	13	26	331808	-999999	331798	0	24	TrialsPROC	TO_016_TOOL16_BA.png	2	2	7	SessionSelectionList														target	2	Tools	2-Back	6	80	4	0	0	0	1	39	61372	3	14	59	59333	-1	60419	1	1086	2	2	2039	53	61386	-54	0																7												
WM080112	899885_fnca	2	1	1	22290193	1	75.031	75.031	2.0.10.147	2.0.10.242	2.0.10.242	1.0.0.439	7	234	2	3	Verdana	1	80	0	0	0	WM Stimuli\	1	1016.5	1	690.3	1	993.1	1	631.7	1	923.7	1	790.1	0.9	918	1	739.8	13	331795	2	331783	13	26	331808	-999999	331798	0	24	TrialsPROC	TO_018_TOOL18_BA.png	2	2	8	SessionSelectionList														nonlure	3	Tools	2-Back	7	80	5	0	0	0	1	39	63931	2	14	59	61892	-1	62644	1	752	3	3	2039	53	63945	-54	0																8												
WM080112	899885_fnca	2	1	1	22290193	1	75.031	75.031	2.0.10.147	2.0.10.242	2.0.10.242	1.0.0.439	7	234	2	3	Verdana	1	80	0	0	0	WM Stimuli\	1	1016.5	1	690.3	1	993.1	1	631.7	1	923.7	1	790.1	0.9	918	1	739.8	13	331795	2	331783	13	26	331808	-999999	331798	0	24	TrialsPROC	TO_017_TOOL17_BA.png	2	2	9	SessionSelectionList														nonlure	3	Tools	2-Back	8	80	6	0	0	0	2	39	66490	2	14	59	64451	-1	65052	1	601	3	3	2039	53	66504	-54	0																9												
WM080112	899885_fnca	2	1	1	22290193	1	75.031	75.031	2.0.10.147	2.0.10.242	2.0.10.242	1.0.0.439	7	234	2	3	Verdana	1	80	0	0	0	WM Stimuli\	1	1016.5	1	690.3	1	993.1	1	631.7	1	923.7	1	790.1	0.9	918	1	739.8	13	331795	2	331783	13	26	331808	-999999	331798	0	24	TrialsPROC	TO_018_TOOL18_BA.png	2	2	10	SessionSelectionList														target	2	Tools	2-Back	9	80	7	0	0	0	1	39	69049	1	14	59	67010	-1	67674	1	664	2	2	2039	53	69063	-54	0																10												
WM080112	899885_fnca	2	1	1	22290193	1	75.031	75.031	2.0.10.147	2.0.10.242	2.0.10.242	1.0.0.439	7	234	2	3	Verdana	1	80	0	0	0	WM Stimuli\	1	1016.5	1	690.3	1	993.1	1	631.7	1	923.7	1	790.1	0.9	918	1	739.8	13	331795	2	331783	13	26	331808	-999999	331798	0	24	TrialsPROC	TO_015_TOOL15_BA.png	2	2	11	SessionSelectionList														nonlure	3	Tools	2-Back	10	80	8	0	0	0	1	39	71608	1	13	59	69569	-1	70411	1	842	3	3	2039	52	71621	-53	0																11												
WM080112	899885_fnca	2	1	1	22290193	1	75.031	75.031	2.0.10.147	2.0.10.242	2.0.10.242	1.0.0.439	7	234	2	3	Verdana	1	80	0	0	0	WM Stimuli\	1	1016.5	1	690.3	1	993.1	1	631.7	1	923.7	1	790.1	0.9	918	1	739.8	13	331795	2	331783	13	26	331808	-999999	331798	0	24	TrialsPROC	TO_017_TOOL17_BA.png	2	2	12	SessionSelectionList														lure	3	Tools	2-Back	11	80	9	0	0	0	2	39	74167	1	13	59	72128	-1	73667	1	1539	3	3	2039	52	74180	-53	0																12												
WM080112	899885_fnca	2	1	1	22290193	1	75.031	75.031	2.0.10.147	2.0.10.242	2.0.10.242	1.0.0.439	7	234	2	3	Verdana	1	80	0	0	0	WM Stimuli\	1	1016.5	1	690.3	1	993.1	1	631.7	1	923.7	1	790.1	0.9	918	1	739.8	13	331795	2	331783	13	26	331808	-999999	331798	0	25	Cue0BackPROC	BP_013_BP7_BA.png	2	2	13	SessionSelectionList																																										19	74647	-20	0												13												
WM080112	899885_fnca	2	1	1	22290193	1	75.031	75.031	2.0.10.147	2.0.10.242	2.0.10.242	1.0.0.439	7	234	2	3	Verdana	1	80	0	0	0	WM Stimuli\	1	1016.5	1	690.3	1	993.1	1	631.7	1	923.7	1	790.1	0.9	918	1	739.8	13	331795	2	331783	13	26	331808	-999999	331798	0	26	TrialsPROC	BP_015_H10-T_BA.png	2	2	14	SessionSelectionList														nonlure	3	Body	0-Back	12	80	10	0	0	100	3	40	79232	1	13	64	77192	-1	77941	1	749	3	3	2040	53	79245	-54	0																14												
WM080112	899885_fnca	2	1	1	22290193	1	75.031	75.031	2.0.10.147	2.0.10.242	2.0.10.242	1.0.0.439	7	234	2	3	Verdana	1	80	0	0	0	WM Stimuli\	1	1016.5	1	690.3	1	993.1	1	631.7	1	923.7	1	790.1	0.9	918	1	739.8	13	331795	2	331783	13	26	331808	-999999	331798	0	26	TrialsPROC	BP_018_H13-T_BA.png	2	2	15	SessionSelectionList														nonlure	3	Body	0-Back	13	80	11	0	0	100	4	39	81791	1	13	60	79752	-1	80491	1	739	3	3	2039	52	81804	-53	0																15												
WM080112	899885_fnca	2	1	1	22290193	1	75.031	75.031	2.0.10.147	2.0.10.242	2.0.10.242	1.0.0.439	7	234	2	3	Verdana	1	80	0	0	0	WM Stimuli\	1	1016.5	1	690.3	1	993.1	1	631.7	1	923.7	1	790.1	0.9	918	1	739.8	13	331795	2	331783	13	26	331808	-999999	331798	0	26	TrialsPROC	BP_014_BP9_BA.png	2	2	16	SessionSelectionList														nonlure	3	Body	0-Back	14	80	12	0	0	100	5	39	84349	3	14	58	82310	-1	83063	1	753	3	3	2039	53	84363	-54	0																16												
WM080112	899885_fnca	2	1	1	22290193	1	75.031	75.031	2.0.10.147	2.0.10.242	2.0.10.242	1.0.0.439	7	234	2	3	Verdana	1	80	0	0	0	WM Stimuli\	1	1016.5	1	690.3	1	993.1	1	631.7	1	923.7	1	790.1	0.9	918	1	739.8	13	331795	2	331783	13	26	331808	-999999	331798	0	26	TrialsPROC	BP_018_H13-T_BA.png	2	2	17	SessionSelectionList														lure	3	Body	0-Back	15	80	13	0	0	100	6	38	86908	2	14	60	84870	-1	85519	1	649	3	3	2038	52	86922	-53	0																17												
WM080112	899885_fnca	2	1	1	22290193	1	75.031	75.031	2.0.10.147	2.0.10.242	2.0.10.242	1.0.0.439	7	234	2	3	Verdana	1	80	0	0	0	WM Stimuli\	1	1016.5	1	690.3	1	993.1	1	631.7	1	923.7	1	790.1	0.9	918	1	739.8	13	331795	2	331783	13	26	331808	-999999	331798	0	26	TrialsPROC	BP_013_BP7_BA.png	2	2	18	SessionSelectionList														target	2	Body	0-Back	16	80	14	0	0	100	1	38	89467	2	14	59	87429	-1	88030	1	601	2	2	2038	52	89481	-53	0																18												
WM080112	899885_fnca	2	1	1	22290193	1	75.031	75.031	2.0.10.147	2.0.10.242	2.0.10.242	1.0.0.439	7	234	2	3	Verdana	1	80	0	0	0	WM Stimuli\	1	1016.5	1	690.3	1	993.1	1	631.7	1	923.7	1	790.1	0.9	918	1	739.8	13	331795	2	331783	13	26	331808	-999999	331798	0	26	TrialsPROC	BP_015_H10-T_BA.png	2	2	19	SessionSelectionList														lure	3	Body	0-Back	17	80	15	0	0	100	1	39	92026	2	14	58	89987	-1	90646	1	659	3	3	2039	53	92040	-54	0																19												
WM080112	899885_fnca	2	1	1	22290193	1	75.031	75.031	2.0.10.147	2.0.10.242	2.0.10.242	1.0.0.439	7	234	2	3	Verdana	1	80	0	0	0	WM Stimuli\	1	1016.5	1	690.3	1	993.1	1	631.7	1	923.7	1	790.1	0.9	918	1	739.8	13	331795	2	331783	13	26	331808	-999999	331798	0	26	TrialsPROC	BP_016_H11-T_BA.png	2	2	20	SessionSelectionList														nonlure	3	Body	0-Back	18	80	16	0	0	100	2	38	94585	3	14	60	92547	-1	93255	1	708	3	3	2038	52	94599	-53	0																20												
WM080112	899885_fnca	2	1	1	22290193	1	75.031	75.031	2.0.10.147	2.0.10.242	2.0.10.242	1.0.0.439	7	234	2	3	Verdana	1	80	0	0	0	WM Stimuli\	1	1016.5	1	690.3	1	993.1	1	631.7	1	923.7	1	790.1	0.9	918	1	739.8	13	331795	2	331783	13	26	331808	-999999	331798	0	26	TrialsPROC	BP_013_BP7_BA.png	2	2	21	SessionSelectionList														target	2	Body	0-Back	19	80	17	0	0	100	1	40	97158	2	13	71	95118	-1	95827	1	709	2	2	2040	53	97171	-54	0																21												
WM080112	899885_fnca	2	1	1	22290193	1	75.031	75.031	2.0.10.147	2.0.10.242	2.0.10.242	1.0.0.439	7	234	2	3	Verdana	1	80	0	0	0	WM Stimuli\	1	1016.5	1	690.3	1	993.1	1	631.7	1	923.7	1	790.1	0.9	918	1	739.8	13	331795	2	331783	13	26	331808	-999999	331798	0	26	TrialsPROC	BP_017_H12-T_BA.png	2	2	22	SessionSelectionList														nonlure	3	Body	0-Back	20	80	18	0	0	100	1	40	99717	2	13	59	97677	-1	98281	1	604	3	3	2040	53	99730	-54	0																22												
WM080112	899885_fnca	2	1	1	22290193	1	75.031	75.031	2.0.10.147	2.0.10.242	2.0.10.242	1.0.0.439	7	234	2	3	Verdana	1	80	0	0	0	WM Stimuli\	1	1016.5	1	690.3	1	993.1	1	631.7	1	923.7	1	790.1	0.9	918	1	739.8	13	331795	2	331783	13	26	331808	-999999	331798	0	26	TrialsPROC	BP_014_BP9_BA.png	2	2	23	SessionSelectionList														lure	3	Body	0-Back	21	80	19	0	0	100	2	39	102275	3	14	59	100236	-1	100968	1	732	3	3	2039	53	102289	-54	0																23												
WM080112	899885_fnca	2	1	1	22290193	1	75.031	75.031	2.0.10.147	2.0.10.242	2.0.10.242	1.0.0.439	7	234	2	3	Verdana	1	80	0	0	0	WM Stimuli\	1	1016.5	1	690.3	1	993.1	1	631.7	1	923.7	1	790.1	0.9	918	1	739.8	13	331795	2	331783	13	26	331808	-999999	331798	0	27	Fix15secPROC	""	2	2	24	SessionSelectionList																																															6	102742	-7	0							24												
WM080112	899885_fnca	2	1	1	22290193	1	75.031	75.031	2.0.10.147	2.0.10.242	2.0.10.242	1.0.0.439	7	234	2	3	Verdana	1	80	0	0	0	WM Stimuli\	1	1016.5	1	690.3	1	993.1	1	631.7	1	923.7	1	790.1	0.9	918	1	739.8	13	331795	2	331783	13	26	331808	-999999	331798	0	28	Cue2BackPROC	""	2	2	25	SessionSelectionList									13	117749	-14	0																																													25												
WM080112	899885_fnca	2	1	1	22290193	1	75.031	75.031	2.0.10.147	2.0.10.242	2.0.10.242	1.0.0.439	7	234	2	3	Verdana	1	80	0	0	0	WM Stimuli\	1	1016.5	1	690.3	1	993.1	1	631.7	1	923.7	1	790.1	0.9	918	1	739.8	13	331795	2	331783	13	26	331808	-999999	331798	0	29	TrialsPROC	FC_015_M8.png	2	2	26	SessionSelectionList														nonlure	3	Face	2-Back	22	80	20	0	0	100	3	39	122347	3	14	72	120308	-1	121005	1	697	3	3	2039	53	122361	-54	0																26												
WM080112	899885_fnca	2	1	1	22290193	1	75.031	75.031	2.0.10.147	2.0.10.242	2.0.10.242	1.0.0.439	7	234	2	3	Verdana	1	80	0	0	0	WM Stimuli\	1	1016.5	1	690.3	1	993.1	1	631.7	1	923.7	1	790.1	0.9	918	1	739.8	13	331795	2	331783	13	26	331808	-999999	331798	0	29	TrialsPROC	FC_018_F9.png	2	2	27	SessionSelectionList														nonlure	3	Face	2-Back	23	80	21	0	0	100	4	40	124920	1	13	72	122880	-1	124871	1	1991	3	3	2040	53	124933	-54	0																27												
WM080112	899885_fnca	2	1	1	22290193	1	75.031	75.031	2.0.10.147	2.0.10.242	2.0.10.242	1.0.0.439	7	234	2	3	Verdana	1	80	0	0	0	WM Stimuli\	1	1016.5	1	690.3	1	993.1	1	631.7	1	923.7	1	790.1	0.9	918	1	739.8	13	331795	2	331783	13	26	331808	-999999	331798	0	29	TrialsPROC	FC_018_F9.png	2	2	28	SessionSelectionList														lure	3	Face	2-Back	24	80	22	0	0	100	5	39	127492	2	13	73	125453	-1	126350	1	897	3	3	2039	52	127505	-53	0																28												
WM080112	899885_fnca	2	1	1	22290193	1	75.031	75.031	2.0.10.147	2.0.10.242	2.0.10.242	1.0.0.439	7	234	2	3	Verdana	1	80	0	0	0	WM Stimuli\	1	1016.5	1	690.3	1	993.1	1	631.7	1	923.7	1	790.1	0.9	918	1	739.8	13	331795	2	331783	13	26	331808	-999999	331798	0	29	TrialsPROC	FC_017_M9.png	2	2	29	SessionSelectionList														nonlure	3	Face	2-Back	25	80	23	0	0	100	6	39	130064	1	14	72	128025	-1	128890	1	865	3	3	2039	53	130078	-54	0																29												
WM080112	899885_fnca	2	1	1	22290193	1	75.031	75.031	2.0.10.147	2.0.10.242	2.0.10.242	1.0.0.439	7	234	2	3	Verdana	1	80	0	0	0	WM Stimuli\	1	1016.5	1	690.3	1	993.1	1	631.7	1	923.7	1	790.1	0.9	918	1	739.8	13	331795	2	331783	13	26	331808	-999999	331798	0	29	TrialsPROC	FC_017_M9.png	2	2	30	SessionSelectionList														lure	3	Face	2-Back	26	80	24	0	0	100	7	39	132636	3	14	72	130597	-1	131553	1	956	3	3	2039	53	132650	-54	0																30												
WM080112	899885_fnca	2	1	1	22290193	1	75.031	75.031	2.0.10.147	2.0.10.242	2.0.10.242	1.0.0.439	7	234	2	3	Verdana	1	80	0	0	0	WM Stimuli\	1	1016.5	1	690.3	1	993.1	1	631.7	1	923.7	1	790.1	0.9	918	1	739.8	13	331795	2	331783	13	26	331808	-999999	331798	0	29	TrialsPROC	FC_016_F8.png	2	2	31	SessionSelectionList														nonlure	3	Face	2-Back	27	80	25	0	0	100	8	40	135209	1	13	72	133169	-1	133921	1	752	3	3	2040	53	135222	-54	0																31												
WM080112	899885_fnca	2	1	1	22290193	1	75.031	75.031	2.0.10.147	2.0.10.242	2.0.10.242	1.0.0.439	7	234	2	3	Verdana	1	80	0	0	0	WM Stimuli\	1	1016.5	1	690.3	1	993.1	1	631.7	1	923.7	1	790.1	0.9	918	1	739.8	13	331795	2	331783	13	26	331808	-999999	331798	0	29	TrialsPROC	FC_013_M7.png	2	2	32	SessionSelectionList														nonlure	3	Face	2-Back	28	80	26	0	0	100	9	39	137781	2	13	73	135742	-1	136375	1	633	3	3	2039	52	137794	-53	0																32												
WM080112	899885_fnca	2	1	1	22290193	1	75.031	75.031	2.0.10.147	2.0.10.242	2.0.10.242	1.0.0.439	7	234	2	3	Verdana	1	80	0	0	0	WM Stimuli\	1	1016.5	1	690.3	1	993.1	1	631.7	1	923.7	1	790.1	0.9	918	1	739.8	13	331795	2	331783	13	26	331808	-999999	331798	0	29	TrialsPROC	FC_014_F7.png	2	2	33	SessionSelectionList														nonlure	3	Face	2-Back	29	80	27	0	0	100	10	39	140353	2	14	72	138314	-1	139173	1	859	3	3	2039	53	140367	-54	0																33												
WM080112	899885_fnca	2	1	1	22290193	1	75.031	75.031	2.0.10.147	2.0.10.242	2.0.10.242	1.0.0.439	7	234	2	3	Verdana	1	80	0	0	0	WM Stimuli\	1	1016.5	1	690.3	1	993.1	1	631.7	1	923.7	1	790.1	0.9	918	1	739.8	13	331795	2	331783	13	26	331808	-999999	331798	0	29	TrialsPROC	FC_013_M7.png	2	2	34	SessionSelectionList														target	2	Face	2-Back	30	80	28	0	0	100	1	39	142925	2	14	72	140886	-1	141350	1	464	2	2	2039	53	142939	-54	0																34												
WM080112	899885_fnca	2	1	1	22290193	1	75.031	75.031	2.0.10.147	2.0.10.242	2.0.10.242	1.0.0.439	7	234	2	3	Verdana	1	80	0	0	0	WM Stimuli\	1	1016.5	1	690.3	1	993.1	1	631.7	1	923.7	1	790.1	0.9	918	1	739.8	13	331795	2	331783	13	26	331808	-999999	331798	0	29	TrialsPROC	FC_014_F7.png	2	2	35	SessionSelectionList														target	2	Face	2-Back	31	80	29	0	0	100	2	39	145498	2	13	73	143459	-1	145276	1	1817	2	2	2039	52	145511	-53	0																35												
WM080112	899885_fnca	2	1	1	22290193	1	75.031	75.031	2.0.10.147	2.0.10.242	2.0.10.242	1.0.0.439	7	234	2	3	Verdana	1	80	0	0	0	WM Stimuli\	1	1016.5	1	690.3	1	993.1	1	631.7	1	923.7	1	790.1	0.9	918	1	739.8	13	331795	2	331783	13	26	331808	-999999	331798	0	30	Cue0BackPROC	TO_019_TOOL19_BA.png	2	2	36	SessionSelectionList																																										19	145978	-20	0												36												
WM080112	899885_fnca	2	1	1	22290193	1	75.031	75.031	2.0.10.147	2.0.10.242	2.0.10.242	1.0.0.439	7	234	2	3	Verdana	1	80	0	0	0	WM Stimuli\	1	1016.5	1	690.3	1	993.1	1	631.7	1	923.7	1	790.1	0.9	918	1	739.8	13	331795	2	331783	13	26	331808	-999999	331798	0	31	TrialsPROC	TO_019_TOOL19_BA.png	2	2	37	SessionSelectionList														target	2	Tools	0-Back	32	80	30	0	0	100	3	39	150549	2	13	51	148510	-1	149866	1	1356	2	2	2039	52	150562	-53	0																37												
WM080112	899885_fnca	2	1	1	22290193	1	75.031	75.031	2.0.10.147	2.0.10.242	2.0.10.242	1.0.0.439	7	234	2	3	Verdana	1	80	0	0	0	WM Stimuli\	1	1016.5	1	690.3	1	993.1	1	631.7	1	923.7	1	790.1	0.9	918	1	739.8	13	331795	2	331783	13	26	331808	-999999	331798	0	31	TrialsPROC	TO_024_TOOL24_BA.png	2	2	38	SessionSelectionList														nonlure	3	Tools	0-Back	33	80	31	0	0	100	1	39	153108	1	13	59	151069	-1	151942	1	873	3	3	2039	52	153121	-53	0																38												
WM080112	899885_fnca	2	1	1	22290193	1	75.031	75.031	2.0.10.147	2.0.10.242	2.0.10.242	1.0.0.439	7	234	2	3	Verdana	1	80	0	0	0	WM Stimuli\	1	1016.5	1	690.3	1	993.1	1	631.7	1	923.7	1	790.1	0.9	918	1	739.8	13	331795	2	331783	13	26	331808	-999999	331798	0	31	TrialsPROC	TO_019_TOOL19_BA.png	2	2	39	SessionSelectionList														target	2	Tools	0-Back	34	80	32	0	0	100	1	39	155667	1	13	59	153628	-1	154402	1	774	2	2	2039	52	155680	-53	0																39												
WM080112	899885_fnca	2	1	1	22290193	1	75.031	75.031	2.0.10.147	2.0.10.242	2.0.10.242	1.0.0.439	7	234	2	3	Verdana	1	80	0	0	0	WM Stimuli\	1	1016.5	1	690.3	1	993.1	1	631.7	1	923.7	1	790.1	0.9	918	1	739.8	13	331795	2	331783	13	26	331808	-999999	331798	0	31	TrialsPROC	TO_023_TOOL23_BA.png	2	2	40	SessionSelectionList														nonlure	3	Tools	0-Back	35	80	33	0	0	100	1	39	158226	1	13	59	156187	-1	156830	1	643	3	3	2039	52	158239	-53	0																40												
WM080112	899885_fnca	2	1	1	22290193	1	75.031	75.031	2.0.10.147	2.0.10.242	2.0.10.242	1.0.0.439	7	234	2	3	Verdana	1	80	0	0	0	WM Stimuli\	1	1016.5	1	690.3	1	993.1	1	631.7	1	923.7	1	790.1	0.9	918	1	739.8	13	331795	2	331783	13	26	331808	-999999	331798	0	31	TrialsPROC	TO_020_TOOL20_BA.png	2	2	41	SessionSelectionList														nonlure	3	Tools	0-Back	36	80	34	0	0	100	2	39	160785	1	13	59	158746	-1	159259	1	513	3	3	2039	52	160798	-53	0																41												
WM080112	899885_fnca	2	1	1	22290193	1	75.031	75.031	2.0.10.147	2.0.10.242	2.0.10.242	1.0.0.439	7	234	2	3	Verdana	1	80	0	0	0	WM Stimuli\	1	1016.5	1	690.3	1	993.1	1	631.7	1	923.7	1	790.1	0.9	918	1	739.8	13	331795	2	331783	13	26	331808	-999999	331798	0	31	TrialsPROC	TO_020_TOOL20_BA.png	2	2	42	SessionSelectionList														lure	3	Tools	0-Back	37	80	35	0	0	100	3	39	163344	1	13	59	161305	-1	161865	1	560	3	3	2039	52	163357	-53	0																42												
WM080112	899885_fnca	2	1	1	22290193	1	75.031	75.031	2.0.10.147	2.0.10.242	2.0.10.242	1.0.0.439	7	234	2	3	Verdana	1	80	0	0	0	WM Stimuli\	1	1016.5	1	690.3	1	993.1	1	631.7	1	923.7	1	790.1	0.9	918	1	739.8	13	331795	2	331783	13	26	331808	-999999	331798	0	31	TrialsPROC	TO_022_TOOL22_BA.png	2	2	43	SessionSelectionList														nonlure	3	Tools	0-Back	38	80	36	0	0	100	4	39	165903	2	13	59	163864	-1	164505	1	641	3	3	2039	52	165916	-53	0																43												
WM080112	899885_fnca	2	1	1	22290193	1	75.031	75.031	2.0.10.147	2.0.10.242	2.0.10.242	1.0.0.439	7	234	2	3	Verdana	1	80	0	0	0	WM Stimuli\	1	1016.5	1	690.3	1	993.1	1	631.7	1	923.7	1	790.1	0.9	918	1	739.8	13	331795	2	331783	13	26	331808	-999999	331798	0	31	TrialsPROC	TO_022_TOOL22_BA.png	2	2	44	SessionSelectionList														lure	3	Tools	0-Back	39	80	37	0	0	100	5	39	168462	2	13	59	166423	-1	166976	1	553	3	3	2039	52	168475	-53	0																44												
WM080112	899885_fnca	2	1	1	22290193	1	75.031	75.031	2.0.10.147	2.0.10.242	2.0.10.242	1.0.0.439	7	234	2	3	Verdana	1	80	0	0	0	WM Stimuli\	1	1016.5	1	690.3	1	993.1	1	631.7	1	923.7	1	790.1	0.9	918	1	739.8	13	331795	2	331783	13	26	331808	-999999	331798	0	31	TrialsPROC	TO_021_TOOL21_BA.png	2	2	45	SessionSelectionList														nonlure	3	Tools	0-Back	40	80	38	0	0	100	6	40	171021	1	13	58	168981	-1	169842	1	861	3	3	2040	53	171034	-54	0																45												
WM080112	899885_fnca	2	1	1	22290193	1	75.031	75.031	2.0.10.147	2.0.10.242	2.0.10.242	1.0.0.439	7	234	2	3	Verdana	1	80	0	0	0	WM Stimuli\	1	1016.5	1	690.3	1	993.1	1	631.7	1	923.7	1	790.1	0.9	918	1	739.8	13	331795	2	331783	13	26	331808	-999999	331798	0	31	TrialsPROC	TO_021_TOOL21_BA.png	2	2	46	SessionSelectionList														lure	3	Tools	0-Back	41	80	39	0	0	100	7	40	173580	1	13	59	171540	-1	172164	1	624	3	3	2040	53	173593	-54	0																46												
WM080112	899885_fnca	2	1	1	22290193	1	75.031	75.031	2.0.10.147	2.0.10.242	2.0.10.242	1.0.0.439	7	234	2	3	Verdana	1	80	0	0	0	WM Stimuli\	1	1016.5	1	690.3	1	993.1	1	631.7	1	923.7	1	790.1	0.9	918	1	739.8	13	331795	2	331783	13	26	331808	-999999	331798	0	32	Fix15secPROC	""	2	2	47	SessionSelectionList																																															6	174046	-7	0							47												
WM080112	899885_fnca	2	1	1	22290193	1	75.031	75.031	2.0.10.147	2.0.10.242	2.0.10.242	1.0.0.439	7	234	2	3	Verdana	1	80	0	0	0	WM Stimuli\	1	1016.5	1	690.3	1	993.1	1	631.7	1	923.7	1	790.1	0.9	918	1	739.8	13	331795	2	331783	13	26	331808	-999999	331798	0	33	Cue2BackPROC	""	2	2	48	SessionSelectionList									13	189053	-14	0																																													48												
WM080112	899885_fnca	2	1	1	22290193	1	75.031	75.031	2.0.10.147	2.0.10.242	2.0.10.242	1.0.0.439	7	234	2	3	Verdana	1	80	0	0	0	WM Stimuli\	1	1016.5	1	690.3	1	993.1	1	631.7	1	923.7	1	790.1	0.9	918	1	739.8	13	331795	2	331783	13	26	331808	-999999	331798	0	34	TrialsPROC	BP_020_H17-T_BA.png	2	2	49	SessionSelectionList														nonlure	3	Body	2-Back	42	80	40	0	0	100	8	39	193638	2	13	59	191599	-1	192079	1	480	3	3	2039	52	193651	-53	0																49												
WM080112	899885_fnca	2	1	1	22290193	1	75.031	75.031	2.0.10.147	2.0.10.242	2.0.10.242	1.0.0.439	7	234	2	3	Verdana	1	80	0	0	0	WM Stimuli\	1	1016.5	1	690.3	1	993.1	1	631.7	1	923.7	1	790.1	0.9	918	1	739.8	13	331795	2	331783	13	26	331808	-999999	331798	0	34	TrialsPROC	BP_019_H14-T_BA.png	2	2	50	SessionSelectionList														nonlure	3	Body	2-Back	43	80	41	0	0	100	9	39	196197	2	13	59	194158	-1	194939	1	781	3	3	2039	52	196210	-53	0																50												
WM080112	899885_fnca	2	1	1	22290193	1	75.031	75.031	2.0.10.147	2.0.10.242	2.0.10.242	1.0.0.439	7	234	2	3	Verdana	1	80	0	0	0	WM Stimuli\	1	1016.5	1	690.3	1	993.1	1	631.7	1	923.7	1	790.1	0.9	918	1	739.8	13	331795	2	331783	13	26	331808	-999999	331798	0	34	TrialsPROC	BP_020_H17-T_BA.png	2	2	51	SessionSelectionList														target	2	Body	2-Back	44	80	42	0	0	100	1	39	198756	2	13	59	196717	-1	197800	1	1083	2	2	2039	52	198769	-53	0																51												
WM080112	899885_fnca	2	1	1	22290193	1	75.031	75.031	2.0.10.147	2.0.10.242	2.0.10.242	1.0.0.439	7	234	2	3	Verdana	1	80	0	0	0	WM Stimuli\	1	1016.5	1	690.3	1	993.1	1	631.7	1	923.7	1	790.1	0.9	918	1	739.8	13	331795	2	331783	13	26	331808	-999999	331798	0	34	TrialsPROC	BP_019_H14-T_BA.png	2	2	52	SessionSelectionList														target	2	Body	2-Back	45	80	43	0	0	100	2	39	201315	1	13	59	199276	-1	200286	1	1010	2	2	2039	52	201328	-53	0																52												
WM080112	899885_fnca	2	1	1	22290193	1	75.031	75.031	2.0.10.147	2.0.10.242	2.0.10.242	1.0.0.439	7	234	2	3	Verdana	1	80	0	0	0	WM Stimuli\	1	1016.5	1	690.3	1	993.1	1	631.7	1	923.7	1	790.1	0.9	918	1	739.8	13	331795	2	331783	13	26	331808	-999999	331798	0	34	TrialsPROC	BP_024_H3-T_BA.png	2	2	53	SessionSelectionList														nonlure	3	Body	2-Back	46	80	44	0	0	100	1	39	203874	2	13	59	201835	-1	203016	1	1181	3	3	2039	52	203887	-53	0																53												
WM080112	899885_fnca	2	1	1	22290193	1	75.031	75.031	2.0.10.147	2.0.10.242	2.0.10.242	1.0.0.439	7	234	2	3	Verdana	1	80	0	0	0	WM Stimuli\	1	1016.5	1	690.3	1	993.1	1	631.7	1	923.7	1	790.1	0.9	918	1	739.8	13	331795	2	331783	13	26	331808	-999999	331798	0	34	TrialsPROC	BP_024_H3-T_BA.png	2	2	54	SessionSelectionList														lure	3	Body	2-Back	47	80	45	0	0	100	2	39	206433	1	13	59	204394	-1	205734	1	1340	3	3	2039	52	206446	-53	0																54												
WM080112	899885_fnca	2	1	1	22290193	1	75.031	75.031	2.0.10.147	2.0.10.242	2.0.10.242	1.0.0.439	7	234	2	3	Verdana	1	80	0	0	0	WM Stimuli\	1	1016.5	1	690.3	1	993.1	1	631.7	1	923.7	1	790.1	0.9	918	1	739.8	13	331795	2	331783	13	26	331808	-999999	331798	0	34	TrialsPROC	BP_025_H5-T_BA.png	2	2	55	SessionSelectionList														nonlure	3	Body	2-Back	48	80	46	0	0	100	3	39	208992	2	13	59	206953	-1	208257	1	1304	3	3	2039	52	209005	-53	0																55												
WM080112	899885_fnca	2	1	1	22290193	1	75.031	75.031	2.0.10.147	2.0.10.242	2.0.10.242	1.0.0.439	7	234	2	3	Verdana	1	80	0	0	0	WM Stimuli\	1	1016.5	1	690.3	1	993.1	1	631.7	1	923.7	1	790.1	0.9	918	1	739.8	13	331795	2	331783	13	26	331808	-999999	331798	0	34	TrialsPROC	BP_023_H25-T_BA.png	2	2	56	SessionSelectionList														nonlure	3	Body	2-Back	49	80	47	0	0	100	4	39	211551	2	13	59	209512	-1	210570	1	1058	3	3	2039	52	211564	-53	0																56												
WM080112	899885_fnca	2	1	1	22290193	1	75.031	75.031	2.0.10.147	2.0.10.242	2.0.10.242	1.0.0.439	7	234	2	3	Verdana	1	80	0	0	0	WM Stimuli\	1	1016.5	1	690.3	1	993.1	1	631.7	1	923.7	1	790.1	0.9	918	1	739.8	13	331795	2	331783	13	26	331808	-999999	331798	0	34	TrialsPROC	BP_022_H24-T_BA.png	2	2	57	SessionSelectionList														nonlure	3	Body	2-Back	50	80	48	0	0	100	5	39	214110	2	13	59	212071	-1	213040	1	969	3	3	2039	52	214123	-53	0																57												
WM080112	899885_fnca	2	1	1	22290193	1	75.031	75.031	2.0.10.147	2.0.10.242	2.0.10.242	1.0.0.439	7	234	2	3	Verdana	1	80	0	0	0	WM Stimuli\	1	1016.5	1	690.3	1	993.1	1	631.7	1	923.7	1	790.1	0.9	918	1	739.8	13	331795	2	331783	13	26	331808	-999999	331798	0	34	TrialsPROC	BP_022_H24-T_BA.png	2	2	58	SessionSelectionList														lure	3	Body	2-Back	51	80	49	0	0	100	6	40	216669	1	13	58	214629	-1	215588	1	959	3	3	2040	53	216682	-54	0																58												
WM080112	899885_fnca	2	1	1	22290193	1	75.031	75.031	2.0.10.147	2.0.10.242	2.0.10.242	1.0.0.439	7	234	2	3	Verdana	1	80	0	0	0	WM Stimuli\	1	1016.5	1	690.3	1	993.1	1	631.7	1	923.7	1	790.1	0.9	918	1	739.8	13	331795	2	331783	13	26	331808	-999999	331798	0	35	Cue2BackPROC	""	2	2	59	SessionSelectionList									6	217135	-7	0																																													59												
WM080112	899885_fnca	2	1	1	22290193	1	75.031	75.031	2.0.10.147	2.0.10.242	2.0.10.242	1.0.0.439	7	234	2	3	Verdana	1	80	0	0	0	WM Stimuli\	1	1016.5	1	690.3	1	993.1	1	631.7	1	923.7	1	790.1	0.9	918	1	739.8	13	331795	2	331783	13	26	331808	-999999	331798	0	36	TrialsPROC	PL_019_SCENE_05.png	2	2	60	SessionSelectionList														nonlure	3	Place	2-Back	52	80	50	0	0	100	7	39	221733	3	14	65	219694	-1	220898	1	1204	3	3	2039	53	221747	-54	0																60												
WM080112	899885_fnca	2	1	1	22290193	1	75.031	75.031	2.0.10.147	2.0.10.242	2.0.10.242	1.0.0.439	7	234	2	3	Verdana	1	80	0	0	0	WM Stimuli\	1	1016.5	1	690.3	1	993.1	1	631.7	1	923.7	1	790.1	0.9	918	1	739.8	13	331795	2	331783	13	26	331808	-999999	331798	0	36	TrialsPROC	PL_017_SCENE_03.png	2	2	61	SessionSelectionList														nonlure	3	Place	2-Back	53	80	51	0	0	100	8	39	224305	2	14	72	222266	-1	223081	1	815	3	3	2039	53	224319	-54	0																61												
WM080112	899885_fnca	2	1	1	22290193	1	75.031	75.031	2.0.10.147	2.0.10.242	2.0.10.242	1.0.0.439	7	234	2	3	Verdana	1	80	0	0	0	WM Stimuli\	1	1016.5	1	690.3	1	993.1	1	631.7	1	923.7	1	790.1	0.9	918	1	739.8	13	331795	2	331783	13	26	331808	-999999	331798	0	36	TrialsPROC	PL_017_SCENE_03.png	2	2	62	SessionSelectionList														lure	3	Place	2-Back	54	80	52	0	0	100	9	39	226878	1	13	73	224839	-1	225608	1	769	3	3	2039	52	226891	-53	0																62												
WM080112	899885_fnca	2	1	1	22290193	1	75.031	75.031	2.0.10.147	2.0.10.242	2.0.10.242	1.0.0.439	7	234	2	3	Verdana	1	80	0	0	0	WM Stimuli\	1	1016.5	1	690.3	1	993.1	1	631.7	1	923.7	1	790.1	0.9	918	1	739.8	13	331795	2	331783	13	26	331808	-999999	331798	0	36	TrialsPROC	PL_016_SCENE_02.png	2	2	63	SessionSelectionList														nonlure	3	Place	2-Back	55	80	53	0	0	100	10	39	229450	1	13	72	227411	-1	228328	1	917	3	3	2039	52	229463	-53	0																63												
WM080112	899885_fnca	2	1	1	22290193	1	75.031	75.031	2.0.10.147	2.0.10.242	2.0.10.242	1.0.0.439	7	234	2	3	Verdana	1	80	0	0	0	WM Stimuli\	1	1016.5	1	690.3	1	993.1	1	631.7	1	923.7	1	790.1	0.9	918	1	739.8	13	331795	2	331783	13	26	331808	-999999	331798	0	36	TrialsPROC	PL_015_SCENE_01.png	2	2	64	SessionSelectionList														nonlure	3	Place	2-Back	56	80	54	0	0	100	11	39	232022	2	14	72	229983	-1	230640	1	657	3	3	2039	53	232036	-54	0																64												
WM080112	899885_fnca	2	1	1	22290193	1	75.031	75.031	2.0.10.147	2.0.10.242	2.0.10.242	1.0.0.439	7	234	2	3	Verdana	1	80	0	0	0	WM Stimuli\	1	1016.5	1	690.3	1	993.1	1	631.7	1	923.7	1	790.1	0.9	918	1	739.8	13	331795	2	331783	13	26	331808	-999999	331798	0	36	TrialsPROC	PL_016_SCENE_02.png	2	2	65	SessionSelectionList														target	2	Place	2-Back	57	80	55	0	0	100	1	40	234595	2	13	72	232555	-1	233326	1	771	2	2	2040	53	234608	-54	0																65												
WM080112	899885_fnca	2	1	1	22290193	1	75.031	75.031	2.0.10.147	2.0.10.242	2.0.10.242	1.0.0.439	7	234	2	3	Verdana	1	80	0	0	0	WM Stimuli\	1	1016.5	1	690.3	1	993.1	1	631.7	1	923.7	1	790.1	0.9	918	1	739.8	13	331795	2	331783	13	26	331808	-999999	331798	0	36	TrialsPROC	PL_015_SCENE_01.png	2	2	66	SessionSelectionList														target	2	Place	2-Back	58	80	56	0	0	100	2	39	237167	1	13	73	235128	-1	236178	1	1050	2	2	2039	52	237180	-53	0																66												
WM080112	899885_fnca	2	1	1	22290193	1	75.031	75.031	2.0.10.147	2.0.10.242	2.0.10.242	1.0.0.439	7	234	2	3	Verdana	1	80	0	0	0	WM Stimuli\	1	1016.5	1	690.3	1	993.1	1	631.7	1	923.7	1	790.1	0.9	918	1	739.8	13	331795	2	331783	13	26	331808	-999999	331798	0	36	TrialsPROC	PL_020_SCENE_06.png	2	2	67	SessionSelectionList														nonlure	3	Place	2-Back	59	80	57	0	0	100	1	39	239739	3	14	72	237700	-1	238688	1	988	3	3	2039	53	239753	-54	0																67												
WM080112	899885_fnca	2	1	1	22290193	1	75.031	75.031	2.0.10.147	2.0.10.242	2.0.10.242	1.0.0.439	7	234	2	3	Verdana	1	80	0	0	0	WM Stimuli\	1	1016.5	1	690.3	1	993.1	1	631.7	1	923.7	1	790.1	0.9	918	1	739.8	13	331795	2	331783	13	26	331808	-999999	331798	0	36	TrialsPROC	PL_020_SCENE_06.png	2	2	68	SessionSelectionList														lure	3	Place	2-Back	60	80	58	0	0	100	2	39	242311	2	14	72	240272	-1	241421	1	1149	3	3	2039	53	242325	-54	0																68												
WM080112	899885_fnca	2	1	1	22290193	1	75.031	75.031	2.0.10.147	2.0.10.242	2.0.10.242	1.0.0.439	7	234	2	3	Verdana	1	80	0	0	0	WM Stimuli\	1	1016.5	1	690.3	1	993.1	1	631.7	1	923.7	1	790.1	0.9	918	1	739.8	13	331795	2	331783	13	26	331808	-999999	331798	0	36	TrialsPROC	PL_018_SCENE_04.png	2	2	69	SessionSelectionList														nonlure	3	Place	2-Back	61	80	59	0	0	100	3	39	244884	2	13	73	242845	-1	243762	1	917	3	3	2039	52	244897	-53	0																69												
WM080112	899885_fnca	2	1	1	22290193	1	75.031	75.031	2.0.10.147	2.0.10.242	2.0.10.242	1.0.0.439	7	234	2	3	Verdana	1	80	0	0	0	WM Stimuli\	1	1016.5	1	690.3	1	993.1	1	631.7	1	923.7	1	790.1	0.9	918	1	739.8	13	331795	2	331783	13	26	331808	-999999	331798	0	37	Fix15secPROC	""	2	2	70	SessionSelectionList																																															5	245350	-6	0							70												
WM080112	899885_fnca	2	1	1	22290193	1	75.031	75.031	2.0.10.147	2.0.10.242	2.0.10.242	1.0.0.439	7	234	2	3	Verdana	1	80	0	0	0	WM Stimuli\	1	1016.5	1	690.3	1	993.1	1	631.7	1	923.7	1	790.1	0.9	918	1	739.8	13	331795	2	331783	13	26	331808	-999999	331798	0	38	Cue0BackPROC	FC_020_F10.png	2	2	71	SessionSelectionList																																										26	260371	-27	0												71												
WM080112	899885_fnca	2	1	1	22290193	1	75.031	75.031	2.0.10.147	2.0.10.242	2.0.10.242	1.0.0.439	7	234	2	3	Verdana	1	80	0	0	0	WM Stimuli\	1	1016.5	1	690.3	1	993.1	1	631.7	1	923.7	1	790.1	0.9	918	1	739.8	13	331795	2	331783	13	26	331808	-999999	331798	0	39	TrialsPROC	FC_024_F12.png	2	2	72	SessionSelectionList														nonlure	3	Face	0-Back	62	80	60	0	0	100	4	39	264955	3	14	71	262916	-1	263607	1	691	3	3	2039	53	264969	-54	0																72												
WM080112	899885_fnca	2	1	1	22290193	1	75.031	75.031	2.0.10.147	2.0.10.242	2.0.10.242	1.0.0.439	7	234	2	3	Verdana	1	80	0	0	0	WM Stimuli\	1	1016.5	1	690.3	1	993.1	1	631.7	1	923.7	1	790.1	0.9	918	1	739.8	13	331795	2	331783	13	26	331808	-999999	331798	0	39	TrialsPROC	FC_023_M12.png	2	2	73	SessionSelectionList														nonlure	3	Face	0-Back	63	80	61	0	0	100	5	39	267528	2	13	73	265489	-1	266152	1	663	3	3	2039	52	267541	-53	0																73												
WM080112	899885_fnca	2	1	1	22290193	1	75.031	75.031	2.0.10.147	2.0.10.242	2.0.10.242	1.0.0.439	7	234	2	3	Verdana	1	80	0	0	0	WM Stimuli\	1	1016.5	1	690.3	1	993.1	1	631.7	1	923.7	1	790.1	0.9	918	1	739.8	13	331795	2	331783	13	26	331808	-999999	331798	0	39	TrialsPROC	FC_020_F10.png	2	2	74	SessionSelectionList														target	2	Face	0-Back	64	80	62	0	0	100	1	39	270100	1	14	72	268061	-1	268729	1	668	2	2	2039	53	270114	-54	0																74												
WM080112	899885_fnca	2	1	1	22290193	1	75.031	75.031	2.0.10.147	2.0.10.242	2.0.10.242	1.0.0.439	7	234	2	3	Verdana	1	80	0	0	0	WM Stimuli\	1	1016.5	1	690.3	1	993.1	1	631.7	1	923.7	1	790.1	0.9	918	1	739.8	13	331795	2	331783	13	26	331808	-999999	331798	0	39	TrialsPROC	FC_024_F12.png	2	2	75	SessionSelectionList														lure	3	Face	0-Back	65	80	63	0	0	100	1	39	272672	3	14	72	270633	-1	271316	1	683	3	3	2039	53	272686	-54	0																75												
WM080112	899885_fnca	2	1	1	22290193	1	75.031	75.031	2.0.10.147	2.0.10.242	2.0.10.242	1.0.0.439	7	234	2	3	Verdana	1	80	0	0	0	WM Stimuli\	1	1016.5	1	690.3	1	993.1	1	631.7	1	923.7	1	790.1	0.9	918	1	739.8	13	331795	2	331783	13	26	331808	-999999	331798	0	39	TrialsPROC	FC_020_F10.png	2	2	76	SessionSelectionList														target	2	Face	0-Back	66	80	64	0	0	100	1	40	275245	2	13	72	273205	-1	273742	1	537	2	2	2040	53	275258	-54	0																76												
WM080112	899885_fnca	2	1	1	22290193	1	75.031	75.031	2.0.10.147	2.0.10.242	2.0.10.242	1.0.0.439	7	234	2	3	Verdana	1	80	0	0	0	WM Stimuli\	1	1016.5	1	690.3	1	993.1	1	631.7	1	923.7	1	790.1	0.9	918	1	739.8	13	331795	2	331783	13	26	331808	-999999	331798	0	39	TrialsPROC	FC_022_F11.png	2	2	77	SessionSelectionList														nonlure	3	Face	0-Back	67	80	65	0	0	100	1	39	277817	1	13	73	275778	-1	276439	1	661	3	3	2039	52	277830	-53	0																77												
WM080112	899885_fnca	2	1	1	22290193	1	75.031	75.031	2.0.10.147	2.0.10.242	2.0.10.242	1.0.0.439	7	234	2	3	Verdana	1	80	0	0	0	WM Stimuli\	1	1016.5	1	690.3	1	993.1	1	631.7	1	923.7	1	790.1	0.9	918	1	739.8	13	331795	2	331783	13	26	331808	-999999	331798	0	39	TrialsPROC	FC_023_M12.png	2	2	78	SessionSelectionList														lure	3	Face	0-Back	68	80	66	0	0	100	2	39	280389	3	14	72	278350	-1	278970	1	620	3	3	2039	53	280403	-54	0																78												
WM080112	899885_fnca	2	1	1	22290193	1	75.031	75.031	2.0.10.147	2.0.10.242	2.0.10.242	1.0.0.439	7	234	2	3	Verdana	1	80	0	0	0	WM Stimuli\	1	1016.5	1	690.3	1	993.1	1	631.7	1	923.7	1	790.1	0.9	918	1	739.8	13	331795	2	331783	13	26	331808	-999999	331798	0	39	TrialsPROC	FC_021_M11.png	2	2	79	SessionSelectionList														nonlure	3	Face	0-Back	69	80	67	0	0	100	3	39	282961	2	14	72	280922	-1	281519	1	597	3	3	2039	53	282975	-54	0																79												
WM080112	899885_fnca	2	1	1	22290193	1	75.031	75.031	2.0.10.147	2.0.10.242	2.0.10.242	1.0.0.439	7	234	2	3	Verdana	1	80	0	0	0	WM Stimuli\	1	1016.5	1	690.3	1	993.1	1	631.7	1	923.7	1	790.1	0.9	918	1	739.8	13	331795	2	331783	13	26	331808	-999999	331798	0	39	TrialsPROC	FC_021_M11.png	2	2	80	SessionSelectionList														lure	3	Face	0-Back	70	80	68	0	0	100	4	39	285534	1	13	73	283495	-1	284103	1	608	3	3	2039	52	285547	-53	0																80												
WM080112	899885_fnca	2	1	1	22290193	1	75.031	75.031	2.0.10.147	2.0.10.242	2.0.10.242	1.0.0.439	7	234	2	3	Verdana	1	80	0	0	0	WM Stimuli\	1	1016.5	1	690.3	1	993.1	1	631.7	1	923.7	1	790.1	0.9	918	1	739.8	13	331795	2	331783	13	26	331808	-999999	331798	0	39	TrialsPROC	FC_019_M10.png	2	2	81	SessionSelectionList														nonlure	3	Face	0-Back	71	80	69	0	0	100	5	39	288106	1	13	72	286067	-1	286656	1	589	3	3	2039	52	288119	-53	0																81												
WM080112	899885_fnca	2	1	1	22290193	1	75.031	75.031	2.0.10.147	2.0.10.242	2.0.10.242	1.0.0.439	7	234	2	3	Verdana	1	80	0	0	0	WM Stimuli\	1	1016.5	1	690.3	1	993.1	1	631.7	1	923.7	1	790.1	0.9	918	1	739.8	13	331795	2	331783	13	26	331808	-999999	331798	0	40	Cue0BackPROC	PL_021_SCENE_07.png	2	2	82	SessionSelectionList																																										19	288586	-20	0												82												
WM080112	899885_fnca	2	1	1	22290193	1	75.031	75.031	2.0.10.147	2.0.10.242	2.0.10.242	1.0.0.439	7	234	2	3	Verdana	1	80	0	0	0	WM Stimuli\	1	1016.5	1	690.3	1	993.1	1	631.7	1	923.7	1	790.1	0.9	918	1	739.8	13	331795	2	331783	13	26	331808	-999999	331798	0	41	TrialsPROC	PL_025_SCENE_18.png	2	2	83	SessionSelectionList														nonlure	3	Place	0-Back	72	80	70	0	0	100	6	40	293171	1	13	64	291131	-1	292164	1	1033	3	3	2040	53	293184	-54	0																83												
WM080112	899885_fnca	2	1	1	22290193	1	75.031	75.031	2.0.10.147	2.0.10.242	2.0.10.242	1.0.0.439	7	234	2	3	Verdana	1	80	0	0	0	WM Stimuli\	1	1016.5	1	690.3	1	993.1	1	631.7	1	923.7	1	790.1	0.9	918	1	739.8	13	331795	2	331783	13	26	331808	-999999	331798	0	41	TrialsPROC	PL_026_SCENE_24.png	2	2	84	SessionSelectionList														nonlure	3	Place	0-Back	73	80	71	0	0	100	7	39	295743	1	13	73	293704	-1	294653	1	949	3	3	2039	52	295756	-53	0																84												
WM080112	899885_fnca	2	1	1	22290193	1	75.031	75.031	2.0.10.147	2.0.10.242	2.0.10.242	1.0.0.439	7	234	2	3	Verdana	1	80	0	0	0	WM Stimuli\	1	1016.5	1	690.3	1	993.1	1	631.7	1	923.7	1	790.1	0.9	918	1	739.8	13	331795	2	331783	13	26	331808	-999999	331798	0	41	TrialsPROC	PL_025_SCENE_18.png	2	2	85	SessionSelectionList														lure	3	Place	0-Back	74	80	72	0	0	100	8	39	298315	2	14	72	296276	-1	297213	1	937	3	3	2039	53	298329	-54	0																85												
WM080112	899885_fnca	2	1	1	22290193	1	75.031	75.031	2.0.10.147	2.0.10.242	2.0.10.242	1.0.0.439	7	234	2	3	Verdana	1	80	0	0	0	WM Stimuli\	1	1016.5	1	690.3	1	993.1	1	631.7	1	923.7	1	790.1	0.9	918	1	739.8	13	331795	2	331783	13	26	331808	-999999	331798	0	41	TrialsPROC	PL_022_SCENE_08.png	2	2	86	SessionSelectionList														nonlure	3	Place	0-Back	75	80	73	0	0	100	9	39	300887	2	14	72	298848	-1	299630	1	782	3	3	2039	53	300901	-54	0																86												
WM080112	899885_fnca	2	1	1	22290193	1	75.031	75.031	2.0.10.147	2.0.10.242	2.0.10.242	1.0.0.439	7	234	2	3	Verdana	1	80	0	0	0	WM Stimuli\	1	1016.5	1	690.3	1	993.1	1	631.7	1	923.7	1	790.1	0.9	918	1	739.8	13	331795	2	331783	13	26	331808	-999999	331798	0	41	TrialsPROC	PL_026_SCENE_24.png	2	2	87	SessionSelectionList														lure	3	Place	0-Back	76	80	74	0	0	100	10	39	303460	2	13	73	301421	-1	302054	1	633	3	3	2039	52	303473	-53	0																87												
WM080112	899885_fnca	2	1	1	22290193	1	75.031	75.031	2.0.10.147	2.0.10.242	2.0.10.242	1.0.0.439	7	234	2	3	Verdana	1	80	0	0	0	WM Stimuli\	1	1016.5	1	690.3	1	993.1	1	631.7	1	923.7	1	790.1	0.9	918	1	739.8	13	331795	2	331783	13	26	331808	-999999	331798	0	41	TrialsPROC	PL_021_SCENE_07.png	2	2	88	SessionSelectionList														target	2	Place	0-Back	77	80	75	0	0	100	1	39	306032	2	13	72	303993	-1	304689	1	696	2	2	2039	52	306045	-53	0																88												
WM080112	899885_fnca	2	1	1	22290193	1	75.031	75.031	2.0.10.147	2.0.10.242	2.0.10.242	1.0.0.439	7	234	2	3	Verdana	1	80	0	0	0	WM Stimuli\	1	1016.5	1	690.3	1	993.1	1	631.7	1	923.7	1	790.1	0.9	918	1	739.8	13	331795	2	331783	13	26	331808	-999999	331798	0	41	TrialsPROC	PL_021_SCENE_07.png	2	2	89	SessionSelectionList														target	2	Place	0-Back	78	80	76	0	0	100	2	39	308604	3	14	72	306565	-1	307250	1	685	2	2	2039	53	308618	-54	0																89												
WM080112	899885_fnca	2	1	1	22290193	1	75.031	75.031	2.0.10.147	2.0.10.242	2.0.10.242	1.0.0.439	7	234	2	3	Verdana	1	80	0	0	0	WM Stimuli\	1	1016.5	1	690.3	1	993.1	1	631.7	1	923.7	1	790.1	0.9	918	1	739.8	13	331795	2	331783	13	26	331808	-999999	331798	0	41	TrialsPROC	PL_023_SCENE_09.png	2	2	90	SessionSelectionList														nonlure	3	Place	0-Back	79	80	77	0	0	100	1	40	311177	1	13	72	309137	-1	309807	1	670	3	3	2040	53	311190	-54	0																90												
WM080112	899885_fnca	2	1	1	22290193	1	75.031	75.031	2.0.10.147	2.0.10.242	2.0.10.242	1.0.0.439	7	234	2	3	Verdana	1	80	0	0	0	WM Stimuli\	1	1016.5	1	690.3	1	993.1	1	631.7	1	923.7	1	790.1	0.9	918	1	739.8	13	331795	2	331783	13	26	331808	-999999	331798	0	41	TrialsPROC	PL_024_SCENE_10.png	2	2	91	SessionSelectionList														nonlure	3	Place	0-Back	80	80	78	0	0	100	2	39	313749	1	13	73	311710	-1	312449	1	739	3	3	2039	52	313762	-53	0																91												
WM080112	899885_fnca	2	1	1	22290193	1	75.031	75.031	2.0.10.147	2.0.10.242	2.0.10.242	1.0.0.439	7	234	2	3	Verdana	1	80	0	0	0	WM Stimuli\	1	1016.5	1	690.3	1	993.1	1	631.7	1	923.7	1	790.1	0.9	918	1	739.8	13	331795	2	331783	13	26	331808	-999999	331798	0	41	TrialsPROC	PL_022_SCENE_08.png	2	2	92	SessionSelectionList														lure	3	Place	0-Back	80	80	79	0	0	100	3	39	316321	2	14	72	314282	-1	315059	1	777	3	3	2039	53	316335	-54	0																92												
WM080112	899885_fnca	2	1	1	22290193	1	75.031	75.031	2.0.10.147	2.0.10.242	2.0.10.242	1.0.0.439	7	234	2	3	Verdana	1	80	0	0	0	WM Stimuli\	1	1016.5	1	690.3	1	993.1	1	631.7	1	923.7	1	790.1	0.9	918	1	739.8	13	331795	2	331783	13	26	331808	-999999	331798	0	42	Fix15secPROC	""	2	2	93	SessionSelectionList																																															6	316788	-7	0							93												
