ExperimentName	HCPID	RunNumber	Subject	Session	RandomSeed	Group	Laptop.RefreshRate	ScannerD2.RefreshRate	StudioVersion	RuntimeVersion	RuntimeVersionExpected	ExperimentVersion	triggercode	Allowed	Target	Nontarget	FontStyle	RunTrialNumber[Session]	TrialsPerRun[Session]	TotalRespGreater200[Session]	ConsecRTLess200[Session]	ConsecNonResp[Session]	StimuliDir	ACC_2_Back_Body	Avg_RT_For_Correct_Trials_2_Back_Body	ACC_0_Back_Body	Avg_RT_For_Correct_Trials_0_Back_Body	ACC_2_Back_Face	Avg_RT_For_Correct_Trials_2_Back_Face	ACC_0_Back_Face	Avg_RT_For_Correct_Trials_0_Back_Face	ACC_2_Back_Place	Avg_RT_For_Correct_Trials_2_Back_Place	ACC_0_Back_Place	Avg_RT_For_Correct_Trials_0_Back_Place	ACC_2_Back_Tools	Avg_RT_For_Correct_Trials_2_Back_Tools	ACC_0_Back_Tools	Avg_RT_For_Correct_Trials_0_Back_Tools	ExpInstrucFeelFreeToRest.OnsetDelay	ExpInstrucFeelFreeToRest.OnsetTime	ExpInstrucFeelFreeToRest.DurationError	ExpInstrucFeelFreeToRest.StartTime	ExpInstrucFeelFreeToRest.OnsetToOnsetTime	FeelFreeToRest.OnsetDelay	FeelFreeToRest.OnsetTime	FeelFreeToRest.DurationError	FeelFreeToRest.StartTime	FeelFreeToRest.OnsetToOnsetTime	SessionSelectionList	Procedure[Block]	Stimulus[Block]	RunNumberFilterValue	SessionSelectionList.Cycle	SessionSelectionList.Sample	Running[Block]	IntroButtonMap.OnsetDelay	IntroButtonMap.OnsetTime	IntroButtonMap.DurationError	IntroButtonMap.OnsetToOnsetTime	GetReady.OnsetDelay	GetReady.OnsetTime	GetReady.DurationError	GetReady.OnsetToOnsetTime	Cue2Back.OnsetDelay	Cue2Back.OnsetTime	Cue2Back.DurationError	Cue2Back.OnsetToOnsetTime	Run1Block1	TargetType	CorrectResponse	StimType	BlockType	RunTrialNumber[Block]	TrialsPerRun[Block]	TotalRespGreater200[Block]	ConsecRTLess200[Block]	ConsecNonResp[Block]	ControlAcc	ConsecSameResp	ExperimenterWindow.OnsetDelay	ExperimenterWindow.OnsetTime	ExperimenterWindow.DurationError	ExperimenterWindow.OnsetToOnsetTime	Stim.OnsetDelay	Stim.OnsetTime	Stim.DurationError	Stim.RTTime	Stim.ACC	Stim.RT	Stim.RESP	Stim.CRESP	Stim.OnsetToOnsetTime	Fix.OnsetDelay	Fix.OnsetTime	Fix.DurationError	Fix.OnsetToOnsetTime	CueTarget.OnsetDelay	CueTarget.OnsetTime	CueTarget.DurationError	CueTarget.OnsetToOnsetTime	Run1Block2	Fix15sec.OnsetDelay	Fix15sec.OnsetTime	Fix15sec.DurationError	Fix15sec.OnsetToOnsetTime	Run1Block3	Run1Block4	Run1Block5	Run1Block6	Run1Block7	Run1Block8	Block	Procedure[Trial]	Stimulus[Trial]	ReadyList	Running[Trial]	ReadyList.Cycle	ReadyList.Sample	SyncSlide.OnsetDelay	SyncSlide.OnsetTime	SyncSlide.DurationError	SyncSlide.FinishTime	SyncSlide.OnsetToOnsetTime	Trial
WM080112	899885_fnca	1	1	1	-1763872697	1	75.031	75.031	2.0.10.147	2.0.10.242	2.0.10.242	1.0.0.439	7	234	2	3	Verdana	1	80	0	0	0	WM Stimuli\	0.7	1053.28571428571	0.9	828.444444444444	0.9	1242.33333333333	1	776.2	0.9	917	1	744	0.9	1282	1	736.7	13	576392	2	576380	13	26	576405	-999999	576395	0	1	TRSyncPROC	""	1	2	1	SessionSelectionList	95	218445	-999999	0	28	269758	-999999	0																																																	1	InitialTR	4	1	ReadyList	1	1	13	283125	-14	285111	0	1
WM080112	899885_fnca	1	1	1	-1763872697	1	75.031	75.031	2.0.10.147	2.0.10.242	2.0.10.242	1.0.0.439	7	234	2	3	Verdana	1	80	0	0	0	WM Stimuli\	0.7	1053.28571428571	0.9	828.444444444444	0.9	1242.33333333333	1	776.2	0.9	917	1	744	0.9	1282	1	736.7	13	576392	2	576380	13	26	576405	-999999	576395	0	1	TRSyncPROC	""	1	2	1	SessionSelectionList	95	218445	-999999	0	28	269758	-999999	0																																																	1	InitialTR	3	2	ReadyList	1	2	12	285124	-13	287111	0	2
WM080112	899885_fnca	1	1	1	-1763872697	1	75.031	75.031	2.0.10.147	2.0.10.242	2.0.10.242	1.0.0.439	7	234	2	3	Verdana	1	80	0	0	0	WM Stimuli\	0.7	1053.28571428571	0.9	828.444444444444	0.9	1242.33333333333	1	776.2	0.9	917	1	744	0.9	1282	1	736.7	13	576392	2	576380	13	26	576405	-999999	576395	0	1	TRSyncPROC	""	1	2	1	SessionSelectionList	95	218445	-999999	0	28	269758	-999999	0																																																	1	InitialTR	2	3	ReadyList	1	3	12	287124	-13	289111	0	3
WM080112	899885_fnca	1	1	1	-1763872697	1	75.031	75.031	2.0.10.147	2.0.10.242	2.0.10.242	1.0.0.439	7	234	2	3	Verdana	1	80	0	0	0	WM Stimuli\	0.7	1053.28571428571	0.9	828.444444444444	0.9	1242.33333333333	1	776.2	0.9	917	1	744	0.9	1282	1	736.7	13	576392	2	576380	13	26	576405	-999999	576395	0	1	TRSyncPROC	""	1	2	1	SessionSelectionList	95	218445	-999999	0	28	269758	-999999	0																																																	1	InitialTR	1	4	ReadyList	1	4	11	289123	-12	291111	0	4
WM080112	899885_fnca	1	1	1	-1763872697	1	75.031	75.031	2.0.10.147	2.0.10.242	2.0.10.242	1.0.0.439	7	234	2	3	Verdana	1	80	0	0	0	WM Stimuli\	0.7	1053.28571428571	0.9	828.444444444444	0.9	1242.33333333333	1	776.2	0.9	917	1	744	0.9	1282	1	736.7	13	576392	2	576380	13	26	576405	-999999	576395	0	2	Cue2BackPROC	""	1	2	2	SessionSelectionList									10	291122	-11	0																																													2												
WM080112	899885_fnca	1	1	1	-1763872697	1	75.031	75.031	2.0.10.147	2.0.10.242	2.0.10.242	1.0.0.439	7	234	2	3	Verdana	1	80	0	0	0	WM Stimuli\	0.7	1053.28571428571	0.9	828.444444444444	0.9	1242.33333333333	1	776.2	0.9	917	1	744	0.9	1282	1	736.7	13	576392	2	576380	13	26	576405	-999999	576395	0	3	TrialsPROC	BP_002_BP10_BA.png	1	2	3	SessionSelectionList													1	nonlure	3	Body	2-Back	2	80	1	0	0	0	1	53	295747	3	13	82	293694	-1	294438	1	744	3	3	2053	66	295760	-67	0																3												
WM080112	899885_fnca	1	1	1	-1763872697	1	75.031	75.031	2.0.10.147	2.0.10.242	2.0.10.242	1.0.0.439	7	234	2	3	Verdana	1	80	0	0	0	WM Stimuli\	0.7	1053.28571428571	0.9	828.444444444444	0.9	1242.33333333333	1	776.2	0.9	917	1	744	0.9	1282	1	736.7	13	576392	2	576380	13	26	576405	-999999	576395	0	3	TrialsPROC	BP_001_BP1_BA.png	1	2	4	SessionSelectionList													2	nonlure	3	Body	2-Back	3	80	2	0	0	0	2	39	298306	2	13	73	296267	-1	297118	1	851	3	3	2039	52	298319	-53	0																4												
WM080112	899885_fnca	1	1	1	-1763872697	1	75.031	75.031	2.0.10.147	2.0.10.242	2.0.10.242	1.0.0.439	7	234	2	3	Verdana	1	80	0	0	0	WM Stimuli\	0.7	1053.28571428571	0.9	828.444444444444	0.9	1242.33333333333	1	776.2	0.9	917	1	744	0.9	1282	1	736.7	13	576392	2	576380	13	26	576405	-999999	576395	0	3	TrialsPROC	BP_006_BP2_BA.png	1	2	5	SessionSelectionList													3	nonlure	3	Body	2-Back	4	80	3	0	0	0	1	39	300865	1	13	59	298826	-1	299832	0	1006	2	3	2039	52	300878	-53	0																5												
WM080112	899885_fnca	1	1	1	-1763872697	1	75.031	75.031	2.0.10.147	2.0.10.242	2.0.10.242	1.0.0.439	7	234	2	3	Verdana	1	80	0	0	0	WM Stimuli\	0.7	1053.28571428571	0.9	828.444444444444	0.9	1242.33333333333	1	776.2	0.9	917	1	744	0.9	1282	1	736.7	13	576392	2	576380	13	26	576405	-999999	576395	0	3	TrialsPROC	BP_001_BP1_BA.png	1	2	6	SessionSelectionList													4	target	2	Body	2-Back	5	80	4	0	0	0	1	39	303437	1	13	72	301398	-1	302349	0	951	3	2	2039	52	303450	-53	0																6												
WM080112	899885_fnca	1	1	1	-1763872697	1	75.031	75.031	2.0.10.147	2.0.10.242	2.0.10.242	1.0.0.439	7	234	2	3	Verdana	1	80	0	0	0	WM Stimuli\	0.7	1053.28571428571	0.9	828.444444444444	0.9	1242.33333333333	1	776.2	0.9	917	1	744	0.9	1282	1	736.7	13	576392	2	576380	13	26	576405	-999999	576395	0	3	TrialsPROC	BP_005_BP19_BA.png	1	2	7	SessionSelectionList													5	nonlure	3	Body	2-Back	6	80	5	0	0	0	2	39	306009	2	14	72	303970	-1	305144	1	1174	3	3	2039	53	306023	-54	0																7												
WM080112	899885_fnca	1	1	1	-1763872697	1	75.031	75.031	2.0.10.147	2.0.10.242	2.0.10.242	1.0.0.439	7	234	2	3	Verdana	1	80	0	0	0	WM Stimuli\	0.7	1053.28571428571	0.9	828.444444444444	0.9	1242.33333333333	1	776.2	0.9	917	1	744	0.9	1282	1	736.7	13	576392	2	576380	13	26	576405	-999999	576395	0	3	TrialsPROC	BP_003_BP16_BA.png	1	2	8	SessionSelectionList													6	nonlure	3	Body	2-Back	7	80	6	0	0	0	3	39	308568	2	14	59	306529	-1	307717	1	1188	3	3	2039	53	308582	-54	0																8												
WM080112	899885_fnca	1	1	1	-1763872697	1	75.031	75.031	2.0.10.147	2.0.10.242	2.0.10.242	1.0.0.439	7	234	2	3	Verdana	1	80	0	0	0	WM Stimuli\	0.7	1053.28571428571	0.9	828.444444444444	0.9	1242.33333333333	1	776.2	0.9	917	1	744	0.9	1282	1	736.7	13	576392	2	576380	13	26	576405	-999999	576395	0	3	TrialsPROC	BP_006_BP2_BA.png	1	2	9	SessionSelectionList													7	lure	3	Body	2-Back	8	80	7	0	0	0	4	39	311127	2	14	59	309088	-1	310198	1	1110	3	3	2039	53	311141	-54	0																9												
WM080112	899885_fnca	1	1	1	-1763872697	1	75.031	75.031	2.0.10.147	2.0.10.242	2.0.10.242	1.0.0.439	7	234	2	3	Verdana	1	80	0	0	0	WM Stimuli\	0.7	1053.28571428571	0.9	828.444444444444	0.9	1242.33333333333	1	776.2	0.9	917	1	744	0.9	1282	1	736.7	13	576392	2	576380	13	26	576405	-999999	576395	0	3	TrialsPROC	BP_004_BP18_BA.png	1	2	10	SessionSelectionList													8	nonlure	3	Body	2-Back	9	80	8	0	0	0	5	39	313686	2	14	59	311647	-1	312564	1	917	3	3	2039	53	313700	-54	0																10												
WM080112	899885_fnca	1	1	1	-1763872697	1	75.031	75.031	2.0.10.147	2.0.10.242	2.0.10.242	1.0.0.439	7	234	2	3	Verdana	1	80	0	0	0	WM Stimuli\	0.7	1053.28571428571	0.9	828.444444444444	0.9	1242.33333333333	1	776.2	0.9	917	1	744	0.9	1282	1	736.7	13	576392	2	576380	13	26	576405	-999999	576395	0	3	TrialsPROC	BP_005_BP19_BA.png	1	2	11	SessionSelectionList													9	lure	3	Body	2-Back	10	80	9	0	0	0	1	39	316245	1	13	59	314206	-1	315352	0	1146	2	3	2039	52	316258	-53	0																11												
WM080112	899885_fnca	1	1	1	-1763872697	1	75.031	75.031	2.0.10.147	2.0.10.242	2.0.10.242	1.0.0.439	7	234	2	3	Verdana	1	80	0	0	0	WM Stimuli\	0.7	1053.28571428571	0.9	828.444444444444	0.9	1242.33333333333	1	776.2	0.9	917	1	744	0.9	1282	1	736.7	13	576392	2	576380	13	26	576405	-999999	576395	0	3	TrialsPROC	BP_004_BP18_BA.png	1	2	12	SessionSelectionList													10	target	2	Body	2-Back	11	80	10	0	0	0	2	39	318804	1	13	59	316765	-1	318154	1	1389	2	2	2039	52	318817	-53	0																12												
WM080112	899885_fnca	1	1	1	-1763872697	1	75.031	75.031	2.0.10.147	2.0.10.242	2.0.10.242	1.0.0.439	7	234	2	3	Verdana	1	80	0	0	0	WM Stimuli\	0.7	1053.28571428571	0.9	828.444444444444	0.9	1242.33333333333	1	776.2	0.9	917	1	744	0.9	1282	1	736.7	13	576392	2	576380	13	26	576405	-999999	576395	0	4	Cue0BackPROC	FC_001_M1.png	1	2	13	SessionSelectionList																																										19	319284	-20	0												13												
WM080112	899885_fnca	1	1	1	-1763872697	1	75.031	75.031	2.0.10.147	2.0.10.242	2.0.10.242	1.0.0.439	7	234	2	3	Verdana	1	80	0	0	0	WM Stimuli\	0.7	1053.28571428571	0.9	828.444444444444	0.9	1242.33333333333	1	776.2	0.9	917	1	744	0.9	1282	1	736.7	13	576392	2	576380	13	26	576405	-999999	576395	0	5	TrialsPROC	FC_005_M3.png	1	2	14	SessionSelectionList														nonlure	3	Face	0-Back	12	80	11	0	0	100	1	40	323869	1	13	64	321829	-1	323069	1	1240	3	3	2040	53	323882	-54	0					1											14												
WM080112	899885_fnca	1	1	1	-1763872697	1	75.031	75.031	2.0.10.147	2.0.10.242	2.0.10.242	1.0.0.439	7	234	2	3	Verdana	1	80	0	0	0	WM Stimuli\	0.7	1053.28571428571	0.9	828.444444444444	0.9	1242.33333333333	1	776.2	0.9	917	1	744	0.9	1282	1	736.7	13	576392	2	576380	13	26	576405	-999999	576395	0	5	TrialsPROC	FC_001_M1.png	1	2	15	SessionSelectionList														target	2	Face	0-Back	13	80	12	0	0	100	1	39	326441	1	13	73	324402	-1	325017	1	615	2	2	2039	52	326454	-53	0					2											15												
WM080112	899885_fnca	1	1	1	-1763872697	1	75.031	75.031	2.0.10.147	2.0.10.242	2.0.10.242	1.0.0.439	7	234	2	3	Verdana	1	80	0	0	0	WM Stimuli\	0.7	1053.28571428571	0.9	828.444444444444	0.9	1242.33333333333	1	776.2	0.9	917	1	744	0.9	1282	1	736.7	13	576392	2	576380	13	26	576405	-999999	576395	0	5	TrialsPROC	FC_003_M2.png	1	2	16	SessionSelectionList														nonlure	3	Face	0-Back	14	80	13	0	0	100	1	39	329013	2	14	72	326974	-1	327936	1	962	3	3	2039	53	329027	-54	0					3											16												
WM080112	899885_fnca	1	1	1	-1763872697	1	75.031	75.031	2.0.10.147	2.0.10.242	2.0.10.242	1.0.0.439	7	234	2	3	Verdana	1	80	0	0	0	WM Stimuli\	0.7	1053.28571428571	0.9	828.444444444444	0.9	1242.33333333333	1	776.2	0.9	917	1	744	0.9	1282	1	736.7	13	576392	2	576380	13	26	576405	-999999	576395	0	5	TrialsPROC	FC_004_F2.png	1	2	17	SessionSelectionList														nonlure	3	Face	0-Back	15	80	14	0	0	100	2	39	331585	2	14	72	329546	-1	330195	1	649	3	3	2039	53	331599	-54	0					4											17												
WM080112	899885_fnca	1	1	1	-1763872697	1	75.031	75.031	2.0.10.147	2.0.10.242	2.0.10.242	1.0.0.439	7	234	2	3	Verdana	1	80	0	0	0	WM Stimuli\	0.7	1053.28571428571	0.9	828.444444444444	0.9	1242.33333333333	1	776.2	0.9	917	1	744	0.9	1282	1	736.7	13	576392	2	576380	13	26	576405	-999999	576395	0	5	TrialsPROC	FC_004_F2.png	1	2	18	SessionSelectionList														lure	3	Face	0-Back	16	80	15	0	0	100	3	39	334158	1	13	73	332119	-1	332725	1	606	3	3	2039	52	334171	-53	0					5											18												
WM080112	899885_fnca	1	1	1	-1763872697	1	75.031	75.031	2.0.10.147	2.0.10.242	2.0.10.242	1.0.0.439	7	234	2	3	Verdana	1	80	0	0	0	WM Stimuli\	0.7	1053.28571428571	0.9	828.444444444444	0.9	1242.33333333333	1	776.2	0.9	917	1	744	0.9	1282	1	736.7	13	576392	2	576380	13	26	576405	-999999	576395	0	5	TrialsPROC	FC_001_M1.png	1	2	19	SessionSelectionList														target	2	Face	0-Back	17	80	16	0	0	100	1	39	336730	1	13	72	334691	-1	335382	1	691	2	2	2039	52	336743	-53	0					6											19												
WM080112	899885_fnca	1	1	1	-1763872697	1	75.031	75.031	2.0.10.147	2.0.10.242	2.0.10.242	1.0.0.439	7	234	2	3	Verdana	1	80	0	0	0	WM Stimuli\	0.7	1053.28571428571	0.9	828.444444444444	0.9	1242.33333333333	1	776.2	0.9	917	1	744	0.9	1282	1	736.7	13	576392	2	576380	13	26	576405	-999999	576395	0	5	TrialsPROC	FC_006_F3.png	1	2	20	SessionSelectionList														nonlure	3	Face	0-Back	18	80	17	0	0	100	1	39	339302	2	14	72	337263	-1	337927	1	664	3	3	2039	53	339316	-54	0					7											20												
WM080112	899885_fnca	1	1	1	-1763872697	1	75.031	75.031	2.0.10.147	2.0.10.242	2.0.10.242	1.0.0.439	7	234	2	3	Verdana	1	80	0	0	0	WM Stimuli\	0.7	1053.28571428571	0.9	828.444444444444	0.9	1242.33333333333	1	776.2	0.9	917	1	744	0.9	1282	1	736.7	13	576392	2	576380	13	26	576405	-999999	576395	0	5	TrialsPROC	FC_006_F3.png	1	2	21	SessionSelectionList														lure	3	Face	0-Back	19	80	18	0	0	100	2	40	341875	1	13	72	339835	-1	340428	1	593	3	3	2040	53	341888	-54	0					8											21												
WM080112	899885_fnca	1	1	1	-1763872697	1	75.031	75.031	2.0.10.147	2.0.10.242	2.0.10.242	1.0.0.439	7	234	2	3	Verdana	1	80	0	0	0	WM Stimuli\	0.7	1053.28571428571	0.9	828.444444444444	0.9	1242.33333333333	1	776.2	0.9	917	1	744	0.9	1282	1	736.7	13	576392	2	576380	13	26	576405	-999999	576395	0	5	TrialsPROC	FC_003_M2.png	1	2	22	SessionSelectionList														lure	3	Face	0-Back	20	80	19	0	0	100	3	39	344447	1	13	73	342408	-1	343460	1	1052	3	3	2039	52	344460	-53	0					9											22												
WM080112	899885_fnca	1	1	1	-1763872697	1	75.031	75.031	2.0.10.147	2.0.10.242	2.0.10.242	1.0.0.439	7	234	2	3	Verdana	1	80	0	0	0	WM Stimuli\	0.7	1053.28571428571	0.9	828.444444444444	0.9	1242.33333333333	1	776.2	0.9	917	1	744	0.9	1282	1	736.7	13	576392	2	576380	13	26	576405	-999999	576395	0	5	TrialsPROC	FC_002_F1.png	1	2	23	SessionSelectionList														nonlure	3	Face	0-Back	21	80	20	0	0	100	4	39	347019	2	14	72	344980	-1	345670	1	690	3	3	2039	53	347033	-54	0					10											23												
WM080112	899885_fnca	1	1	1	-1763872697	1	75.031	75.031	2.0.10.147	2.0.10.242	2.0.10.242	1.0.0.439	7	234	2	3	Verdana	1	80	0	0	0	WM Stimuli\	0.7	1053.28571428571	0.9	828.444444444444	0.9	1242.33333333333	1	776.2	0.9	917	1	744	0.9	1282	1	736.7	13	576392	2	576380	13	26	576405	-999999	576395	0	6	Fix15secPROC	""	1	2	24	SessionSelectionList																																															6	347486	-7	0							24												
WM080112	899885_fnca	1	1	1	-1763872697	1	75.031	75.031	2.0.10.147	2.0.10.242	2.0.10.242	1.0.0.439	7	234	2	3	Verdana	1	80	0	0	0	WM Stimuli\	0.7	1053.28571428571	0.9	828.444444444444	0.9	1242.33333333333	1	776.2	0.9	917	1	744	0.9	1282	1	736.7	13	576392	2	576380	13	26	576405	-999999	576395	0	7	Cue2BackPROC	""	1	2	25	SessionSelectionList									13	362493	-14	0																																													25												
WM080112	899885_fnca	1	1	1	-1763872697	1	75.031	75.031	2.0.10.147	2.0.10.242	2.0.10.242	1.0.0.439	7	234	2	3	Verdana	1	80	0	0	0	WM Stimuli\	0.7	1053.28571428571	0.9	828.444444444444	0.9	1242.33333333333	1	776.2	0.9	917	1	744	0.9	1282	1	736.7	13	576392	2	576380	13	26	576405	-999999	576395	0	8	TrialsPROC	TO_001_TOOL1_BA.png	1	2	26	SessionSelectionList														nonlure	3	Tools	2-Back	22	80	21	0	0	100	5	40	367078	1	13	58	365038	-1	366168	1	1130	3	3	2040	53	367091	-54	0										1						26												
WM080112	899885_fnca	1	1	1	-1763872697	1	75.031	75.031	2.0.10.147	2.0.10.242	2.0.10.242	1.0.0.439	7	234	2	3	Verdana	1	80	0	0	0	WM Stimuli\	0.7	1053.28571428571	0.9	828.444444444444	0.9	1242.33333333333	1	776.2	0.9	917	1	744	0.9	1282	1	736.7	13	576392	2	576380	13	26	576405	-999999	576395	0	8	TrialsPROC	TO_002_TOOL2_BA.png	1	2	27	SessionSelectionList														nonlure	3	Tools	2-Back	23	80	22	0	0	100	6	39	369636	2	14	59	367597	-1	368683	1	1086	3	3	2039	53	369650	-54	0										2						27												
WM080112	899885_fnca	1	1	1	-1763872697	1	75.031	75.031	2.0.10.147	2.0.10.242	2.0.10.242	1.0.0.439	7	234	2	3	Verdana	1	80	0	0	0	WM Stimuli\	0.7	1053.28571428571	0.9	828.444444444444	0.9	1242.33333333333	1	776.2	0.9	917	1	744	0.9	1282	1	736.7	13	576392	2	576380	13	26	576405	-999999	576395	0	8	TrialsPROC	TO_004_TOOL4_BA.png	1	2	28	SessionSelectionList														nonlure	3	Tools	2-Back	24	80	23	0	0	100	7	39	372195	2	14	59	370156	-1	371281	1	1125	3	3	2039	53	372209	-54	0										3						28												
WM080112	899885_fnca	1	1	1	-1763872697	1	75.031	75.031	2.0.10.147	2.0.10.242	2.0.10.242	1.0.0.439	7	234	2	3	Verdana	1	80	0	0	0	WM Stimuli\	0.7	1053.28571428571	0.9	828.444444444444	0.9	1242.33333333333	1	776.2	0.9	917	1	744	0.9	1282	1	736.7	13	576392	2	576380	13	26	576405	-999999	576395	0	8	TrialsPROC	TO_002_TOOL2_BA.png	1	2	29	SessionSelectionList														target	2	Tools	2-Back	25	80	24	0	0	100	1	39	374754	2	14	59	372715	-1	374080	1	1365	2	2	2039	53	374768	-54	0										4						29												
WM080112	899885_fnca	1	1	1	-1763872697	1	75.031	75.031	2.0.10.147	2.0.10.242	2.0.10.242	1.0.0.439	7	234	2	3	Verdana	1	80	0	0	0	WM Stimuli\	0.7	1053.28571428571	0.9	828.444444444444	0.9	1242.33333333333	1	776.2	0.9	917	1	744	0.9	1282	1	736.7	13	576392	2	576380	13	26	576405	-999999	576395	0	8	TrialsPROC	TO_001_TOOL1_BA.png	1	2	30	SessionSelectionList														lure	3	Tools	2-Back	26	80	25	0	0	100	1	39	377313	2	14	59	375274	-1	377053	1	1779	3	3	2039	53	377327	-54	0										5						30												
WM080112	899885_fnca	1	1	1	-1763872697	1	75.031	75.031	2.0.10.147	2.0.10.242	2.0.10.242	1.0.0.439	7	234	2	3	Verdana	1	80	0	0	0	WM Stimuli\	0.7	1053.28571428571	0.9	828.444444444444	0.9	1242.33333333333	1	776.2	0.9	917	1	744	0.9	1282	1	736.7	13	576392	2	576380	13	26	576405	-999999	576395	0	8	TrialsPROC	TO_004_TOOL4_BA.png	1	2	31	SessionSelectionList														lure	3	Tools	2-Back	27	80	26	0	0	100	1	39	379872	2	14	59	377833	-1	379170	0	1337	2	3	2039	53	379886	-54	0										6						31												
WM080112	899885_fnca	1	1	1	-1763872697	1	75.031	75.031	2.0.10.147	2.0.10.242	2.0.10.242	1.0.0.439	7	234	2	3	Verdana	1	80	0	0	0	WM Stimuli\	0.7	1053.28571428571	0.9	828.444444444444	0.9	1242.33333333333	1	776.2	0.9	917	1	744	0.9	1282	1	736.7	13	576392	2	576380	13	26	576405	-999999	576395	0	8	TrialsPROC	TO_006_TOOL6_BA.png	1	2	32	SessionSelectionList														nonlure	3	Tools	2-Back	28	80	27	0	0	100	1	39	382431	2	14	59	380392	-1	381634	1	1242	3	3	2039	53	382445	-54	0										7						32												
WM080112	899885_fnca	1	1	1	-1763872697	1	75.031	75.031	2.0.10.147	2.0.10.242	2.0.10.242	1.0.0.439	7	234	2	3	Verdana	1	80	0	0	0	WM Stimuli\	0.7	1053.28571428571	0.9	828.444444444444	0.9	1242.33333333333	1	776.2	0.9	917	1	744	0.9	1282	1	736.7	13	576392	2	576380	13	26	576405	-999999	576395	0	8	TrialsPROC	TO_005_TOOL5_BA.png	1	2	33	SessionSelectionList														nonlure	3	Tools	2-Back	29	80	28	0	0	100	2	39	384990	2	14	59	382951	-1	384047	1	1096	3	3	2039	53	385004	-54	0										8						33												
WM080112	899885_fnca	1	1	1	-1763872697	1	75.031	75.031	2.0.10.147	2.0.10.242	2.0.10.242	1.0.0.439	7	234	2	3	Verdana	1	80	0	0	0	WM Stimuli\	0.7	1053.28571428571	0.9	828.444444444444	0.9	1242.33333333333	1	776.2	0.9	917	1	744	0.9	1282	1	736.7	13	576392	2	576380	13	26	576405	-999999	576395	0	8	TrialsPROC	TO_006_TOOL6_BA.png	1	2	34	SessionSelectionList														target	2	Tools	2-Back	30	80	29	0	0	100	1	39	387549	2	14	59	385510	-1	387108	1	1598	2	2	2039	53	387563	-54	0										9						34												
WM080112	899885_fnca	1	1	1	-1763872697	1	75.031	75.031	2.0.10.147	2.0.10.242	2.0.10.242	1.0.0.439	7	234	2	3	Verdana	1	80	0	0	0	WM Stimuli\	0.7	1053.28571428571	0.9	828.444444444444	0.9	1242.33333333333	1	776.2	0.9	917	1	744	0.9	1282	1	736.7	13	576392	2	576380	13	26	576405	-999999	576395	0	8	TrialsPROC	TO_003_TOOL3_BA.png	1	2	35	SessionSelectionList														nonlure	3	Tools	2-Back	31	80	30	0	0	100	1	39	390108	2	14	59	388069	-1	389186	1	1117	3	3	2039	53	390122	-54	0										10						35												
WM080112	899885_fnca	1	1	1	-1763872697	1	75.031	75.031	2.0.10.147	2.0.10.242	2.0.10.242	1.0.0.439	7	234	2	3	Verdana	1	80	0	0	0	WM Stimuli\	0.7	1053.28571428571	0.9	828.444444444444	0.9	1242.33333333333	1	776.2	0.9	917	1	744	0.9	1282	1	736.7	13	576392	2	576380	13	26	576405	-999999	576395	0	9	Cue0BackPROC	BP_007_BP20_BA.png	1	2	36	SessionSelectionList																																										19	390588	-20	0												36												
WM080112	899885_fnca	1	1	1	-1763872697	1	75.031	75.031	2.0.10.147	2.0.10.242	2.0.10.242	1.0.0.439	7	234	2	3	Verdana	1	80	0	0	0	WM Stimuli\	0.7	1053.28571428571	0.9	828.444444444444	0.9	1242.33333333333	1	776.2	0.9	917	1	744	0.9	1282	1	736.7	13	576392	2	576380	13	26	576405	-999999	576395	0	10	TrialsPROC	BP_007_BP20_BA.png	1	2	37	SessionSelectionList														target	2	Body	0-Back	32	80	30	0	1	91	1	39	395159	2	14	51	393120	-1	0	0	0	""	2	2039	53	395173	-54	0											1					37												
WM080112	899885_fnca	1	1	1	-1763872697	1	75.031	75.031	2.0.10.147	2.0.10.242	2.0.10.242	1.0.0.439	7	234	2	3	Verdana	1	80	0	0	0	WM Stimuli\	0.7	1053.28571428571	0.9	828.444444444444	0.9	1242.33333333333	1	776.2	0.9	917	1	744	0.9	1282	1	736.7	13	576392	2	576380	13	26	576405	-999999	576395	0	10	TrialsPROC	BP_011_BP4_BA.png	1	2	38	SessionSelectionList														nonlure	3	Body	0-Back	33	80	31	0	0	92	1	39	397732	1	13	73	395693	-1	396557	1	864	3	3	2039	52	397745	-53	0											2					38												
WM080112	899885_fnca	1	1	1	-1763872697	1	75.031	75.031	2.0.10.147	2.0.10.242	2.0.10.242	1.0.0.439	7	234	2	3	Verdana	1	80	0	0	0	WM Stimuli\	0.7	1053.28571428571	0.9	828.444444444444	0.9	1242.33333333333	1	776.2	0.9	917	1	744	0.9	1282	1	736.7	13	576392	2	576380	13	26	576405	-999999	576395	0	10	TrialsPROC	BP_010_BP3_BA.png	1	2	39	SessionSelectionList														nonlure	3	Body	0-Back	34	80	32	0	0	92	2	39	400291	1	13	59	398252	-1	398920	1	668	3	3	2039	52	400304	-53	0											3					39												
WM080112	899885_fnca	1	1	1	-1763872697	1	75.031	75.031	2.0.10.147	2.0.10.242	2.0.10.242	1.0.0.439	7	234	2	3	Verdana	1	80	0	0	0	WM Stimuli\	0.7	1053.28571428571	0.9	828.444444444444	0.9	1242.33333333333	1	776.2	0.9	917	1	744	0.9	1282	1	736.7	13	576392	2	576380	13	26	576405	-999999	576395	0	10	TrialsPROC	BP_008_BP21_BA.png	1	2	40	SessionSelectionList														nonlure	3	Body	0-Back	35	80	33	0	0	93	3	40	402850	1	13	58	400810	-1	401574	1	764	3	3	2040	53	402863	-54	0											4					40												
WM080112	899885_fnca	1	1	1	-1763872697	1	75.031	75.031	2.0.10.147	2.0.10.242	2.0.10.242	1.0.0.439	7	234	2	3	Verdana	1	80	0	0	0	WM Stimuli\	0.7	1053.28571428571	0.9	828.444444444444	0.9	1242.33333333333	1	776.2	0.9	917	1	744	0.9	1282	1	736.7	13	576392	2	576380	13	26	576405	-999999	576395	0	10	TrialsPROC	BP_011_BP4_BA.png	1	2	41	SessionSelectionList														lure	3	Body	0-Back	36	80	34	0	0	93	4	39	405422	1	13	73	403383	-1	404598	1	1215	3	3	2039	52	405435	-53	0											5					41												
WM080112	899885_fnca	1	1	1	-1763872697	1	75.031	75.031	2.0.10.147	2.0.10.242	2.0.10.242	1.0.0.439	7	234	2	3	Verdana	1	80	0	0	0	WM Stimuli\	0.7	1053.28571428571	0.9	828.444444444444	0.9	1242.33333333333	1	776.2	0.9	917	1	744	0.9	1282	1	736.7	13	576392	2	576380	13	26	576405	-999999	576395	0	10	TrialsPROC	BP_009_BP22_BA.png	1	2	42	SessionSelectionList														nonlure	3	Body	0-Back	37	80	35	0	0	94	5	39	407981	1	13	59	405942	-1	406812	1	870	3	3	2039	52	407994	-53	0											6					42												
WM080112	899885_fnca	1	1	1	-1763872697	1	75.031	75.031	2.0.10.147	2.0.10.242	2.0.10.242	1.0.0.439	7	234	2	3	Verdana	1	80	0	0	0	WM Stimuli\	0.7	1053.28571428571	0.9	828.444444444444	0.9	1242.33333333333	1	776.2	0.9	917	1	744	0.9	1282	1	736.7	13	576392	2	576380	13	26	576405	-999999	576395	0	10	TrialsPROC	BP_009_BP22_BA.png	1	2	43	SessionSelectionList														lure	3	Body	0-Back	38	80	36	0	0	94	6	39	410540	1	13	59	408501	-1	409403	1	902	3	3	2039	52	410553	-53	0											7					43												
WM080112	899885_fnca	1	1	1	-1763872697	1	75.031	75.031	2.0.10.147	2.0.10.242	2.0.10.242	1.0.0.439	7	234	2	3	Verdana	1	80	0	0	0	WM Stimuli\	0.7	1053.28571428571	0.9	828.444444444444	0.9	1242.33333333333	1	776.2	0.9	917	1	744	0.9	1282	1	736.7	13	576392	2	576380	13	26	576405	-999999	576395	0	10	TrialsPROC	BP_008_BP21_BA.png	1	2	44	SessionSelectionList														lure	3	Body	0-Back	39	80	37	0	0	94	7	39	413099	1	13	59	411060	-1	411819	1	759	3	3	2039	52	413112	-53	0											8					44												
WM080112	899885_fnca	1	1	1	-1763872697	1	75.031	75.031	2.0.10.147	2.0.10.242	2.0.10.242	1.0.0.439	7	234	2	3	Verdana	1	80	0	0	0	WM Stimuli\	0.7	1053.28571428571	0.9	828.444444444444	0.9	1242.33333333333	1	776.2	0.9	917	1	744	0.9	1282	1	736.7	13	576392	2	576380	13	26	576405	-999999	576395	0	10	TrialsPROC	BP_007_BP20_BA.png	1	2	45	SessionSelectionList														target	2	Body	0-Back	40	80	38	0	0	95	1	39	415658	1	13	59	413619	-1	414374	1	755	2	2	2039	52	415671	-53	0											9					45												
WM080112	899885_fnca	1	1	1	-1763872697	1	75.031	75.031	2.0.10.147	2.0.10.242	2.0.10.242	1.0.0.439	7	234	2	3	Verdana	1	80	0	0	0	WM Stimuli\	0.7	1053.28571428571	0.9	828.444444444444	0.9	1242.33333333333	1	776.2	0.9	917	1	744	0.9	1282	1	736.7	13	576392	2	576380	13	26	576405	-999999	576395	0	10	TrialsPROC	BP_012_BP5_BA.png	1	2	46	SessionSelectionList														nonlure	3	Body	0-Back	41	80	39	0	0	95	1	39	418217	1	13	59	416178	-1	416837	1	659	3	3	2039	52	418230	-53	0											10					46												
WM080112	899885_fnca	1	1	1	-1763872697	1	75.031	75.031	2.0.10.147	2.0.10.242	2.0.10.242	1.0.0.439	7	234	2	3	Verdana	1	80	0	0	0	WM Stimuli\	0.7	1053.28571428571	0.9	828.444444444444	0.9	1242.33333333333	1	776.2	0.9	917	1	744	0.9	1282	1	736.7	13	576392	2	576380	13	26	576405	-999999	576395	0	11	Fix15secPROC	""	1	2	47	SessionSelectionList																																															5	418683	-6	0							47												
WM080112	899885_fnca	1	1	1	-1763872697	1	75.031	75.031	2.0.10.147	2.0.10.242	2.0.10.242	1.0.0.439	7	234	2	3	Verdana	1	80	0	0	0	WM Stimuli\	0.7	1053.28571428571	0.9	828.444444444444	0.9	1242.33333333333	1	776.2	0.9	917	1	744	0.9	1282	1	736.7	13	576392	2	576380	13	26	576405	-999999	576395	0	12	Cue0BackPROC	PL_001_92012.png	1	2	48	SessionSelectionList																																										12	433690	-13	0												48												
WM080112	899885_fnca	1	1	1	-1763872697	1	75.031	75.031	2.0.10.147	2.0.10.242	2.0.10.242	1.0.0.439	7	234	2	3	Verdana	1	80	0	0	0	WM Stimuli\	0.7	1053.28571428571	0.9	828.444444444444	0.9	1242.33333333333	1	776.2	0.9	917	1	744	0.9	1282	1	736.7	13	576392	2	576380	13	26	576405	-999999	576395	0	13	TrialsPROC	PL_003_92016.png	1	2	49	SessionSelectionList														nonlure	3	Place	0-Back	42	80	40	0	0	95	2	39	438275	1	13	58	436236	-1	437371	1	1135	3	3	2039	52	438288	-53	0												1				49												
WM080112	899885_fnca	1	1	1	-1763872697	1	75.031	75.031	2.0.10.147	2.0.10.242	2.0.10.242	1.0.0.439	7	234	2	3	Verdana	1	80	0	0	0	WM Stimuli\	0.7	1053.28571428571	0.9	828.444444444444	0.9	1242.33333333333	1	776.2	0.9	917	1	744	0.9	1282	1	736.7	13	576392	2	576380	13	26	576405	-999999	576395	0	13	TrialsPROC	PL_003_92016.png	1	2	50	SessionSelectionList														lure	3	Place	0-Back	43	80	41	0	0	95	3	39	440847	2	14	72	438808	-1	439539	1	731	3	3	2039	53	440861	-54	0												2				50												
WM080112	899885_fnca	1	1	1	-1763872697	1	75.031	75.031	2.0.10.147	2.0.10.242	2.0.10.242	1.0.0.439	7	234	2	3	Verdana	1	80	0	0	0	WM Stimuli\	0.7	1053.28571428571	0.9	828.444444444444	0.9	1242.33333333333	1	776.2	0.9	917	1	744	0.9	1282	1	736.7	13	576392	2	576380	13	26	576405	-999999	576395	0	13	TrialsPROC	PL_006_92025.png	1	2	51	SessionSelectionList														nonlure	3	Place	0-Back	44	80	42	0	0	96	4	40	443420	1	13	72	441380	-1	442199	1	819	3	3	2040	53	443433	-54	0												3				51												
WM080112	899885_fnca	1	1	1	-1763872697	1	75.031	75.031	2.0.10.147	2.0.10.242	2.0.10.242	1.0.0.439	7	234	2	3	Verdana	1	80	0	0	0	WM Stimuli\	0.7	1053.28571428571	0.9	828.444444444444	0.9	1242.33333333333	1	776.2	0.9	917	1	744	0.9	1282	1	736.7	13	576392	2	576380	13	26	576405	-999999	576395	0	13	TrialsPROC	PL_001_92012.png	1	2	52	SessionSelectionList														target	2	Place	0-Back	45	80	43	0	0	96	1	39	445992	1	13	73	443953	-1	444611	1	658	2	2	2039	52	446005	-53	0												4				52												
WM080112	899885_fnca	1	1	1	-1763872697	1	75.031	75.031	2.0.10.147	2.0.10.242	2.0.10.242	1.0.0.439	7	234	2	3	Verdana	1	80	0	0	0	WM Stimuli\	0.7	1053.28571428571	0.9	828.444444444444	0.9	1242.33333333333	1	776.2	0.9	917	1	744	0.9	1282	1	736.7	13	576392	2	576380	13	26	576405	-999999	576395	0	13	TrialsPROC	PL_004_92023.png	1	2	53	SessionSelectionList														nonlure	3	Place	0-Back	46	80	44	0	0	96	1	39	448564	2	14	72	446525	-1	447282	1	757	3	3	2039	53	448578	-54	0												5				53												
WM080112	899885_fnca	1	1	1	-1763872697	1	75.031	75.031	2.0.10.147	2.0.10.242	2.0.10.242	1.0.0.439	7	234	2	3	Verdana	1	80	0	0	0	WM Stimuli\	0.7	1053.28571428571	0.9	828.444444444444	0.9	1242.33333333333	1	776.2	0.9	917	1	744	0.9	1282	1	736.7	13	576392	2	576380	13	26	576405	-999999	576395	0	13	TrialsPROC	PL_005_92024.png	1	2	54	SessionSelectionList														nonlure	3	Place	0-Back	47	80	45	0	0	96	2	39	451136	2	14	72	449097	-1	449831	1	734	3	3	2039	53	451150	-54	0												6				54												
WM080112	899885_fnca	1	1	1	-1763872697	1	75.031	75.031	2.0.10.147	2.0.10.242	2.0.10.242	1.0.0.439	7	234	2	3	Verdana	1	80	0	0	0	WM Stimuli\	0.7	1053.28571428571	0.9	828.444444444444	0.9	1242.33333333333	1	776.2	0.9	917	1	744	0.9	1282	1	736.7	13	576392	2	576380	13	26	576405	-999999	576395	0	13	TrialsPROC	PL_001_92012.png	1	2	55	SessionSelectionList														target	2	Place	0-Back	48	80	46	0	0	96	1	39	453709	1	13	73	451670	-1	452223	1	553	2	2	2039	52	453722	-53	0												7				55												
WM080112	899885_fnca	1	1	1	-1763872697	1	75.031	75.031	2.0.10.147	2.0.10.242	2.0.10.242	1.0.0.439	7	234	2	3	Verdana	1	80	0	0	0	WM Stimuli\	0.7	1053.28571428571	0.9	828.444444444444	0.9	1242.33333333333	1	776.2	0.9	917	1	744	0.9	1282	1	736.7	13	576392	2	576380	13	26	576405	-999999	576395	0	13	TrialsPROC	PL_002_92014.png	1	2	56	SessionSelectionList														nonlure	3	Place	0-Back	49	80	47	0	0	96	1	39	456281	1	13	72	454242	-1	454960	1	718	3	3	2039	52	456294	-53	0												8				56												
WM080112	899885_fnca	1	1	1	-1763872697	1	75.031	75.031	2.0.10.147	2.0.10.242	2.0.10.242	1.0.0.439	7	234	2	3	Verdana	1	80	0	0	0	WM Stimuli\	0.7	1053.28571428571	0.9	828.444444444444	0.9	1242.33333333333	1	776.2	0.9	917	1	744	0.9	1282	1	736.7	13	576392	2	576380	13	26	576405	-999999	576395	0	13	TrialsPROC	PL_004_92023.png	1	2	57	SessionSelectionList														lure	3	Place	0-Back	50	80	48	0	0	97	2	39	458853	2	14	72	456814	-1	457433	1	619	3	3	2039	53	458867	-54	0												9				57												
WM080112	899885_fnca	1	1	1	-1763872697	1	75.031	75.031	2.0.10.147	2.0.10.242	2.0.10.242	1.0.0.439	7	234	2	3	Verdana	1	80	0	0	0	WM Stimuli\	0.7	1053.28571428571	0.9	828.444444444444	0.9	1242.33333333333	1	776.2	0.9	917	1	744	0.9	1282	1	736.7	13	576392	2	576380	13	26	576405	-999999	576395	0	13	TrialsPROC	PL_006_92025.png	1	2	58	SessionSelectionList														lure	3	Place	0-Back	51	80	49	0	0	97	3	40	461426	1	13	72	459386	-1	460102	1	716	3	3	2040	53	461439	-54	0												10				58												
WM080112	899885_fnca	1	1	1	-1763872697	1	75.031	75.031	2.0.10.147	2.0.10.242	2.0.10.242	1.0.0.439	7	234	2	3	Verdana	1	80	0	0	0	WM Stimuli\	0.7	1053.28571428571	0.9	828.444444444444	0.9	1242.33333333333	1	776.2	0.9	917	1	744	0.9	1282	1	736.7	13	576392	2	576380	13	26	576405	-999999	576395	0	14	Cue2BackPROC	""	1	2	59	SessionSelectionList									6	461892	-7	0																																													59												
WM080112	899885_fnca	1	1	1	-1763872697	1	75.031	75.031	2.0.10.147	2.0.10.242	2.0.10.242	1.0.0.439	7	234	2	3	Verdana	1	80	0	0	0	WM Stimuli\	0.7	1053.28571428571	0.9	828.444444444444	0.9	1242.33333333333	1	776.2	0.9	917	1	744	0.9	1282	1	736.7	13	576392	2	576380	13	26	576405	-999999	576395	0	15	TrialsPROC	FC_010_F5.png	1	2	60	SessionSelectionList														nonlure	3	Face	2-Back	52	80	50	0	0	97	4	39	466490	2	14	65	464451	-1	466065	1	1614	3	3	2039	53	466504	-54	0													1			60												
WM080112	899885_fnca	1	1	1	-1763872697	1	75.031	75.031	2.0.10.147	2.0.10.242	2.0.10.242	1.0.0.439	7	234	2	3	Verdana	1	80	0	0	0	WM Stimuli\	0.7	1053.28571428571	0.9	828.444444444444	0.9	1242.33333333333	1	776.2	0.9	917	1	744	0.9	1282	1	736.7	13	576392	2	576380	13	26	576405	-999999	576395	0	15	TrialsPROC	FC_012_F6.png	1	2	61	SessionSelectionList														nonlure	3	Face	2-Back	53	80	51	0	0	97	5	39	469062	2	14	72	467023	-1	468015	1	992	3	3	2039	53	469076	-54	0													2			61												
WM080112	899885_fnca	1	1	1	-1763872697	1	75.031	75.031	2.0.10.147	2.0.10.242	2.0.10.242	1.0.0.439	7	234	2	3	Verdana	1	80	0	0	0	WM Stimuli\	0.7	1053.28571428571	0.9	828.444444444444	0.9	1242.33333333333	1	776.2	0.9	917	1	744	0.9	1282	1	736.7	13	576392	2	576380	13	26	576405	-999999	576395	0	15	TrialsPROC	FC_010_F5.png	1	2	62	SessionSelectionList														target	2	Face	2-Back	54	80	52	0	0	97	1	39	471635	1	13	73	469596	-1	470599	1	1003	2	2	2039	52	471648	-53	0													3			62												
WM080112	899885_fnca	1	1	1	-1763872697	1	75.031	75.031	2.0.10.147	2.0.10.242	2.0.10.242	1.0.0.439	7	234	2	3	Verdana	1	80	0	0	0	WM Stimuli\	0.7	1053.28571428571	0.9	828.444444444444	0.9	1242.33333333333	1	776.2	0.9	917	1	744	0.9	1282	1	736.7	13	576392	2	576380	13	26	576405	-999999	576395	0	15	TrialsPROC	FC_008_F4.png	1	2	63	SessionSelectionList														nonlure	3	Face	2-Back	55	80	53	0	0	97	1	39	474207	1	13	72	472168	-1	473151	1	983	3	3	2039	52	474220	-53	0													4			63												
WM080112	899885_fnca	1	1	1	-1763872697	1	75.031	75.031	2.0.10.147	2.0.10.242	2.0.10.242	1.0.0.439	7	234	2	3	Verdana	1	80	0	0	0	WM Stimuli\	0.7	1053.28571428571	0.9	828.444444444444	0.9	1242.33333333333	1	776.2	0.9	917	1	744	0.9	1282	1	736.7	13	576392	2	576380	13	26	576405	-999999	576395	0	15	TrialsPROC	FC_012_F6.png	1	2	64	SessionSelectionList														lure	3	Face	2-Back	56	80	54	0	0	97	2	39	476779	2	14	72	474740	-1	476310	1	1570	3	3	2039	53	476793	-54	0													5			64												
WM080112	899885_fnca	1	1	1	-1763872697	1	75.031	75.031	2.0.10.147	2.0.10.242	2.0.10.242	1.0.0.439	7	234	2	3	Verdana	1	80	0	0	0	WM Stimuli\	0.7	1053.28571428571	0.9	828.444444444444	0.9	1242.33333333333	1	776.2	0.9	917	1	744	0.9	1282	1	736.7	13	576392	2	576380	13	26	576405	-999999	576395	0	15	TrialsPROC	FC_008_F4.png	1	2	65	SessionSelectionList														target	2	Face	2-Back	57	80	55	0	0	97	1	40	479352	1	13	72	477312	-1	478611	1	1299	2	2	2040	53	479365	-54	0													6			65												
WM080112	899885_fnca	1	1	1	-1763872697	1	75.031	75.031	2.0.10.147	2.0.10.242	2.0.10.242	1.0.0.439	7	234	2	3	Verdana	1	80	0	0	0	WM Stimuli\	0.7	1053.28571428571	0.9	828.444444444444	0.9	1242.33333333333	1	776.2	0.9	917	1	744	0.9	1282	1	736.7	13	576392	2	576380	13	26	576405	-999999	576395	0	15	TrialsPROC	FC_007_M4.png	1	2	66	SessionSelectionList														nonlure	3	Face	2-Back	58	80	55	0	1	97	1	39	481924	1	13	73	479885	-1	0	0	0	""	3	2039	52	481937	-53	0													7			66												
WM080112	899885_fnca	1	1	1	-1763872697	1	75.031	75.031	2.0.10.147	2.0.10.242	2.0.10.242	1.0.0.439	7	234	2	3	Verdana	1	80	0	0	0	WM Stimuli\	0.7	1053.28571428571	0.9	828.444444444444	0.9	1242.33333333333	1	776.2	0.9	917	1	744	0.9	1282	1	736.7	13	576392	2	576380	13	26	576405	-999999	576395	0	15	TrialsPROC	FC_007_M4.png	1	2	67	SessionSelectionList														lure	3	Face	2-Back	59	80	56	0	0	97	1	39	484496	2	14	72	482457	-1	483691	1	1234	3	3	2039	53	484510	-54	0													8			67												
WM080112	899885_fnca	1	1	1	-1763872697	1	75.031	75.031	2.0.10.147	2.0.10.242	2.0.10.242	1.0.0.439	7	234	2	3	Verdana	1	80	0	0	0	WM Stimuli\	0.7	1053.28571428571	0.9	828.444444444444	0.9	1242.33333333333	1	776.2	0.9	917	1	744	0.9	1282	1	736.7	13	576392	2	576380	13	26	576405	-999999	576395	0	15	TrialsPROC	FC_009_M5.png	1	2	68	SessionSelectionList														nonlure	3	Face	2-Back	60	80	57	0	0	97	2	39	487068	2	14	72	485029	-1	486520	1	1491	3	3	2039	53	487082	-54	0													9			68												
WM080112	899885_fnca	1	1	1	-1763872697	1	75.031	75.031	2.0.10.147	2.0.10.242	2.0.10.242	1.0.0.439	7	234	2	3	Verdana	1	80	0	0	0	WM Stimuli\	0.7	1053.28571428571	0.9	828.444444444444	0.9	1242.33333333333	1	776.2	0.9	917	1	744	0.9	1282	1	736.7	13	576392	2	576380	13	26	576405	-999999	576395	0	15	TrialsPROC	FC_011_M6.png	1	2	69	SessionSelectionList														nonlure	3	Face	2-Back	61	80	58	0	0	97	3	39	489641	1	13	73	487602	-1	488597	1	995	3	3	2039	52	489654	-53	0													10			69												
WM080112	899885_fnca	1	1	1	-1763872697	1	75.031	75.031	2.0.10.147	2.0.10.242	2.0.10.242	1.0.0.439	7	234	2	3	Verdana	1	80	0	0	0	WM Stimuli\	0.7	1053.28571428571	0.9	828.444444444444	0.9	1242.33333333333	1	776.2	0.9	917	1	744	0.9	1282	1	736.7	13	576392	2	576380	13	26	576405	-999999	576395	0	16	Fix15secPROC	""	1	2	70	SessionSelectionList																																															5	490107	-6	0							70												
WM080112	899885_fnca	1	1	1	-1763872697	1	75.031	75.031	2.0.10.147	2.0.10.242	2.0.10.242	1.0.0.439	7	234	2	3	Verdana	1	80	0	0	0	WM Stimuli\	0.7	1053.28571428571	0.9	828.444444444444	0.9	1242.33333333333	1	776.2	0.9	917	1	744	0.9	1282	1	736.7	13	576392	2	576380	13	26	576405	-999999	576395	0	17	Cue0BackPROC	TO_007_TOOL7_BA.png	1	2	71	SessionSelectionList																																										12	505114	-13	0												71												
WM080112	899885_fnca	1	1	1	-1763872697	1	75.031	75.031	2.0.10.147	2.0.10.242	2.0.10.242	1.0.0.439	7	234	2	3	Verdana	1	80	0	0	0	WM Stimuli\	0.7	1053.28571428571	0.9	828.444444444444	0.9	1242.33333333333	1	776.2	0.9	917	1	744	0.9	1282	1	736.7	13	576392	2	576380	13	26	576405	-999999	576395	0	18	TrialsPROC	TO_010_TOOL10_BA.png	1	2	72	SessionSelectionList														nonlure	3	Tools	0-Back	62	80	59	0	0	97	4	39	509699	2	14	58	507660	-1	508952	1	1292	3	3	2039	53	509713	-54	0														1		72												
WM080112	899885_fnca	1	1	1	-1763872697	1	75.031	75.031	2.0.10.147	2.0.10.242	2.0.10.242	1.0.0.439	7	234	2	3	Verdana	1	80	0	0	0	WM Stimuli\	0.7	1053.28571428571	0.9	828.444444444444	0.9	1242.33333333333	1	776.2	0.9	917	1	744	0.9	1282	1	736.7	13	576392	2	576380	13	26	576405	-999999	576395	0	18	TrialsPROC	TO_009_TOOL9_BA.png	1	2	73	SessionSelectionList														nonlure	3	Tools	0-Back	63	80	60	0	0	97	5	39	512258	2	14	59	510219	-1	510932	1	713	3	3	2039	53	512272	-54	0														2		73												
WM080112	899885_fnca	1	1	1	-1763872697	1	75.031	75.031	2.0.10.147	2.0.10.242	2.0.10.242	1.0.0.439	7	234	2	3	Verdana	1	80	0	0	0	WM Stimuli\	0.7	1053.28571428571	0.9	828.444444444444	0.9	1242.33333333333	1	776.2	0.9	917	1	744	0.9	1282	1	736.7	13	576392	2	576380	13	26	576405	-999999	576395	0	18	TrialsPROC	TO_009_TOOL9_BA.png	1	2	74	SessionSelectionList														lure	3	Tools	0-Back	64	80	61	0	0	97	6	39	514817	1	13	59	512778	-1	513447	1	669	3	3	2039	52	514830	-53	0														3		74												
WM080112	899885_fnca	1	1	1	-1763872697	1	75.031	75.031	2.0.10.147	2.0.10.242	2.0.10.242	1.0.0.439	7	234	2	3	Verdana	1	80	0	0	0	WM Stimuli\	0.7	1053.28571428571	0.9	828.444444444444	0.9	1242.33333333333	1	776.2	0.9	917	1	744	0.9	1282	1	736.7	13	576392	2	576380	13	26	576405	-999999	576395	0	18	TrialsPROC	TO_008_TOOL8_BA.png	1	2	75	SessionSelectionList														nonlure	3	Tools	0-Back	65	80	62	0	0	97	7	39	517376	1	13	59	515337	-1	516060	1	723	3	3	2039	52	517389	-53	0														4		75												
WM080112	899885_fnca	1	1	1	-1763872697	1	75.031	75.031	2.0.10.147	2.0.10.242	2.0.10.242	1.0.0.439	7	234	2	3	Verdana	1	80	0	0	0	WM Stimuli\	0.7	1053.28571428571	0.9	828.444444444444	0.9	1242.33333333333	1	776.2	0.9	917	1	744	0.9	1282	1	736.7	13	576392	2	576380	13	26	576405	-999999	576395	0	18	TrialsPROC	TO_011_TOOL11_BA.png	1	2	76	SessionSelectionList														nonlure	3	Tools	0-Back	66	80	63	0	0	97	8	39	519935	1	13	59	517896	-1	518513	1	617	3	3	2039	52	519948	-53	0														5		76												
WM080112	899885_fnca	1	1	1	-1763872697	1	75.031	75.031	2.0.10.147	2.0.10.242	2.0.10.242	1.0.0.439	7	234	2	3	Verdana	1	80	0	0	0	WM Stimuli\	0.7	1053.28571428571	0.9	828.444444444444	0.9	1242.33333333333	1	776.2	0.9	917	1	744	0.9	1282	1	736.7	13	576392	2	576380	13	26	576405	-999999	576395	0	18	TrialsPROC	TO_012_TOOL12_BA.png	1	2	77	SessionSelectionList														nonlure	3	Tools	0-Back	67	80	64	0	0	97	9	39	522494	1	13	59	520455	-1	521023	1	568	3	3	2039	52	522507	-53	0														6		77												
WM080112	899885_fnca	1	1	1	-1763872697	1	75.031	75.031	2.0.10.147	2.0.10.242	2.0.10.242	1.0.0.439	7	234	2	3	Verdana	1	80	0	0	0	WM Stimuli\	0.7	1053.28571428571	0.9	828.444444444444	0.9	1242.33333333333	1	776.2	0.9	917	1	744	0.9	1282	1	736.7	13	576392	2	576380	13	26	576405	-999999	576395	0	18	TrialsPROC	TO_010_TOOL10_BA.png	1	2	78	SessionSelectionList														lure	3	Tools	0-Back	68	80	65	0	0	97	10	39	525053	1	13	59	523014	-1	523681	1	667	3	3	2039	52	525066	-53	0														7		78												
WM080112	899885_fnca	1	1	1	-1763872697	1	75.031	75.031	2.0.10.147	2.0.10.242	2.0.10.242	1.0.0.439	7	234	2	3	Verdana	1	80	0	0	0	WM Stimuli\	0.7	1053.28571428571	0.9	828.444444444444	0.9	1242.33333333333	1	776.2	0.9	917	1	744	0.9	1282	1	736.7	13	576392	2	576380	13	26	576405	-999999	576395	0	18	TrialsPROC	TO_007_TOOL7_BA.png	1	2	79	SessionSelectionList														target	2	Tools	0-Back	69	80	66	0	0	97	1	39	527612	1	13	59	525573	-1	526362	1	789	2	2	2039	52	527625	-53	0														8		79												
WM080112	899885_fnca	1	1	1	-1763872697	1	75.031	75.031	2.0.10.147	2.0.10.242	2.0.10.242	1.0.0.439	7	234	2	3	Verdana	1	80	0	0	0	WM Stimuli\	0.7	1053.28571428571	0.9	828.444444444444	0.9	1242.33333333333	1	776.2	0.9	917	1	744	0.9	1282	1	736.7	13	576392	2	576380	13	26	576405	-999999	576395	0	18	TrialsPROC	TO_008_TOOL8_BA.png	1	2	80	SessionSelectionList														lure	3	Tools	0-Back	70	80	67	0	0	97	1	39	530171	1	13	59	528132	-1	528720	1	588	3	3	2039	52	530184	-53	0														9		80												
WM080112	899885_fnca	1	1	1	-1763872697	1	75.031	75.031	2.0.10.147	2.0.10.242	2.0.10.242	1.0.0.439	7	234	2	3	Verdana	1	80	0	0	0	WM Stimuli\	0.7	1053.28571428571	0.9	828.444444444444	0.9	1242.33333333333	1	776.2	0.9	917	1	744	0.9	1282	1	736.7	13	576392	2	576380	13	26	576405	-999999	576395	0	18	TrialsPROC	TO_007_TOOL7_BA.png	1	2	81	SessionSelectionList														target	2	Tools	0-Back	71	80	68	0	0	98	1	39	532730	1	13	59	530691	-1	531432	1	741	2	2	2039	52	532743	-53	0														10		81												
WM080112	899885_fnca	1	1	1	-1763872697	1	75.031	75.031	2.0.10.147	2.0.10.242	2.0.10.242	1.0.0.439	7	234	2	3	Verdana	1	80	0	0	0	WM Stimuli\	0.7	1053.28571428571	0.9	828.444444444444	0.9	1242.33333333333	1	776.2	0.9	917	1	744	0.9	1282	1	736.7	13	576392	2	576380	13	26	576405	-999999	576395	0	19	Cue2BackPROC	""	1	2	82	SessionSelectionList									5	533196	-6	0																																													82												
WM080112	899885_fnca	1	1	1	-1763872697	1	75.031	75.031	2.0.10.147	2.0.10.242	2.0.10.242	1.0.0.439	7	234	2	3	Verdana	1	80	0	0	0	WM Stimuli\	0.7	1053.28571428571	0.9	828.444444444444	0.9	1242.33333333333	1	776.2	0.9	917	1	744	0.9	1282	1	736.7	13	576392	2	576380	13	26	576405	-999999	576395	0	20	TrialsPROC	PL_007_92026.png	1	2	83	SessionSelectionList														nonlure	3	Place	2-Back	72	80	69	0	0	98	1	39	537794	2	14	64	535755	-1	536291	1	536	3	3	2039	53	537808	-54	0															1	83												
WM080112	899885_fnca	1	1	1	-1763872697	1	75.031	75.031	2.0.10.147	2.0.10.242	2.0.10.242	1.0.0.439	7	234	2	3	Verdana	1	80	0	0	0	WM Stimuli\	0.7	1053.28571428571	0.9	828.444444444444	0.9	1242.33333333333	1	776.2	0.9	917	1	744	0.9	1282	1	736.7	13	576392	2	576380	13	26	576405	-999999	576395	0	20	TrialsPROC	PL_007_92026.png	1	2	84	SessionSelectionList														lure	3	Place	2-Back	73	80	70	0	0	98	2	40	540367	1	13	72	538327	-1	539442	1	1115	3	3	2040	53	540380	-54	0															2	84												
WM080112	899885_fnca	1	1	1	-1763872697	1	75.031	75.031	2.0.10.147	2.0.10.242	2.0.10.242	1.0.0.439	7	234	2	3	Verdana	1	80	0	0	0	WM Stimuli\	0.7	1053.28571428571	0.9	828.444444444444	0.9	1242.33333333333	1	776.2	0.9	917	1	744	0.9	1282	1	736.7	13	576392	2	576380	13	26	576405	-999999	576395	0	20	TrialsPROC	PL_010_92038.png	1	2	85	SessionSelectionList														nonlure	3	Place	2-Back	74	80	71	0	0	98	3	39	542939	1	13	73	540900	-1	542135	1	1235	3	3	2039	52	542952	-53	0															3	85												
WM080112	899885_fnca	1	1	1	-1763872697	1	75.031	75.031	2.0.10.147	2.0.10.242	2.0.10.242	1.0.0.439	7	234	2	3	Verdana	1	80	0	0	0	WM Stimuli\	0.7	1053.28571428571	0.9	828.444444444444	0.9	1242.33333333333	1	776.2	0.9	917	1	744	0.9	1282	1	736.7	13	576392	2	576380	13	26	576405	-999999	576395	0	20	TrialsPROC	PL_009_92037.png	1	2	86	SessionSelectionList														nonlure	3	Place	2-Back	75	80	72	0	0	98	4	39	545498	1	13	59	543459	-1	544197	1	738	3	3	2039	52	545511	-53	0															4	86												
WM080112	899885_fnca	1	1	1	-1763872697	1	75.031	75.031	2.0.10.147	2.0.10.242	2.0.10.242	1.0.0.439	7	234	2	3	Verdana	1	80	0	0	0	WM Stimuli\	0.7	1053.28571428571	0.9	828.444444444444	0.9	1242.33333333333	1	776.2	0.9	917	1	744	0.9	1282	1	736.7	13	576392	2	576380	13	26	576405	-999999	576395	0	20	TrialsPROC	PL_010_92038.png	1	2	87	SessionSelectionList														target	2	Place	2-Back	76	80	73	0	0	98	1	39	548070	2	14	72	546031	-1	546648	1	617	2	2	2039	53	548084	-54	0															5	87												
WM080112	899885_fnca	1	1	1	-1763872697	1	75.031	75.031	2.0.10.147	2.0.10.242	2.0.10.242	1.0.0.439	7	234	2	3	Verdana	1	80	0	0	0	WM Stimuli\	0.7	1053.28571428571	0.9	828.444444444444	0.9	1242.33333333333	1	776.2	0.9	917	1	744	0.9	1282	1	736.7	13	576392	2	576380	13	26	576405	-999999	576395	0	20	TrialsPROC	PL_009_92037.png	1	2	88	SessionSelectionList														target	2	Place	2-Back	77	80	74	0	0	98	2	39	550629	1	14	59	548590	-1	550022	1	1432	2	2	2039	53	550643	-54	0															6	88												
WM080112	899885_fnca	1	1	1	-1763872697	1	75.031	75.031	2.0.10.147	2.0.10.242	2.0.10.242	1.0.0.439	7	234	2	3	Verdana	1	80	0	0	0	WM Stimuli\	0.7	1053.28571428571	0.9	828.444444444444	0.9	1242.33333333333	1	776.2	0.9	917	1	744	0.9	1282	1	736.7	13	576392	2	576380	13	26	576405	-999999	576395	0	20	TrialsPROC	PL_008_92033.png	1	2	89	SessionSelectionList														nonlure	3	Place	2-Back	78	80	75	0	0	98	1	39	553201	2	14	72	551162	-1	552094	1	932	3	3	2039	53	553215	-54	0															7	89												
WM080112	899885_fnca	1	1	1	-1763872697	1	75.031	75.031	2.0.10.147	2.0.10.242	2.0.10.242	1.0.0.439	7	234	2	3	Verdana	1	80	0	0	0	WM Stimuli\	0.7	1053.28571428571	0.9	828.444444444444	0.9	1242.33333333333	1	776.2	0.9	917	1	744	0.9	1282	1	736.7	13	576392	2	576380	13	26	576405	-999999	576395	0	20	TrialsPROC	PL_012_92047.png	1	2	90	SessionSelectionList														nonlure	3	Place	2-Back	79	80	76	0	0	98	2	40	555774	1	13	72	553734	-1	554614	1	880	3	3	2040	53	555787	-54	0															8	90												
WM080112	899885_fnca	1	1	1	-1763872697	1	75.031	75.031	2.0.10.147	2.0.10.242	2.0.10.242	1.0.0.439	7	234	2	3	Verdana	1	80	0	0	0	WM Stimuli\	0.7	1053.28571428571	0.9	828.444444444444	0.9	1242.33333333333	1	776.2	0.9	917	1	744	0.9	1282	1	736.7	13	576392	2	576380	13	26	576405	-999999	576395	0	20	TrialsPROC	PL_012_92047.png	1	2	91	SessionSelectionList														lure	3	Place	2-Back	80	80	77	0	0	98	1	39	558346	1	13	73	556307	-1	557173	0	866	2	3	2039	52	558359	-53	0															9	91												
WM080112	899885_fnca	1	1	1	-1763872697	1	75.031	75.031	2.0.10.147	2.0.10.242	2.0.10.242	1.0.0.439	7	234	2	3	Verdana	1	80	0	0	0	WM Stimuli\	0.7	1053.28571428571	0.9	828.444444444444	0.9	1242.33333333333	1	776.2	0.9	917	1	744	0.9	1282	1	736.7	13	576392	2	576380	13	26	576405	-999999	576395	0	20	TrialsPROC	PL_011_92044.png	1	2	92	SessionSelectionList														nonlure	3	Place	2-Back	80	80	78	0	0	98	1	39	560918	2	14	72	558879	-1	559647	1	768	3	3	2039	53	560932	-54	0															10	92												
WM080112	899885_fnca	1	1	1	-1763872697	1	75.031	75.031	2.0.10.147	2.0.10.242	2.0.10.242	1.0.0.439	7	234	2	3	Verdana	1	80	0	0	0	WM Stimuli\	0.7	1053.28571428571	0.9	828.444444444444	0.9	1242.33333333333	1	776.2	0.9	917	1	744	0.9	1282	1	736.7	13	576392	2	576380	13	26	576405	-999999	576395	0	21	Fix15secPROC	""	1	2	93	SessionSelectionList																																															6	561385	-7	0							93												
